"success","timeout","failed_images","failed_audio","failed_video","trial_type","trial_index","time_elapsed","internal_node_id","subject_id","study_id","session_id","view_history","rt","stimulus","response","task","correct","answer","item","fiar_detect_rt","fiar_detect_correct","total_correct_fiar_detect","post_trial_gap","choices","spm_correct","spm_rt","mouse_click","stim_duration","block_duration","timing_post_trial","current_position","tol_num_moves_made","tol_target","tol_problem_id","tol_rt","key_press","possible_responses","tol_correct","preplanning","tol_rt_per_trial","tol_min_moves"
"true","false","[]","[]","[]","preload","0","5041","0.0-0.0","60ff3613da8baf747efb64d4","C3","batch3","","","","","","","","","","","","","","","","","","","","","","","","","","","","","",""
"true","","","","","fullscreen","1","15181","0.0-1.0-0.0","60ff3613da8baf747efb64d4","C3","batch3","","","","","","","","","","","","","","","","","","","","","","","","","","","","","",""
"true","","","","","fullscreen","2","19810","0.0-2.0-0.0","60ff3613da8baf747efb64d4","C3","batch3","","","","","","","","","","","","","","","","","","","","","","","","","","","","","",""
"","","","","","instructions","3","30645","0.0-2.0-1.0-0.0","60ff3613da8baf747efb64d4","C3","batch3","[{""page_index"":0,""viewing_time"":6903.5},{""page_index"":1,""viewing_time"":3929.0999999940395}]","10832.90000000596","","","","","","","","","","","","","","","","","","","","","","","","","","","",""
"","","","","","html-button-response","4","31553","0.0-2.0-1.0-1.0-0.0","60ff3613da8baf747efb64d4","C3","batch3","","905.8999999910593","<p class=block-text> Let's answer a few questions <br>","0","pattern_enter_quiz","","","","","","","","","","","","","","","","","","","","","","","","",""
"","","","","","html-button-response","5","33421","0.0-2.0-1.0-1.0-1.0","60ff3613da8baf747efb64d4","C3","batch3","","1864.9000000059605","<p class = block-text>True or False: You will have as much time as you want to make each choice. <br></p>","1","pattern_quiz","true","","","","","","","","","","","","","","","","","","","","","","","",""
"","","","","","html-button-response","6","35035","0.0-2.0-1.0-1.0-2.0","60ff3613da8baf747efb64d4","C3","batch3","","1612.9000000059605","<p class = block-text>Correct! You should make your choice <strong> as fast as you can</strong>.</p>","0","pattern_quiz_feedback","","","","","","","","","","","","","","","","","","","","","","","","",""
"","","","","","html-button-response","7","38393","0.0-2.0-1.0-1.0-3.0","60ff3613da8baf747efb64d4","C3","batch3","","3356","<p class = block-text>True or False: You will look for 4 pieces in black or white color connected in a row either horizontally, vertically or diagonally. <br></p>","0","pattern_quiz","true","","","","","","","","","","","","","","","","","","","","","","","",""
"","","","","","html-button-response","8","39097","0.0-2.0-1.0-1.0-4.0","60ff3613da8baf747efb64d4","C3","batch3","","702","<p class = block-text>Correct! </p>","0","pattern_quiz_feedback","","","","","","","","","","","","","","","","","","","","","","","","",""
"","","","","","html-button-response","9","40087","0.0-2.0-2.0","60ff3613da8baf747efb64d4","C3","batch3","","988.1000000089407","<p class=block-text> Now that you've understood the game, let's do a few practice trials before we start!<br> <br>","0","pattern_enter_practice","","","","","","","","","","","","","","","","","","","","","","","","",""
"","","","","","image-keyboard-response","10","42110","0.0-2.0-3.0-0.0","60ff3613da8baf747efb64d4","C3","batch3","","2002.7999999970198","stim/prac_yes_18_hor_w1.png","f","pattern_practice","true","f","","","","","","","","","","","","","","","","","","","","","","",""
"","","","","","html-keyboard-response","11","43119","0.0-2.0-3.0-1.0","60ff3613da8baf747efb64d4","C3","batch3","","null","<p style=""font-size:30px;color:green;"">Correct!</p>","null","pattern_feedback","","","","","","","","","","","","","","","","","","","","","","","","",""
"","","","","","image-keyboard-response","12","44076","0.0-2.0-3.0-0.1","60ff3613da8baf747efb64d4","C3","batch3","","955.5","stim/prac_no_18_1.png","j","pattern_practice","true","j","","","","","","","","","","","","","","","","","","","","","","",""
"","","","","","html-keyboard-response","13","45094","0.0-2.0-3.0-1.1","60ff3613da8baf747efb64d4","C3","batch3","","null","<p style=""font-size:30px;color:green;"">Correct!</p>","null","pattern_feedback","","","","","","","","","","","","","","","","","","","","","","","","",""
"","","","","","image-keyboard-response","14","45984","0.0-2.0-3.0-0.2","60ff3613da8baf747efb64d4","C3","batch3","","887.7000000029802","stim/prac_yes_20_dia_b1.png","j","pattern_practice","false","f","","","","","","","","","","","","","","","","","","","","","","",""
"","","","","","html-keyboard-response","15","46999","0.0-2.0-3.0-1.2","60ff3613da8baf747efb64d4","C3","batch3","","null","<p style=""font-size:30px;color:red;"">Wrong.</p>","null","pattern_feedback","","","","","","","","","","","","","","","","","","","","","","","","",""
"","","","","","image-keyboard-response","16","47987","0.0-2.0-3.0-0.3","60ff3613da8baf747efb64d4","C3","batch3","","985.2999999970198","stim/prac_no_16_1.png","j","pattern_practice","true","j","","","","","","","","","","","","","","","","","","","","","","",""
"","","","","","html-keyboard-response","17","48997","0.0-2.0-3.0-1.3","60ff3613da8baf747efb64d4","C3","batch3","","null","<p style=""font-size:30px;color:green;"">Correct!</p>","null","pattern_feedback","","","","","","","","","","","","","","","","","","","","","","","","",""
"","","","","","image-keyboard-response","18","49616","0.0-2.0-3.0-0.4","60ff3613da8baf747efb64d4","C3","batch3","","616.8999999910593","stim/prac_yes_16_ver_w1.png","f","pattern_practice","true","f","","","","","","","","","","","","","","","","","","","","","","",""
"","","","","","html-keyboard-response","19","50639","0.0-2.0-3.0-1.4","60ff3613da8baf747efb64d4","C3","batch3","","null","<p style=""font-size:30px;color:green;"">Correct!</p>","null","pattern_feedback","","","","","","","","","","","","","","","","","","","","","","","","",""
"","","","","","html-button-response","20","59750","0.0-2.0-4.0","60ff3613da8baf747efb64d4","C3","batch3","","9108.90000000596","<p class=block-text> Good job! You are done with practice trials!<br>
        You responded correctly on 80% of the trials.<br>
        Press the button below to start official trials. Now you won't see any feedback about your response</p>","0","pattern_enter_official_trials","","","","","","","","","","","","","","","","","","","","","","","","",""
"","","","","","html-keyboard-response","21","60559","0.0-2.0-5.0-0.0","60ff3613da8baf747efb64d4","C3","batch3","","null","<p class=block-text>Trial 1 out of 78</p>","null","pattern_show_trial_num","","","","","","","","","","","","","","","","","","","","","","","","",""
"","","","","","image-keyboard-response","22","61479","0.0-2.0-5.0-1.0","60ff3613da8baf747efb64d4","C3","batch3","","916.5","stim/no_22_1_b.png","j","pattern_response","true","j","pattern_07","916.5","true","1","","","","","","","","","","","","","","","","","","",""
"","","","","","html-keyboard-response","23","62788","0.0-2.0-5.0-0.1","60ff3613da8baf747efb64d4","C3","batch3","","null","<p class=block-text>Trial 2 out of 78</p>","null","pattern_show_trial_num","","","","","","","","","","","","","","","","","","","","","","","","",""
"","","","","","image-keyboard-response","24","66016","0.0-2.0-5.0-1.1","60ff3613da8baf747efb64d4","C3","batch3","","3223.7000000029802","stim/no_67_1.png","j","pattern_response","true","j","pattern_39","3223.7000000029802","true","2","","","","","","","","","","","","","","","","","","",""
"","","","","","html-keyboard-response","25","67323","0.0-2.0-5.0-0.2","60ff3613da8baf747efb64d4","C3","batch3","","null","<p class=block-text>Trial 3 out of 78</p>","null","pattern_show_trial_num","","","","","","","","","","","","","","","","","","","","","","","","",""
"","","","","","image-keyboard-response","26","69284","0.0-2.0-5.0-1.2","60ff3613da8baf747efb64d4","C3","batch3","","1958","stim/yes_33_dia_w1_w.png","j","pattern_response","false","f","pattern_56","1958","false","2","","","","","","","","","","","","","","","","","","",""
"","","","","","html-keyboard-response","27","70598","0.0-2.0-5.0-0.3","60ff3613da8baf747efb64d4","C3","batch3","","null","<p class=block-text>Trial 4 out of 78</p>","null","pattern_show_trial_num","","","","","","","","","","","","","","","","","","","","","","","","",""
"","","","","","image-keyboard-response","28","71205","0.0-2.0-5.0-1.3","60ff3613da8baf747efb64d4","C3","batch3","","602.0999999940395","stim/yes_15_dia_b1u_b.png","f","pattern_response","true","f","pattern_44","602.0999999940395","true","3","","","","","","","","","","","","","","","","","","",""
"","","","","","html-keyboard-response","29","72518","0.0-2.0-5.0-0.4","60ff3613da8baf747efb64d4","C3","batch3","","null","<p class=block-text>Trial 5 out of 78</p>","null","pattern_show_trial_num","","","","","","","","","","","","","","","","","","","","","","","","",""
"","","","","","image-keyboard-response","30","73824","0.0-2.0-5.0-1.4","60ff3613da8baf747efb64d4","C3","batch3","","1302.6000000089407","stim/no_15_1_w.png","j","pattern_response","true","j","pattern_03","1302.6000000089407","true","4","","","","","","","","","","","","","","","","","","",""
"","","","","","html-keyboard-response","31","75143","0.0-2.0-5.0-0.5","60ff3613da8baf747efb64d4","C3","batch3","","null","<p class=block-text>Trial 6 out of 78</p>","null","pattern_show_trial_num","","","","","","","","","","","","","","","","","","","","","","","","",""
"","","","","","image-keyboard-response","32","78002","0.0-2.0-5.0-1.5","60ff3613da8baf747efb64d4","C3","batch3","","2856.1000000089407","stim/no_43_2_b.png","j","pattern_response","true","j","pattern_23","2856.1000000089407","true","5","","","","","","","","","","","","","","","","","","",""
"","","","","","html-keyboard-response","33","79317","0.0-2.0-5.0-0.6","60ff3613da8baf747efb64d4","C3","batch3","","null","<p class=block-text>Trial 7 out of 78</p>","null","pattern_show_trial_num","","","","","","","","","","","","","","","","","","","","","","","","",""
"","","","","","image-keyboard-response","34","80506","0.0-2.0-5.0-1.6","60ff3613da8baf747efb64d4","C3","batch3","","1185","stim/yes_30_ver_b1_b.png","f","pattern_response","true","f","pattern_54","1185","true","6","","","","","","","","","","","","","","","","","","",""
"","","","","","html-keyboard-response","35","81819","0.0-2.0-5.0-0.7","60ff3613da8baf747efb64d4","C3","batch3","","null","<p class=block-text>Trial 8 out of 78</p>","null","pattern_show_trial_num","","","","","","","","","","","","","","","","","","","","","","","","",""
"","","","","","image-keyboard-response","36","82763","0.0-2.0-5.0-1.7","60ff3613da8baf747efb64d4","C3","batch3","","941.5","stim/yes_51_dia_b1.png","f","pattern_response","true","f","pattern_72","941.5","true","7","","","","","","","","","","","","","","","","","","",""
"","","","","","html-keyboard-response","37","84077","0.0-2.0-5.0-0.8","60ff3613da8baf747efb64d4","C3","batch3","","null","<p class=block-text>Trial 9 out of 78</p>","null","pattern_show_trial_num","","","","","","","","","","","","","","","","","","","","","","","","",""
"","","","","","image-keyboard-response","38","87108","0.0-2.0-5.0-1.8","60ff3613da8baf747efb64d4","C3","batch3","","3027.2999999970198","stim/yes_42_dia_w1_w.png","j","pattern_response","false","f","pattern_64","3027.2999999970198","false","7","","","","","","","","","","","","","","","","","","",""
"","","","","","html-keyboard-response","39","88421","0.0-2.0-5.0-0.9","60ff3613da8baf747efb64d4","C3","batch3","","null","<p class=block-text>Trial 10 out of 78</p>","null","pattern_show_trial_num","","","","","","","","","","","","","","","","","","","","","","","","",""
"","","","","","image-keyboard-response","40","92433","0.0-2.0-5.0-1.9","60ff3613da8baf747efb64d4","C3","batch3","","4008","stim/no_53_1_b.png","j","pattern_response","true","j","pattern_33","4008","true","8","","","","","","","","","","","","","","","","","","",""
"","","","","","html-keyboard-response","41","93749","0.0-2.0-5.0-0.10","60ff3613da8baf747efb64d4","C3","batch3","","null","<p class=block-text>Trial 11 out of 78</p>","null","pattern_show_trial_num","","","","","","","","","","","","","","","","","","","","","","","","",""
"","","","","","image-keyboard-response","42","95593","0.0-2.0-5.0-1.10","60ff3613da8baf747efb64d4","C3","batch3","","1840.8999999910593","stim/no_25_1_b.png","j","pattern_response","true","j","pattern_09","1840.8999999910593","true","9","","","","","","","","","","","","","","","","","","",""
"","","","","","html-keyboard-response","43","96907","0.0-2.0-5.0-0.11","60ff3613da8baf747efb64d4","C3","batch3","","null","<p class=block-text>Trial 12 out of 78</p>","null","pattern_show_trial_num","","","","","","","","","","","","","","","","","","","","","","","","",""
"","","","","","image-keyboard-response","44","97531","0.0-2.0-5.0-1.11","60ff3613da8baf747efb64d4","C3","batch3","","620","stim/yes_29_hor_b1_b.png","f","pattern_response","true","f","pattern_52","620","true","10","","","","","","","","","","","","","","","","","","",""
"","","","","","html-keyboard-response","45","98845","0.0-2.0-5.0-0.12","60ff3613da8baf747efb64d4","C3","batch3","","null","<p class=block-text>Trial 13 out of 78</p>","null","pattern_show_trial_num","","","","","","","","","","","","","","","","","","","","","","","","",""
"","","","","","image-keyboard-response","46","99568","0.0-2.0-5.0-1.12","60ff3613da8baf747efb64d4","C3","batch3","","719.8999999910593","stim/no_36_1_b.png","j","pattern_response","true","j","pattern_17","719.8999999910593","true","11","","","","","","","","","","","","","","","","","","",""
"","","","","","html-keyboard-response","47","100887","0.0-2.0-5.0-0.13","60ff3613da8baf747efb64d4","C3","batch3","","null","<p class=block-text>Trial 14 out of 78</p>","null","pattern_show_trial_num","","","","","","","","","","","","","","","","","","","","","","","","",""
"","","","","","image-keyboard-response","48","102321","0.0-2.0-5.0-1.13","60ff3613da8baf747efb64d4","C3","batch3","","1431.7000000029802","stim/yes_26_dia_w2_w.png","f","pattern_response","true","f","pattern_50","1431.7000000029802","true","12","","","","","","","","","","","","","","","","","","",""
"","","","","","html-keyboard-response","49","103636","0.0-2.0-5.0-0.14","60ff3613da8baf747efb64d4","C3","batch3","","null","<p class=block-text>Trial 15 out of 78</p>","null","pattern_show_trial_num","","","","","","","","","","","","","","","","","","","","","","","","",""
"","","","","","image-keyboard-response","50","105871","0.0-2.0-5.0-1.14","60ff3613da8baf747efb64d4","C3","batch3","","2232.0999999940395","stim/no_33_1_b.png","j","pattern_response","true","j","pattern_15","2232.0999999940395","true","13","","","","","","","","","","","","","","","","","","",""
"","","","","","html-keyboard-response","51","107186","0.0-2.0-5.0-0.15","60ff3613da8baf747efb64d4","C3","batch3","","null","<p class=block-text>Trial 16 out of 78</p>","null","pattern_show_trial_num","","","","","","","","","","","","","","","","","","","","","","","","",""
"","","","","","image-keyboard-response","52","110521","0.0-2.0-5.0-1.15","60ff3613da8baf747efb64d4","C3","batch3","","3331.2000000029802","stim/no_47_1_b.png","j","pattern_response","true","j","pattern_27","3331.2000000029802","true","14","","","","","","","","","","","","","","","","","","",""
"","","","","","html-keyboard-response","53","111834","0.0-2.0-5.0-0.16","60ff3613da8baf747efb64d4","C3","batch3","","null","<p class=block-text>Trial 17 out of 78</p>","null","pattern_show_trial_num","","","","","","","","","","","","","","","","","","","","","","","","",""
"","","","","","image-keyboard-response","54","115855","0.0-2.0-5.0-1.16","60ff3613da8baf747efb64d4","C3","batch3","","4017.5","stim/no_58_1_w.png","j","pattern_response","true","j","pattern_35","4017.5","true","15","","","","","","","","","","","","","","","","","","",""
"","","","","","html-keyboard-response","55","117173","0.0-2.0-5.0-0.17","60ff3613da8baf747efb64d4","C3","batch3","","null","<p class=block-text>Trial 18 out of 78</p>","null","pattern_show_trial_num","","","","","","","","","","","","","","","","","","","","","","","","",""
"","","","","","image-keyboard-response","56","120662","0.0-2.0-5.0-1.17","60ff3613da8baf747efb64d4","C3","batch3","","3486.300000011921","stim/no_37_2_w.png","j","pattern_response","true","j","pattern_19","3486.300000011921","true","16","","","","","","","","","","","","","","","","","","",""
"","","","","","html-keyboard-response","57","121978","0.0-2.0-5.0-0.18","60ff3613da8baf747efb64d4","C3","batch3","","null","<p class=block-text>Trial 19 out of 78</p>","null","pattern_show_trial_num","","","","","","","","","","","","","","","","","","","","","","","","",""
"","","","","","image-keyboard-response","58","122786","0.0-2.0-5.0-1.18","60ff3613da8baf747efb64d4","C3","batch3","","804.5999999940395","stim/yes_46_ver_b1_b.png","f","pattern_response","true","f","pattern_68","804.5999999940395","true","17","","","","","","","","","","","","","","","","","","",""
"","","","","","html-keyboard-response","59","124098","0.0-2.0-5.0-0.19","60ff3613da8baf747efb64d4","C3","batch3","","null","<p class=block-text>Trial 20 out of 78</p>","null","pattern_show_trial_num","","","","","","","","","","","","","","","","","","","","","","","","",""
"","","","","","image-keyboard-response","60","125519","0.0-2.0-5.0-1.19","60ff3613da8baf747efb64d4","C3","batch3","","1419.699999988079","stim/yes_49_hor_w1_b.png","f","pattern_response","true","f","pattern_70","1419.699999988079","true","18","","","","","","","","","","","","","","","","","","",""
"","","","","","html-keyboard-response","61","126833","0.0-2.0-5.0-0.20","60ff3613da8baf747efb64d4","C3","batch3","","null","<p class=block-text>Trial 21 out of 78</p>","null","pattern_show_trial_num","","","","","","","","","","","","","","","","","","","","","","","","",""
"","","","","","image-keyboard-response","62","130015","0.0-2.0-5.0-1.20","60ff3613da8baf747efb64d4","C3","batch3","","3178.9000000059605","stim/no_39_1_w.png","j","pattern_response","true","j","pattern_21","3178.9000000059605","true","19","","","","","","","","","","","","","","","","","","",""
"","","","","","html-keyboard-response","63","131333","0.0-2.0-5.0-0.21","60ff3613da8baf747efb64d4","C3","batch3","","null","<p class=block-text>Trial 22 out of 78</p>","null","pattern_show_trial_num","","","","","","","","","","","","","","","","","","","","","","","","",""
"","","","","","image-keyboard-response","64","132213","0.0-2.0-5.0-1.21","60ff3613da8baf747efb64d4","C3","batch3","","876.0999999940395","stim/yes_53_ver_b1_b.png","f","pattern_response","true","f","pattern_74","876.0999999940395","true","20","","","","","","","","","","","","","","","","","","",""
"","","","","","html-keyboard-response","65","133529","0.0-2.0-5.0-0.22","60ff3613da8baf747efb64d4","C3","batch3","","null","<p class=block-text>Trial 23 out of 78</p>","null","pattern_show_trial_num","","","","","","","","","","","","","","","","","","","","","","","","",""
"","","","","","image-keyboard-response","66","134169","0.0-2.0-5.0-1.22","60ff3613da8baf747efb64d4","C3","batch3","","637.7000000029802","stim/yes_70_ver_b1.png","f","pattern_response","true","f","pattern_80","637.7000000029802","true","21","","","","","","","","","","","","","","","","","","",""
"","","","","","html-keyboard-response","67","135481","0.0-2.0-5.0-0.23","60ff3613da8baf747efb64d4","C3","batch3","","null","<p class=block-text>Trial 24 out of 78</p>","null","pattern_show_trial_num","","","","","","","","","","","","","","","","","","","","","","","","",""
"","","","","","image-keyboard-response","68","139176","0.0-2.0-5.0-1.23","60ff3613da8baf747efb64d4","C3","batch3","","3693","stim/no_51_1.png","j","pattern_response","true","j","pattern_31","3693","true","22","","","","","","","","","","","","","","","","","","",""
"","","","","","html-keyboard-response","69","140490","0.0-2.0-5.0-0.24","60ff3613da8baf747efb64d4","C3","batch3","","null","<p class=block-text>Trial 25 out of 78</p>","null","pattern_show_trial_num","","","","","","","","","","","","","","","","","","","","","","","","",""
"","","","","","image-keyboard-response","70","143738","0.0-2.0-5.0-1.24","60ff3613da8baf747efb64d4","C3","batch3","","3244","stim/no_49_2_b.png","j","pattern_response","true","j","pattern_29","3244","true","23","","","","","","","","","","","","","","","","","","",""
"","","","","","html-keyboard-response","71","145053","0.0-2.0-5.0-0.25","60ff3613da8baf747efb64d4","C3","batch3","","null","<p class=block-text>Trial 26 out of 78</p>","null","pattern_show_trial_num","","","","","","","","","","","","","","","","","","","","","","","","",""
"","","","","","image-keyboard-response","72","147789","0.0-2.0-5.0-1.25","60ff3613da8baf747efb64d4","C3","batch3","","2732.7999999970198","stim/no_45_1_w.png","j","pattern_response","true","j","pattern_25","2732.7999999970198","true","24","","","","","","","","","","","","","","","","","","",""
"","","","","","html-keyboard-response","73","149107","0.0-2.0-5.0-0.26","60ff3613da8baf747efb64d4","C3","batch3","","null","<p class=block-text>Trial 27 out of 78</p>","null","pattern_show_trial_num","","","","","","","","","","","","","","","","","","","","","","","","",""
"","","","","","image-keyboard-response","74","153299","0.0-2.0-5.0-1.26","60ff3613da8baf747efb64d4","C3","batch3","","4189.100000008941","stim/yes_58_dia_w1_w.png","j","pattern_response","false","f","pattern_76","4189.100000008941","false","24","","","","","","","","","","","","","","","","","","",""
"","","","","","html-keyboard-response","75","154618","0.0-2.0-5.0-0.27","60ff3613da8baf747efb64d4","C3","batch3","","null","<p class=block-text>Trial 28 out of 78</p>","null","pattern_show_trial_num","","","","","","","","","","","","","","","","","","","","","","","","",""
"","","","","","image-keyboard-response","76","155451","0.0-2.0-5.0-1.27","60ff3613da8baf747efb64d4","C3","batch3","","830.1000000089407","stim/yes_36_ver_w1_w.png","f","pattern_response","true","f","pattern_58","830.1000000089407","true","25","","","","","","","","","","","","","","","","","","",""
"","","","","","html-keyboard-response","77","156769","0.0-2.0-5.0-0.28","60ff3613da8baf747efb64d4","C3","batch3","","null","<p class=block-text>Trial 29 out of 78</p>","null","pattern_show_trial_num","","","","","","","","","","","","","","","","","","","","","","","","",""
"","","","","","image-keyboard-response","78","159492","0.0-2.0-5.0-1.28","60ff3613da8baf747efb64d4","C3","batch3","","2721","stim/no_28_2.png","j","pattern_response","true","j","pattern_11","2721","true","26","","","","","","","","","","","","","","","","","","",""
"","","","","","html-keyboard-response","79","160802","0.0-2.0-5.0-0.29","60ff3613da8baf747efb64d4","C3","batch3","","null","<p class=block-text>Trial 30 out of 78</p>","null","pattern_show_trial_num","","","","","","","","","","","","","","","","","","","","","","","","",""
"","","","","","image-keyboard-response","80","162802","0.0-2.0-5.0-1.29","60ff3613da8baf747efb64d4","C3","batch3","","1996.4000000059605","stim/no_18_1_b.png","j","pattern_response","true","j","pattern_05","1996.4000000059605","true","27","","","","","","","","","","","","","","","","","","",""
"","","","","","html-keyboard-response","81","164112","0.0-2.0-5.0-0.30","60ff3613da8baf747efb64d4","C3","batch3","","null","<p class=block-text>Trial 31 out of 78</p>","null","pattern_show_trial_num","","","","","","","","","","","","","","","","","","","","","","","","",""
"","","","","","image-keyboard-response","82","164919","0.0-2.0-5.0-1.30","60ff3613da8baf747efb64d4","C3","batch3","","803.6999999880791","stim/no_12_1.png","j","pattern_response","true","j","pattern_01","803.6999999880791","true","28","","","","","","","","","","","","","","","","","","",""
"","","","","","html-keyboard-response","83","166234","0.0-2.0-5.0-0.31","60ff3613da8baf747efb64d4","C3","batch3","","null","<p class=block-text>Trial 32 out of 78</p>","null","pattern_show_trial_num","","","","","","","","","","","","","","","","","","","","","","","","",""
"","","","","","image-keyboard-response","84","168531","0.0-2.0-5.0-1.31","60ff3613da8baf747efb64d4","C3","batch3","","2294.3999999910593","stim/no_30_1_b.png","j","pattern_response","true","j","pattern_13","2294.3999999910593","true","29","","","","","","","","","","","","","","","","","","",""
"","","","","","html-keyboard-response","85","169852","0.0-2.0-5.0-0.32","60ff3613da8baf747efb64d4","C3","batch3","","null","<p class=block-text>Trial 33 out of 78</p>","null","pattern_show_trial_num","","","","","","","","","","","","","","","","","","","","","","","","",""
"","","","","","image-keyboard-response","86","170493","0.0-2.0-5.0-1.32","60ff3613da8baf747efb64d4","C3","batch3","","638.7000000029802","stim/yes_17_ver_b1_b.png","f","pattern_response","true","f","pattern_46","638.7000000029802","true","30","","","","","","","","","","","","","","","","","","",""
"","","","","","html-keyboard-response","87","171801","0.0-2.0-5.0-0.33","60ff3613da8baf747efb64d4","C3","batch3","","null","<p class=block-text>Trial 34 out of 78</p>","null","pattern_show_trial_num","","","","","","","","","","","","","","","","","","","","","","","","",""
"","","","","","image-keyboard-response","88","172317","0.0-2.0-5.0-1.33","60ff3613da8baf747efb64d4","C3","batch3","","513.8999999910593","stim/yes_12_hor_w1_w.png","f","pattern_response","true","f","pattern_42","513.8999999910593","true","31","","","","","","","","","","","","","","","","","","",""
"","","","","","html-keyboard-response","89","173634","0.0-2.0-5.0-0.34","60ff3613da8baf747efb64d4","C3","batch3","","null","<p class=block-text>Trial 35 out of 78</p>","null","pattern_show_trial_num","","","","","","","","","","","","","","","","","","","","","","","","",""
"","","","","","image-keyboard-response","90","174285","0.0-2.0-5.0-1.34","60ff3613da8baf747efb64d4","C3","batch3","","624.9000000059605","stim/yes_37_hor_w1_w.png","f","pattern_response","true","f","pattern_60","624.9000000059605","true","32","","","","","","","","","","","","","","","","","","",""
"","","","","","html-keyboard-response","91","175603","0.0-2.0-5.0-0.35","60ff3613da8baf747efb64d4","C3","batch3","","null","<p class=block-text>Trial 36 out of 78</p>","null","pattern_show_trial_num","","","","","","","","","","","","","","","","","","","","","","","","",""
"","","","","","image-keyboard-response","92","176194","0.0-2.0-5.0-1.35","60ff3613da8baf747efb64d4","C3","batch3","","586.9000000059605","stim/yes_39_hor_w1_w.png","f","pattern_response","true","f","pattern_62","586.9000000059605","true","33","","","","","","","","","","","","","","","","","","",""
"","","","","","html-keyboard-response","93","177504","0.0-2.0-5.0-0.36","60ff3613da8baf747efb64d4","C3","batch3","","null","<p class=block-text>Trial 37 out of 78</p>","null","pattern_show_trial_num","","","","","","","","","","","","","","","","","","","","","","","","",""
"","","","","","image-keyboard-response","94","178410","0.0-2.0-5.0-1.36","60ff3613da8baf747efb64d4","C3","batch3","","903.7999999970198","stim/yes_23_ver_b1.png","f","pattern_response","true","f","pattern_48","903.7999999970198","true","34","","","","","","","","","","","","","","","","","","",""
"","","","","","html-keyboard-response","95","179721","0.0-2.0-5.0-0.37","60ff3613da8baf747efb64d4","C3","batch3","","null","<p class=block-text>Trial 38 out of 78</p>","null","pattern_show_trial_num","","","","","","","","","","","","","","","","","","","","","","","","",""
"","","","","","image-keyboard-response","96","183285","0.0-2.0-5.0-1.37","60ff3613da8baf747efb64d4","C3","batch3","","3561.1000000089407","stim/yes_44_ver_w1_w.png","j","pattern_response","false","f","pattern_66","3561.1000000089407","false","34","","","","","","","","","","","","","","","","","","",""
"","","","","","html-keyboard-response","97","184598","0.0-2.0-5.0-0.38","60ff3613da8baf747efb64d4","C3","batch3","","null","<p class=block-text>Trial 39 out of 78</p>","null","pattern_show_trial_num","","","","","","","","","","","","","","","","","","","","","","","","",""
"","","","","","image-keyboard-response","98","190695","0.0-2.0-5.0-1.38","60ff3613da8baf747efb64d4","C3","batch3","","6092.79999999702","stim/yes_63_dia_b1.png","j","pattern_response","false","f","pattern_78","6092.79999999702","false","34","","","","","","","","","","","","","","","","","","",""
"","","","","","image-keyboard-response","99","192572","0.0-2.0-6.0","60ff3613da8baf747efb64d4","C3","batch3","","1372.2000000029802","stim/empty_board.png","j","attention_check","true","j","","","","","500","[""f"",""j""]","","","","","","","","","","","","","","","","",""
"","","","","","html-keyboard-response","100","193375","0.0-2.0-7.0-0.0","60ff3613da8baf747efb64d4","C3","batch3","","null","<p class=block-text>Trial 40 out of 78</p>","null","pattern_show_trial_num","","","","","","","","","","","","","","","","","","","","","","","","",""
"","","","","","image-keyboard-response","101","194525","0.0-2.0-7.0-1.0","60ff3613da8baf747efb64d4","C3","batch3","","1148.4000000059605","stim/no_17_1_w.png","j","pattern_response","true","j","pattern_04","1148.4000000059605","true","35","","","","","","","","","","","","","","","","","","",""
"","","","","","html-keyboard-response","102","195839","0.0-2.0-7.0-0.1","60ff3613da8baf747efb64d4","C3","batch3","","null","<p class=block-text>Trial 41 out of 78</p>","null","pattern_show_trial_num","","","","","","","","","","","","","","","","","","","","","","","","",""
"","","","","","image-keyboard-response","103","196661","0.0-2.0-7.0-1.1","60ff3613da8baf747efb64d4","C3","batch3","","819.5","stim/yes_17_dia_w1.png","f","pattern_response","true","f","pattern_45","819.5","true","36","","","","","","","","","","","","","","","","","","",""
"","","","","","html-keyboard-response","104","197974","0.0-2.0-7.0-0.2","60ff3613da8baf747efb64d4","C3","batch3","","null","<p class=block-text>Trial 42 out of 78</p>","null","pattern_show_trial_num","","","","","","","","","","","","","","","","","","","","","","","","",""
"","","","","","image-keyboard-response","105","199649","0.0-2.0-7.0-1.2","60ff3613da8baf747efb64d4","C3","batch3","","1672.5","stim/yes_37_dia_w1.png","j","pattern_response","false","f","pattern_59","1672.5","false","36","","","","","","","","","","","","","","","","","","",""
"","","","","","html-keyboard-response","106","200961","0.0-2.0-7.0-0.3","60ff3613da8baf747efb64d4","C3","batch3","","null","<p class=block-text>Trial 43 out of 78</p>","null","pattern_show_trial_num","","","","","","","","","","","","","","","","","","","","","","","","",""
"","","","","","image-keyboard-response","107","201642","0.0-2.0-7.0-1.3","60ff3613da8baf747efb64d4","C3","batch3","","676.2999999970198","stim/yes_43_ver_w1_w.png","f","pattern_response","true","f","pattern_65","676.2999999970198","true","37","","","","","","","","","","","","","","","","","","",""
"","","","","","html-keyboard-response","108","202962","0.0-2.0-7.0-0.4","60ff3613da8baf747efb64d4","C3","batch3","","null","<p class=block-text>Trial 44 out of 78</p>","null","pattern_show_trial_num","","","","","","","","","","","","","","","","","","","","","","","","",""
"","","","","","image-keyboard-response","109","205345","0.0-2.0-7.0-1.4","60ff3613da8baf747efb64d4","C3","batch3","","2380.2000000029802","stim/no_55_1_w.png","j","pattern_response","true","j","pattern_34","2380.2000000029802","true","38","","","","","","","","","","","","","","","","","","",""
"","","","","","html-keyboard-response","110","206657","0.0-2.0-7.0-0.5","60ff3613da8baf747efb64d4","C3","batch3","","null","<p class=block-text>Trial 45 out of 78</p>","null","pattern_show_trial_num","","","","","","","","","","","","","","","","","","","","","","","","",""
"","","","","","image-keyboard-response","111","208004","0.0-2.0-7.0-1.5","60ff3613da8baf747efb64d4","C3","batch3","","1343.199999988079","stim/no_20_1_w.png","j","pattern_response","true","j","pattern_06","1343.199999988079","true","39","","","","","","","","","","","","","","","","","","",""
"","","","","","html-keyboard-response","112","209317","0.0-2.0-7.0-0.6","60ff3613da8baf747efb64d4","C3","batch3","","null","<p class=block-text>Trial 46 out of 78</p>","null","pattern_show_trial_num","","","","","","","","","","","","","","","","","","","","","","","","",""
"","","","","","image-keyboard-response","113","213028","0.0-2.0-7.0-1.6","60ff3613da8baf747efb64d4","C3","batch3","","3708.8999999910593","stim/no_44_1.png","j","pattern_response","true","j","pattern_24","3708.8999999910593","true","40","","","","","","","","","","","","","","","","","","",""
"","","","","","html-keyboard-response","114","214344","0.0-2.0-7.0-0.7","60ff3613da8baf747efb64d4","C3","batch3","","null","<p class=block-text>Trial 47 out of 78</p>","null","pattern_show_trial_num","","","","","","","","","","","","","","","","","","","","","","","","",""
"","","","","","image-keyboard-response","115","216558","0.0-2.0-7.0-1.7","60ff3613da8baf747efb64d4","C3","batch3","","2210.5999999940395","stim/yes_31_hor_b1.png","f","pattern_response","true","f","pattern_55","2210.5999999940395","true","41","","","","","","","","","","","","","","","","","","",""
"","","","","","html-keyboard-response","116","217872","0.0-2.0-7.0-0.8","60ff3613da8baf747efb64d4","C3","batch3","","null","<p class=block-text>Trial 48 out of 78</p>","null","pattern_show_trial_num","","","","","","","","","","","","","","","","","","","","","","","","",""
"","","","","","image-keyboard-response","117","218667","0.0-2.0-7.0-1.8","60ff3613da8baf747efb64d4","C3","batch3","","792.1000000089407","stim/yes_60_ver_b1_b.png","f","pattern_response","true","f","pattern_77","792.1000000089407","true","42","","","","","","","","","","","","","","","","","","",""
"","","","","","html-keyboard-response","118","219982","0.0-2.0-7.0-0.9","60ff3613da8baf747efb64d4","C3","batch3","","null","<p class=block-text>Trial 49 out of 78</p>","null","pattern_show_trial_num","","","","","","","","","","","","","","","","","","","","","","","","",""
"","","","","","image-keyboard-response","119","224717","0.0-2.0-7.0-1.9","60ff3613da8baf747efb64d4","C3","batch3","","4732.5999999940395","stim/no_62_1_w.png","j","pattern_response","true","j","pattern_36","4732.5999999940395","true","43","","","","","","","","","","","","","","","","","","",""
"","","","","","html-keyboard-response","120","226032","0.0-2.0-7.0-0.10","60ff3613da8baf747efb64d4","C3","batch3","","null","<p class=block-text>Trial 50 out of 78</p>","null","pattern_show_trial_num","","","","","","","","","","","","","","","","","","","","","","","","",""
"","","","","","image-keyboard-response","121","228520","0.0-2.0-7.0-1.10","60ff3613da8baf747efb64d4","C3","batch3","","2484.8999999910593","stim/no_48_1_w.png","j","pattern_response","true","j","pattern_28","2484.8999999910593","true","44","","","","","","","","","","","","","","","","","","",""
"","","","","","html-keyboard-response","122","229840","0.0-2.0-7.0-0.11","60ff3613da8baf747efb64d4","C3","batch3","","null","<p class=block-text>Trial 51 out of 78</p>","null","pattern_show_trial_num","","","","","","","","","","","","","","","","","","","","","","","","",""
"","","","","","image-keyboard-response","123","232051","0.0-2.0-7.0-1.11","60ff3613da8baf747efb64d4","C3","batch3","","2206.9000000059605","stim/no_34_1_b.png","j","pattern_response","true","j","pattern_16","2206.9000000059605","true","45","","","","","","","","","","","","","","","","","","",""
"","","","","","html-keyboard-response","124","233366","0.0-2.0-7.0-0.12","60ff3613da8baf747efb64d4","C3","batch3","","null","<p class=block-text>Trial 52 out of 78</p>","null","pattern_show_trial_num","","","","","","","","","","","","","","","","","","","","","","","","",""
"","","","","","image-keyboard-response","125","233928","0.0-2.0-7.0-1.12","60ff3613da8baf747efb64d4","C3","batch3","","559.4000000059605","stim/yes_22_ver_w1.png","f","pattern_response","true","f","pattern_47","559.4000000059605","true","46","","","","","","","","","","","","","","","","","","",""
"","","","","","html-keyboard-response","126","235249","0.0-2.0-7.0-0.13","60ff3613da8baf747efb64d4","C3","batch3","","null","<p class=block-text>Trial 53 out of 78</p>","null","pattern_show_trial_num","","","","","","","","","","","","","","","","","","","","","","","","",""
"","","","","","image-keyboard-response","127","237507","0.0-2.0-7.0-1.13","60ff3613da8baf747efb64d4","C3","batch3","","2255.9000000059605","stim/no_50_1.png","j","pattern_response","true","j","pattern_30","2255.9000000059605","true","47","","","","","","","","","","","","","","","","","","",""
"","","","","","html-keyboard-response","128","238824","0.0-2.0-7.0-0.14","60ff3613da8baf747efb64d4","C3","batch3","","null","<p class=block-text>Trial 54 out of 78</p>","null","pattern_show_trial_num","","","","","","","","","","","","","","","","","","","","","","","","",""
"","","","","","image-keyboard-response","129","241118","0.0-2.0-7.0-1.14","60ff3613da8baf747efb64d4","C3","batch3","","2291.4000000059605","stim/yes_35_dia_b1.png","j","pattern_response","false","f","pattern_57","2291.4000000059605","false","47","","","","","","","","","","","","","","","","","","",""
"","","","","","html-keyboard-response","130","242431","0.0-2.0-7.0-0.15","60ff3613da8baf747efb64d4","C3","batch3","","null","<p class=block-text>Trial 55 out of 78</p>","null","pattern_show_trial_num","","","","","","","","","","","","","","","","","","","","","","","","",""
"","","","","","image-keyboard-response","131","245004","0.0-2.0-7.0-1.15","60ff3613da8baf747efb64d4","C3","batch3","","2569.7999999970198","stim/no_52_1.png","j","pattern_response","true","j","pattern_32","2569.7999999970198","true","48","","","","","","","","","","","","","","","","","","",""
"","","","","","html-keyboard-response","132","246319","0.0-2.0-7.0-0.16","60ff3613da8baf747efb64d4","C3","batch3","","null","<p class=block-text>Trial 56 out of 78</p>","null","pattern_show_trial_num","","","","","","","","","","","","","","","","","","","","","","","","",""
"","","","","","image-keyboard-response","133","247090","0.0-2.0-7.0-1.16","60ff3613da8baf747efb64d4","C3","batch3","","766.9000000059605","stim/yes_29_ver_w1.png","f","pattern_response","true","f","pattern_53","766.9000000059605","true","49","","","","","","","","","","","","","","","","","","",""
"","","","","","html-keyboard-response","134","248406","0.0-2.0-7.0-0.17","60ff3613da8baf747efb64d4","C3","batch3","","null","<p class=block-text>Trial 57 out of 78</p>","null","pattern_show_trial_num","","","","","","","","","","","","","","","","","","","","","","","","",""
"","","","","","image-keyboard-response","135","250300","0.0-2.0-7.0-1.17","60ff3613da8baf747efb64d4","C3","batch3","","1891.7000000029802","stim/yes_40_dia_b1_b.png","f","pattern_response","true","f","pattern_63","1891.7000000029802","true","50","","","","","","","","","","","","","","","","","","",""
"","","","","","html-keyboard-response","136","251614","0.0-2.0-7.0-0.18","60ff3613da8baf747efb64d4","C3","batch3","","null","<p class=block-text>Trial 58 out of 78</p>","null","pattern_show_trial_num","","","","","","","","","","","","","","","","","","","","","","","","",""
"","","","","","image-keyboard-response","137","252839","0.0-2.0-7.0-1.18","60ff3613da8baf747efb64d4","C3","batch3","","1221.1000000089407","stim/yes_45_hor_b2_b.png","f","pattern_response","true","f","pattern_67","1221.1000000089407","true","51","","","","","","","","","","","","","","","","","","",""
"","","","","","html-keyboard-response","138","254151","0.0-2.0-7.0-0.19","60ff3613da8baf747efb64d4","C3","batch3","","null","<p class=block-text>Trial 59 out of 78</p>","null","pattern_show_trial_num","","","","","","","","","","","","","","","","","","","","","","","","",""
"","","","","","image-keyboard-response","139","254948","0.0-2.0-7.0-1.19","60ff3613da8baf747efb64d4","C3","batch3","","794.4000000059605","stim/yes_55_hor_w1_w.png","f","pattern_response","true","f","pattern_75","794.4000000059605","true","52","","","","","","","","","","","","","","","","","","",""
"","","","","","html-keyboard-response","140","256264","0.0-2.0-7.0-0.20","60ff3613da8baf747efb64d4","C3","batch3","","null","<p class=block-text>Trial 60 out of 78</p>","null","pattern_show_trial_num","","","","","","","","","","","","","","","","","","","","","","","","",""
"","","","","","image-keyboard-response","141","259891","0.0-2.0-7.0-1.20","60ff3613da8baf747efb64d4","C3","batch3","","3624.800000011921","stim/yes_48_dia_w1_w.png","f","pattern_response","true","f","pattern_69","3624.800000011921","true","53","","","","","","","","","","","","","","","","","","",""
"","","","","","html-keyboard-response","142","261205","0.0-2.0-7.0-0.21","60ff3613da8baf747efb64d4","C3","batch3","","null","<p class=block-text>Trial 61 out of 78</p>","null","pattern_show_trial_num","","","","","","","","","","","","","","","","","","","","","","","","",""
"","","","","","image-keyboard-response","143","262093","0.0-2.0-7.0-1.21","60ff3613da8baf747efb64d4","C3","batch3","","884.1000000089407","stim/yes_52_ver_w1.png","f","pattern_response","true","f","pattern_73","884.1000000089407","true","54","","","","","","","","","","","","","","","","","","",""
"","","","","","html-keyboard-response","144","263406","0.0-2.0-7.0-0.22","60ff3613da8baf747efb64d4","C3","batch3","","null","<p class=block-text>Trial 62 out of 78</p>","null","pattern_show_trial_num","","","","","","","","","","","","","","","","","","","","","","","","",""
"","","","","","image-keyboard-response","145","266817","0.0-2.0-7.0-1.22","60ff3613da8baf747efb64d4","C3","batch3","","3408.9000000059605","stim/yes_50_dia_w1.png","f","pattern_response","true","f","pattern_71","3408.9000000059605","true","55","","","","","","","","","","","","","","","","","","",""
"","","","","","html-keyboard-response","146","268136","0.0-2.0-7.0-0.23","60ff3613da8baf747efb64d4","C3","batch3","","null","<p class=block-text>Trial 63 out of 78</p>","null","pattern_show_trial_num","","","","","","","","","","","","","","","","","","","","","","","","",""
"","","","","","image-keyboard-response","147","268874","0.0-2.0-7.0-1.23","60ff3613da8baf747efb64d4","C3","batch3","","734.3999999910593","stim/no_13_2_b.png","j","pattern_response","true","j","pattern_02","734.3999999910593","true","56","","","","","","","","","","","","","","","","","","",""
"","","","","","html-keyboard-response","148","270190","0.0-2.0-7.0-0.24","60ff3613da8baf747efb64d4","C3","batch3","","null","<p class=block-text>Trial 64 out of 78</p>","null","pattern_show_trial_num","","","","","","","","","","","","","","","","","","","","","","","","",""
"","","","","","image-keyboard-response","149","272603","0.0-2.0-7.0-1.24","60ff3613da8baf747efb64d4","C3","batch3","","2410","stim/no_23_1.png","j","pattern_response","true","j","pattern_08","2410","true","57","","","","","","","","","","","","","","","","","","",""
"","","","","","html-keyboard-response","150","273917","0.0-2.0-7.0-0.25","60ff3613da8baf747efb64d4","C3","batch3","","null","<p class=block-text>Trial 65 out of 78</p>","null","pattern_show_trial_num","","","","","","","","","","","","","","","","","","","","","","","","",""
"","","","","","image-keyboard-response","151","276930","0.0-2.0-7.0-1.25","60ff3613da8baf747efb64d4","C3","batch3","","3009.7999999970198","stim/no_29_1_b.png","j","pattern_response","true","j","pattern_12","3009.7999999970198","true","58","","","","","","","","","","","","","","","","","","",""
"","","","","","html-keyboard-response","152","278245","0.0-2.0-7.0-0.26","60ff3613da8baf747efb64d4","C3","batch3","","null","<p class=block-text>Trial 66 out of 78</p>","null","pattern_show_trial_num","","","","","","","","","","","","","","","","","","","","","","","","",""
"","","","","","image-keyboard-response","153","278931","0.0-2.0-7.0-1.26","60ff3613da8baf747efb64d4","C3","batch3","","681.9000000059605","stim/yes_25_hor_b1_b.png","f","pattern_response","true","f","pattern_49","681.9000000059605","true","59","","","","","","","","","","","","","","","","","","",""
"","","","","","html-keyboard-response","154","280243","0.0-2.0-7.0-0.27","60ff3613da8baf747efb64d4","C3","batch3","","null","<p class=block-text>Trial 67 out of 78</p>","null","pattern_show_trial_num","","","","","","","","","","","","","","","","","","","","","","","","",""
"","","","","","image-keyboard-response","155","283025","0.0-2.0-7.0-1.27","60ff3613da8baf747efb64d4","C3","batch3","","2779.5999999940395","stim/no_32_1_w.png","j","pattern_response","true","j","pattern_14","2779.5999999940395","true","60","","","","","","","","","","","","","","","","","","",""
"","","","","","html-keyboard-response","156","284342","0.0-2.0-7.0-0.28","60ff3613da8baf747efb64d4","C3","batch3","","null","<p class=block-text>Trial 68 out of 78</p>","null","pattern_show_trial_num","","","","","","","","","","","","","","","","","","","","","","","","",""
"","","","","","image-keyboard-response","157","285122","0.0-2.0-7.0-1.28","60ff3613da8baf747efb64d4","C3","batch3","","776.3999999910593","stim/yes_38_hor_b1_b.png","f","pattern_response","true","f","pattern_61","776.3999999910593","true","61","","","","","","","","","","","","","","","","","","",""
"","","","","","html-keyboard-response","158","286439","0.0-2.0-7.0-0.29","60ff3613da8baf747efb64d4","C3","batch3","","null","<p class=block-text>Trial 69 out of 78</p>","null","pattern_show_trial_num","","","","","","","","","","","","","","","","","","","","","","","","",""
"","","","","","image-keyboard-response","159","289744","0.0-2.0-7.0-1.29","60ff3613da8baf747efb64d4","C3","batch3","","3302.0999999940395","stim/no_42_1_w.png","j","pattern_response","true","j","pattern_22","3302.0999999940395","true","62","","","","","","","","","","","","","","","","","","",""
"","","","","","html-keyboard-response","160","291060","0.0-2.0-7.0-0.30","60ff3613da8baf747efb64d4","C3","batch3","","null","<p class=block-text>Trial 70 out of 78</p>","null","pattern_show_trial_num","","","","","","","","","","","","","","","","","","","","","","","","",""
"","","","","","image-keyboard-response","161","292223","0.0-2.0-7.0-1.30","60ff3613da8baf747efb64d4","C3","batch3","","1160","stim/no_36_2_w.png","f","pattern_response","false","j","pattern_18","1160","false","62","","","","","","","","","","","","","","","","","","",""
"","","","","","html-keyboard-response","162","293541","0.0-2.0-7.0-0.31","60ff3613da8baf747efb64d4","C3","batch3","","null","<p class=block-text>Trial 71 out of 78</p>","null","pattern_show_trial_num","","","","","","","","","","","","","","","","","","","","","","","","",""
"","","","","","image-keyboard-response","163","297238","0.0-2.0-7.0-1.31","60ff3613da8baf747efb64d4","C3","batch3","","3694.7000000029802","stim/no_46_1_b.png","j","pattern_response","true","j","pattern_26","3694.7000000029802","true","63","","","","","","","","","","","","","","","","","","",""
"","","","","","html-keyboard-response","164","298554","0.0-2.0-7.0-0.32","60ff3613da8baf747efb64d4","C3","batch3","","null","<p class=block-text>Trial 72 out of 78</p>","null","pattern_show_trial_num","","","","","","","","","","","","","","","","","","","","","","","","",""
"","","","","","image-keyboard-response","165","302065","0.0-2.0-7.0-1.32","60ff3613da8baf747efb64d4","C3","batch3","","3509.3999999910593","stim/no_38_1_b.png","j","pattern_response","true","j","pattern_20","3509.3999999910593","true","64","","","","","","","","","","","","","","","","","","",""
"","","","","","html-keyboard-response","166","303379","0.0-2.0-7.0-0.33","60ff3613da8baf747efb64d4","C3","batch3","","null","<p class=block-text>Trial 73 out of 78</p>","null","pattern_show_trial_num","","","","","","","","","","","","","","","","","","","","","","","","",""
"","","","","","image-keyboard-response","167","304107","0.0-2.0-7.0-1.33","60ff3613da8baf747efb64d4","C3","batch3","","724.8999999910593","stim/yes_28_ver_b1.png","f","pattern_response","true","f","pattern_51","724.8999999910593","true","65","","","","","","","","","","","","","","","","","","",""
"","","","","","html-keyboard-response","168","305419","0.0-2.0-7.0-0.34","60ff3613da8baf747efb64d4","C3","batch3","","null","<p class=block-text>Trial 74 out of 78</p>","null","pattern_show_trial_num","","","","","","","","","","","","","","","","","","","","","","","","",""
"","","","","","image-keyboard-response","169","309266","0.0-2.0-7.0-1.34","60ff3613da8baf747efb64d4","C3","batch3","","3844.9000000059605","stim/no_70_2.png","j","pattern_response","true","j","pattern_40","3844.9000000059605","true","66","","","","","","","","","","","","","","","","","","",""
"","","","","","html-keyboard-response","170","310579","0.0-2.0-7.0-0.35","60ff3613da8baf747efb64d4","C3","batch3","","null","<p class=block-text>Trial 75 out of 78</p>","null","pattern_show_trial_num","","","","","","","","","","","","","","","","","","","","","","","","",""
"","","","","","image-keyboard-response","171","314681","0.0-2.0-7.0-1.35","60ff3613da8baf747efb64d4","C3","batch3","","4098.899999991059","stim/no_65_1_b.png","j","pattern_response","true","j","pattern_38","4098.899999991059","true","67","","","","","","","","","","","","","","","","","","",""
"","","","","","html-keyboard-response","172","315993","0.0-2.0-7.0-0.36","60ff3613da8baf747efb64d4","C3","batch3","","null","<p class=block-text>Trial 76 out of 78</p>","null","pattern_show_trial_num","","","","","","","","","","","","","","","","","","","","","","","","",""
"","","","","","image-keyboard-response","173","316569","0.0-2.0-7.0-1.36","60ff3613da8baf747efb64d4","C3","batch3","","573.5999999940395","stim/yes_14_hor_b1_w.png","f","pattern_response","true","f","pattern_43","573.5999999940395","true","68","","","","","","","","","","","","","","","","","","",""
"","","","","","html-keyboard-response","174","317883","0.0-2.0-7.0-0.37","60ff3613da8baf747efb64d4","C3","batch3","","null","<p class=block-text>Trial 77 out of 78</p>","null","pattern_show_trial_num","","","","","","","","","","","","","","","","","","","","","","","","",""
"","","","","","image-keyboard-response","175","320670","0.0-2.0-7.0-1.37","60ff3613da8baf747efb64d4","C3","batch3","","2784.5","stim/yes_67_hor_b1.png","f","pattern_response","true","f","pattern_79","2784.5","true","69","","","","","","","","","","","","","","","","","","",""
"","","","","","html-keyboard-response","176","321987","0.0-2.0-7.0-0.38","60ff3613da8baf747efb64d4","C3","batch3","","null","<p class=block-text>Trial 78 out of 78</p>","null","pattern_show_trial_num","","","","","","","","","","","","","","","","","","","","","","","","",""
"","","","","","image-keyboard-response","177","323479","0.0-2.0-7.0-1.38","60ff3613da8baf747efb64d4","C3","batch3","","1488.4000000059605","stim/no_26_1_w.png","j","pattern_response","true","j","pattern_10","1488.4000000059605","true","70","","","","","","","","","","","","","","","","","","",""
"","","","","","html-button-response","178","327178","0.0-2.0-8.0","60ff3613da8baf747efb64d4","C3","batch3","","3187.699999988079","<p class = block-text>This concludes the 4-in-a-row detection game.Thank you for your responses!<br>
            You responded correctly on 90% of the trials.<br>
            When you are ready, press ""Continue"" button to continue </p>","0","","","","","","","","","","","","","","","","","","","","","","","","","",""
"true","","","","","fullscreen","179","330569","0.0-3.0-0.0","60ff3613da8baf747efb64d4","C3","batch3","","","","","spm_fullscreen","","","","","","","","","","","","","","","","","","","","","","","","",""
"","","","","","html-button-response","180","338885","0.0-3.0-1.0","60ff3613da8baf747efb64d4","C3","batch3","","8314.70000000298","<p class = block-text><b>Instructions</b> <br>This is a widely used intelligence test in research. <br>In this test, a figure with a missing piece will be presented.<br>Below the figure are alternative pieces to complete the figure, only one of which is correct.<br> Different figures might involve different principles for obtaining the missing piece<br>Your job is to select the most logical piece to complete the figure.</p>","0","","","","","","","","","","","","","","","","","","","","","","","","","",""
"","","","","","html-keyboard-response","181","339690","0.0-3.0-2.0-0.0","60ff3613da8baf747efb64d4","C3","batch3","","null","<p class=block-text>Trial 1 out of 60</p>","null","spm_show_trial_num","","","","","","","","","","","","","","","","","","","","","","","","",""
"","","","","","image-button-response","182","343048","0.0-3.0-2.0-1.0","60ff3613da8baf747efb64d4","C3","batch3","","3353.5","img/question_1_1.jpeg","3","spm_respsonse","1","4","mat_01","","","","","","1","3353.5","","","","","","","","","","","","","","",""
"","","","","","html-keyboard-response","183","344116","0.0-3.0-2.0-0.1","60ff3613da8baf747efb64d4","C3","batch3","","null","<p class=block-text>Trial 2 out of 60</p>","null","spm_show_trial_num","","","","","","","","","","","","","","","","","","","","","","","","",""
"","","","","","image-button-response","184","345975","0.0-3.0-2.0-1.1","60ff3613da8baf747efb64d4","C3","batch3","","1853.1000000089407","img/question_1_2.jpeg","4","spm_respsonse","1","5","mat_02","","","","","","1","1853.1000000089407","","","","","","","","","","","","","","",""
"","","","","","html-keyboard-response","185","347040","0.0-3.0-2.0-0.2","60ff3613da8baf747efb64d4","C3","batch3","","null","<p class=block-text>Trial 3 out of 60</p>","null","spm_show_trial_num","","","","","","","","","","","","","","","","","","","","","","","","",""
"","","","","","image-button-response","186","349509","0.0-3.0-2.0-1.2","60ff3613da8baf747efb64d4","C3","batch3","","2465.5","img/question_1_3.jpeg","0","spm_respsonse","1","1","mat_03","","","","","","1","2465.5","","","","","","","","","","","","","","",""
"","","","","","html-keyboard-response","187","350577","0.0-3.0-2.0-0.3","60ff3613da8baf747efb64d4","C3","batch3","","null","<p class=block-text>Trial 4 out of 60</p>","null","spm_show_trial_num","","","","","","","","","","","","","","","","","","","","","","","","",""
"","","","","","image-button-response","188","353899","0.0-3.0-2.0-1.3","60ff3613da8baf747efb64d4","C3","batch3","","3318.9000000059605","img/question_1_4.jpeg","1","spm_respsonse","1","2","mat_04","","","","","","1","3318.9000000059605","","","","","","","","","","","","","","",""
"","","","","","html-keyboard-response","189","354961","0.0-3.0-2.0-0.4","60ff3613da8baf747efb64d4","C3","batch3","","null","<p class=block-text>Trial 5 out of 60</p>","null","spm_show_trial_num","","","","","","","","","","","","","","","","","","","","","","","","",""
"","","","","","image-button-response","190","358502","0.0-3.0-2.0-1.4","60ff3613da8baf747efb64d4","C3","batch3","","3536.7000000029802","img/question_1_5.jpeg","4","spm_respsonse","0","6","mat_05","","","","","","0","3536.7000000029802","","","","","","","","","","","","","","",""
"","","","","","html-keyboard-response","191","359567","0.0-3.0-2.0-0.5","60ff3613da8baf747efb64d4","C3","batch3","","null","<p class=block-text>Trial 6 out of 60</p>","null","spm_show_trial_num","","","","","","","","","","","","","","","","","","","","","","","","",""
"","","","","","image-button-response","192","363739","0.0-3.0-2.0-1.5","60ff3613da8baf747efb64d4","C3","batch3","","4167.4000000059605","img/question_1_6.jpeg","2","spm_respsonse","1","3","mat_06","","","","","","1","4167.4000000059605","","","","","","","","","","","","","","",""
"","","","","","html-keyboard-response","193","364802","0.0-3.0-2.0-0.6","60ff3613da8baf747efb64d4","C3","batch3","","null","<p class=block-text>Trial 7 out of 60</p>","null","spm_show_trial_num","","","","","","","","","","","","","","","","","","","","","","","","",""
"","","","","","image-button-response","194","369255","0.0-3.0-2.0-1.6","60ff3613da8baf747efb64d4","C3","batch3","","4448.29999999702","img/question_1_7.jpeg","5","spm_respsonse","1","6","mat_07","","","","","","1","4448.29999999702","","","","","","","","","","","","","","",""
"","","","","","html-keyboard-response","195","370320","0.0-3.0-2.0-0.7","60ff3613da8baf747efb64d4","C3","batch3","","null","<p class=block-text>Trial 8 out of 60</p>","null","spm_show_trial_num","","","","","","","","","","","","","","","","","","","","","","","","",""
"","","","","","image-button-response","196","373366","0.0-3.0-2.0-1.7","60ff3613da8baf747efb64d4","C3","batch3","","3041.3999999910593","img/question_1_8.jpeg","1","spm_respsonse","1","2","mat_08","","","","","","1","3041.3999999910593","","","","","","","","","","","","","","",""
"","","","","","html-keyboard-response","197","374431","0.0-3.0-2.0-0.8","60ff3613da8baf747efb64d4","C3","batch3","","null","<p class=block-text>Trial 9 out of 60</p>","null","spm_show_trial_num","","","","","","","","","","","","","","","","","","","","","","","","",""
"","","","","","image-button-response","198","378919","0.0-3.0-2.0-1.8","60ff3613da8baf747efb64d4","C3","batch3","","4483","img/question_1_9.jpeg","0","spm_respsonse","1","1","mat_09","","","","","","1","4483","","","","","","","","","","","","","","",""
"","","","","","html-keyboard-response","199","379980","0.0-3.0-2.0-0.9","60ff3613da8baf747efb64d4","C3","batch3","","null","<p class=block-text>Trial 10 out of 60</p>","null","spm_show_trial_num","","","","","","","","","","","","","","","","","","","","","","","","",""
"","","","","","image-button-response","200","384267","0.0-3.0-2.0-1.9","60ff3613da8baf747efb64d4","C3","batch3","","4283.5","img/question_1_10.jpeg","2","spm_respsonse","1","3","mat_10","","","","","","1","4283.5","","","","","","","","","","","","","","",""
"","","","","","html-keyboard-response","201","385327","0.0-3.0-2.0-0.10","60ff3613da8baf747efb64d4","C3","batch3","","null","<p class=block-text>Trial 11 out of 60</p>","null","spm_show_trial_num","","","","","","","","","","","","","","","","","","","","","","","","",""
"","","","","","image-button-response","202","390659","0.0-3.0-2.0-1.10","60ff3613da8baf747efb64d4","C3","batch3","","5328.4000000059605","img/question_1_11.jpeg","3","spm_respsonse","1","4","mat_11","","","","","","1","5328.4000000059605","","","","","","","","","","","","","","",""
"","","","","","html-keyboard-response","203","391724","0.0-3.0-2.0-0.11","60ff3613da8baf747efb64d4","C3","batch3","","null","<p class=block-text>Trial 12 out of 60</p>","null","spm_show_trial_num","","","","","","","","","","","","","","","","","","","","","","","","",""
"","","","","","image-button-response","204","399316","0.0-3.0-2.0-1.11","60ff3613da8baf747efb64d4","C3","batch3","","7589","img/question_1_12.jpeg","0","spm_respsonse","0","5","mat_12","","","","","","0","7589","","","","","","","","","","","","","","",""
"","","","","","html-keyboard-response","205","400385","0.0-3.0-2.0-0.12","60ff3613da8baf747efb64d4","C3","batch3","","null","<p class=block-text>Trial 13 out of 60</p>","null","spm_show_trial_num","","","","","","","","","","","","","","","","","","","","","","","","",""
"","","","","","image-button-response","206","402443","0.0-3.0-2.0-1.12","60ff3613da8baf747efb64d4","C3","batch3","","2054.7999999970198","img/question_2_1.jpeg","1","spm_respsonse","1","2","mat_13","","","","","","1","2054.7999999970198","","","","","","","","","","","","","","",""
"","","","","","html-keyboard-response","207","403510","0.0-3.0-2.0-0.13","60ff3613da8baf747efb64d4","C3","batch3","","null","<p class=block-text>Trial 14 out of 60</p>","null","spm_show_trial_num","","","","","","","","","","","","","","","","","","","","","","","","",""
"","","","","","image-button-response","208","406522","0.0-3.0-2.0-1.13","60ff3613da8baf747efb64d4","C3","batch3","","3007.5","img/question_2_2.jpeg","5","spm_respsonse","1","6","mat_14","","","","","","1","3007.5","","","","","","","","","","","","","","",""
"","","","","","html-keyboard-response","209","407585","0.0-3.0-2.0-0.14","60ff3613da8baf747efb64d4","C3","batch3","","null","<p class=block-text>Trial 15 out of 60</p>","null","spm_show_trial_num","","","","","","","","","","","","","","","","","","","","","","","","",""
"","","","","","image-button-response","210","410563","0.0-3.0-2.0-1.14","60ff3613da8baf747efb64d4","C3","batch3","","2974.5999999940395","img/question_2_3.jpeg","0","spm_respsonse","1","1","mat_15","","","","","","1","2974.5999999940395","","","","","","","","","","","","","","",""
"","","","","","html-keyboard-response","211","411629","0.0-3.0-2.0-0.15","60ff3613da8baf747efb64d4","C3","batch3","","null","<p class=block-text>Trial 16 out of 60</p>","null","spm_show_trial_num","","","","","","","","","","","","","","","","","","","","","","","","",""
"","","","","","image-button-response","212","415270","0.0-3.0-2.0-1.15","60ff3613da8baf747efb64d4","C3","batch3","","3637.3999999910593","img/question_2_4.jpeg","1","spm_respsonse","1","2","mat_16","","","","","","1","3637.3999999910593","","","","","","","","","","","","","","",""
"","","","","","html-keyboard-response","213","416337","0.0-3.0-2.0-0.16","60ff3613da8baf747efb64d4","C3","batch3","","null","<p class=block-text>Trial 17 out of 60</p>","null","spm_show_trial_num","","","","","","","","","","","","","","","","","","","","","","","","",""
"","","","","","image-button-response","214","420759","0.0-3.0-2.0-1.16","60ff3613da8baf747efb64d4","C3","batch3","","4418.100000008941","img/question_2_5.jpeg","0","spm_respsonse","1","1","mat_17","","","","","","1","4418.100000008941","","","","","","","","","","","","","","",""
"","","","","","html-keyboard-response","215","421822","0.0-3.0-2.0-0.17","60ff3613da8baf747efb64d4","C3","batch3","","null","<p class=block-text>Trial 18 out of 60</p>","null","spm_show_trial_num","","","","","","","","","","","","","","","","","","","","","","","","",""
"","","","","","image-button-response","216","427208","0.0-3.0-2.0-1.17","60ff3613da8baf747efb64d4","C3","batch3","","5381","img/question_2_6.jpeg","2","spm_respsonse","1","3","mat_18","","","","","","1","5381","","","","","","","","","","","","","","",""
"","","","","","html-keyboard-response","217","428271","0.0-3.0-2.0-0.18","60ff3613da8baf747efb64d4","C3","batch3","","null","<p class=block-text>Trial 19 out of 60</p>","null","spm_show_trial_num","","","","","","","","","","","","","","","","","","","","","","","","",""
"","","","","","image-button-response","218","432250","0.0-3.0-2.0-1.18","60ff3613da8baf747efb64d4","C3","batch3","","3975.1000000089407","img/question_2_7.jpeg","4","spm_respsonse","1","5","mat_19","","","","","","1","3975.1000000089407","","","","","","","","","","","","","","",""
"","","","","","html-keyboard-response","219","433314","0.0-3.0-2.0-0.19","60ff3613da8baf747efb64d4","C3","batch3","","null","<p class=block-text>Trial 20 out of 60</p>","null","spm_show_trial_num","","","","","","","","","","","","","","","","","","","","","","","","",""
"","","","","","image-button-response","220","438449","0.0-3.0-2.0-1.19","60ff3613da8baf747efb64d4","C3","batch3","","5130.5","img/question_2_8.jpeg","5","spm_respsonse","1","6","mat_20","","","","","","1","5130.5","","","","","","","","","","","","","","",""
"","","","","","html-keyboard-response","221","439513","0.0-3.0-2.0-0.20","60ff3613da8baf747efb64d4","C3","batch3","","null","<p class=block-text>Trial 21 out of 60</p>","null","spm_show_trial_num","","","","","","","","","","","","","","","","","","","","","","","","",""
"","","","","","image-button-response","222","443969","0.0-3.0-2.0-1.20","60ff3613da8baf747efb64d4","C3","batch3","","4452.29999999702","img/question_2_9.jpeg","3","spm_respsonse","1","4","mat_21","","","","","","1","4452.29999999702","","","","","","","","","","","","","","",""
"","","","","","html-keyboard-response","223","445032","0.0-3.0-2.0-0.21","60ff3613da8baf747efb64d4","C3","batch3","","null","<p class=block-text>Trial 22 out of 60</p>","null","spm_show_trial_num","","","","","","","","","","","","","","","","","","","","","","","","",""
"","","","","","image-button-response","224","448739","0.0-3.0-2.0-1.21","60ff3613da8baf747efb64d4","C3","batch3","","3701.5999999940395","img/question_2_10.jpeg","2","spm_respsonse","1","3","mat_22","","","","","","1","3701.5999999940395","","","","","","","","","","","","","","",""
"","","","","","html-keyboard-response","225","449803","0.0-3.0-2.0-0.22","60ff3613da8baf747efb64d4","C3","batch3","","null","<p class=block-text>Trial 23 out of 60</p>","null","spm_show_trial_num","","","","","","","","","","","","","","","","","","","","","","","","",""
"","","","","","image-button-response","226","460617","0.0-3.0-2.0-1.22","60ff3613da8baf747efb64d4","C3","batch3","","10811","img/question_2_11.jpeg","3","spm_respsonse","1","4","mat_23","","","","","","1","10811","","","","","","","","","","","","","","",""
"","","","","","html-keyboard-response","227","461685","0.0-3.0-2.0-0.23","60ff3613da8baf747efb64d4","C3","batch3","","null","<p class=block-text>Trial 24 out of 60</p>","null","spm_show_trial_num","","","","","","","","","","","","","","","","","","","","","","","","",""
"","","","","","image-button-response","228","465974","0.0-3.0-2.0-1.23","60ff3613da8baf747efb64d4","C3","batch3","","4285.0999999940395","img/question_2_12.jpeg","4","spm_respsonse","1","5","mat_24","","","","","","1","4285.0999999940395","","","","","","","","","","","","","","",""
"","","","","","html-button-response","229","467728","0.0-3.0-3.0","60ff3613da8baf747efb64d4","C3","batch3","","1498.5","<p class = block-text>Attention check: Please choose 1<br></p>","0","attention_check","true","","","","","","","","","","","","","","","","","","","","","","","",""
"","","","","","html-keyboard-response","230","468535","0.0-3.0-4.0-0.0","60ff3613da8baf747efb64d4","C3","batch3","","null","<p class=block-text>Trial 25 out of 60</p>","null","spm_show_trial_num","","","","","","","","","","","","","","","","","","","","","","","","",""
"","","","","","image-button-response","231","473618","0.0-3.0-4.0-1.0","60ff3613da8baf747efb64d4","C3","batch3","","5079.600000008941","img/question_3_1.jpeg","7","spm_respsonse","1","8","mat_25","","","","","","1","5079.600000008941","","","","","","","","","","","","","","",""
"","","","","","html-keyboard-response","232","474684","0.0-3.0-4.0-0.1","60ff3613da8baf747efb64d4","C3","batch3","","null","<p class=block-text>Trial 26 out of 60</p>","null","spm_show_trial_num","","","","","","","","","","","","","","","","","","","","","","","","",""
"","","","","","image-button-response","233","480424","0.0-3.0-4.0-1.1","60ff3613da8baf747efb64d4","C3","batch3","","5735.5","img/question_3_2.jpeg","1","spm_respsonse","1","2","mat_26","","","","","","1","5735.5","","","","","","","","","","","","","","",""
"","","","","","html-keyboard-response","234","481492","0.0-3.0-4.0-0.2","60ff3613da8baf747efb64d4","C3","batch3","","null","<p class=block-text>Trial 27 out of 60</p>","null","spm_show_trial_num","","","","","","","","","","","","","","","","","","","","","","","","",""
"","","","","","image-button-response","235","486407","0.0-3.0-4.0-1.2","60ff3613da8baf747efb64d4","C3","batch3","","4911","img/question_3_3.jpeg","2","spm_respsonse","1","3","mat_27","","","","","","1","4911","","","","","","","","","","","","","","",""
"","","","","","html-keyboard-response","236","487471","0.0-3.0-4.0-0.3","60ff3613da8baf747efb64d4","C3","batch3","","null","<p class=block-text>Trial 28 out of 60</p>","null","spm_show_trial_num","","","","","","","","","","","","","","","","","","","","","","","","",""
"","","","","","image-button-response","237","500445","0.0-3.0-4.0-1.3","60ff3613da8baf747efb64d4","C3","batch3","","12969.59999999404","img/question_3_4.jpeg","7","spm_respsonse","1","8","mat_28","","","","","","1","12969.59999999404","","","","","","","","","","","","","","",""
"","","","","","html-keyboard-response","238","501506","0.0-3.0-4.0-0.4","60ff3613da8baf747efb64d4","C3","batch3","","null","<p class=block-text>Trial 29 out of 60</p>","null","spm_show_trial_num","","","","","","","","","","","","","","","","","","","","","","","","",""
"","","","","","image-button-response","239","514144","0.0-3.0-4.0-1.4","60ff3613da8baf747efb64d4","C3","batch3","","12634.699999988079","img/question_3_5.jpeg","6","spm_respsonse","1","7","mat_29","","","","","","1","12634.699999988079","","","","","","","","","","","","","","",""
"","","","","","html-keyboard-response","240","515210","0.0-3.0-4.0-0.5","60ff3613da8baf747efb64d4","C3","batch3","","null","<p class=block-text>Trial 30 out of 60</p>","null","spm_show_trial_num","","","","","","","","","","","","","","","","","","","","","","","","",""
"","","","","","image-button-response","241","526464","0.0-3.0-4.0-1.5","60ff3613da8baf747efb64d4","C3","batch3","","11249.40000000596","img/question_3_6.jpeg","3","spm_respsonse","1","4","mat_30","","","","","","1","11249.40000000596","","","","","","","","","","","","","","",""
"","","","","","html-keyboard-response","242","527532","0.0-3.0-4.0-0.6","60ff3613da8baf747efb64d4","C3","batch3","","null","<p class=block-text>Trial 31 out of 60</p>","null","spm_show_trial_num","","","","","","","","","","","","","","","","","","","","","","","","",""
"","","","","","image-button-response","243","535553","0.0-3.0-4.0-1.6","60ff3613da8baf747efb64d4","C3","batch3","","8016.5999999940395","img/question_3_7.jpeg","4","spm_respsonse","1","5","mat_31","","","","","","1","8016.5999999940395","","","","","","","","","","","","","","",""
"","","","","","html-keyboard-response","244","536620","0.0-3.0-4.0-0.7","60ff3613da8baf747efb64d4","C3","batch3","","null","<p class=block-text>Trial 32 out of 60</p>","null","spm_show_trial_num","","","","","","","","","","","","","","","","","","","","","","","","",""
"","","","","","image-button-response","245","541848","0.0-3.0-4.0-1.7","60ff3613da8baf747efb64d4","C3","batch3","","5223.79999999702","img/question_3_8.jpeg","0","spm_respsonse","1","1","mat_32","","","","","","1","5223.79999999702","","","","","","","","","","","","","","",""
"","","","","","html-keyboard-response","246","542914","0.0-3.0-4.0-0.8","60ff3613da8baf747efb64d4","C3","batch3","","null","<p class=block-text>Trial 33 out of 60</p>","null","spm_show_trial_num","","","","","","","","","","","","","","","","","","","","","","","","",""
"","","","","","image-button-response","247","551686","0.0-3.0-4.0-1.8","60ff3613da8baf747efb64d4","C3","batch3","","8768.70000000298","img/question_3_9.jpeg","6","spm_respsonse","1","7","mat_33","","","","","","1","8768.70000000298","","","","","","","","","","","","","","",""
"","","","","","html-keyboard-response","248","552753","0.0-3.0-4.0-0.9","60ff3613da8baf747efb64d4","C3","batch3","","null","<p class=block-text>Trial 34 out of 60</p>","null","spm_show_trial_num","","","","","","","","","","","","","","","","","","","","","","","","",""
"","","","","","image-button-response","249","566298","0.0-3.0-4.0-1.9","60ff3613da8baf747efb64d4","C3","batch3","","13541.59999999404","img/question_3_10.jpeg","5","spm_respsonse","1","6","mat_34","","","","","","1","13541.59999999404","","","","","","","","","","","","","","",""
"","","","","","html-keyboard-response","250","567359","0.0-3.0-4.0-0.10","60ff3613da8baf747efb64d4","C3","batch3","","null","<p class=block-text>Trial 35 out of 60</p>","null","spm_show_trial_num","","","","","","","","","","","","","","","","","","","","","","","","",""
"","","","","","image-button-response","251","593026","0.0-3.0-4.0-1.10","60ff3613da8baf747efb64d4","C3","batch3","","25663.90000000596","img/question_3_11.jpeg","0","spm_respsonse","1","1","mat_35","","","","","","1","25663.90000000596","","","","","","","","","","","","","","",""
"","","","","","html-keyboard-response","252","594088","0.0-3.0-4.0-0.11","60ff3613da8baf747efb64d4","C3","batch3","","null","<p class=block-text>Trial 36 out of 60</p>","null","spm_show_trial_num","","","","","","","","","","","","","","","","","","","","","","","","",""
"","","","","","image-button-response","253","617792","0.0-3.0-4.0-1.11","60ff3613da8baf747efb64d4","C3","batch3","","23700.59999999404","img/question_3_12.jpeg","3","spm_respsonse","0","2","mat_36","","","","","","0","23700.59999999404","","","","","","","","","","","","","","",""
"","","","","","html-keyboard-response","254","618857","0.0-3.0-4.0-0.12","60ff3613da8baf747efb64d4","C3","batch3","","null","<p class=block-text>Trial 37 out of 60</p>","null","spm_show_trial_num","","","","","","","","","","","","","","","","","","","","","","","","",""
"","","","","","image-button-response","255","621789","0.0-3.0-4.0-1.12","60ff3613da8baf747efb64d4","C3","batch3","","2927.5999999940395","img/question_4_1.jpeg","2","spm_respsonse","1","3","mat_37","","","","","","1","2927.5999999940395","","","","","","","","","","","","","","",""
"","","","","","html-keyboard-response","256","622857","0.0-3.0-4.0-0.13","60ff3613da8baf747efb64d4","C3","batch3","","null","<p class=block-text>Trial 38 out of 60</p>","null","spm_show_trial_num","","","","","","","","","","","","","","","","","","","","","","","","",""
"","","","","","image-button-response","257","631658","0.0-3.0-4.0-1.13","60ff3613da8baf747efb64d4","C3","batch3","","8796","img/question_4_2.jpeg","3","spm_respsonse","1","4","mat_38","","","","","","1","8796","","","","","","","","","","","","","","",""
"","","","","","html-keyboard-response","258","632728","0.0-3.0-4.0-0.14","60ff3613da8baf747efb64d4","C3","batch3","","null","<p class=block-text>Trial 39 out of 60</p>","null","spm_show_trial_num","","","","","","","","","","","","","","","","","","","","","","","","",""
"","","","","","image-button-response","259","638031","0.0-3.0-4.0-1.14","60ff3613da8baf747efb64d4","C3","batch3","","5298.100000008941","img/question_4_3.jpeg","2","spm_respsonse","1","3","mat_39","","","","","","1","5298.100000008941","","","","","","","","","","","","","","",""
"","","","","","html-keyboard-response","260","639096","0.0-3.0-4.0-0.15","60ff3613da8baf747efb64d4","C3","batch3","","null","<p class=block-text>Trial 40 out of 60</p>","null","spm_show_trial_num","","","","","","","","","","","","","","","","","","","","","","","","",""
"","","","","","image-button-response","261","645193","0.0-3.0-4.0-1.15","60ff3613da8baf747efb64d4","C3","batch3","","6093.899999991059","img/question_4_4.jpeg","6","spm_respsonse","1","7","mat_40","","","","","","1","6093.899999991059","","","","","","","","","","","","","","",""
"","","","","","html-keyboard-response","262","646258","0.0-3.0-4.0-0.16","60ff3613da8baf747efb64d4","C3","batch3","","null","<p class=block-text>Trial 41 out of 60</p>","null","spm_show_trial_num","","","","","","","","","","","","","","","","","","","","","","","","",""
"","","","","","image-button-response","263","655434","0.0-3.0-4.0-1.16","60ff3613da8baf747efb64d4","C3","batch3","","9173","img/question_4_5.jpeg","7","spm_respsonse","1","8","mat_41","","","","","","1","9173","","","","","","","","","","","","","","",""
"","","","","","html-keyboard-response","264","656494","0.0-3.0-4.0-0.17","60ff3613da8baf747efb64d4","C3","batch3","","null","<p class=block-text>Trial 42 out of 60</p>","null","spm_show_trial_num","","","","","","","","","","","","","","","","","","","","","","","","",""
"","","","","","image-button-response","265","665765","0.0-3.0-4.0-1.17","60ff3613da8baf747efb64d4","C3","batch3","","9267.09999999404","img/question_4_6.jpeg","5","spm_respsonse","1","6","mat_42","","","","","","1","9267.09999999404","","","","","","","","","","","","","","",""
"","","","","","html-keyboard-response","266","666831","0.0-3.0-4.0-0.18","60ff3613da8baf747efb64d4","C3","batch3","","null","<p class=block-text>Trial 43 out of 60</p>","null","spm_show_trial_num","","","","","","","","","","","","","","","","","","","","","","","","",""
"","","","","","image-button-response","267","677733","0.0-3.0-4.0-1.18","60ff3613da8baf747efb64d4","C3","batch3","","10898.40000000596","img/question_4_7.jpeg","4","spm_respsonse","1","5","mat_43","","","","","","1","10898.40000000596","","","","","","","","","","","","","","",""
"","","","","","html-keyboard-response","268","678798","0.0-3.0-4.0-0.19","60ff3613da8baf747efb64d4","C3","batch3","","null","<p class=block-text>Trial 44 out of 60</p>","null","spm_show_trial_num","","","","","","","","","","","","","","","","","","","","","","","","",""
"","","","","","image-button-response","269","690509","0.0-3.0-4.0-1.19","60ff3613da8baf747efb64d4","C3","batch3","","11707.40000000596","img/question_4_8.jpeg","3","spm_respsonse","1","4","mat_44","","","","","","1","11707.40000000596","","","","","","","","","","","","","","",""
"","","","","","html-keyboard-response","270","691574","0.0-3.0-4.0-0.20","60ff3613da8baf747efb64d4","C3","batch3","","null","<p class=block-text>Trial 45 out of 60</p>","null","spm_show_trial_num","","","","","","","","","","","","","","","","","","","","","","","","",""
"","","","","","image-button-response","271","708444","0.0-3.0-4.0-1.20","60ff3613da8baf747efb64d4","C3","batch3","","16867","img/question_4_9.jpeg","0","spm_respsonse","1","1","mat_45","","","","","","1","16867","","","","","","","","","","","","","","",""
"","","","","","html-keyboard-response","272","709511","0.0-3.0-4.0-0.21","60ff3613da8baf747efb64d4","C3","batch3","","null","<p class=block-text>Trial 46 out of 60</p>","null","spm_show_trial_num","","","","","","","","","","","","","","","","","","","","","","","","",""
"","","","","","image-button-response","273","717786","0.0-3.0-4.0-1.21","60ff3613da8baf747efb64d4","C3","batch3","","8271","img/question_4_10.jpeg","1","spm_respsonse","1","2","mat_46","","","","","","1","8271","","","","","","","","","","","","","","",""
"","","","","","html-keyboard-response","274","718842","0.0-3.0-4.0-0.22","60ff3613da8baf747efb64d4","C3","batch3","","null","<p class=block-text>Trial 47 out of 60</p>","null","spm_show_trial_num","","","","","","","","","","","","","","","","","","","","","","","","",""
"","","","","","image-button-response","275","751013","0.0-3.0-4.0-1.22","60ff3613da8baf747efb64d4","C3","batch3","","32168","img/question_4_11.jpeg","5","spm_respsonse","0","5","mat_47","","","","","","0","32168","","","","","","","","","","","","","","",""
"","","","","","html-keyboard-response","276","752074","0.0-3.0-4.0-0.23","60ff3613da8baf747efb64d4","C3","batch3","","null","<p class=block-text>Trial 48 out of 60</p>","null","spm_show_trial_num","","","","","","","","","","","","","","","","","","","","","","","","",""
"","","","","","image-button-response","277","773867","0.0-3.0-4.0-1.23","60ff3613da8baf747efb64d4","C3","batch3","","21790.10000000894","img/question_4_12.jpeg","3","spm_respsonse","0","6","mat_48","","","","","","0","21790.10000000894","","","","","","","","","","","","","","",""
"","","","","","html-keyboard-response","278","774930","0.0-3.0-4.0-0.24","60ff3613da8baf747efb64d4","C3","batch3","","null","<p class=block-text>Trial 49 out of 60</p>","null","spm_show_trial_num","","","","","","","","","","","","","","","","","","","","","","","","",""
"","","","","","image-button-response","279","782384","0.0-3.0-4.0-1.24","60ff3613da8baf747efb64d4","C3","batch3","","7449.79999999702","img/question_5_1.jpeg","6","spm_respsonse","1","7","mat_49","","","","","","1","7449.79999999702","","","","","","","","","","","","","","",""
"","","","","","html-keyboard-response","280","783450","0.0-3.0-4.0-0.25","60ff3613da8baf747efb64d4","C3","batch3","","null","<p class=block-text>Trial 50 out of 60</p>","null","spm_show_trial_num","","","","","","","","","","","","","","","","","","","","","","","","",""
"","","","","","image-button-response","281","803608","0.0-3.0-4.0-1.25","60ff3613da8baf747efb64d4","C3","batch3","","20154.80000001192","img/question_5_2.jpeg","5","spm_respsonse","1","6","mat_50","","","","","","1","20154.80000001192","","","","","","","","","","","","","","",""
"","","","","","html-keyboard-response","282","804674","0.0-3.0-4.0-0.26","60ff3613da8baf747efb64d4","C3","batch3","","null","<p class=block-text>Trial 51 out of 60</p>","null","spm_show_trial_num","","","","","","","","","","","","","","","","","","","","","","","","",""
"","","","","","image-button-response","283","823655","0.0-3.0-4.0-1.26","60ff3613da8baf747efb64d4","C3","batch3","","18977.79999999702","img/question_5_3.jpeg","7","spm_respsonse","1","8","mat_51","","","","","","1","18977.79999999702","","","","","","","","","","","","","","",""
"","","","","","html-keyboard-response","284","824719","0.0-3.0-4.0-0.27","60ff3613da8baf747efb64d4","C3","batch3","","null","<p class=block-text>Trial 52 out of 60</p>","null","spm_show_trial_num","","","","","","","","","","","","","","","","","","","","","","","","",""
"","","","","","image-button-response","285","834782","0.0-3.0-4.0-1.27","60ff3613da8baf747efb64d4","C3","batch3","","10059.90000000596","img/question_5_4.jpeg","1","spm_respsonse","1","2","mat_52","","","","","","1","10059.90000000596","","","","","","","","","","","","","","",""
"","","","","","html-keyboard-response","286","835846","0.0-3.0-4.0-0.28","60ff3613da8baf747efb64d4","C3","batch3","","null","<p class=block-text>Trial 53 out of 60</p>","null","spm_show_trial_num","","","","","","","","","","","","","","","","","","","","","","","","",""
"","","","","","image-button-response","287","841943","0.0-3.0-4.0-1.28","60ff3613da8baf747efb64d4","C3","batch3","","6093.20000000298","img/question_5_5.jpeg","0","spm_respsonse","1","1","mat_53","","","","","","1","6093.20000000298","","","","","","","","","","","","","","",""
"","","","","","html-keyboard-response","288","843008","0.0-3.0-4.0-0.29","60ff3613da8baf747efb64d4","C3","batch3","","null","<p class=block-text>Trial 54 out of 60</p>","null","spm_show_trial_num","","","","","","","","","","","","","","","","","","","","","","","","",""
"","","","","","image-button-response","289","855467","0.0-3.0-4.0-1.29","60ff3613da8baf747efb64d4","C3","batch3","","12456","img/question_5_6.jpeg","4","spm_respsonse","1","5","mat_54","","","","","","1","12456","","","","","","","","","","","","","","",""
"","","","","","html-keyboard-response","290","856532","0.0-3.0-4.0-0.30","60ff3613da8baf747efb64d4","C3","batch3","","null","<p class=block-text>Trial 55 out of 60</p>","null","spm_show_trial_num","","","","","","","","","","","","","","","","","","","","","","","","",""
"","","","","","image-button-response","291","883403","0.0-3.0-4.0-1.30","60ff3613da8baf747efb64d4","C3","batch3","","26868.19999998808","img/question_5_7.jpeg","0","spm_respsonse","1","1","mat_55","","","","","","1","26868.19999998808","","","","","","","","","","","","","","",""
"","","","","","html-keyboard-response","292","884468","0.0-3.0-4.0-0.31","60ff3613da8baf747efb64d4","C3","batch3","","null","<p class=block-text>Trial 56 out of 60</p>","null","spm_show_trial_num","","","","","","","","","","","","","","","","","","","","","","","","",""
"","","","","","image-button-response","293","903492","0.0-3.0-4.0-1.31","60ff3613da8baf747efb64d4","C3","batch3","","19021.5","img/question_5_8.jpeg","5","spm_respsonse","1","6","mat_56","","","","","","1","19021.5","","","","","","","","","","","","","","",""
"","","","","","html-keyboard-response","294","904556","0.0-3.0-4.0-0.32","60ff3613da8baf747efb64d4","C3","batch3","","null","<p class=block-text>Trial 57 out of 60</p>","null","spm_show_trial_num","","","","","","","","","","","","","","","","","","","","","","","","",""
"","","","","","image-button-response","295","916680","0.0-3.0-4.0-1.32","60ff3613da8baf747efb64d4","C3","batch3","","12120.300000011921","img/question_5_9.jpeg","2","spm_respsonse","1","3","mat_57","","","","","","1","12120.300000011921","","","","","","","","","","","","","","",""
"","","","","","html-keyboard-response","296","917751","0.0-3.0-4.0-0.33","60ff3613da8baf747efb64d4","C3","batch3","","null","<p class=block-text>Trial 58 out of 60</p>","null","spm_show_trial_num","","","","","","","","","","","","","","","","","","","","","","","","",""
"","","","","","image-button-response","297","957354","0.0-3.0-4.0-1.33","60ff3613da8baf747efb64d4","C3","batch3","","39601.09999999404","img/question_5_10.jpeg","2","spm_respsonse","0","2","mat_58","","","","","","0","39601.09999999404","","","","","","","","","","","","","","",""
"","","","","","html-keyboard-response","298","958419","0.0-3.0-4.0-0.34","60ff3613da8baf747efb64d4","C3","batch3","","null","<p class=block-text>Trial 59 out of 60</p>","null","spm_show_trial_num","","","","","","","","","","","","","","","","","","","","","","","","",""
"","","","","","image-button-response","299","979207","0.0-3.0-4.0-1.34","60ff3613da8baf747efb64d4","C3","batch3","","20785.5","img/question_5_11.jpeg","4","spm_respsonse","0","4","mat_59","","","","","","0","20785.5","","","","","","","","","","","","","","",""
"","","","","","html-keyboard-response","300","980272","0.0-3.0-4.0-0.35","60ff3613da8baf747efb64d4","C3","batch3","","null","<p class=block-text>Trial 60 out of 60</p>","null","spm_show_trial_num","","","","","","","","","","","","","","","","","","","","","","","","",""
"","","","","","image-button-response","301","1018790","0.0-3.0-4.0-1.35","60ff3613da8baf747efb64d4","C3","batch3","","38516.5","img/question_5_12.jpeg","1","spm_respsonse","0","5","mat_60","","","","","","0","38516.5","","","","","","","","","","","","","","",""
"","","","","","html-button-response","302","1020900","0.0-3.0-5.0","60ff3613da8baf747efb64d4","C3","batch3","","1852.5","<p class= block-text>This concludes the Standard Progressive Matrix game. Thank you for your responses!<br> When you are ready, click the button continue</p>","0","spm_goodbye","","","","","","","","","","","","","","","","","","","","","","","","",""
"true","","","","","fullscreen","303","1023344","0.0-4.0-0.0","60ff3613da8baf747efb64d4","C3","batch3","","","","","","","","","","","","","","","","","","","","","","","","","","","","","",""
"","","","","","instructions","304","1064519","0.0-4.0-1.0-0.0-0.0","60ff3613da8baf747efb64d4","C3","batch3","[{""page_index"":0,""viewing_time"":16476.5},{""page_index"":1,""viewing_time"":4013.5999999940395},{""page_index"":2,""viewing_time"":2386.7000000029802},{""page_index"":3,""viewing_time"":6692.20000000298},{""page_index"":4,""viewing_time"":3295.5999999940395},{""page_index"":5,""viewing_time"":5941.600000008941},{""page_index"":6,""viewing_time"":2367.5}]","41174.09999999404","","","tol-instructions","","","","","","","","","","","","","","","","","","","","","","","","",""
"","","","","","html-button-response","305","1065437","0.0-4.0-1.0-1.0-0.0","60ff3613da8baf747efb64d4","C3","batch3","","916.2000000029802","<p class=block-text> Let's answer a few questions <br>","0","tol_enter_quiz","","","","","","","","","","","","","","","","","","","","","","","","",""
"","","","","","html-button-response","306","1067843","0.0-4.0-1.0-1.0-1.0","60ff3613da8baf747efb64d4","C3","batch3","","2402.3999999910593","<p class = block-text>True or False: You can only move the ball on top of a peg. <br></p>","0","tol_quiz","true","","","","","","","","","","","","","","","","","","","","","","","",""
"","","","","","html-button-response","307","1068555","0.0-4.0-1.0-1.0-2.0","60ff3613da8baf747efb64d4","C3","batch3","","709.1999999880791","<p class = block-text>Correct! You can only move the ball on top of a peg.</p>","0","tol_quiz_feedback","","","","","","","","","","","","","","","","","","","","","","","","",""
"","","","","","html-button-response","308","1070528","0.0-4.0-1.0-1.0-3.0","60ff3613da8baf747efb64d4","C3","batch3","","1971.8999999910593","<p class = block-text>True or False: You should try to match your board with the target board with fewest moves possible. <br></p>","0","tol_quiz","true","","","","","","","","","","","","","","","","","","","","","","","",""
"","","","","","html-button-response","309","1071023","0.0-4.0-1.0-1.0-4.0","60ff3613da8baf747efb64d4","C3","batch3","","492.69999998807907","<p class = block-text>Correct! </p>","0","tol_quiz_feedback","","","","","","","","","","","","","","","","","","","","","","","","",""
"","","","","","html-button-response","310","1072013","0.0-4.0-2.0","60ff3613da8baf747efb64d4","C3","batch3","","987","<p class=block-text> Now that you've understood the game, let's practice a few easier examples before we start!<br> <br>","0","","","","","","","","","","","","","","","","","","","","","","","","","",""
"","","","","","single-stim-button","311","1074392","0.0-4.0-3.0-0.0","60ff3613da8baf747efb64d4","C3","batch3","","2374","","","tol_practice","","","","","","","","","","","tol_peg_2","2374","2374","0","[[1,2,0],[0,0],[0]]","1","[[1,2,0],[0,0],[3]]","practice","2374","","","","","",""
"","","","","","single-stim-button","312","1075343","0.0-4.0-3.0-1.0","60ff3613da8baf747efb64d4","C3","batch3","","950","","","tol_practice","","","","","","","","","","","tol_peg_3","950","950","0","[[1,2,0],[0,0],[3]]","1","[[1,2,0],[0,0],[3]]","practice","950","","","","","",""
"","","","","","poldrack-single-stim","313","1076349","0.0-4.0-4.0","60ff3613da8baf747efb64d4","C3","batch3","","-1","","","tol_feedback","true","","","","","","","","","","","1000","1000","500","","","","","","-1","none","true","","0",""
"","","","","","single-stim-button","314","1079324","0.0-4.0-5.0-0.0","60ff3613da8baf747efb64d4","C3","batch3","","2974","","","tol_practice","","","","","","","","","","","tol_peg_1","2974","2974","0","[[1,0,0],[3,0],[0]]","2","[[0,0,0],[3,1],[2]]","practice","2974","","","","","",""
"","","","","","single-stim-button","315","1080079","0.0-4.0-5.0-1.0","60ff3613da8baf747efb64d4","C3","batch3","","752","","","tol_practice","","","","","","","","","","","tol_peg_3","752","752","0","[[1,0,0],[3,0],[2]]","2","[[0,0,0],[3,1],[2]]","practice","752","","","","","",""
"","","","","","single-stim-button","316","1080919","0.0-4.0-5.1-0.1","60ff3613da8baf747efb64d4","C3","batch3","","837","","","tol_practice","","","","","","","","","","","tol_peg_1","837","837","0","[[0,0,0],[3,0],[2]]","3","[[0,0,0],[3,1],[2]]","practice","837","","","","","",""
"","","","","","single-stim-button","317","1081622","0.0-4.0-5.1-1.1","60ff3613da8baf747efb64d4","C3","batch3","","702","","","tol_practice","","","","","","","","","","","tol_peg_2","702","702","0","[[0,0,0],[3,1],[2]]","3","[[0,0,0],[3,1],[2]]","practice","702","","","","","",""
"","","","","","poldrack-single-stim","318","1082629","0.0-4.0-6.0","60ff3613da8baf747efb64d4","C3","batch3","","-1","","","tol_feedback","true","","","","","","","","","","","1000","1000","500","","","","","","-1","none","true","","0",""
"","","","","","single-stim-button","319","1085114","0.0-4.0-7.0-0.0","60ff3613da8baf747efb64d4","C3","batch3","","2484","","","tol_practice","","","","","","","","","","","tol_peg_2","2484","2484","0","[[1,2,0],[0,0],[0]]","4","[[1,0,0],[2,0],[3]]","practice","2484","","","","","",""
"","","","","","single-stim-button","320","1085883","0.0-4.0-7.0-1.0","60ff3613da8baf747efb64d4","C3","batch3","","768","","","tol_practice","","","","","","","","","","","tol_peg_3","768","768","0","[[1,2,0],[0,0],[3]]","4","[[1,0,0],[2,0],[3]]","practice","768","","","","","",""
"","","","","","single-stim-button","321","1086619","0.0-4.0-7.1-0.1","60ff3613da8baf747efb64d4","C3","batch3","","735","","","tol_practice","","","","","","","","","","","tol_peg_1","735","735","0","[[1,0,0],[0,0],[3]]","5","[[1,0,0],[2,0],[3]]","practice","735","","","","","",""
"","","","","","single-stim-button","322","1087140","0.0-4.0-7.1-1.1","60ff3613da8baf747efb64d4","C3","batch3","","520","","","tol_practice","","","","","","","","","","","tol_peg_2","520","520","0","[[1,0,0],[2,0],[3]]","5","[[1,0,0],[2,0],[3]]","practice","520","","","","","",""
"","","","","","poldrack-single-stim","323","1088144","0.0-4.0-8.0","60ff3613da8baf747efb64d4","C3","batch3","","-1","","","tol_feedback","true","","","","","","","","","","","1000","1000","500","","","","","","-1","none","true","","0",""
"","","","","","html-button-response","324","1089878","0.0-4.0-9.0","60ff3613da8baf747efb64d4","C3","batch3","","1732","<div class = centerbox><p class = center-block-text>Great job! You are done with practice trials<br>You are about to start official trials.<br> <br> Problem <strong>1</strong> out of 25 problems</p></div>","0","tol_instruction","","","","","","","","","","","","","","","","","","","","","","","","",""
"","","","","","single-stim-button","325","1095903","0.0-4.0-10.0-0.0","60ff3613da8baf747efb64d4","C3","batch3","","5017","","","tol_tohand","","","","","","","","","","","tol_peg_1","5017","5017","0","[[1,0,0],[3,0],[0]]","1","[[1,3,0],[2,0],[0]]","0","0","","","","","","3"
"","","","","","single-stim-button","326","1096748","0.0-4.0-10.0-1.0","60ff3613da8baf747efb64d4","C3","batch3","","843","","","tol_toboard","","","","","","","","","","","tol_peg_3","843","843","0","[[1,0,0],[3,0],[2]]","1","[[1,3,0],[2,0],[0]]","0","0","","","","","","3"
"","","","","","single-stim-button","327","1097435","0.0-4.0-10.1-0.1","60ff3613da8baf747efb64d4","C3","batch3","","685","","","tol_tohand","","","","","","","","","","","tol_peg_2","685","685","0","[[1,0,0],[0,0],[2]]","2","[[1,3,0],[2,0],[0]]","0","0","","","","","","3"
"","","","","","single-stim-button","328","1098304","0.0-4.0-10.1-1.1","60ff3613da8baf747efb64d4","C3","batch3","","868","","","tol_toboard","","","","","","","","","","","tol_peg_1","868","868","0","[[1,3,0],[0,0],[2]]","2","[[1,3,0],[2,0],[0]]","0","0","","","","","","3"
"","","","","","single-stim-button","329","1099160","0.0-4.0-10.2-0.2","60ff3613da8baf747efb64d4","C3","batch3","","855","","","tol_tohand","","","","","","","","","","","tol_peg_3","855","855","0","[[1,3,0],[0,0],[0]]","3","[[1,3,0],[2,0],[0]]","0","0","","","","","","3"
"","","","","","single-stim-button","330","1099830","0.0-4.0-10.2-1.2","60ff3613da8baf747efb64d4","C3","batch3","","669","","","tol_toboard","","","","","","","","","","","tol_peg_2","669","669","0","[[1,3,0],[2,0],[0]]","3","[[1,3,0],[2,0],[0]]","0","0","","","","","","3"
"","","","","","poldrack-single-stim","331","1100839","0.0-4.0-11.0","60ff3613da8baf747efb64d4","C3","batch3","","-1","","","tol_feedback","true","","","","","","","","","","","1000","1000","500","","","","","","-1","none","true","5017","6557",""
"","","","","","html-button-response","332","1101933","0.0-4.0-12.0","60ff3613da8baf747efb64d4","C3","batch3","","1092.5","<div class = centerbox><p class = center-block-text>problem <strong>2</strong> out of 25 problems</p></div>","0","tol_trial_num","","","","","","","","","","","","","","","","","","","","","","","","",""
"","","","","","single-stim-button","333","1109017","0.0-4.0-13.0-0.0","60ff3613da8baf747efb64d4","C3","batch3","","7082","","","tol_tohand","","","","","","","","","","","tol_peg_2","7082","7082","0","[[1,2,0],[0,0],[0]]","1","[[2,1,3],[0,0],[0]]","1","0","","","","","","5"
"","","","","","single-stim-button","334","1109791","0.0-4.0-13.0-1.0","60ff3613da8baf747efb64d4","C3","batch3","","774","","","tol_toboard","","","","","","","","","","","tol_peg_3","774","774","0","[[1,2,0],[0,0],[3]]","1","[[2,1,3],[0,0],[0]]","1","0","","","","","","5"
"","","","","","single-stim-button","335","1110563","0.0-4.0-13.1-0.1","60ff3613da8baf747efb64d4","C3","batch3","","771","","","tol_tohand","","","","","","","","","","","tol_peg_1","771","771","0","[[1,0,0],[0,0],[3]]","2","[[2,1,3],[0,0],[0]]","1","0","","","","","","5"
"","","","","","single-stim-button","336","1113651","0.0-4.0-13.1-1.1","60ff3613da8baf747efb64d4","C3","batch3","","3087","","","tol_toboard","","","","","","","","","","","tol_peg_2","3087","3087","0","[[1,0,0],[2,0],[3]]","2","[[2,1,3],[0,0],[0]]","1","0","","","","","","5"
"","","","","","single-stim-button","337","1115485","0.0-4.0-13.2-0.2","60ff3613da8baf747efb64d4","C3","batch3","","1832","","","tol_tohand","","","","","","","","","","","tol_peg_1","1832","1832","0","[[0,0,0],[2,0],[3]]","3","[[2,1,3],[0,0],[0]]","1","0","","","","","","5"
"","","","","","single-stim-button","338","1117672","0.0-4.0-13.2-1.2","60ff3613da8baf747efb64d4","C3","batch3","","2186","","","tol_toboard","","","","","","","","","","","tol_peg_1","2186","2186","0","[[1,0,0],[2,0],[3]]","3","[[2,1,3],[0,0],[0]]","1","0","","","","","","5"
"","","","","","single-stim-button","339","1119295","0.0-4.0-13.3-0.3","60ff3613da8baf747efb64d4","C3","batch3","","1621","","","tol_tohand","","","","","","","","","","","tol_peg_2","1621","1621","0","[[1,0,0],[0,0],[3]]","4","[[2,1,3],[0,0],[0]]","1","0","","","","","","5"
"","","","","","single-stim-button","340","1120000","0.0-4.0-13.3-1.3","60ff3613da8baf747efb64d4","C3","batch3","","705","","","tol_toboard","","","","","","","","","","","tol_peg_1","705","705","0","[[1,2,0],[0,0],[3]]","4","[[2,1,3],[0,0],[0]]","1","0","","","","","","5"
"","","","","","single-stim-button","341","1120603","0.0-4.0-13.4-0.4","60ff3613da8baf747efb64d4","C3","batch3","","601","","","tol_tohand","","","","","","","","","","","tol_peg_3","601","601","0","[[1,2,0],[0,0],[0]]","5","[[2,1,3],[0,0],[0]]","1","0","","","","","","5"
"","","","","","single-stim-button","342","1121139","0.0-4.0-13.4-1.4","60ff3613da8baf747efb64d4","C3","batch3","","535","","","tol_toboard","","","","","","","","","","","tol_peg_2","535","535","0","[[1,2,0],[3,0],[0]]","5","[[2,1,3],[0,0],[0]]","1","0","","","","","","5"
"","","","","","single-stim-button","343","1124988","0.0-4.0-13.5-0.5","60ff3613da8baf747efb64d4","C3","batch3","","3848","","","tol_tohand","","","","","","","","","","","tol_peg_1","3848","3848","0","[[1,0,0],[3,0],[0]]","6","[[2,1,3],[0,0],[0]]","1","0","","","","","","5"
"","","","","","single-stim-button","344","1125644","0.0-4.0-13.5-1.5","60ff3613da8baf747efb64d4","C3","batch3","","655","","","tol_toboard","","","","","","","","","","","tol_peg_3","655","655","0","[[1,0,0],[3,0],[2]]","6","[[2,1,3],[0,0],[0]]","1","0","","","","","","5"
"","","","","","single-stim-button","345","1126297","0.0-4.0-13.6-0.6","60ff3613da8baf747efb64d4","C3","batch3","","652","","","tol_tohand","","","","","","","","","","","tol_peg_1","652","652","0","[[0,0,0],[3,0],[2]]","7","[[2,1,3],[0,0],[0]]","1","0","","","","","","5"
"","","","","","single-stim-button","346","1127072","0.0-4.0-13.6-1.6","60ff3613da8baf747efb64d4","C3","batch3","","773","","","tol_toboard","","","","","","","","","","","tol_peg_2","773","773","0","[[0,0,0],[3,1],[2]]","7","[[2,1,3],[0,0],[0]]","1","0","","","","","","5"
"","","","","","single-stim-button","347","1127890","0.0-4.0-13.7-0.7","60ff3613da8baf747efb64d4","C3","batch3","","817","","","tol_tohand","","","","","","","","","","","tol_peg_3","817","817","0","[[0,0,0],[3,1],[0]]","8","[[2,1,3],[0,0],[0]]","1","0","","","","","","5"
"","","","","","single-stim-button","348","1128678","0.0-4.0-13.7-1.7","60ff3613da8baf747efb64d4","C3","batch3","","787","","","tol_toboard","","","","","","","","","","","tol_peg_1","787","787","0","[[2,0,0],[3,1],[0]]","8","[[2,1,3],[0,0],[0]]","1","0","","","","","","5"
