"success","timeout","failed_images","failed_audio","failed_video","trial_type","trial_index","time_elapsed","internal_node_id","subject_id","study_id","session_id","view_history","rt","task","stimulus","response","correct","mouse_click","stim_duration","block_duration","timing_post_trial","current_position","tol_num_moves_made","tol_target","tol_problem_id","tol_rt","key_press","possible_responses","tol_correct","preplanning","tol_rt_per_trial","tol_min_moves","item","answer","spm_correct","spm_rt","fiar_detect_rt","fiar_detect_correct","total_correct_fiar_detect","post_trial_gap","choices"
"true","false","[]","[]","[]","preload","0","2560","0.0-0.0","60ff95f38478c4ce042f9f5d","F1","batch6","","","","","","","","","","","","","","","","","","","","","","","","","","","","","",""
"true","","","","","fullscreen","1","9395","0.0-1.0-0.0","60ff95f38478c4ce042f9f5d","F1","batch6","","","","","","","","","","","","","","","","","","","","","","","","","","","","","",""
"true","","","","","fullscreen","2","11694","0.0-2.0-0.0","60ff95f38478c4ce042f9f5d","F1","batch6","","","","","","","","","","","","","","","","","","","","","","","","","","","","","",""
"","","","","","instructions","3","64402","0.0-2.0-1.0-0.0-0.0","60ff95f38478c4ce042f9f5d","F1","batch6","[{""page_index"":0,""viewing_time"":7557.5999999940395},{""page_index"":1,""viewing_time"":5614},{""page_index"":2,""viewing_time"":3125.9000000059605},{""page_index"":3,""viewing_time"":6749},{""page_index"":4,""viewing_time"":5718.699999988079},{""page_index"":5,""viewing_time"":7064.4000000059605},{""page_index"":4,""viewing_time"":1039.800000011921},{""page_index"":3,""viewing_time"":1559.699999988079},{""page_index"":4,""viewing_time"":832.3000000119209},{""page_index"":5,""viewing_time"":10886.699999988079},{""page_index"":6,""viewing_time"":2558.0999999940395}]","52706.59999999404","tol-instructions","","","","","","","","","","","","","","","","","","","","","","","","","","",""
"","","","","","html-button-response","4","65227","0.0-2.0-1.0-1.0-0.0","60ff95f38478c4ce042f9f5d","F1","batch6","","823.0999999940395","tol_enter_quiz","<p class=block-text> Let's answer a few questions <br>","0","","","","","","","","","","","","","","","","","","","","","","","","",""
"","","","","","html-button-response","5","70494","0.0-2.0-1.0-1.0-1.0","60ff95f38478c4ce042f9f5d","F1","batch6","","5266","tol_quiz","<p class = block-text>True or False: You can only move the ball on top of a peg. <br></p>","0","true","","","","","","","","","","","","","","","","","","","","","","","",""
"","","","","","html-button-response","6","71840","0.0-2.0-1.0-1.0-2.0","60ff95f38478c4ce042f9f5d","F1","batch6","","1343.5","tol_quiz_feedback","<p class = block-text>Correct! You can only move the ball on top of a peg.</p>","0","","","","","","","","","","","","","","","","","","","","","","","","",""
"","","","","","html-button-response","7","74745","0.0-2.0-1.0-1.0-3.0","60ff95f38478c4ce042f9f5d","F1","batch6","","2903.199999988079","tol_quiz","<p class = block-text>True or False: You should try to match your board with the target board with fewest moves possible. <br></p>","0","true","","","","","","","","","","","","","","","","","","","","","","","",""
"","","","","","html-button-response","8","75342","0.0-2.0-1.0-1.0-4.0","60ff95f38478c4ce042f9f5d","F1","batch6","","596.0999999940395","tol_quiz_feedback","<p class = block-text>Correct! </p>","0","","","","","","","","","","","","","","","","","","","","","","","","",""
"","","","","","html-button-response","9","76901","0.0-2.0-2.0","60ff95f38478c4ce042f9f5d","F1","batch6","","1557.2000000178814","","<p class=block-text> Now that you've understood the game, let's practice a few easier examples before we start!<br> <br>","0","","","","","","","","","","","","","","","","","","","","","","","","",""
"","","","","","single-stim-button","10","79962","0.0-2.0-3.0-0.0","60ff95f38478c4ce042f9f5d","F1","batch6","","3057","tol_practice","","","","tol_peg_2","3057","3057","0","[[1,2,0],[0,0],[0]]","1","[[1,2,0],[0,0],[3]]","practice","3057","","","","","","","","","","","","","","",""
"","","","","","single-stim-button","11","81813","0.0-2.0-3.0-1.0","60ff95f38478c4ce042f9f5d","F1","batch6","","1849","tol_practice","","","","tol_peg_3","1849","1849","0","[[1,2,0],[0,0],[3]]","1","[[1,2,0],[0,0],[3]]","practice","1849","","","","","","","","","","","","","","",""
"","","","","","poldrack-single-stim","12","82827","0.0-2.0-4.0","60ff95f38478c4ce042f9f5d","F1","batch6","","-1","tol_feedback","","","true","","1000","1000","500","","","","","","-1","none","true","","0","","","","","","","","","",""
"","","","","","single-stim-button","13","88430","0.0-2.0-5.0-0.0","60ff95f38478c4ce042f9f5d","F1","batch6","","5601","tol_practice","","","","tol_peg_1","5601","5601","0","[[1,0,0],[3,0],[0]]","2","[[0,0,0],[3,1],[2]]","practice","5601","","","","","","","","","","","","","","",""
"","","","","","single-stim-button","14","93337","0.0-2.0-5.0-1.0","60ff95f38478c4ce042f9f5d","F1","batch6","","4906","tol_practice","","","","tol_peg_3","4906","4906","0","[[1,0,0],[3,0],[2]]","2","[[0,0,0],[3,1],[2]]","practice","4906","","","","","","","","","","","","","","",""
"","","","","","single-stim-button","15","94615","0.0-2.0-5.1-0.1","60ff95f38478c4ce042f9f5d","F1","batch6","","1276","tol_practice","","","","tol_peg_1","1276","1276","0","[[0,0,0],[3,0],[2]]","3","[[0,0,0],[3,1],[2]]","practice","1276","","","","","","","","","","","","","","",""
"","","","","","single-stim-button","16","95591","0.0-2.0-5.1-1.1","60ff95f38478c4ce042f9f5d","F1","batch6","","974","tol_practice","","","","tol_peg_2","974","974","0","[[0,0,0],[3,1],[2]]","3","[[0,0,0],[3,1],[2]]","practice","974","","","","","","","","","","","","","","",""
"","","","","","poldrack-single-stim","17","96603","0.0-2.0-6.0","60ff95f38478c4ce042f9f5d","F1","batch6","","-1","tol_feedback","","","true","","1000","1000","500","","","","","","-1","none","true","","0","","","","","","","","","",""
"","","","","","single-stim-button","18","100116","0.0-2.0-7.0-0.0","60ff95f38478c4ce042f9f5d","F1","batch6","","3511","tol_practice","","","","tol_peg_2","3511","3511","0","[[1,2,0],[0,0],[0]]","4","[[1,0,0],[2,0],[3]]","practice","3511","","","","","","","","","","","","","","",""
"","","","","","single-stim-button","19","101619","0.0-2.0-7.0-1.0","60ff95f38478c4ce042f9f5d","F1","batch6","","1501","tol_practice","","","","tol_peg_3","1501","1501","0","[[1,2,0],[0,0],[3]]","4","[[1,0,0],[2,0],[3]]","practice","1501","","","","","","","","","","","","","","",""
"","","","","","single-stim-button","20","102459","0.0-2.0-7.1-0.1","60ff95f38478c4ce042f9f5d","F1","batch6","","838","tol_practice","","","","tol_peg_1","838","838","0","[[1,0,0],[0,0],[3]]","5","[[1,0,0],[2,0],[3]]","practice","838","","","","","","","","","","","","","","",""
"","","","","","single-stim-button","21","103410","0.0-2.0-7.1-1.1","60ff95f38478c4ce042f9f5d","F1","batch6","","950","tol_practice","","","","tol_peg_2","950","950","0","[[1,0,0],[2,0],[3]]","5","[[1,0,0],[2,0],[3]]","practice","950","","","","","","","","","","","","","","",""
"","","","","","poldrack-single-stim","22","104415","0.0-2.0-8.0","60ff95f38478c4ce042f9f5d","F1","batch6","","-1","tol_feedback","","","true","","1000","1000","500","","","","","","-1","none","true","","0","","","","","","","","","",""
"","","","","","html-button-response","23","106918","0.0-2.0-9.0","60ff95f38478c4ce042f9f5d","F1","batch6","","2500.699999988079","tol_instruction","<div class = centerbox><p class = center-block-text>Great job! You are done with practice trials<br>You are about to start official trials.<br> <br> Problem <strong>1</strong> out of 25 problems</p></div>","0","","","","","","","","","","","","","","","","","","","","","","","","",""
"","","","","","single-stim-button","24","115391","0.0-2.0-10.0-0.0","60ff95f38478c4ce042f9f5d","F1","batch6","","7466","tol_tohand","","","","tol_peg_2","7466","7466","0","[[1,2,0],[0,0],[0]]","1","[[1,3,0],[2,0],[0]]","0","0","","","","","","3","","","","","","","","",""
"","","","","","single-stim-button","25","117055","0.0-2.0-10.0-1.0","60ff95f38478c4ce042f9f5d","F1","batch6","","1662","tol_toboard","","","","tol_peg_3","1662","1662","0","[[1,2,0],[0,0],[3]]","1","[[1,3,0],[2,0],[0]]","0","0","","","","","","3","","","","","","","","",""
"","","","","","single-stim-button","26","117695","0.0-2.0-10.1-0.1","60ff95f38478c4ce042f9f5d","F1","batch6","","638","tol_tohand","","","","tol_peg_1","638","638","0","[[1,0,0],[0,0],[3]]","2","[[1,3,0],[2,0],[0]]","0","0","","","","","","3","","","","","","","","",""
"","","","","","single-stim-button","27","118686","0.0-2.0-10.1-1.1","60ff95f38478c4ce042f9f5d","F1","batch6","","990","tol_toboard","","","","tol_peg_2","990","990","0","[[1,0,0],[2,0],[3]]","2","[[1,3,0],[2,0],[0]]","0","0","","","","","","3","","","","","","","","",""
"","","","","","single-stim-button","28","119310","0.0-2.0-10.2-0.2","60ff95f38478c4ce042f9f5d","F1","batch6","","622","tol_tohand","","","","tol_peg_3","622","622","0","[[1,0,0],[2,0],[0]]","3","[[1,3,0],[2,0],[0]]","0","0","","","","","","3","","","","","","","","",""
"","","","","","single-stim-button","29","120222","0.0-2.0-10.2-1.2","60ff95f38478c4ce042f9f5d","F1","batch6","","911","tol_toboard","","","","tol_peg_1","911","911","0","[[1,3,0],[2,0],[0]]","3","[[1,3,0],[2,0],[0]]","0","0","","","","","","3","","","","","","","","",""
"","","","","","poldrack-single-stim","30","121231","0.0-2.0-11.0","60ff95f38478c4ce042f9f5d","F1","batch6","","-1","tol_feedback","","","true","","1000","1000","500","","","","","","-1","none","true","7466","8726","","","","","","","","","",""
"","","","","","html-button-response","31","122194","0.0-2.0-12.0","60ff95f38478c4ce042f9f5d","F1","batch6","","960.5","tol_trial_num","<div class = centerbox><p class = center-block-text>problem <strong>2</strong> out of 25 problems</p></div>","0","","","","","","","","","","","","","","","","","","","","","","","","",""
"","","","","","single-stim-button","32","124651","0.0-2.0-13.0-0.0","60ff95f38478c4ce042f9f5d","F1","batch6","","2455","tol_tohand","","","","tol_peg_1","2455","2455","0","[[1,0,0],[3,0],[0]]","1","[[2,1,3],[0,0],[0]]","1","0","","","","","","5","","","","","","","","",""
"","","","","","single-stim-button","33","126890","0.0-2.0-13.0-1.0","60ff95f38478c4ce042f9f5d","F1","batch6","","2238","tol_toboard","","","","tol_peg_3","2238","2238","0","[[1,0,0],[3,0],[2]]","1","[[2,1,3],[0,0],[0]]","1","0","","","","","","5","","","","","","","","",""
"","","","","","single-stim-button","34","127673","0.0-2.0-13.1-0.1","60ff95f38478c4ce042f9f5d","F1","batch6","","781","tol_tohand","","","","tol_peg_1","781","781","0","[[0,0,0],[3,0],[2]]","2","[[2,1,3],[0,0],[0]]","1","0","","","","","","5","","","","","","","","",""
"","","","","","single-stim-button","35","129457","0.0-2.0-13.1-1.1","60ff95f38478c4ce042f9f5d","F1","batch6","","1782","tol_toboard","","","","tol_peg_2","1782","1782","0","[[0,0,0],[3,1],[2]]","2","[[2,1,3],[0,0],[0]]","1","0","","","","","","5","","","","","","","","",""
"","","","","","single-stim-button","36","130151","0.0-2.0-13.2-0.2","60ff95f38478c4ce042f9f5d","F1","batch6","","693","tol_tohand","","","","tol_peg_3","693","693","0","[[0,0,0],[3,1],[0]]","3","[[2,1,3],[0,0],[0]]","1","0","","","","","","5","","","","","","","","",""
"","","","","","single-stim-button","37","131136","0.0-2.0-13.2-1.2","60ff95f38478c4ce042f9f5d","F1","batch6","","983","tol_toboard","","","","tol_peg_1","983","983","0","[[2,0,0],[3,1],[0]]","3","[[2,1,3],[0,0],[0]]","1","0","","","","","","5","","","","","","","","",""
"","","","","","single-stim-button","38","131879","0.0-2.0-13.3-0.3","60ff95f38478c4ce042f9f5d","F1","batch6","","741","tol_tohand","","","","tol_peg_2","741","741","0","[[2,0,0],[3,0],[0]]","4","[[2,1,3],[0,0],[0]]","1","0","","","","","","5","","","","","","","","",""
"","","","","","single-stim-button","39","132686","0.0-2.0-13.3-1.3","60ff95f38478c4ce042f9f5d","F1","batch6","","806","tol_toboard","","","","tol_peg_1","806","806","0","[[2,1,0],[3,0],[0]]","4","[[2,1,3],[0,0],[0]]","1","0","","","","","","5","","","","","","","","",""
"","","","","","single-stim-button","40","133277","0.0-2.0-13.4-0.4","60ff95f38478c4ce042f9f5d","F1","batch6","","590","tol_tohand","","","","tol_peg_2","590","590","0","[[2,1,0],[0,0],[0]]","5","[[2,1,3],[0,0],[0]]","1","0","","","","","","5","","","","","","","","",""
"","","","","","single-stim-button","41","134190","0.0-2.0-13.4-1.4","60ff95f38478c4ce042f9f5d","F1","batch6","","911","tol_toboard","","","","tol_peg_1","911","911","0","[[2,1,3],[0,0],[0]]","5","[[2,1,3],[0,0],[0]]","1","0","","","","","","5","","","","","","","","",""
"","","","","","poldrack-single-stim","42","135203","0.0-2.0-14.0","60ff95f38478c4ce042f9f5d","F1","batch6","","-1","tol_feedback","","","true","","1000","1000","500","","","","","","-1","none","true","2455","5260","","","","","","","","","",""
"","","","","","html-button-response","43","136193","0.0-2.0-15.0","60ff95f38478c4ce042f9f5d","F1","batch6","","988.3000000119209","tol_trial_num","<div class = centerbox><p class = center-block-text>problem <strong>3</strong> out of 25 problems</p></div>","0","","","","","","","","","","","","","","","","","","","","","","","","",""
"","","","","","single-stim-button","44","140946","0.0-2.0-16.0-0.0","60ff95f38478c4ce042f9f5d","F1","batch6","","4752","tol_tohand","","","","tol_peg_1","4752","4752","0","[[2,0,0],[0,0],[1]]","1","[[1,2,0],[3,0],[0]]","2","0","","","","","","4","","","","","","","","",""
"","","","","","single-stim-button","45","142129","0.0-2.0-16.0-1.0","60ff95f38478c4ce042f9f5d","F1","batch6","","1182","tol_toboard","","","","tol_peg_2","1182","1182","0","[[2,0,0],[3,0],[1]]","1","[[1,2,0],[3,0],[0]]","2","0","","","","","","4","","","","","","","","",""
"","","","","","single-stim-button","46","148390","0.0-2.0-16.1-0.1","60ff95f38478c4ce042f9f5d","F1","batch6","","6259","tol_tohand","","","","tol_peg_1","6259","6259","0","[[0,0,0],[3,0],[1]]","2","[[1,2,0],[3,0],[0]]","2","0","","","","","","4","","","","","","","","",""
"","","","","","single-stim-button","47","149630","0.0-2.0-16.1-1.1","60ff95f38478c4ce042f9f5d","F1","batch6","","1239","tol_toboard","","","","tol_peg_2","1239","1239","0","[[0,0,0],[3,2],[1]]","2","[[1,2,0],[3,0],[0]]","2","0","","","","","","4","","","","","","","","",""
"","","","","","single-stim-button","48","150316","0.0-2.0-16.2-0.2","60ff95f38478c4ce042f9f5d","F1","batch6","","684","tol_tohand","","","","tol_peg_3","684","684","0","[[0,0,0],[3,2],[0]]","3","[[1,2,0],[3,0],[0]]","2","0","","","","","","4","","","","","","","","",""
"","","","","","single-stim-button","49","151126","0.0-2.0-16.2-1.2","60ff95f38478c4ce042f9f5d","F1","batch6","","809","tol_toboard","","","","tol_peg_1","809","809","0","[[1,0,0],[3,2],[0]]","3","[[1,2,0],[3,0],[0]]","2","0","","","","","","4","","","","","","","","",""
"","","","","","single-stim-button","50","151781","0.0-2.0-16.3-0.3","60ff95f38478c4ce042f9f5d","F1","batch6","","653","tol_tohand","","","","tol_peg_2","653","653","0","[[1,0,0],[3,0],[0]]","4","[[1,2,0],[3,0],[0]]","2","0","","","","","","4","","","","","","","","",""
"","","","","","single-stim-button","51","152467","0.0-2.0-16.3-1.3","60ff95f38478c4ce042f9f5d","F1","batch6","","686","tol_toboard","","","","tol_peg_1","686","686","0","[[1,2,0],[3,0],[0]]","4","[[1,2,0],[3,0],[0]]","2","0","","","","","","4","","","","","","","","",""
"","","","","","poldrack-single-stim","52","153470","0.0-2.0-17.0","60ff95f38478c4ce042f9f5d","F1","batch6","","-1","tol_feedback","","","true","","1000","1000","500","","","","","","-1","none","true","4752","12348","","","","","","","","","",""
"","","","","","html-button-response","53","154323","0.0-2.0-18.0","60ff95f38478c4ce042f9f5d","F1","batch6","","852.3000000119209","tol_trial_num","<div class = centerbox><p class = center-block-text>problem <strong>4</strong> out of 25 problems</p></div>","0","","","","","","","","","","","","","","","","","","","","","","","","",""
"","","","","","single-stim-button","54","157784","0.0-2.0-19.0-0.0","60ff95f38478c4ce042f9f5d","F1","batch6","","3459","tol_tohand","","","","tol_peg_2","3459","3459","0","[[3,0,0],[2,0],[0]]","1","[[3,0,0],[1,0],[2]]","3","0","","","","","","3","","","","","","","","",""
"","","","","","single-stim-button","55","158681","0.0-2.0-19.0-1.0","60ff95f38478c4ce042f9f5d","F1","batch6","","896","tol_toboard","","","","tol_peg_1","896","896","0","[[3,1,0],[2,0],[0]]","1","[[3,0,0],[1,0],[2]]","3","0","","","","","","3","","","","","","","","",""
"","","","","","single-stim-button","56","159394","0.0-2.0-19.1-0.1","60ff95f38478c4ce042f9f5d","F1","batch6","","711","tol_tohand","","","","tol_peg_2","711","711","0","[[3,1,0],[0,0],[0]]","2","[[3,0,0],[1,0],[2]]","3","0","","","","","","3","","","","","","","","",""
"","","","","","single-stim-button","57","160184","0.0-2.0-19.1-1.1","60ff95f38478c4ce042f9f5d","F1","batch6","","790","tol_toboard","","","","tol_peg_3","790","790","0","[[3,1,0],[0,0],[2]]","2","[[3,0,0],[1,0],[2]]","3","0","","","","","","3","","","","","","","","",""
"","","","","","single-stim-button","58","160856","0.0-2.0-19.2-0.2","60ff95f38478c4ce042f9f5d","F1","batch6","","670","tol_tohand","","","","tol_peg_1","670","670","0","[[3,0,0],[0,0],[2]]","3","[[3,0,0],[1,0],[2]]","3","0","","","","","","3","","","","","","","","",""
"","","","","","single-stim-button","59","161551","0.0-2.0-19.2-1.2","60ff95f38478c4ce042f9f5d","F1","batch6","","693","tol_toboard","","","","tol_peg_2","693","693","0","[[3,0,0],[1,0],[2]]","3","[[3,0,0],[1,0],[2]]","3","0","","","","","","3","","","","","","","","",""
"","","","","","poldrack-single-stim","60","162560","0.0-2.0-20.0","60ff95f38478c4ce042f9f5d","F1","batch6","","-1","tol_feedback","","","true","","1000","1000","500","","","","","","-1","none","true","3459","4840","","","","","","","","","",""
"","","","","","html-button-response","61","163222","0.0-2.0-21.0","60ff95f38478c4ce042f9f5d","F1","batch6","","661.2000000178814","tol_trial_num","<div class = centerbox><p class = center-block-text>problem <strong>5</strong> out of 25 problems</p></div>","0","","","","","","","","","","","","","","","","","","","","","","","","",""
"","","","","","single-stim-button","62","165245","0.0-2.0-22.0-0.0","60ff95f38478c4ce042f9f5d","F1","batch6","","2021","tol_tohand","","","","tol_peg_2","2021","2021","0","[[1,0,0],[0,0],[3]]","1","[[0,0,0],[1,2],[3]]","4","0","","","","","","7","","","","","","","","",""
"","","","","","single-stim-button","63","168595","0.0-2.0-22.0-1.0","60ff95f38478c4ce042f9f5d","F1","batch6","","3349","tol_toboard","","","","tol_peg_2","3349","3349","0","[[1,0,0],[2,0],[3]]","1","[[0,0,0],[1,2],[3]]","4","0","","","","","","7","","","","","","","","",""
"","","","","","single-stim-button","64","184774","0.0-2.0-22.1-0.1","60ff95f38478c4ce042f9f5d","F1","batch6","","16178","tol_tohand","","","","tol_peg_3","16178","16178","0","[[1,0,0],[2,0],[0]]","2","[[0,0,0],[1,2],[3]]","4","0","","","","","","7","","","","","","","","",""
"","","","","","single-stim-button","65","185533","0.0-2.0-22.1-1.1","60ff95f38478c4ce042f9f5d","F1","batch6","","757","tol_toboard","","","","tol_peg_2","757","757","0","[[1,0,0],[2,3],[0]]","2","[[0,0,0],[1,2],[3]]","4","0","","","","","","7","","","","","","","","",""
"","","","","","single-stim-button","66","189692","0.0-2.0-22.2-0.2","60ff95f38478c4ce042f9f5d","F1","batch6","","4158","tol_tohand","","","","tol_peg_1","4158","4158","0","[[0,0,0],[2,3],[0]]","3","[[0,0,0],[1,2],[3]]","4","0","","","","","","7","","","","","","","","",""
"","","","","","single-stim-button","67","190547","0.0-2.0-22.2-1.2","60ff95f38478c4ce042f9f5d","F1","batch6","","854","tol_toboard","","","","tol_peg_3","854","854","0","[[0,0,0],[2,3],[1]]","3","[[0,0,0],[1,2],[3]]","4","0","","","","","","7","","","","","","","","",""
"","","","","","single-stim-button","68","193299","0.0-2.0-22.3-0.3","60ff95f38478c4ce042f9f5d","F1","batch6","","2750","tol_tohand","","","","tol_peg_2","2750","2750","0","[[0,0,0],[2,0],[1]]","4","[[0,0,0],[1,2],[3]]","4","0","","","","","","7","","","","","","","","",""
"","","","","","single-stim-button","69","194129","0.0-2.0-22.3-1.3","60ff95f38478c4ce042f9f5d","F1","batch6","","829","tol_toboard","","","","tol_peg_1","829","829","0","[[3,0,0],[2,0],[1]]","4","[[0,0,0],[1,2],[3]]","4","0","","","","","","7","","","","","","","","",""
"","","","","","single-stim-button","70","194770","0.0-2.0-22.4-0.4","60ff95f38478c4ce042f9f5d","F1","batch6","","641","tol_tohand","","","","tol_peg_2","641","641","0","[[3,0,0],[0,0],[1]]","5","[[0,0,0],[1,2],[3]]","4","0","","","","","","7","","","","","","","","",""
"","","","","","single-stim-button","71","195554","0.0-2.0-22.4-1.4","60ff95f38478c4ce042f9f5d","F1","batch6","","783","tol_toboard","","","","tol_peg_1","783","783","0","[[3,2,0],[0,0],[1]]","5","[[0,0,0],[1,2],[3]]","4","0","","","","","","7","","","","","","","","",""
"","","","","","single-stim-button","72","196225","0.0-2.0-22.5-0.5","60ff95f38478c4ce042f9f5d","F1","batch6","","670","tol_tohand","","","","tol_peg_3","670","670","0","[[3,2,0],[0,0],[0]]","6","[[0,0,0],[1,2],[3]]","4","0","","","","","","7","","","","","","","","",""
"","","","","","single-stim-button","73","196903","0.0-2.0-22.5-1.5","60ff95f38478c4ce042f9f5d","F1","batch6","","676","tol_toboard","","","","tol_peg_2","676","676","0","[[3,2,0],[1,0],[0]]","6","[[0,0,0],[1,2],[3]]","4","0","","","","","","7","","","","","","","","",""
"","","","","","single-stim-button","74","197537","0.0-2.0-22.6-0.6","60ff95f38478c4ce042f9f5d","F1","batch6","","633","tol_tohand","","","","tol_peg_1","633","633","0","[[3,0,0],[1,0],[0]]","7","[[0,0,0],[1,2],[3]]","4","0","","","","","","7","","","","","","","","",""
"","","","","","single-stim-button","75","198304","0.0-2.0-22.6-1.6","60ff95f38478c4ce042f9f5d","F1","batch6","","766","tol_toboard","","","","tol_peg_2","766","766","0","[[3,0,0],[1,2],[0]]","7","[[0,0,0],[1,2],[3]]","4","0","","","","","","7","","","","","","","","",""
"","","","","","single-stim-button","76","198992","0.0-2.0-22.7-0.7","60ff95f38478c4ce042f9f5d","F1","batch6","","686","tol_tohand","","","","tol_peg_1","686","686","0","[[0,0,0],[1,2],[0]]","8","[[0,0,0],[1,2],[3]]","4","0","","","","","","7","","","","","","","","",""
"","","","","","single-stim-button","77","199669","0.0-2.0-22.7-1.7","60ff95f38478c4ce042f9f5d","F1","batch6","","677","tol_toboard","","","","tol_peg_3","677","677","0","[[0,0,0],[1,2],[3]]","8","[[0,0,0],[1,2],[3]]","4","0","","","","","","7","","","","","","","","",""
"","","","","","poldrack-single-stim","78","200682","0.0-2.0-23.0","60ff95f38478c4ce042f9f5d","F1","batch6","","-1","tol_feedback","","","true","","1000","1000","500","","","","","","-1","none","true","2021","27737","","","","","","","","","",""
"","","","","","html-button-response","79","201503","0.0-2.0-24.0","60ff95f38478c4ce042f9f5d","F1","batch6","","818.5999999940395","tol_trial_num","<div class = centerbox><p class = center-block-text>problem <strong>6</strong> out of 25 problems</p></div>","0","","","","","","","","","","","","","","","","","","","","","","","","",""
"","","","","","single-stim-button","80","214686","0.0-2.0-25.0-0.0","60ff95f38478c4ce042f9f5d","F1","batch6","","13181","tol_tohand","","","","tol_peg_2","13181","13181","0","[[0,0,0],[1,0],[3]]","1","[[1,0,0],[2,3],[0]]","5","0","","","","","","6","","","","","","","","",""
"","","","","","single-stim-button","81","215375","0.0-2.0-25.0-1.0","60ff95f38478c4ce042f9f5d","F1","batch6","","688","tol_toboard","","","","tol_peg_1","688","688","0","[[2,0,0],[1,0],[3]]","1","[[1,0,0],[2,3],[0]]","5","0","","","","","","6","","","","","","","","",""
"","","","","","single-stim-button","82","220428","0.0-2.0-25.1-0.1","60ff95f38478c4ce042f9f5d","F1","batch6","","5052","tol_tohand","","","","tol_peg_3","5052","5052","0","[[2,0,0],[1,0],[0]]","2","[[1,0,0],[2,3],[0]]","5","0","","","","","","6","","","","","","","","",""
"","","","","","single-stim-button","83","222099","0.0-2.0-25.1-1.1","60ff95f38478c4ce042f9f5d","F1","batch6","","1670","tol_toboard","","","","tol_peg_1","1670","1670","0","[[2,3,0],[1,0],[0]]","2","[[1,0,0],[2,3],[0]]","5","0","","","","","","6","","","","","","","","",""
"","","","","","single-stim-button","84","223147","0.0-2.0-25.2-0.2","60ff95f38478c4ce042f9f5d","F1","batch6","","1048","tol_tohand","","","","tol_peg_2","1048","1048","0","[[2,3,0],[0,0],[0]]","3","[[1,0,0],[2,3],[0]]","5","0","","","","","","6","","","","","","","","",""
"","","","","","single-stim-button","85","223782","0.0-2.0-25.2-1.2","60ff95f38478c4ce042f9f5d","F1","batch6","","633","tol_toboard","","","","tol_peg_3","633","633","0","[[2,3,0],[0,0],[1]]","3","[[1,0,0],[2,3],[0]]","5","0","","","","","","6","","","","","","","","",""
"","","","","","single-stim-button","86","226076","0.0-2.0-25.3-0.3","60ff95f38478c4ce042f9f5d","F1","batch6","","2292","tol_tohand","","","","tol_peg_1","2292","2292","0","[[2,0,0],[0,0],[1]]","4","[[1,0,0],[2,3],[0]]","5","0","","","","","","6","","","","","","","","",""
"","","","","","single-stim-button","87","229098","0.0-2.0-25.3-1.3","60ff95f38478c4ce042f9f5d","F1","batch6","","3021","tol_toboard","","","","tol_peg_2","3021","3021","0","[[2,0,0],[3,0],[1]]","4","[[1,0,0],[2,3],[0]]","5","0","","","","","","6","","","","","","","","",""
"","","","","","single-stim-button","88","232128","0.0-2.0-25.4-0.4","60ff95f38478c4ce042f9f5d","F1","batch6","","3028","tol_tohand","","","","tol_peg_1","3028","3028","0","[[0,0,0],[3,0],[1]]","5","[[1,0,0],[2,3],[0]]","5","0","","","","","","6","","","","","","","","",""
"","","","","","single-stim-button","89","232842","0.0-2.0-25.4-1.4","60ff95f38478c4ce042f9f5d","F1","batch6","","712","tol_toboard","","","","tol_peg_2","712","712","0","[[0,0,0],[3,2],[1]]","5","[[1,0,0],[2,3],[0]]","5","0","","","","","","6","","","","","","","","",""
"","","","","","single-stim-button","90","233362","0.0-2.0-25.5-0.5","60ff95f38478c4ce042f9f5d","F1","batch6","","518","tol_tohand","","","","tol_peg_3","518","518","0","[[0,0,0],[3,2],[0]]","6","[[1,0,0],[2,3],[0]]","5","0","","","","","","6","","","","","","","","",""
"","","","","","single-stim-button","91","234417","0.0-2.0-25.5-1.5","60ff95f38478c4ce042f9f5d","F1","batch6","","1054","tol_toboard","","","","tol_peg_1","1054","1054","0","[[1,0,0],[3,2],[0]]","6","[[1,0,0],[2,3],[0]]","5","0","","","","","","6","","","","","","","","",""
"","","","","","single-stim-button","92","235948","0.0-2.0-25.6-0.6","60ff95f38478c4ce042f9f5d","F1","batch6","","1530","tol_tohand","","","","tol_peg_2","1530","1530","0","[[1,0,0],[3,0],[0]]","7","[[1,0,0],[2,3],[0]]","5","0","","","","","","6","","","","","","","","",""
"","","","","","single-stim-button","93","236696","0.0-2.0-25.6-1.6","60ff95f38478c4ce042f9f5d","F1","batch6","","747","tol_toboard","","","","tol_peg_3","747","747","0","[[1,0,0],[3,0],[2]]","7","[[1,0,0],[2,3],[0]]","5","0","","","","","","6","","","","","","","","",""
"","","","","","single-stim-button","94","237224","0.0-2.0-25.7-0.7","60ff95f38478c4ce042f9f5d","F1","batch6","","526","tol_tohand","","","","tol_peg_2","526","526","0","[[1,0,0],[0,0],[2]]","8","[[1,0,0],[2,3],[0]]","5","0","","","","","","6","","","","","","","","",""
"","","","","","single-stim-button","95","237935","0.0-2.0-25.7-1.7","60ff95f38478c4ce042f9f5d","F1","batch6","","710","tol_toboard","","","","tol_peg_1","710","710","0","[[1,3,0],[0,0],[2]]","8","[[1,0,0],[2,3],[0]]","5","0","","","","","","6","","","","","","","","",""
"","","","","","single-stim-button","96","238535","0.0-2.0-25.8-0.8","60ff95f38478c4ce042f9f5d","F1","batch6","","598","tol_tohand","","","","tol_peg_3","598","598","0","[[1,3,0],[0,0],[0]]","9","[[1,0,0],[2,3],[0]]","5","0","","","","","","6","","","","","","","","",""
"","","","","","single-stim-button","97","239334","0.0-2.0-25.8-1.8","60ff95f38478c4ce042f9f5d","F1","batch6","","797","tol_toboard","","","","tol_peg_2","797","797","0","[[1,3,0],[2,0],[0]]","9","[[1,0,0],[2,3],[0]]","5","0","","","","","","6","","","","","","","","",""
"","","","","","single-stim-button","98","239910","0.0-2.0-25.9-0.9","60ff95f38478c4ce042f9f5d","F1","batch6","","574","tol_tohand","","","","tol_peg_1","574","574","0","[[1,0,0],[2,0],[0]]","10","[[1,0,0],[2,3],[0]]","5","0","","","","","","6","","","","","","","","",""
"","","","","","single-stim-button","99","240589","0.0-2.0-25.9-1.9","60ff95f38478c4ce042f9f5d","F1","batch6","","677","tol_toboard","","","","tol_peg_2","677","677","0","[[1,0,0],[2,3],[0]]","10","[[1,0,0],[2,3],[0]]","5","0","","","","","","6","","","","","","","","",""
"","","","","","poldrack-single-stim","100","241598","0.0-2.0-26.0","60ff95f38478c4ce042f9f5d","F1","batch6","","-1","tol_feedback","","","true","","1000","1000","500","","","","","","-1","none","true","13181","28347","","","","","","","","","",""
"","","","","","html-button-response","101","243162","0.0-2.0-27.0","60ff95f38478c4ce042f9f5d","F1","batch6","","1562.800000011921","tol_trial_num","<div class = centerbox><p class = center-block-text>problem <strong>7</strong> out of 25 problems</p></div>","0","","","","","","","","","","","","","","","","","","","","","","","","",""
"","","","","","single-stim-button","102","263110","0.0-2.0-28.0-0.0","60ff95f38478c4ce042f9f5d","F1","batch6","","19946","tol_tohand","","","","tol_peg_3","19946","19946","0","[[2,1,0],[0,0],[0]]","1","[[1,2,0],[3,0],[0]]","6","0","","","","","","5","","","","","","","","",""
"","","","","","single-stim-button","103","263926","0.0-2.0-28.0-1.0","60ff95f38478c4ce042f9f5d","F1","batch6","","814","tol_toboard","","","","tol_peg_2","814","814","0","[[2,1,0],[3,0],[0]]","1","[[1,2,0],[3,0],[0]]","6","0","","","","","","5","","","","","","","","",""
"","","","","","single-stim-button","104","264518","0.0-2.0-28.1-0.1","60ff95f38478c4ce042f9f5d","F1","batch6","","590","tol_tohand","","","","tol_peg_1","590","590","0","[[2,0,0],[3,0],[0]]","2","[[1,2,0],[3,0],[0]]","6","0","","","","","","5","","","","","","","","",""
"","","","","","single-stim-button","105","265292","0.0-2.0-28.1-1.1","60ff95f38478c4ce042f9f5d","F1","batch6","","773","tol_toboard","","","","tol_peg_2","773","773","0","[[2,0,0],[3,1],[0]]","2","[[1,2,0],[3,0],[0]]","6","0","","","","","","5","","","","","","","","",""
"","","","","","single-stim-button","106","265893","0.0-2.0-28.2-0.2","60ff95f38478c4ce042f9f5d","F1","batch6","","599","tol_tohand","","","","tol_peg_1","599","599","0","[[0,0,0],[3,1],[0]]","3","[[1,2,0],[3,0],[0]]","6","0","","","","","","5","","","","","","","","",""
"","","","","","single-stim-button","107","266781","0.0-2.0-28.2-1.2","60ff95f38478c4ce042f9f5d","F1","batch6","","886","tol_toboard","","","","tol_peg_3","886","886","0","[[0,0,0],[3,1],[2]]","3","[[1,2,0],[3,0],[0]]","6","0","","","","","","5","","","","","","","","",""
"","","","","","single-stim-button","108","267364","0.0-2.0-28.3-0.3","60ff95f38478c4ce042f9f5d","F1","batch6","","582","tol_tohand","","","","tol_peg_2","582","582","0","[[0,0,0],[3,0],[2]]","4","[[1,2,0],[3,0],[0]]","6","0","","","","","","5","","","","","","","","",""
"","","","","","single-stim-button","109","268127","0.0-2.0-28.3-1.3","60ff95f38478c4ce042f9f5d","F1","batch6","","762","tol_toboard","","","","tol_peg_1","762","762","0","[[1,0,0],[3,0],[2]]","4","[[1,2,0],[3,0],[0]]","6","0","","","","","","5","","","","","","","","",""
"","","","","","single-stim-button","110","268650","0.0-2.0-28.4-0.4","60ff95f38478c4ce042f9f5d","F1","batch6","","521","tol_tohand","","","","tol_peg_3","521","521","0","[[1,0,0],[3,0],[0]]","5","[[1,2,0],[3,0],[0]]","6","0","","","","","","5","","","","","","","","",""
"","","","","","single-stim-button","111","269786","0.0-2.0-28.4-1.4","60ff95f38478c4ce042f9f5d","F1","batch6","","1136","tol_toboard","","","","tol_peg_1","1136","1136","0","[[1,2,0],[3,0],[0]]","5","[[1,2,0],[3,0],[0]]","6","0","","","","","","5","","","","","","","","",""
"","","","","","poldrack-single-stim","112","270794","0.0-2.0-29.0","60ff95f38478c4ce042f9f5d","F1","batch6","","-1","tol_feedback","","","true","","1000","1000","500","","","","","","-1","none","true","19946","22238","","","","","","","","","",""
"","","","","","html-button-response","113","271432","0.0-2.0-30.0","60ff95f38478c4ce042f9f5d","F1","batch6","","636.8000000119209","tol_trial_num","<div class = centerbox><p class = center-block-text>problem <strong>8</strong> out of 25 problems</p></div>","0","","","","","","","","","","","","","","","","","","","","","","","","",""
"","","","","","single-stim-button","114","282049","0.0-2.0-31.0-0.0","60ff95f38478c4ce042f9f5d","F1","batch6","","10615","tol_tohand","","","","tol_peg_3","10615","10615","0","[[0,0,0],[2,3],[0]]","1","[[1,2,0],[3,0],[0]]","7","0","","","","","","4","","","","","","","","",""
"","","","","","single-stim-button","115","283062","0.0-2.0-31.0-1.0","60ff95f38478c4ce042f9f5d","F1","batch6","","1013","tol_toboard","","","","tol_peg_1","1013","1013","0","[[1,0,0],[2,3],[0]]","1","[[1,2,0],[3,0],[0]]","7","0","","","","","","4","","","","","","","","",""
"","","","","","single-stim-button","116","283718","0.0-2.0-31.1-0.1","60ff95f38478c4ce042f9f5d","F1","batch6","","654","tol_tohand","","","","tol_peg_2","654","654","0","[[1,0,0],[2,0],[0]]","2","[[1,2,0],[3,0],[0]]","7","0","","","","","","4","","","","","","","","",""
"","","","","","single-stim-button","117","284550","0.0-2.0-31.1-1.1","60ff95f38478c4ce042f9f5d","F1","batch6","","830","tol_toboard","","","","tol_peg_1","830","830","0","[[1,3,0],[2,0],[0]]","2","[[1,2,0],[3,0],[0]]","7","0","","","","","","4","","","","","","","","",""
"","","","","","single-stim-button","118","285549","0.0-2.0-31.2-0.2","60ff95f38478c4ce042f9f5d","F1","batch6","","998","tol_tohand","","","","tol_peg_2","998","998","0","[[1,3,0],[0,0],[0]]","3","[[1,2,0],[3,0],[0]]","7","0","","","","","","4","","","","","","","","",""
"","","","","","single-stim-button","119","286499","0.0-2.0-31.2-1.2","60ff95f38478c4ce042f9f5d","F1","batch6","","949","tol_toboard","","","","tol_peg_3","949","949","0","[[1,3,0],[0,0],[2]]","3","[[1,2,0],[3,0],[0]]","7","0","","","","","","4","","","","","","","","",""
"","","","","","single-stim-button","120","287100","0.0-2.0-31.3-0.3","60ff95f38478c4ce042f9f5d","F1","batch6","","600","tol_tohand","","","","tol_peg_1","600","600","0","[[1,0,0],[0,0],[2]]","4","[[1,2,0],[3,0],[0]]","7","0","","","","","","4","","","","","","","","",""
"","","","","","single-stim-button","121","287930","0.0-2.0-31.3-1.3","60ff95f38478c4ce042f9f5d","F1","batch6","","829","tol_toboard","","","","tol_peg_2","829","829","0","[[1,0,0],[3,0],[2]]","4","[[1,2,0],[3,0],[0]]","7","0","","","","","","4","","","","","","","","",""
"","","","","","single-stim-button","122","288618","0.0-2.0-31.4-0.4","60ff95f38478c4ce042f9f5d","F1","batch6","","688","tol_tohand","","","","tol_peg_3","688","688","0","[[1,0,0],[3,0],[0]]","5","[[1,2,0],[3,0],[0]]","7","0","","","","","","4","","","","","","","","",""
"","","","","","single-stim-button","123","289459","0.0-2.0-31.4-1.4","60ff95f38478c4ce042f9f5d","F1","batch6","","840","tol_toboard","","","","tol_peg_1","840","840","0","[[1,2,0],[3,0],[0]]","5","[[1,2,0],[3,0],[0]]","7","0","","","","","","4","","","","","","","","",""
"","","","","","poldrack-single-stim","124","290463","0.0-2.0-32.0","60ff95f38478c4ce042f9f5d","F1","batch6","","-1","tol_feedback","","","true","","1000","1000","500","","","","","","-1","none","true","10615","13555","","","","","","","","","",""
"","","","","","html-button-response","125","291450","0.0-2.0-33.0","60ff95f38478c4ce042f9f5d","F1","batch6","","985.3000000119209","tol_trial_num","<div class = centerbox><p class = center-block-text>problem <strong>9</strong> out of 25 problems</p></div>","0","","","","","","","","","","","","","","","","","","","","","","","","",""
"","","","","","single-stim-button","126","305780","0.0-2.0-34.0-0.0","60ff95f38478c4ce042f9f5d","F1","batch6","","14330","tol_tohand","","","","tol_peg_3","14330","14330","0","[[3,2,0],[0,0],[0]]","1","[[2,1,0],[3,0],[0]]","8","0","","","","","","6","","","","","","","","",""
"","","","","","single-stim-button","127","306533","0.0-2.0-34.0-1.0","60ff95f38478c4ce042f9f5d","F1","batch6","","752","tol_toboard","","","","tol_peg_2","752","752","0","[[3,2,0],[1,0],[0]]","1","[[2,1,0],[3,0],[0]]","8","0","","","","","","6","","","","","","","","",""
"","","","","","single-stim-button","128","307261","0.0-2.0-34.1-0.1","60ff95f38478c4ce042f9f5d","F1","batch6","","727","tol_tohand","","","","tol_peg_1","727","727","0","[[3,0,0],[1,0],[0]]","2","[[2,1,0],[3,0],[0]]","8","0","","","","","","6","","","","","","","","",""
"","","","","","single-stim-button","129","308116","0.0-2.0-34.1-1.1","60ff95f38478c4ce042f9f5d","F1","batch6","","854","tol_toboard","","","","tol_peg_2","854","854","0","[[3,0,0],[1,2],[0]]","2","[[2,1,0],[3,0],[0]]","8","0","","","","","","6","","","","","","","","",""
"","","","","","single-stim-button","130","308756","0.0-2.0-34.2-0.2","60ff95f38478c4ce042f9f5d","F1","batch6","","639","tol_tohand","","","","tol_peg_1","639","639","0","[[0,0,0],[1,2],[0]]","3","[[2,1,0],[3,0],[0]]","8","0","","","","","","6","","","","","","","","",""
"","","","","","single-stim-button","131","309796","0.0-2.0-34.2-1.2","60ff95f38478c4ce042f9f5d","F1","batch6","","1038","tol_toboard","","","","tol_peg_3","1038","1038","0","[[0,0,0],[1,2],[3]]","3","[[2,1,0],[3,0],[0]]","8","0","","","","","","6","","","","","","","","",""
"","","","","","single-stim-button","132","310372","0.0-2.0-34.3-0.3","60ff95f38478c4ce042f9f5d","F1","batch6","","575","tol_tohand","","","","tol_peg_2","575","575","0","[[0,0,0],[1,0],[3]]","4","[[2,1,0],[3,0],[0]]","8","0","","","","","","6","","","","","","","","",""
"","","","","","single-stim-button","133","311154","0.0-2.0-34.3-1.3","60ff95f38478c4ce042f9f5d","F1","batch6","","781","tol_toboard","","","","tol_peg_1","781","781","0","[[2,0,0],[1,0],[3]]","4","[[2,1,0],[3,0],[0]]","8","0","","","","","","6","","","","","","","","",""
"","","","","","single-stim-button","134","312105","0.0-2.0-34.4-0.4","60ff95f38478c4ce042f9f5d","F1","batch6","","950","tol_tohand","","","","tol_peg_2","950","950","0","[[2,0,0],[0,0],[3]]","5","[[2,1,0],[3,0],[0]]","8","0","","","","","","6","","","","","","","","",""
"","","","","","single-stim-button","135","312914","0.0-2.0-34.4-1.4","60ff95f38478c4ce042f9f5d","F1","batch6","","808","tol_toboard","","","","tol_peg_1","808","808","0","[[2,1,0],[0,0],[3]]","5","[[2,1,0],[3,0],[0]]","8","0","","","","","","6","","","","","","","","",""
"","","","","","single-stim-button","136","313716","0.0-2.0-34.5-0.5","60ff95f38478c4ce042f9f5d","F1","batch6","","800","tol_tohand","","","","tol_peg_3","800","800","0","[[2,1,0],[0,0],[0]]","6","[[2,1,0],[3,0],[0]]","8","0","","","","","","6","","","","","","","","",""
"","","","","","single-stim-button","137","314368","0.0-2.0-34.5-1.5","60ff95f38478c4ce042f9f5d","F1","batch6","","652","tol_toboard","","","","tol_peg_2","652","652","0","[[2,1,0],[3,0],[0]]","6","[[2,1,0],[3,0],[0]]","8","0","","","","","","6","","","","","","","","",""
"","","","","","poldrack-single-stim","138","315372","0.0-2.0-35.0","60ff95f38478c4ce042f9f5d","F1","batch6","","-1","tol_feedback","","","true","","1000","1000","500","","","","","","-1","none","true","14330","18021","","","","","","","","","",""
"","","","","","html-button-response","139","315906","0.0-2.0-36.0","60ff95f38478c4ce042f9f5d","F1","batch6","","532.7000000178814","tol_trial_num","<div class = centerbox><p class = center-block-text>problem <strong>10</strong> out of 25 problems</p></div>","0","","","","","","","","","","","","","","","","","","","","","","","","",""
"","","","","","single-stim-button","140","320991","0.0-2.0-37.0-0.0","60ff95f38478c4ce042f9f5d","F1","batch6","","5085","tol_tohand","","","","tol_peg_3","5085","5085","0","[[3,0,0],[1,0],[0]]","1","[[3,0,0],[2,1],[0]]","9","0","","","","","","3","","","","","","","","",""
"","","","","","single-stim-button","141","322548","0.0-2.0-37.0-1.0","60ff95f38478c4ce042f9f5d","F1","batch6","","1556","tol_toboard","","","","tol_peg_1","1556","1556","0","[[3,2,0],[1,0],[0]]","1","[[3,0,0],[2,1],[0]]","9","0","","","","","","3","","","","","","","","",""
"","","","","","single-stim-button","142","323158","0.0-2.0-37.1-0.1","60ff95f38478c4ce042f9f5d","F1","batch6","","608","tol_tohand","","","","tol_peg_2","608","608","0","[[3,2,0],[0,0],[0]]","2","[[3,0,0],[2,1],[0]]","9","0","","","","","","3","","","","","","","","",""
"","","","","","single-stim-button","143","323813","0.0-2.0-37.1-1.1","60ff95f38478c4ce042f9f5d","F1","batch6","","654","tol_toboard","","","","tol_peg_3","654","654","0","[[3,2,0],[0,0],[1]]","2","[[3,0,0],[2,1],[0]]","9","0","","","","","","3","","","","","","","","",""
"","","","","","single-stim-button","144","324531","0.0-2.0-37.2-0.2","60ff95f38478c4ce042f9f5d","F1","batch6","","717","tol_tohand","","","","tol_peg_1","717","717","0","[[3,0,0],[0,0],[1]]","3","[[3,0,0],[2,1],[0]]","9","0","","","","","","3","","","","","","","","",""
"","","","","","single-stim-button","145","325404","0.0-2.0-37.2-1.2","60ff95f38478c4ce042f9f5d","F1","batch6","","873","tol_toboard","","","","tol_peg_2","873","873","0","[[3,0,0],[2,0],[1]]","3","[[3,0,0],[2,1],[0]]","9","0","","","","","","3","","","","","","","","",""
"","","","","","single-stim-button","146","325917","0.0-2.0-37.3-0.3","60ff95f38478c4ce042f9f5d","F1","batch6","","512","tol_tohand","","","","tol_peg_3","512","512","0","[[3,0,0],[2,0],[0]]","4","[[3,0,0],[2,1],[0]]","9","0","","","","","","3","","","","","","","","",""
"","","","","","single-stim-button","147","326681","0.0-2.0-37.3-1.3","60ff95f38478c4ce042f9f5d","F1","batch6","","763","tol_toboard","","","","tol_peg_2","763","763","0","[[3,0,0],[2,1],[0]]","4","[[3,0,0],[2,1],[0]]","9","0","","","","","","3","","","","","","","","",""
"","","","","","poldrack-single-stim","148","327685","0.0-2.0-38.0","60ff95f38478c4ce042f9f5d","F1","batch6","","-1","tol_feedback","","","true","","1000","1000","500","","","","","","-1","none","true","5085","6922","","","","","","","","","",""
"","","","","","html-button-response","149","328193","0.0-2.0-39.0","60ff95f38478c4ce042f9f5d","F1","batch6","","506.40000000596046","tol_trial_num","<div class = centerbox><p class = center-block-text>problem <strong>11</strong> out of 25 problems</p></div>","0","","","","","","","","","","","","","","","","","","","","","","","","",""
"","","","","","single-stim-button","150","335002","0.0-2.0-40.0-0.0","60ff95f38478c4ce042f9f5d","F1","batch6","","6808","tol_tohand","","","","tol_peg_2","6808","6808","0","[[1,2,0],[0,0],[0]]","1","[[2,0,0],[1,3],[0]]","10","0","","","","","","6","","","","","","","","",""
"","","","","","single-stim-button","151","338447","0.0-2.0-40.0-1.0","60ff95f38478c4ce042f9f5d","F1","batch6","","3444","tol_toboard","","","","tol_peg_3","3444","3444","0","[[1,2,0],[0,0],[3]]","1","[[2,0,0],[1,3],[0]]","10","0","","","","","","6","","","","","","","","",""
"","","","","","single-stim-button","152","340495","0.0-2.0-40.1-0.1","60ff95f38478c4ce042f9f5d","F1","batch6","","2046","tol_tohand","","","","tol_peg_1","2046","2046","0","[[1,0,0],[0,0],[3]]","2","[[2,0,0],[1,3],[0]]","10","0","","","","","","6","","","","","","","","",""
"","","","","","single-stim-button","153","343203","0.0-2.0-40.1-1.1","60ff95f38478c4ce042f9f5d","F1","batch6","","2708","tol_toboard","","","","tol_peg_1","2708","2708","0","[[1,2,0],[0,0],[3]]","2","[[2,0,0],[1,3],[0]]","10","0","","","","","","6","","","","","","","","",""
"","","","","","single-stim-button","154","343882","0.0-2.0-40.2-0.2","60ff95f38478c4ce042f9f5d","F1","batch6","","677","tol_tohand","","","","tol_peg_3","677","677","0","[[1,2,0],[0,0],[0]]","3","[[2,0,0],[1,3],[0]]","10","0","","","","","","6","","","","","","","","",""
"","","","","","single-stim-button","155","344724","0.0-2.0-40.2-1.2","60ff95f38478c4ce042f9f5d","F1","batch6","","842","tol_toboard","","","","tol_peg_2","842","842","0","[[1,2,0],[3,0],[0]]","3","[[2,0,0],[1,3],[0]]","10","0","","","","","","6","","","","","","","","",""
"","","","","","single-stim-button","156","345420","0.0-2.0-40.3-0.3","60ff95f38478c4ce042f9f5d","F1","batch6","","694","tol_tohand","","","","tol_peg_1","694","694","0","[[1,0,0],[3,0],[0]]","4","[[2,0,0],[1,3],[0]]","10","0","","","","","","6","","","","","","","","",""
"","","","","","single-stim-button","157","346793","0.0-2.0-40.3-1.3","60ff95f38478c4ce042f9f5d","F1","batch6","","1372","tol_toboard","","","","tol_peg_3","1372","1372","0","[[1,0,0],[3,0],[2]]","4","[[2,0,0],[1,3],[0]]","10","0","","","","","","6","","","","","","","","",""
"","","","","","single-stim-button","158","347523","0.0-2.0-40.4-0.4","60ff95f38478c4ce042f9f5d","F1","batch6","","728","tol_tohand","","","","tol_peg_1","728","728","0","[[0,0,0],[3,0],[2]]","5","[[2,0,0],[1,3],[0]]","10","0","","","","","","6","","","","","","","","",""
"","","","","","single-stim-button","159","348154","0.0-2.0-40.4-1.4","60ff95f38478c4ce042f9f5d","F1","batch6","","630","tol_toboard","","","","tol_peg_2","630","630","0","[[0,0,0],[3,1],[2]]","5","[[2,0,0],[1,3],[0]]","10","0","","","","","","6","","","","","","","","",""
"","","","","","single-stim-button","160","348697","0.0-2.0-40.5-0.5","60ff95f38478c4ce042f9f5d","F1","batch6","","541","tol_tohand","","","","tol_peg_3","541","541","0","[[0,0,0],[3,1],[0]]","6","[[2,0,0],[1,3],[0]]","10","0","","","","","","6","","","","","","","","",""
"","","","","","single-stim-button","161","349522","0.0-2.0-40.5-1.5","60ff95f38478c4ce042f9f5d","F1","batch6","","824","tol_toboard","","","","tol_peg_1","824","824","0","[[2,0,0],[3,1],[0]]","6","[[2,0,0],[1,3],[0]]","10","0","","","","","","6","","","","","","","","",""
"","","","","","single-stim-button","162","350768","0.0-2.0-40.6-0.6","60ff95f38478c4ce042f9f5d","F1","batch6","","1246","tol_tohand","","","","tol_peg_2","1246","1246","0","[[2,0,0],[3,0],[0]]","7","[[2,0,0],[1,3],[0]]","10","0","","","","","","6","","","","","","","","",""
"","","","","","single-stim-button","163","352495","0.0-2.0-40.6-1.6","60ff95f38478c4ce042f9f5d","F1","batch6","","1726","tol_toboard","","","","tol_peg_3","1726","1726","0","[[2,0,0],[3,0],[1]]","7","[[2,0,0],[1,3],[0]]","10","0","","","","","","6","","","","","","","","",""
"","","","","","single-stim-button","164","352994","0.0-2.0-40.7-0.7","60ff95f38478c4ce042f9f5d","F1","batch6","","497","tol_tohand","","","","tol_peg_2","497","497","0","[[2,0,0],[0,0],[1]]","8","[[2,0,0],[1,3],[0]]","10","0","","","","","","6","","","","","","","","",""
"","","","","","single-stim-button","165","353689","0.0-2.0-40.7-1.7","60ff95f38478c4ce042f9f5d","F1","batch6","","694","tol_toboard","","","","tol_peg_1","694","694","0","[[2,3,0],[0,0],[1]]","8","[[2,0,0],[1,3],[0]]","10","0","","","","","","6","","","","","","","","",""
"","","","","","single-stim-button","166","354273","0.0-2.0-40.8-0.8","60ff95f38478c4ce042f9f5d","F1","batch6","","582","tol_tohand","","","","tol_peg_3","582","582","0","[[2,3,0],[0,0],[0]]","9","[[2,0,0],[1,3],[0]]","10","0","","","","","","6","","","","","","","","",""
"","","","","","single-stim-button","167","354961","0.0-2.0-40.8-1.8","60ff95f38478c4ce042f9f5d","F1","batch6","","687","tol_toboard","","","","tol_peg_2","687","687","0","[[2,3,0],[1,0],[0]]","9","[[2,0,0],[1,3],[0]]","10","0","","","","","","6","","","","","","","","",""
"","","","","","single-stim-button","168","355520","0.0-2.0-40.9-0.9","60ff95f38478c4ce042f9f5d","F1","batch6","","557","tol_tohand","","","","tol_peg_1","557","557","0","[[2,0,0],[1,0],[0]]","10","[[2,0,0],[1,3],[0]]","10","0","","","","","","6","","","","","","","","",""
"","","","","","single-stim-button","169","356183","0.0-2.0-40.9-1.9","60ff95f38478c4ce042f9f5d","F1","batch6","","662","tol_toboard","","","","tol_peg_2","662","662","0","[[2,0,0],[1,3],[0]]","10","[[2,0,0],[1,3],[0]]","10","0","","","","","","6","","","","","","","","",""
"","","","","","poldrack-single-stim","170","357193","0.0-2.0-41.0","60ff95f38478c4ce042f9f5d","F1","batch6","","-1","tol_feedback","","","true","","1000","1000","500","","","","","","-1","none","true","6808","14376","","","","","","","","","",""
"","","","","","html-button-response","171","357946","0.0-2.0-42.0","60ff95f38478c4ce042f9f5d","F1","batch6","","750.9000000059605","tol_trial_num","<div class = centerbox><p class = center-block-text>problem <strong>12</strong> out of 25 problems</p></div>","0","","","","","","","","","","","","","","","","","","","","","","","","",""
"","","","","","single-stim-button","172","372090","0.0-2.0-43.0-0.0","60ff95f38478c4ce042f9f5d","F1","batch6","","14143","tol_tohand","","","","tol_peg_1","14143","14143","0","[[1,0,0],[3,0],[0]]","1","[[2,3,0],[0,0],[1]]","11","0","","","","","","4","","","","","","","","",""
"","","","","","single-stim-button","173","372731","0.0-2.0-43.0-1.0","60ff95f38478c4ce042f9f5d","F1","batch6","","639","tol_toboard","","","","tol_peg_2","639","639","0","[[1,0,0],[3,2],[0]]","1","[[2,3,0],[0,0],[1]]","11","0","","","","","","4","","","","","","","","",""
"","","","","","single-stim-button","174","373418","0.0-2.0-43.1-0.1","60ff95f38478c4ce042f9f5d","F1","batch6","","686","tol_tohand","","","","tol_peg_1","686","686","0","[[0,0,0],[3,2],[0]]","2","[[2,3,0],[0,0],[1]]","11","0","","","","","","4","","","","","","","","",""
"","","","","","single-stim-button","175","374201","0.0-2.0-43.1-1.1","60ff95f38478c4ce042f9f5d","F1","batch6","","781","tol_toboard","","","","tol_peg_3","781","781","0","[[0,0,0],[3,2],[1]]","2","[[2,3,0],[0,0],[1]]","11","0","","","","","","4","","","","","","","","",""
"","","","","","single-stim-button","176","375055","0.0-2.0-43.2-0.2","60ff95f38478c4ce042f9f5d","F1","batch6","","853","tol_tohand","","","","tol_peg_2","853","853","0","[[0,0,0],[3,0],[1]]","3","[[2,3,0],[0,0],[1]]","11","0","","","","","","4","","","","","","","","",""
"","","","","","single-stim-button","177","375886","0.0-2.0-43.2-1.2","60ff95f38478c4ce042f9f5d","F1","batch6","","829","tol_toboard","","","","tol_peg_1","829","829","0","[[2,0,0],[3,0],[1]]","3","[[2,3,0],[0,0],[1]]","11","0","","","","","","4","","","","","","","","",""
"","","","","","single-stim-button","178","376366","0.0-2.0-43.3-0.3","60ff95f38478c4ce042f9f5d","F1","batch6","","479","tol_tohand","","","","tol_peg_2","479","479","0","[[2,0,0],[0,0],[1]]","4","[[2,3,0],[0,0],[1]]","11","0","","","","","","4","","","","","","","","",""
"","","","","","single-stim-button","179","377068","0.0-2.0-43.3-1.3","60ff95f38478c4ce042f9f5d","F1","batch6","","701","tol_toboard","","","","tol_peg_1","701","701","0","[[2,3,0],[0,0],[1]]","4","[[2,3,0],[0,0],[1]]","11","0","","","","","","4","","","","","","","","",""
"","","","","","poldrack-single-stim","180","378082","0.0-2.0-44.0","60ff95f38478c4ce042f9f5d","F1","batch6","","-1","tol_feedback","","","true","","1000","1000","500","","","","","","-1","none","true","14143","16161","","","","","","","","","",""
"","","","","","html-button-response","181","378597","0.0-2.0-45.0","60ff95f38478c4ce042f9f5d","F1","batch6","","513.3000000119209","tol_trial_num","<div class = centerbox><p class = center-block-text>problem <strong>13</strong> out of 25 problems</p></div>","0","","","","","","","","","","","","","","","","","","","","","","","","",""
"","","","","","single-stim-button","182","388004","0.0-2.0-46.0-0.0","60ff95f38478c4ce042f9f5d","F1","batch6","","9406","tol_tohand","","","","tol_peg_1","9406","9406","0","[[1,0,0],[3,0],[0]]","1","[[0,0,0],[2,3],[1]]","12","0","","","","","","4","","","","","","","","",""
"","","","","","single-stim-button","183","388807","0.0-2.0-46.0-1.0","60ff95f38478c4ce042f9f5d","F1","batch6","","802","tol_toboard","","","","tol_peg_2","802","802","0","[[1,0,0],[3,2],[0]]","1","[[0,0,0],[2,3],[1]]","12","0","","","","","","4","","","","","","","","",""
"","","","","","single-stim-button","184","389415","0.0-2.0-46.1-0.1","60ff95f38478c4ce042f9f5d","F1","batch6","","607","tol_tohand","","","","tol_peg_1","607","607","0","[[0,0,0],[3,2],[0]]","2","[[0,0,0],[2,3],[1]]","12","0","","","","","","4","","","","","","","","",""
"","","","","","single-stim-button","185","390198","0.0-2.0-46.1-1.1","60ff95f38478c4ce042f9f5d","F1","batch6","","783","tol_toboard","","","","tol_peg_3","783","783","0","[[0,0,0],[3,2],[1]]","2","[[0,0,0],[2,3],[1]]","12","0","","","","","","4","","","","","","","","",""
"","","","","","single-stim-button","186","390918","0.0-2.0-46.2-0.2","60ff95f38478c4ce042f9f5d","F1","batch6","","720","tol_tohand","","","","tol_peg_2","720","720","0","[[0,0,0],[3,0],[1]]","3","[[0,0,0],[2,3],[1]]","12","0","","","","","","4","","","","","","","","",""
"","","","","","single-stim-button","187","398395","0.0-2.0-46.2-1.2","60ff95f38478c4ce042f9f5d","F1","batch6","","7476","tol_toboard","","","","tol_peg_1","7476","7476","0","[[2,0,0],[3,0],[1]]","3","[[0,0,0],[2,3],[1]]","12","0","","","","","","4","","","","","","","","",""
"","","","","","single-stim-button","188","401714","0.0-2.0-46.3-0.3","60ff95f38478c4ce042f9f5d","F1","batch6","","3318","tol_tohand","","","","tol_peg_3","3318","3318","0","[[2,0,0],[3,0],[0]]","4","[[0,0,0],[2,3],[1]]","12","0","","","","","","4","","","","","","","","",""
"","","","","","single-stim-button","189","402423","0.0-2.0-46.3-1.3","60ff95f38478c4ce042f9f5d","F1","batch6","","709","tol_toboard","","","","tol_peg_1","709","709","0","[[2,1,0],[3,0],[0]]","4","[[0,0,0],[2,3],[1]]","12","0","","","","","","4","","","","","","","","",""
"","","","","","single-stim-button","190","403025","0.0-2.0-46.4-0.4","60ff95f38478c4ce042f9f5d","F1","batch6","","600","tol_tohand","","","","tol_peg_2","600","600","0","[[2,1,0],[0,0],[0]]","5","[[0,0,0],[2,3],[1]]","12","0","","","","","","4","","","","","","","","",""
"","","","","","single-stim-button","191","403751","0.0-2.0-46.4-1.4","60ff95f38478c4ce042f9f5d","F1","batch6","","724","tol_toboard","","","","tol_peg_3","724","724","0","[[2,1,0],[0,0],[3]]","5","[[0,0,0],[2,3],[1]]","12","0","","","","","","4","","","","","","","","",""
"","","","","","single-stim-button","192","404573","0.0-2.0-46.5-0.5","60ff95f38478c4ce042f9f5d","F1","batch6","","821","tol_tohand","","","","tol_peg_1","821","821","0","[[2,0,0],[0,0],[3]]","6","[[0,0,0],[2,3],[1]]","12","0","","","","","","4","","","","","","","","",""
"","","","","","single-stim-button","193","408701","0.0-2.0-46.5-1.5","60ff95f38478c4ce042f9f5d","F1","batch6","","4128","tol_toboard","","","","tol_peg_1","4128","4128","0","[[2,1,0],[0,0],[3]]","6","[[0,0,0],[2,3],[1]]","12","0","","","","","","4","","","","","","","","",""
"","","","","","single-stim-button","194","419244","0.0-2.0-46.6-0.6","60ff95f38478c4ce042f9f5d","F1","batch6","","10542","tol_tohand","","","","tol_peg_3","10542","10542","0","[[2,1,0],[0,0],[0]]","7","[[0,0,0],[2,3],[1]]","12","0","","","","","","4","","","","","","","","",""
"","","","","","single-stim-button","195","419925","0.0-2.0-46.6-1.6","60ff95f38478c4ce042f9f5d","F1","batch6","","679","tol_toboard","","","","tol_peg_2","679","679","0","[[2,1,0],[3,0],[0]]","7","[[0,0,0],[2,3],[1]]","12","0","","","","","","4","","","","","","","","",""
"","","","","","single-stim-button","196","420604","0.0-2.0-46.7-0.7","60ff95f38478c4ce042f9f5d","F1","batch6","","678","tol_tohand","","","","tol_peg_1","678","678","0","[[2,0,0],[3,0],[0]]","8","[[0,0,0],[2,3],[1]]","12","0","","","","","","4","","","","","","","","",""
"","","","","","single-stim-button","197","421371","0.0-2.0-46.7-1.7","60ff95f38478c4ce042f9f5d","F1","batch6","","765","tol_toboard","","","","tol_peg_2","765","765","0","[[2,0,0],[3,1],[0]]","8","[[0,0,0],[2,3],[1]]","12","0","","","","","","4","","","","","","","","",""
"","","","","","single-stim-button","198","422028","0.0-2.0-46.8-0.8","60ff95f38478c4ce042f9f5d","F1","batch6","","656","tol_tohand","","","","tol_peg_1","656","656","0","[[0,0,0],[3,1],[0]]","9","[[0,0,0],[2,3],[1]]","12","0","","","","","","4","","","","","","","","",""
"","","","","","single-stim-button","199","422882","0.0-2.0-46.8-1.8","60ff95f38478c4ce042f9f5d","F1","batch6","","854","tol_toboard","","","","tol_peg_3","854","854","0","[[0,0,0],[3,1],[2]]","9","[[0,0,0],[2,3],[1]]","12","0","","","","","","4","","","","","","","","",""
"","","","","","single-stim-button","200","423650","0.0-2.0-46.9-0.9","60ff95f38478c4ce042f9f5d","F1","batch6","","767","tol_tohand","","","","tol_peg_2","767","767","0","[[0,0,0],[3,0],[2]]","10","[[0,0,0],[2,3],[1]]","12","0","","","","","","4","","","","","","","","",""
"","","","","","single-stim-button","201","424403","0.0-2.0-46.9-1.9","60ff95f38478c4ce042f9f5d","F1","batch6","","751","tol_toboard","","","","tol_peg_1","751","751","0","[[1,0,0],[3,0],[2]]","10","[[0,0,0],[2,3],[1]]","12","0","","","","","","4","","","","","","","","",""
"","","","","","single-stim-button","202","424866","0.0-2.0-46.10-0.10","60ff95f38478c4ce042f9f5d","F1","batch6","","461","tol_tohand","","","","tol_peg_2","461","461","0","[[1,0,0],[0,0],[2]]","11","[[0,0,0],[2,3],[1]]","12","0","","","","","","4","","","","","","","","",""
"","","","","","single-stim-button","203","425530","0.0-2.0-46.10-1.10","60ff95f38478c4ce042f9f5d","F1","batch6","","662","tol_toboard","","","","tol_peg_1","662","662","0","[[1,3,0],[0,0],[2]]","11","[[0,0,0],[2,3],[1]]","12","0","","","","","","4","","","","","","","","",""
"","","","","","single-stim-button","204","426169","0.0-2.0-46.11-0.11","60ff95f38478c4ce042f9f5d","F1","batch6","","638","tol_tohand","","","","tol_peg_3","638","638","0","[[1,3,0],[0,0],[0]]","12","[[0,0,0],[2,3],[1]]","12","0","","","","","","4","","","","","","","","",""
"","","","","","single-stim-button","205","426881","0.0-2.0-46.11-1.11","60ff95f38478c4ce042f9f5d","F1","batch6","","710","tol_toboard","","","","tol_peg_2","710","710","0","[[1,3,0],[2,0],[0]]","12","[[0,0,0],[2,3],[1]]","12","0","","","","","","4","","","","","","","","",""
"","","","","","single-stim-button","206","427465","0.0-2.0-46.12-0.12","60ff95f38478c4ce042f9f5d","F1","batch6","","582","tol_tohand","","","","tol_peg_1","582","582","0","[[1,0,0],[2,0],[0]]","13","[[0,0,0],[2,3],[1]]","12","0","","","","","","4","","","","","","","","",""
"","","","","","single-stim-button","207","428078","0.0-2.0-46.12-1.12","60ff95f38478c4ce042f9f5d","F1","batch6","","613","tol_toboard","","","","tol_peg_2","613","613","0","[[1,0,0],[2,3],[0]]","13","[[0,0,0],[2,3],[1]]","12","0","","","","","","4","","","","","","","","",""
"","","","","","single-stim-button","208","428734","0.0-2.0-46.13-0.13","60ff95f38478c4ce042f9f5d","F1","batch6","","654","tol_tohand","","","","tol_peg_1","654","654","0","[[0,0,0],[2,3],[0]]","14","[[0,0,0],[2,3],[1]]","12","0","","","","","","4","","","","","","","","",""
"","","","","","single-stim-button","209","429574","0.0-2.0-46.13-1.13","60ff95f38478c4ce042f9f5d","F1","batch6","","838","tol_toboard","","","","tol_peg_3","838","838","0","[[0,0,0],[2,3],[1]]","14","[[0,0,0],[2,3],[1]]","12","0","","","","","","4","","","","","","","","",""
"","","","","","poldrack-single-stim","210","430585","0.0-2.0-47.0","60ff95f38478c4ce042f9f5d","F1","batch6","","-1","tol_feedback","","","true","","1000","1000","500","","","","","","-1","none","true","9406","30450","","","","","","","","","",""
"","","","","","html-button-response","211","436632","0.0-2.0-48.0","60ff95f38478c4ce042f9f5d","F1","batch6","","6046.200000017881","attention_check","<p class = block-text>How many balls are in your board<br></p>","1","true","","","","","","","","","","","","","","","","","","","","","","","",""
"","","","","","html-button-response","212","438606","0.0-2.0-49.0","60ff95f38478c4ce042f9f5d","F1","batch6","","1971.4000000059605","tol_trial_num","<div class = centerbox><p class = center-block-text>problem <strong>14</strong> out of 25 problems</p></div>","0","","","","","","","","","","","","","","","","","","","","","","","","",""
"","","","","","single-stim-button","213","444456","0.0-2.0-50.0-0.0","60ff95f38478c4ce042f9f5d","F1","batch6","","5848","tol_tohand","","","","tol_peg_1","5848","5848","0","[[2,0,0],[3,0],[0]]","1","[[1,2,0],[3,0],[0]]","13","0","","","","","","4","","","","","","","","",""
"","","","","","single-stim-button","214","445232","0.0-2.0-50.0-1.0","60ff95f38478c4ce042f9f5d","F1","batch6","","775","tol_toboard","","","","tol_peg_3","775","775","0","[[2,0,0],[3,0],[1]]","1","[[1,2,0],[3,0],[0]]","13","0","","","","","","4","","","","","","","","",""
"","","","","","single-stim-button","215","445880","0.0-2.0-50.1-0.1","60ff95f38478c4ce042f9f5d","F1","batch6","","646","tol_tohand","","","","tol_peg_1","646","646","0","[[0,0,0],[3,0],[1]]","2","[[1,2,0],[3,0],[0]]","13","0","","","","","","4","","","","","","","","",""
"","","","","","single-stim-button","216","446613","0.0-2.0-50.1-1.1","60ff95f38478c4ce042f9f5d","F1","batch6","","732","tol_toboard","","","","tol_peg_2","732","732","0","[[0,0,0],[3,2],[1]]","2","[[1,2,0],[3,0],[0]]","13","0","","","","","","4","","","","","","","","",""
"","","","","","single-stim-button","217","447214","0.0-2.0-50.2-0.2","60ff95f38478c4ce042f9f5d","F1","batch6","","601","tol_tohand","","","","tol_peg_3","601","601","0","[[0,0,0],[3,2],[0]]","3","[[1,2,0],[3,0],[0]]","13","0","","","","","","4","","","","","","","","",""
"","","","","","single-stim-button","218","448054","0.0-2.0-50.2-1.2","60ff95f38478c4ce042f9f5d","F1","batch6","","838","tol_toboard","","","","tol_peg_1","838","838","0","[[1,0,0],[3,2],[0]]","3","[[1,2,0],[3,0],[0]]","13","0","","","","","","4","","","","","","","","",""
"","","","","","single-stim-button","219","448572","0.0-2.0-50.3-0.3","60ff95f38478c4ce042f9f5d","F1","batch6","","517","tol_tohand","","","","tol_peg_2","517","517","0","[[1,0,0],[3,0],[0]]","4","[[1,2,0],[3,0],[0]]","13","0","","","","","","4","","","","","","","","",""
"","","","","","single-stim-button","220","449299","0.0-2.0-50.3-1.3","60ff95f38478c4ce042f9f5d","F1","batch6","","726","tol_toboard","","","","tol_peg_1","726","726","0","[[1,2,0],[3,0],[0]]","4","[[1,2,0],[3,0],[0]]","13","0","","","","","","4","","","","","","","","",""
"","","","","","poldrack-single-stim","221","450301","0.0-2.0-51.0","60ff95f38478c4ce042f9f5d","F1","batch6","","-1","tol_feedback","","","true","","1000","1000","500","","","","","","-1","none","true","5848","7612","","","","","","","","","",""
"","","","","","html-button-response","222","451019","0.0-2.0-52.0","60ff95f38478c4ce042f9f5d","F1","batch6","","717","tol_trial_num","<div class = centerbox><p class = center-block-text>problem <strong>15</strong> out of 25 problems</p></div>","0","","","","","","","","","","","","","","","","","","","","","","","","",""
"","","","","","single-stim-button","223","455713","0.0-2.0-53.0-0.0","60ff95f38478c4ce042f9f5d","F1","batch6","","4693","tol_tohand","","","","tol_peg_1","4693","4693","0","[[1,0,0],[3,0],[0]]","1","[[2,0,0],[3,0],[1]]","14","0","","","","","","3","","","","","","","","",""
"","","","","","single-stim-button","224","456353","0.0-2.0-53.0-1.0","60ff95f38478c4ce042f9f5d","F1","batch6","","638","tol_toboard","","","","tol_peg_2","638","638","0","[[1,0,0],[3,2],[0]]","1","[[2,0,0],[3,0],[1]]","14","0","","","","","","3","","","","","","","","",""
"","","","","","single-stim-button","225","457017","0.0-2.0-53.1-0.1","60ff95f38478c4ce042f9f5d","F1","batch6","","663","tol_tohand","","","","tol_peg_1","663","663","0","[[0,0,0],[3,2],[0]]","2","[[2,0,0],[3,0],[1]]","14","0","","","","","","3","","","","","","","","",""
"","","","","","single-stim-button","226","457680","0.0-2.0-53.1-1.1","60ff95f38478c4ce042f9f5d","F1","batch6","","662","tol_toboard","","","","tol_peg_3","662","662","0","[[0,0,0],[3,2],[1]]","2","[[2,0,0],[3,0],[1]]","14","0","","","","","","3","","","","","","","","",""
"","","","","","single-stim-button","227","458304","0.0-2.0-53.2-0.2","60ff95f38478c4ce042f9f5d","F1","batch6","","622","tol_tohand","","","","tol_peg_2","622","622","0","[[0,0,0],[3,0],[1]]","3","[[2,0,0],[3,0],[1]]","14","0","","","","","","3","","","","","","","","",""
"","","","","","single-stim-button","228","459029","0.0-2.0-53.2-1.2","60ff95f38478c4ce042f9f5d","F1","batch6","","724","tol_toboard","","","","tol_peg_1","724","724","0","[[2,0,0],[3,0],[1]]","3","[[2,0,0],[3,0],[1]]","14","0","","","","","","3","","","","","","","","",""
"","","","","","poldrack-single-stim","229","460041","0.0-2.0-54.0","60ff95f38478c4ce042f9f5d","F1","batch6","","-1","tol_feedback","","","true","","1000","1000","500","","","","","","-1","none","true","4693","5978","","","","","","","","","",""
"","","","","","html-button-response","230","460806","0.0-2.0-55.0","60ff95f38478c4ce042f9f5d","F1","batch6","","763.0999999940395","tol_trial_num","<div class = centerbox><p class = center-block-text>problem <strong>16</strong> out of 25 problems</p></div>","0","","","","","","","","","","","","","","","","","","","","","","","","",""
"","","","","","single-stim-button","231","474540","0.0-2.0-56.0-0.0","60ff95f38478c4ce042f9f5d","F1","batch6","","13734","tol_tohand","","","","tol_peg_2","13734","13734","0","[[0,0,0],[2,0],[1]]","1","[[2,3,0],[1,0],[0]]","15","0","","","","","","7","","","","","","","","",""
"","","","","","single-stim-button","232","475214","0.0-2.0-56.0-1.0","60ff95f38478c4ce042f9f5d","F1","batch6","","672","tol_toboard","","","","tol_peg_1","672","672","0","[[3,0,0],[2,0],[1]]","1","[[2,3,0],[1,0],[0]]","15","0","","","","","","7","","","","","","","","",""
"","","","","","single-stim-button","233","475939","0.0-2.0-56.1-0.1","60ff95f38478c4ce042f9f5d","F1","batch6","","724","tol_tohand","","","","tol_peg_2","724","724","0","[[3,0,0],[0,0],[1]]","2","[[2,3,0],[1,0],[0]]","15","0","","","","","","7","","","","","","","","",""
"","","","","","single-stim-button","234","476653","0.0-2.0-56.1-1.1","60ff95f38478c4ce042f9f5d","F1","batch6","","712","tol_toboard","","","","tol_peg_1","712","712","0","[[3,2,0],[0,0],[1]]","2","[[2,3,0],[1,0],[0]]","15","0","","","","","","7","","","","","","","","",""
"","","","","","single-stim-button","235","477506","0.0-2.0-56.2-0.2","60ff95f38478c4ce042f9f5d","F1","batch6","","852","tol_tohand","","","","tol_peg_3","852","852","0","[[3,2,0],[0,0],[0]]","3","[[2,3,0],[1,0],[0]]","15","0","","","","","","7","","","","","","","","",""
"","","","","","single-stim-button","236","478227","0.0-2.0-56.2-1.2","60ff95f38478c4ce042f9f5d","F1","batch6","","720","tol_toboard","","","","tol_peg_2","720","720","0","[[3,2,0],[1,0],[0]]","3","[[2,3,0],[1,0],[0]]","15","0","","","","","","7","","","","","","","","",""
"","","","","","single-stim-button","237","479233","0.0-2.0-56.3-0.3","60ff95f38478c4ce042f9f5d","F1","batch6","","1004","tol_tohand","","","","tol_peg_1","1004","1004","0","[[3,0,0],[1,0],[0]]","4","[[2,3,0],[1,0],[0]]","15","0","","","","","","7","","","","","","","","",""
"","","","","","single-stim-button","238","480395","0.0-2.0-56.3-1.3","60ff95f38478c4ce042f9f5d","F1","batch6","","1161","tol_toboard","","","","tol_peg_2","1161","1161","0","[[3,0,0],[1,2],[0]]","4","[[2,3,0],[1,0],[0]]","15","0","","","","","","7","","","","","","","","",""
"","","","","","single-stim-button","239","480993","0.0-2.0-56.4-0.4","60ff95f38478c4ce042f9f5d","F1","batch6","","596","tol_tohand","","","","tol_peg_1","596","596","0","[[0,0,0],[1,2],[0]]","5","[[2,3,0],[1,0],[0]]","15","0","","","","","","7","","","","","","","","",""
"","","","","","single-stim-button","240","481704","0.0-2.0-56.4-1.4","60ff95f38478c4ce042f9f5d","F1","batch6","","710","tol_toboard","","","","tol_peg_3","710","710","0","[[0,0,0],[1,2],[3]]","5","[[2,3,0],[1,0],[0]]","15","0","","","","","","7","","","","","","","","",""
"","","","","","single-stim-button","241","482265","0.0-2.0-56.5-0.5","60ff95f38478c4ce042f9f5d","F1","batch6","","559","tol_tohand","","","","tol_peg_2","559","559","0","[[0,0,0],[1,0],[3]]","6","[[2,3,0],[1,0],[0]]","15","0","","","","","","7","","","","","","","","",""
"","","","","","single-stim-button","242","483041","0.0-2.0-56.5-1.5","60ff95f38478c4ce042f9f5d","F1","batch6","","774","tol_toboard","","","","tol_peg_1","774","774","0","[[2,0,0],[1,0],[3]]","6","[[2,3,0],[1,0],[0]]","15","0","","","","","","7","","","","","","","","",""
"","","","","","single-stim-button","243","483663","0.0-2.0-56.6-0.6","60ff95f38478c4ce042f9f5d","F1","batch6","","621","tol_tohand","","","","tol_peg_3","621","621","0","[[2,0,0],[1,0],[0]]","7","[[2,3,0],[1,0],[0]]","15","0","","","","","","7","","","","","","","","",""
"","","","","","single-stim-button","244","484521","0.0-2.0-56.6-1.6","60ff95f38478c4ce042f9f5d","F1","batch6","","856","tol_toboard","","","","tol_peg_1","856","856","0","[[2,3,0],[1,0],[0]]","7","[[2,3,0],[1,0],[0]]","15","0","","","","","","7","","","","","","","","",""
"","","","","","poldrack-single-stim","245","485525","0.0-2.0-57.0","60ff95f38478c4ce042f9f5d","F1","batch6","","-1","tol_feedback","","","true","","1000","1000","500","","","","","","-1","none","true","13734","18090","","","","","","","","","",""
"","","","","","html-button-response","246","486135","0.0-2.0-58.0","60ff95f38478c4ce042f9f5d","F1","batch6","","608.9000000059605","tol_trial_num","<div class = centerbox><p class = center-block-text>problem <strong>17</strong> out of 25 problems</p></div>","0","","","","","","","","","","","","","","","","","","","","","","","","",""
"","","","","","single-stim-button","247","488517","0.0-2.0-59.0-0.0","60ff95f38478c4ce042f9f5d","F1","batch6","","2380","tol_tohand","","","","tol_peg_2","2380","2380","0","[[1,2,0],[0,0],[0]]","1","[[3,1,0],[2,0],[0]]","16","0","","","","","","5","","","","","","","","",""
"","","","","","single-stim-button","248","489189","0.0-2.0-59.0-1.0","60ff95f38478c4ce042f9f5d","F1","batch6","","671","tol_toboard","","","","tol_peg_3","671","671","0","[[1,2,0],[0,0],[3]]","1","[[3,1,0],[2,0],[0]]","16","0","","","","","","5","","","","","","","","",""
"","","","","","single-stim-button","249","489973","0.0-2.0-59.1-0.1","60ff95f38478c4ce042f9f5d","F1","batch6","","782","tol_tohand","","","","tol_peg_1","782","782","0","[[1,0,0],[0,0],[3]]","2","[[3,1,0],[2,0],[0]]","16","0","","","","","","5","","","","","","","","",""
"","","","","","single-stim-button","250","490924","0.0-2.0-59.1-1.1","60ff95f38478c4ce042f9f5d","F1","batch6","","949","tol_toboard","","","","tol_peg_2","949","949","0","[[1,0,0],[2,0],[3]]","2","[[3,1,0],[2,0],[0]]","16","0","","","","","","5","","","","","","","","",""
"","","","","","single-stim-button","251","491459","0.0-2.0-59.2-0.2","60ff95f38478c4ce042f9f5d","F1","batch6","","534","tol_tohand","","","","tol_peg_1","534","534","0","[[0,0,0],[2,0],[3]]","3","[[3,1,0],[2,0],[0]]","16","0","","","","","","5","","","","","","","","",""
"","","","","","single-stim-button","252","492281","0.0-2.0-59.2-1.2","60ff95f38478c4ce042f9f5d","F1","batch6","","821","tol_toboard","","","","tol_peg_2","821","821","0","[[0,0,0],[2,1],[3]]","3","[[3,1,0],[2,0],[0]]","16","0","","","","","","5","","","","","","","","",""
"","","","","","single-stim-button","253","492938","0.0-2.0-59.3-0.3","60ff95f38478c4ce042f9f5d","F1","batch6","","656","tol_tohand","","","","tol_peg_3","656","656","0","[[0,0,0],[2,1],[0]]","4","[[3,1,0],[2,0],[0]]","16","0","","","","","","5","","","","","","","","",""
"","","","","","single-stim-button","254","493730","0.0-2.0-59.3-1.3","60ff95f38478c4ce042f9f5d","F1","batch6","","790","tol_toboard","","","","tol_peg_1","790","790","0","[[3,0,0],[2,1],[0]]","4","[[3,1,0],[2,0],[0]]","16","0","","","","","","5","","","","","","","","",""
"","","","","","single-stim-button","255","494674","0.0-2.0-59.4-0.4","60ff95f38478c4ce042f9f5d","F1","batch6","","942","tol_tohand","","","","tol_peg_2","942","942","0","[[3,0,0],[2,0],[0]]","5","[[3,1,0],[2,0],[0]]","16","0","","","","","","5","","","","","","","","",""
"","","","","","single-stim-button","256","495367","0.0-2.0-59.4-1.4","60ff95f38478c4ce042f9f5d","F1","batch6","","692","tol_toboard","","","","tol_peg_1","692","692","0","[[3,1,0],[2,0],[0]]","5","[[3,1,0],[2,0],[0]]","16","0","","","","","","5","","","","","","","","",""
"","","","","","poldrack-single-stim","257","496376","0.0-2.0-60.0","60ff95f38478c4ce042f9f5d","F1","batch6","","-1","tol_feedback","","","true","","1000","1000","500","","","","","","-1","none","true","2380","5294","","","","","","","","","",""
"","","","","","html-button-response","258","497233","0.0-2.0-61.0","60ff95f38478c4ce042f9f5d","F1","batch6","","856.1999999880791","tol_trial_num","<div class = centerbox><p class = center-block-text>problem <strong>18</strong> out of 25 problems</p></div>","0","","","","","","","","","","","","","","","","","","","","","","","","",""
"","","","","","single-stim-button","259","501004","0.0-2.0-62.0-0.0","60ff95f38478c4ce042f9f5d","F1","batch6","","3770","tol_tohand","","","","tol_peg_2","3770","3770","0","[[1,2,0],[0,0],[0]]","1","[[3,0,0],[2,0],[1]]","17","0","","","","","","5","","","","","","","","",""
"","","","","","single-stim-button","260","501674","0.0-2.0-62.0-1.0","60ff95f38478c4ce042f9f5d","F1","batch6","","669","tol_toboard","","","","tol_peg_3","669","669","0","[[1,2,0],[0,0],[3]]","1","[[3,0,0],[2,0],[1]]","17","0","","","","","","5","","","","","","","","",""
"","","","","","single-stim-button","261","502412","0.0-2.0-62.1-0.1","60ff95f38478c4ce042f9f5d","F1","batch6","","736","tol_tohand","","","","tol_peg_1","736","736","0","[[1,0,0],[0,0],[3]]","2","[[3,0,0],[2,0],[1]]","17","0","","","","","","5","","","","","","","","",""
"","","","","","single-stim-button","262","503306","0.0-2.0-62.1-1.1","60ff95f38478c4ce042f9f5d","F1","batch6","","893","tol_toboard","","","","tol_peg_2","893","893","0","[[1,0,0],[2,0],[3]]","2","[[3,0,0],[2,0],[1]]","17","0","","","","","","5","","","","","","","","",""
"","","","","","single-stim-button","263","504204","0.0-2.0-62.2-0.2","60ff95f38478c4ce042f9f5d","F1","batch6","","897","tol_tohand","","","","tol_peg_3","897","897","0","[[1,0,0],[2,0],[0]]","3","[[3,0,0],[2,0],[1]]","17","0","","","","","","5","","","","","","","","",""
"","","","","","single-stim-button","264","504937","0.0-2.0-62.2-1.2","60ff95f38478c4ce042f9f5d","F1","batch6","","732","tol_toboard","","","","tol_peg_2","732","732","0","[[1,0,0],[2,3],[0]]","3","[[3,0,0],[2,0],[1]]","17","0","","","","","","5","","","","","","","","",""
"","","","","","single-stim-button","265","505562","0.0-2.0-62.3-0.3","60ff95f38478c4ce042f9f5d","F1","batch6","","625","tol_tohand","","","","tol_peg_1","625","625","0","[[0,0,0],[2,3],[0]]","4","[[3,0,0],[2,0],[1]]","17","0","","","","","","5","","","","","","","","",""
"","","","","","single-stim-button","266","506266","0.0-2.0-62.3-1.3","60ff95f38478c4ce042f9f5d","F1","batch6","","703","tol_toboard","","","","tol_peg_3","703","703","0","[[0,0,0],[2,3],[1]]","4","[[3,0,0],[2,0],[1]]","17","0","","","","","","5","","","","","","","","",""
"","","","","","single-stim-button","267","506883","0.0-2.0-62.4-0.4","60ff95f38478c4ce042f9f5d","F1","batch6","","615","tol_tohand","","","","tol_peg_2","615","615","0","[[0,0,0],[2,0],[1]]","5","[[3,0,0],[2,0],[1]]","17","0","","","","","","5","","","","","","","","",""
"","","","","","single-stim-button","268","507988","0.0-2.0-62.4-1.4","60ff95f38478c4ce042f9f5d","F1","batch6","","1103","tol_toboard","","","","tol_peg_1","1103","1103","0","[[3,0,0],[2,0],[1]]","5","[[3,0,0],[2,0],[1]]","17","0","","","","","","5","","","","","","","","",""
"","","","","","poldrack-single-stim","269","508993","0.0-2.0-63.0","60ff95f38478c4ce042f9f5d","F1","batch6","","-1","tol_feedback","","","true","","1000","1000","500","","","","","","-1","none","true","3770","6643","","","","","","","","","",""
"","","","","","html-button-response","270","509592","0.0-2.0-64.0","60ff95f38478c4ce042f9f5d","F1","batch6","","597.2999999821186","tol_trial_num","<div class = centerbox><p class = center-block-text>problem <strong>19</strong> out of 25 problems</p></div>","0","","","","","","","","","","","","","","","","","","","","","","","","",""
"","","","","","single-stim-button","271","531614","0.0-2.0-65.0-0.0","60ff95f38478c4ce042f9f5d","F1","batch6","","22020","tol_tohand","","","","tol_peg_1","22020","22020","0","[[1,0,0],[3,0],[0]]","1","[[0,0,0],[1,2],[3]]","18","0","","","","","","7","","","","","","","","",""
"","","","","","single-stim-button","272","532205","0.0-2.0-65.0-1.0","60ff95f38478c4ce042f9f5d","F1","batch6","","589","tol_toboard","","","","tol_peg_2","589","589","0","[[1,0,0],[3,2],[0]]","1","[[0,0,0],[1,2],[3]]","18","0","","","","","","7","","","","","","","","",""
"","","","","","single-stim-button","273","532789","0.0-2.0-65.1-0.1","60ff95f38478c4ce042f9f5d","F1","batch6","","582","tol_tohand","","","","tol_peg_1","582","582","0","[[0,0,0],[3,2],[0]]","2","[[0,0,0],[1,2],[3]]","18","0","","","","","","7","","","","","","","","",""
"","","","","","single-stim-button","274","533460","0.0-2.0-65.1-1.1","60ff95f38478c4ce042f9f5d","F1","batch6","","669","tol_toboard","","","","tol_peg_3","669","669","0","[[0,0,0],[3,2],[1]]","2","[[0,0,0],[1,2],[3]]","18","0","","","","","","7","","","","","","","","",""
"","","","","","single-stim-button","275","534339","0.0-2.0-65.2-0.2","60ff95f38478c4ce042f9f5d","F1","batch6","","878","tol_tohand","","","","tol_peg_2","878","878","0","[[0,0,0],[3,0],[1]]","3","[[0,0,0],[1,2],[3]]","18","0","","","","","","7","","","","","","","","",""
"","","","","","single-stim-button","276","536034","0.0-2.0-65.2-1.2","60ff95f38478c4ce042f9f5d","F1","batch6","","1694","tol_toboard","","","","tol_peg_1","1694","1694","0","[[2,0,0],[3,0],[1]]","3","[[0,0,0],[1,2],[3]]","18","0","","","","","","7","","","","","","","","",""
"","","","","","single-stim-button","277","536497","0.0-2.0-65.3-0.3","60ff95f38478c4ce042f9f5d","F1","batch6","","462","tol_tohand","","","","tol_peg_2","462","462","0","[[2,0,0],[0,0],[1]]","4","[[0,0,0],[1,2],[3]]","18","0","","","","","","7","","","","","","","","",""
"","","","","","single-stim-button","278","537218","0.0-2.0-65.3-1.3","60ff95f38478c4ce042f9f5d","F1","batch6","","719","tol_toboard","","","","tol_peg_1","719","719","0","[[2,3,0],[0,0],[1]]","4","[[0,0,0],[1,2],[3]]","18","0","","","","","","7","","","","","","","","",""
"","","","","","single-stim-button","279","537895","0.0-2.0-65.4-0.4","60ff95f38478c4ce042f9f5d","F1","batch6","","677","tol_tohand","","","","tol_peg_3","677","677","0","[[2,3,0],[0,0],[0]]","5","[[0,0,0],[1,2],[3]]","18","0","","","","","","7","","","","","","","","",""
"","","","","","single-stim-button","280","538543","0.0-2.0-65.4-1.4","60ff95f38478c4ce042f9f5d","F1","batch6","","648","tol_toboard","","","","tol_peg_2","648","648","0","[[2,3,0],[1,0],[0]]","5","[[0,0,0],[1,2],[3]]","18","0","","","","","","7","","","","","","","","",""
"","","","","","single-stim-button","281","539288","0.0-2.0-65.5-0.5","60ff95f38478c4ce042f9f5d","F1","batch6","","743","tol_tohand","","","","tol_peg_1","743","743","0","[[2,0,0],[1,0],[0]]","6","[[0,0,0],[1,2],[3]]","18","0","","","","","","7","","","","","","","","",""
"","","","","","single-stim-button","282","539928","0.0-2.0-65.5-1.5","60ff95f38478c4ce042f9f5d","F1","batch6","","638","tol_toboard","","","","tol_peg_3","638","638","0","[[2,0,0],[1,0],[3]]","6","[[0,0,0],[1,2],[3]]","18","0","","","","","","7","","","","","","","","",""
"","","","","","single-stim-button","283","540510","0.0-2.0-65.6-0.6","60ff95f38478c4ce042f9f5d","F1","batch6","","580","tol_tohand","","","","tol_peg_1","580","580","0","[[0,0,0],[1,0],[3]]","7","[[0,0,0],[1,2],[3]]","18","0","","","","","","7","","","","","","","","",""
"","","","","","single-stim-button","284","541087","0.0-2.0-65.6-1.6","60ff95f38478c4ce042f9f5d","F1","batch6","","576","tol_toboard","","","","tol_peg_2","576","576","0","[[0,0,0],[1,2],[3]]","7","[[0,0,0],[1,2],[3]]","18","0","","","","","","7","","","","","","","","",""
"","","","","","poldrack-single-stim","285","542092","0.0-2.0-66.0","60ff95f38478c4ce042f9f5d","F1","batch6","","-1","tol_feedback","","","true","","1000","1000","500","","","","","","-1","none","true","22020","25942","","","","","","","","","",""
"","","","","","html-button-response","286","543814","0.0-2.0-67.0","60ff95f38478c4ce042f9f5d","F1","batch6","","1720.5","tol_trial_num","<div class = centerbox><p class = center-block-text>problem <strong>20</strong> out of 25 problems</p></div>","0","","","","","","","","","","","","","","","","","","","","","","","","",""
"","","","","","single-stim-button","287","546722","0.0-2.0-68.0-0.0","60ff95f38478c4ce042f9f5d","F1","batch6","","2906","tol_tohand","","","","tol_peg_2","2906","2906","0","[[1,2,0],[0,0],[0]]","1","[[2,1,0],[0,0],[3]]","19","0","","","","","","5","","","","","","","","",""
"","","","","","single-stim-button","288","547411","0.0-2.0-68.0-1.0","60ff95f38478c4ce042f9f5d","F1","batch6","","688","tol_toboard","","","","tol_peg_3","688","688","0","[[1,2,0],[0,0],[3]]","1","[[2,1,0],[0,0],[3]]","19","0","","","","","","5","","","","","","","","",""
"","","","","","single-stim-button","289","548066","0.0-2.0-68.1-0.1","60ff95f38478c4ce042f9f5d","F1","batch6","","654","tol_tohand","","","","tol_peg_1","654","654","0","[[1,0,0],[0,0],[3]]","2","[[2,1,0],[0,0],[3]]","19","0","","","","","","5","","","","","","","","",""
"","","","","","single-stim-button","290","549090","0.0-2.0-68.1-1.1","60ff95f38478c4ce042f9f5d","F1","batch6","","1022","tol_toboard","","","","tol_peg_2","1022","1022","0","[[1,0,0],[2,0],[3]]","2","[[2,1,0],[0,0],[3]]","19","0","","","","","","5","","","","","","","","",""
"","","","","","single-stim-button","291","549632","0.0-2.0-68.2-0.2","60ff95f38478c4ce042f9f5d","F1","batch6","","541","tol_tohand","","","","tol_peg_1","541","541","0","[[0,0,0],[2,0],[3]]","3","[[2,1,0],[0,0],[3]]","19","0","","","","","","5","","","","","","","","",""
"","","","","","single-stim-button","292","551656","0.0-2.0-68.2-1.2","60ff95f38478c4ce042f9f5d","F1","batch6","","2022","tol_toboard","","","","tol_peg_1","2022","2022","0","[[1,0,0],[2,0],[3]]","3","[[2,1,0],[0,0],[3]]","19","0","","","","","","5","","","","","","","","",""
"","","","","","single-stim-button","293","552270","0.0-2.0-68.3-0.3","60ff95f38478c4ce042f9f5d","F1","batch6","","612","tol_tohand","","","","tol_peg_2","612","612","0","[[1,0,0],[0,0],[3]]","4","[[2,1,0],[0,0],[3]]","19","0","","","","","","5","","","","","","","","",""
"","","","","","single-stim-button","294","553463","0.0-2.0-68.3-1.3","60ff95f38478c4ce042f9f5d","F1","batch6","","1192","tol_toboard","","","","tol_peg_1","1192","1192","0","[[1,2,0],[0,0],[3]]","4","[[2,1,0],[0,0],[3]]","19","0","","","","","","5","","","","","","","","",""
"","","","","","single-stim-button","295","555096","0.0-2.0-68.4-0.4","60ff95f38478c4ce042f9f5d","F1","batch6","","1632","tol_tohand","","","","tol_peg_3","1632","1632","0","[[1,2,0],[0,0],[0]]","5","[[2,1,0],[0,0],[3]]","19","0","","","","","","5","","","","","","","","",""
"","","","","","single-stim-button","296","556412","0.0-2.0-68.4-1.4","60ff95f38478c4ce042f9f5d","F1","batch6","","1315","tol_toboard","","","","tol_peg_2","1315","1315","0","[[1,2,0],[3,0],[0]]","5","[[2,1,0],[0,0],[3]]","19","0","","","","","","5","","","","","","","","",""
"","","","","","single-stim-button","297","556956","0.0-2.0-68.5-0.5","60ff95f38478c4ce042f9f5d","F1","batch6","","542","tol_tohand","","","","tol_peg_1","542","542","0","[[1,0,0],[3,0],[0]]","6","[[2,1,0],[0,0],[3]]","19","0","","","","","","5","","","","","","","","",""
"","","","","","single-stim-button","298","557523","0.0-2.0-68.5-1.5","60ff95f38478c4ce042f9f5d","F1","batch6","","565","tol_toboard","","","","tol_peg_2","565","565","0","[[1,0,0],[3,2],[0]]","6","[[2,1,0],[0,0],[3]]","19","0","","","","","","5","","","","","","","","",""
"","","","","","single-stim-button","299","558364","0.0-2.0-68.6-0.6","60ff95f38478c4ce042f9f5d","F1","batch6","","839","tol_tohand","","","","tol_peg_1","839","839","0","[[0,0,0],[3,2],[0]]","7","[[2,1,0],[0,0],[3]]","19","0","","","","","","5","","","","","","","","",""
"","","","","","single-stim-button","300","559137","0.0-2.0-68.6-1.6","60ff95f38478c4ce042f9f5d","F1","batch6","","772","tol_toboard","","","","tol_peg_3","772","772","0","[[0,0,0],[3,2],[1]]","7","[[2,1,0],[0,0],[3]]","19","0","","","","","","5","","","","","","","","",""
"","","","","","single-stim-button","301","559696","0.0-2.0-68.7-0.7","60ff95f38478c4ce042f9f5d","F1","batch6","","559","tol_tohand","","","","tol_peg_2","559","559","0","[[0,0,0],[3,0],[1]]","8","[[2,1,0],[0,0],[3]]","19","0","","","","","","5","","","","","","","","",""
"","","","","","single-stim-button","302","560426","0.0-2.0-68.7-1.7","60ff95f38478c4ce042f9f5d","F1","batch6","","728","tol_toboard","","","","tol_peg_1","728","728","0","[[2,0,0],[3,0],[1]]","8","[[2,1,0],[0,0],[3]]","19","0","","","","","","5","","","","","","","","",""
"","","","","","single-stim-button","303","561153","0.0-2.0-68.8-0.8","60ff95f38478c4ce042f9f5d","F1","batch6","","726","tol_tohand","","","","tol_peg_3","726","726","0","[[2,0,0],[3,0],[0]]","9","[[2,1,0],[0,0],[3]]","19","0","","","","","","5","","","","","","","","",""
"","","","","","single-stim-button","304","562071","0.0-2.0-68.8-1.8","60ff95f38478c4ce042f9f5d","F1","batch6","","917","tol_toboard","","","","tol_peg_1","917","917","0","[[2,1,0],[3,0],[0]]","9","[[2,1,0],[0,0],[3]]","19","0","","","","","","5","","","","","","","","",""
"","","","","","single-stim-button","305","562945","0.0-2.0-68.9-0.9","60ff95f38478c4ce042f9f5d","F1","batch6","","873","tol_tohand","","","","tol_peg_2","873","873","0","[[2,1,0],[0,0],[0]]","10","[[2,1,0],[0,0],[3]]","19","0","","","","","","5","","","","","","","","",""
"","","","","","single-stim-button","306","564175","0.0-2.0-68.9-1.9","60ff95f38478c4ce042f9f5d","F1","batch6","","1229","tol_toboard","","","","tol_peg_3","1229","1229","0","[[2,1,0],[0,0],[3]]","10","[[2,1,0],[0,0],[3]]","19","0","","","","","","5","","","","","","","","",""
"","","","","","poldrack-single-stim","307","565185","0.0-2.0-69.0","60ff95f38478c4ce042f9f5d","F1","batch6","","-1","tol_feedback","","","true","","1000","1000","500","","","","","","-1","none","true","2906","9884","","","","","","","","","",""
"","","","","","html-button-response","308","566024","0.0-2.0-70.0","60ff95f38478c4ce042f9f5d","F1","batch6","","837.6999999880791","tol_trial_num","<div class = centerbox><p class = center-block-text>problem <strong>21</strong> out of 25 problems</p></div>","0","","","","","","","","","","","","","","","","","","","","","","","","",""
"","","","","","single-stim-button","309","574167","0.0-2.0-71.0-0.0","60ff95f38478c4ce042f9f5d","F1","batch6","","8141","tol_tohand","","","","tol_peg_2","8141","8141","0","[[1,2,0],[0,0],[0]]","1","[[3,2,0],[0,0],[1]]","20","0","","","","","","6","","","","","","","","",""
"","","","","","single-stim-button","310","574965","0.0-2.0-71.0-1.0","60ff95f38478c4ce042f9f5d","F1","batch6","","797","tol_toboard","","","","tol_peg_3","797","797","0","[[1,2,0],[0,0],[3]]","1","[[3,2,0],[0,0],[1]]","20","0","","","","","","6","","","","","","","","",""
"","","","","","single-stim-button","311","575724","0.0-2.0-71.1-0.1","60ff95f38478c4ce042f9f5d","F1","batch6","","757","tol_tohand","","","","tol_peg_1","757","757","0","[[1,0,0],[0,0],[3]]","2","[[3,2,0],[0,0],[1]]","20","0","","","","","","6","","","","","","","","",""
"","","","","","single-stim-button","312","576446","0.0-2.0-71.1-1.1","60ff95f38478c4ce042f9f5d","F1","batch6","","720","tol_toboard","","","","tol_peg_2","720","720","0","[[1,0,0],[2,0],[3]]","2","[[3,2,0],[0,0],[1]]","20","0","","","","","","6","","","","","","","","",""
"","","","","","single-stim-button","313","576969","0.0-2.0-71.2-0.2","60ff95f38478c4ce042f9f5d","F1","batch6","","521","tol_tohand","","","","tol_peg_1","521","521","0","[[0,0,0],[2,0],[3]]","3","[[3,2,0],[0,0],[1]]","20","0","","","","","","6","","","","","","","","",""
"","","","","","single-stim-button","314","577675","0.0-2.0-71.2-1.2","60ff95f38478c4ce042f9f5d","F1","batch6","","705","tol_toboard","","","","tol_peg_2","705","705","0","[[0,0,0],[2,1],[3]]","3","[[3,2,0],[0,0],[1]]","20","0","","","","","","6","","","","","","","","",""
"","","","","","single-stim-button","315","578363","0.0-2.0-71.3-0.3","60ff95f38478c4ce042f9f5d","F1","batch6","","686","tol_tohand","","","","tol_peg_3","686","686","0","[[0,0,0],[2,1],[0]]","4","[[3,2,0],[0,0],[1]]","20","0","","","","","","6","","","","","","","","",""
"","","","","","single-stim-button","316","579280","0.0-2.0-71.3-1.3","60ff95f38478c4ce042f9f5d","F1","batch6","","916","tol_toboard","","","","tol_peg_1","916","916","0","[[3,0,0],[2,1],[0]]","4","[[3,2,0],[0,0],[1]]","20","0","","","","","","6","","","","","","","","",""
"","","","","","single-stim-button","317","579962","0.0-2.0-71.4-0.4","60ff95f38478c4ce042f9f5d","F1","batch6","","680","tol_tohand","","","","tol_peg_2","680","680","0","[[3,0,0],[2,0],[0]]","5","[[3,2,0],[0,0],[1]]","20","0","","","","","","6","","","","","","","","",""
"","","","","","single-stim-button","318","581273","0.0-2.0-71.4-1.4","60ff95f38478c4ce042f9f5d","F1","batch6","","1310","tol_toboard","","","","tol_peg_3","1310","1310","0","[[3,0,0],[2,0],[1]]","5","[[3,2,0],[0,0],[1]]","20","0","","","","","","6","","","","","","","","",""
"","","","","","single-stim-button","319","581786","0.0-2.0-71.5-0.5","60ff95f38478c4ce042f9f5d","F1","batch6","","511","tol_tohand","","","","tol_peg_2","511","511","0","[[3,0,0],[0,0],[1]]","6","[[3,2,0],[0,0],[1]]","20","0","","","","","","6","","","","","","","","",""
"","","","","","single-stim-button","320","582414","0.0-2.0-71.5-1.5","60ff95f38478c4ce042f9f5d","F1","batch6","","628","tol_toboard","","","","tol_peg_1","628","628","0","[[3,2,0],[0,0],[1]]","6","[[3,2,0],[0,0],[1]]","20","0","","","","","","6","","","","","","","","",""
"","","","","","poldrack-single-stim","321","583425","0.0-2.0-72.0","60ff95f38478c4ce042f9f5d","F1","batch6","","-1","tol_feedback","","","true","","1000","1000","500","","","","","","-1","none","true","8141","11296","","","","","","","","","",""
"","","","","","html-button-response","322","583893","0.0-2.0-73.0","60ff95f38478c4ce042f9f5d","F1","batch6","","467.19999998807907","tol_trial_num","<div class = centerbox><p class = center-block-text>problem <strong>22</strong> out of 25 problems</p></div>","0","","","","","","","","","","","","","","","","","","","","","","","","",""
"","","","","","single-stim-button","323","602424","0.0-2.0-74.0-0.0","60ff95f38478c4ce042f9f5d","F1","batch6","","18530","tol_tohand","","","","tol_peg_1","18530","18530","0","[[0,0,0],[2,3],[0]]","1","[[0,0,0],[1,2],[3]]","21","0","","","","","","6","","","","","","","","",""
"","","","","","single-stim-button","324","603327","0.0-2.0-74.0-1.0","60ff95f38478c4ce042f9f5d","F1","batch6","","902","tol_toboard","","","","tol_peg_3","902","902","0","[[0,0,0],[2,3],[1]]","1","[[0,0,0],[1,2],[3]]","21","0","","","","","","6","","","","","","","","",""
"","","","","","single-stim-button","325","603862","0.0-2.0-74.1-0.1","60ff95f38478c4ce042f9f5d","F1","batch6","","534","tol_tohand","","","","tol_peg_2","534","534","0","[[0,0,0],[2,0],[1]]","2","[[0,0,0],[1,2],[3]]","21","0","","","","","","6","","","","","","","","",""
"","","","","","single-stim-button","326","604569","0.0-2.0-74.1-1.1","60ff95f38478c4ce042f9f5d","F1","batch6","","707","tol_toboard","","","","tol_peg_1","707","707","0","[[3,0,0],[2,0],[1]]","2","[[0,0,0],[1,2],[3]]","21","0","","","","","","6","","","","","","","","",""
"","","","","","single-stim-button","327","605061","0.0-2.0-74.2-0.2","60ff95f38478c4ce042f9f5d","F1","batch6","","491","tol_tohand","","","","tol_peg_2","491","491","0","[[3,0,0],[0,0],[1]]","3","[[0,0,0],[1,2],[3]]","21","0","","","","","","6","","","","","","","","",""
"","","","","","single-stim-button","328","605776","0.0-2.0-74.2-1.2","60ff95f38478c4ce042f9f5d","F1","batch6","","714","tol_toboard","","","","tol_peg_1","714","714","0","[[3,2,0],[0,0],[1]]","3","[[0,0,0],[1,2],[3]]","21","0","","","","","","6","","","","","","","","",""
"","","","","","single-stim-button","329","606592","0.0-2.0-74.3-0.3","60ff95f38478c4ce042f9f5d","F1","batch6","","814","tol_tohand","","","","tol_peg_3","814","814","0","[[3,2,0],[0,0],[0]]","4","[[0,0,0],[1,2],[3]]","21","0","","","","","","6","","","","","","","","",""
"","","","","","single-stim-button","330","607192","0.0-2.0-74.3-1.3","60ff95f38478c4ce042f9f5d","F1","batch6","","598","tol_toboard","","","","tol_peg_2","598","598","0","[[3,2,0],[1,0],[0]]","4","[[0,0,0],[1,2],[3]]","21","0","","","","","","6","","","","","","","","",""
"","","","","","single-stim-button","331","607927","0.0-2.0-74.4-0.4","60ff95f38478c4ce042f9f5d","F1","batch6","","733","tol_tohand","","","","tol_peg_1","733","733","0","[[3,0,0],[1,0],[0]]","5","[[0,0,0],[1,2],[3]]","21","0","","","","","","6","","","","","","","","",""
"","","","","","single-stim-button","332","608533","0.0-2.0-74.4-1.4","60ff95f38478c4ce042f9f5d","F1","batch6","","604","tol_toboard","","","","tol_peg_2","604","604","0","[[3,0,0],[1,2],[0]]","5","[[0,0,0],[1,2],[3]]","21","0","","","","","","6","","","","","","","","",""
"","","","","","single-stim-button","333","609094","0.0-2.0-74.5-0.5","60ff95f38478c4ce042f9f5d","F1","batch6","","559","tol_tohand","","","","tol_peg_1","559","559","0","[[0,0,0],[1,2],[0]]","6","[[0,0,0],[1,2],[3]]","21","0","","","","","","6","","","","","","","","",""
"","","","","","single-stim-button","334","609852","0.0-2.0-74.5-1.5","60ff95f38478c4ce042f9f5d","F1","batch6","","756","tol_toboard","","","","tol_peg_3","756","756","0","[[0,0,0],[1,2],[3]]","6","[[0,0,0],[1,2],[3]]","21","0","","","","","","6","","","","","","","","",""
"","","","","","poldrack-single-stim","335","610864","0.0-2.0-75.0","60ff95f38478c4ce042f9f5d","F1","batch6","","-1","tol_feedback","","","true","","1000","1000","500","","","","","","-1","none","true","18530","21661","","","","","","","","","",""
"","","","","","html-button-response","336","611628","0.0-2.0-76.0","60ff95f38478c4ce042f9f5d","F1","batch6","","762.1000000238419","tol_trial_num","<div class = centerbox><p class = center-block-text>problem <strong>23</strong> out of 25 problems</p></div>","0","","","","","","","","","","","","","","","","","","","","","","","","",""
"","","","","","single-stim-button","337","614209","0.0-2.0-77.0-0.0","60ff95f38478c4ce042f9f5d","F1","batch6","","2580","tol_tohand","","","","tol_peg_1","2580","2580","0","[[1,0,0],[3,0],[0]]","1","[[1,3,2],[0,0],[0]]","22","0","","","","","","3","","","","","","","","",""
"","","","","","single-stim-button","338","615089","0.0-2.0-77.0-1.0","60ff95f38478c4ce042f9f5d","F1","batch6","","878","tol_toboard","","","","tol_peg_3","878","878","0","[[1,0,0],[3,0],[2]]","1","[[1,3,2],[0,0],[0]]","22","0","","","","","","3","","","","","","","","",""
"","","","","","single-stim-button","339","615617","0.0-2.0-77.1-0.1","60ff95f38478c4ce042f9f5d","F1","batch6","","527","tol_tohand","","","","tol_peg_2","527","527","0","[[1,0,0],[0,0],[2]]","2","[[1,3,2],[0,0],[0]]","22","0","","","","","","3","","","","","","","","",""
"","","","","","single-stim-button","340","616313","0.0-2.0-77.1-1.1","60ff95f38478c4ce042f9f5d","F1","batch6","","694","tol_toboard","","","","tol_peg_1","694","694","0","[[1,3,0],[0,0],[2]]","2","[[1,3,2],[0,0],[0]]","22","0","","","","","","3","","","","","","","","",""
"","","","","","single-stim-button","341","617072","0.0-2.0-77.2-0.2","60ff95f38478c4ce042f9f5d","F1","batch6","","758","tol_tohand","","","","tol_peg_3","758","758","0","[[1,3,0],[0,0],[0]]","3","[[1,3,2],[0,0],[0]]","22","0","","","","","","3","","","","","","","","",""
"","","","","","single-stim-button","342","618078","0.0-2.0-77.2-1.2","60ff95f38478c4ce042f9f5d","F1","batch6","","1005","tol_toboard","","","","tol_peg_1","1005","1005","0","[[1,3,2],[0,0],[0]]","3","[[1,3,2],[0,0],[0]]","22","0","","","","","","3","","","","","","","","",""
"","","","","","poldrack-single-stim","343","619087","0.0-2.0-78.0","60ff95f38478c4ce042f9f5d","F1","batch6","","-1","tol_feedback","","","true","","1000","1000","500","","","","","","-1","none","true","2580","3865","","","","","","","","","",""
"","","","","","html-button-response","344","619669","0.0-2.0-79.0","60ff95f38478c4ce042f9f5d","F1","batch6","","580.5","tol_trial_num","<div class = centerbox><p class = center-block-text>problem <strong>24</strong> out of 25 problems</p></div>","0","","","","","","","","","","","","","","","","","","","","","","","","",""
"","","","","","single-stim-button","345","626595","0.0-2.0-80.0-0.0","60ff95f38478c4ce042f9f5d","F1","batch6","","6926","tol_tohand","","","","tol_peg_3","6926","6926","0","[[0,0,0],[2,3],[0]]","1","[[2,0,0],[3,0],[1]]","23","0","","","","","","7","","","","","","","","",""
"","","","","","single-stim-button","346","627856","0.0-2.0-80.0-1.0","60ff95f38478c4ce042f9f5d","F1","batch6","","1260","tol_toboard","","","","tol_peg_1","1260","1260","0","[[1,0,0],[2,3],[0]]","1","[[2,0,0],[3,0],[1]]","23","0","","","","","","7","","","","","","","","",""
"","","","","","single-stim-button","347","631892","0.0-2.0-80.1-0.1","60ff95f38478c4ce042f9f5d","F1","batch6","","4035","tol_tohand","","","","tol_peg_2","4035","4035","0","[[1,0,0],[2,0],[0]]","2","[[2,0,0],[3,0],[1]]","23","0","","","","","","7","","","","","","","","",""
"","","","","","single-stim-button","348","633100","0.0-2.0-80.1-1.1","60ff95f38478c4ce042f9f5d","F1","batch6","","1207","tol_toboard","","","","tol_peg_3","1207","1207","0","[[1,0,0],[2,0],[3]]","2","[[2,0,0],[3,0],[1]]","23","0","","","","","","7","","","","","","","","",""
"","","","","","single-stim-button","349","633781","0.0-2.0-80.2-0.2","60ff95f38478c4ce042f9f5d","F1","batch6","","679","tol_tohand","","","","tol_peg_2","679","679","0","[[1,0,0],[0,0],[3]]","3","[[2,0,0],[3,0],[1]]","23","0","","","","","","7","","","","","","","","",""
"","","","","","single-stim-button","350","634514","0.0-2.0-80.2-1.2","60ff95f38478c4ce042f9f5d","F1","batch6","","733","tol_toboard","","","","tol_peg_1","733","733","0","[[1,2,0],[0,0],[3]]","3","[[2,0,0],[3,0],[1]]","23","0","","","","","","7","","","","","","","","",""
"","","","","","single-stim-button","351","635092","0.0-2.0-80.3-0.3","60ff95f38478c4ce042f9f5d","F1","batch6","","577","tol_tohand","","","","tol_peg_3","577","577","0","[[1,2,0],[0,0],[0]]","4","[[2,0,0],[3,0],[1]]","23","0","","","","","","7","","","","","","","","",""
"","","","","","single-stim-button","352","635883","0.0-2.0-80.3-1.3","60ff95f38478c4ce042f9f5d","F1","batch6","","789","tol_toboard","","","","tol_peg_2","789","789","0","[[1,2,0],[3,0],[0]]","4","[[2,0,0],[3,0],[1]]","23","0","","","","","","7","","","","","","","","",""
"","","","","","single-stim-button","353","636651","0.0-2.0-80.4-0.4","60ff95f38478c4ce042f9f5d","F1","batch6","","767","tol_tohand","","","","tol_peg_1","767","767","0","[[1,0,0],[3,0],[0]]","5","[[2,0,0],[3,0],[1]]","23","0","","","","","","7","","","","","","","","",""
"","","","","","single-stim-button","354","637313","0.0-2.0-80.4-1.4","60ff95f38478c4ce042f9f5d","F1","batch6","","661","tol_toboard","","","","tol_peg_2","661","661","0","[[1,0,0],[3,2],[0]]","5","[[2,0,0],[3,0],[1]]","23","0","","","","","","7","","","","","","","","",""
"","","","","","single-stim-button","355","637919","0.0-2.0-80.5-0.5","60ff95f38478c4ce042f9f5d","F1","batch6","","605","tol_tohand","","","","tol_peg_1","605","605","0","[[0,0,0],[3,2],[0]]","6","[[2,0,0],[3,0],[1]]","23","0","","","","","","7","","","","","","","","",""
