"success","timeout","failed_images","failed_audio","failed_video","trial_type","trial_index","time_elapsed","internal_node_id","subject_id","study_id","session_id","task","rt","stimulus","response","item","answer","correct","spm_correct","spm_rt","view_history","fiar_detect_rt","fiar_detect_correct","total_correct_fiar_detect","post_trial_gap","choices","mouse_click","stim_duration","block_duration","timing_post_trial","current_position","tol_num_moves_made","tol_target","tol_problem_id","tol_rt","key_press","possible_responses","tol_correct","preplanning","tol_rt_per_trial","tol_min_moves"
"true","false","[]","[]","[]","preload","0","2135","0.0-0.0","60ff35e594f890d3f082e37c","D2","batch4","","","","","","","","","","","","","","","","","","","","","","","","","","","","","",""
"true","","","","","fullscreen","1","22766","0.0-1.0-0.0","60ff35e594f890d3f082e37c","D2","batch4","","","","","","","","","","","","","","","","","","","","","","","","","","","","","",""
"true","","","","","fullscreen","2","26977","0.0-2.0-0.0","60ff35e594f890d3f082e37c","D2","batch4","spm_fullscreen","","","","","","","","","","","","","","","","","","","","","","","","","","","","",""
"","","","","","html-button-response","3","38857","0.0-2.0-1.0","60ff35e594f890d3f082e37c","D2","batch4","","11876.400000000373","<p class = block-text><b>Instructions</b> <br>This is a widely used intelligence test in research. <br>In this test, a figure with a missing piece will be presented.<br>Below the figure are alternative pieces to complete the figure, only one of which is correct.<br> Different figures might involve different principles for obtaining the missing piece<br>Your job is to select the most logical piece to complete the figure.</p>","0","","","","","","","","","","","","","","","","","","","","","","","","","",""
"","","","","","html-keyboard-response","4","39661","0.0-2.0-2.0-0.0","60ff35e594f890d3f082e37c","D2","batch4","spm_show_trial_num","null","<p class=block-text>Trial 1 out of 60</p>","null","","","","","","","","","","","","","","","","","","","","","","","","","",""
"","","","","","image-button-response","5","48255","0.0-2.0-2.0-1.0","60ff35e594f890d3f082e37c","D2","batch4","spm_respsonse","8583.299999998882","img/question_1_1.jpeg","3","mat_01","4","1","1","8583.299999998882","","","","","","","","","","","","","","","","","","","","",""
"","","","","","html-keyboard-response","6","49325","0.0-2.0-2.0-0.1","60ff35e594f890d3f082e37c","D2","batch4","spm_show_trial_num","null","<p class=block-text>Trial 2 out of 60</p>","null","","","","","","","","","","","","","","","","","","","","","","","","","",""
"","","","","","image-button-response","7","51971","0.0-2.0-2.0-1.1","60ff35e594f890d3f082e37c","D2","batch4","spm_respsonse","2642.0999999996275","img/question_1_2.jpeg","4","mat_02","5","1","1","2642.0999999996275","","","","","","","","","","","","","","","","","","","","",""
"","","","","","html-keyboard-response","8","53024","0.0-2.0-2.0-0.2","60ff35e594f890d3f082e37c","D2","batch4","spm_show_trial_num","null","<p class=block-text>Trial 3 out of 60</p>","null","","","","","","","","","","","","","","","","","","","","","","","","","",""
"","","","","","image-button-response","9","55443","0.0-2.0-2.0-1.2","60ff35e594f890d3f082e37c","D2","batch4","spm_respsonse","2418.300000000745","img/question_1_3.jpeg","0","mat_03","1","1","1","2418.300000000745","","","","","","","","","","","","","","","","","","","","",""
"","","","","","html-keyboard-response","10","56505","0.0-2.0-2.0-0.3","60ff35e594f890d3f082e37c","D2","batch4","spm_show_trial_num","null","<p class=block-text>Trial 4 out of 60</p>","null","","","","","","","","","","","","","","","","","","","","","","","","","",""
"","","","","","image-button-response","11","59055","0.0-2.0-2.0-1.3","60ff35e594f890d3f082e37c","D2","batch4","spm_respsonse","2547.60000000149","img/question_1_4.jpeg","1","mat_04","2","1","1","2547.60000000149","","","","","","","","","","","","","","","","","","","","",""
"","","","","","html-keyboard-response","12","60120","0.0-2.0-2.0-0.4","60ff35e594f890d3f082e37c","D2","batch4","spm_show_trial_num","null","<p class=block-text>Trial 5 out of 60</p>","null","","","","","","","","","","","","","","","","","","","","","","","","","",""
"","","","","","image-button-response","13","63005","0.0-2.0-2.0-1.4","60ff35e594f890d3f082e37c","D2","batch4","spm_respsonse","2882.0999999996275","img/question_1_5.jpeg","5","mat_05","6","1","1","2882.0999999996275","","","","","","","","","","","","","","","","","","","","",""
"","","","","","html-keyboard-response","14","64086","0.0-2.0-2.0-0.5","60ff35e594f890d3f082e37c","D2","batch4","spm_show_trial_num","null","<p class=block-text>Trial 6 out of 60</p>","null","","","","","","","","","","","","","","","","","","","","","","","","","",""
"","","","","","image-button-response","15","66907","0.0-2.0-2.0-1.5","60ff35e594f890d3f082e37c","D2","batch4","spm_respsonse","2816.7999999988824","img/question_1_6.jpeg","2","mat_06","3","1","1","2816.7999999988824","","","","","","","","","","","","","","","","","","","","",""
"","","","","","html-keyboard-response","16","67975","0.0-2.0-2.0-0.6","60ff35e594f890d3f082e37c","D2","batch4","spm_show_trial_num","null","<p class=block-text>Trial 7 out of 60</p>","null","","","","","","","","","","","","","","","","","","","","","","","","","",""
"","","","","","image-button-response","17","71207","0.0-2.0-2.0-1.6","60ff35e594f890d3f082e37c","D2","batch4","spm_respsonse","3227.4000000003725","img/question_1_7.jpeg","5","mat_07","6","1","1","3227.4000000003725","","","","","","","","","","","","","","","","","","","","",""
"","","","","","html-keyboard-response","18","72270","0.0-2.0-2.0-0.7","60ff35e594f890d3f082e37c","D2","batch4","spm_show_trial_num","null","<p class=block-text>Trial 8 out of 60</p>","null","","","","","","","","","","","","","","","","","","","","","","","","","",""
"","","","","","image-button-response","19","80413","0.0-2.0-2.0-1.7","60ff35e594f890d3f082e37c","D2","batch4","spm_respsonse","8138.0999999996275","img/question_1_8.jpeg","0","mat_08","2","0","0","8138.0999999996275","","","","","","","","","","","","","","","","","","","","",""
"","","","","","html-keyboard-response","20","81472","0.0-2.0-2.0-0.8","60ff35e594f890d3f082e37c","D2","batch4","spm_show_trial_num","null","<p class=block-text>Trial 9 out of 60</p>","null","","","","","","","","","","","","","","","","","","","","","","","","","",""
"","","","","","image-button-response","21","84417","0.0-2.0-2.0-1.8","60ff35e594f890d3f082e37c","D2","batch4","spm_respsonse","2940.0999999996275","img/question_1_9.jpeg","0","mat_09","1","1","1","2940.0999999996275","","","","","","","","","","","","","","","","","","","","",""
"","","","","","html-keyboard-response","22","85485","0.0-2.0-2.0-0.9","60ff35e594f890d3f082e37c","D2","batch4","spm_show_trial_num","null","<p class=block-text>Trial 10 out of 60</p>","null","","","","","","","","","","","","","","","","","","","","","","","","","",""
"","","","","","image-button-response","23","89907","0.0-2.0-2.0-1.9","60ff35e594f890d3f082e37c","D2","batch4","spm_respsonse","4417.699999999255","img/question_1_10.jpeg","2","mat_10","3","1","1","4417.699999999255","","","","","","","","","","","","","","","","","","","","",""
"","","","","","html-keyboard-response","24","90967","0.0-2.0-2.0-0.10","60ff35e594f890d3f082e37c","D2","batch4","spm_show_trial_num","null","<p class=block-text>Trial 11 out of 60</p>","null","","","","","","","","","","","","","","","","","","","","","","","","","",""
"","","","","","image-button-response","25","102381","0.0-2.0-2.0-1.10","60ff35e594f890d3f082e37c","D2","batch4","spm_respsonse","11409.700000001118","img/question_1_11.jpeg","3","mat_11","4","1","1","11409.700000001118","","","","","","","","","","","","","","","","","","","","",""
"","","","","","html-keyboard-response","26","103452","0.0-2.0-2.0-0.11","60ff35e594f890d3f082e37c","D2","batch4","spm_show_trial_num","null","<p class=block-text>Trial 12 out of 60</p>","null","","","","","","","","","","","","","","","","","","","","","","","","","",""
"","","","","","image-button-response","27","110257","0.0-2.0-2.0-1.11","60ff35e594f890d3f082e37c","D2","batch4","spm_respsonse","6799.799999998882","img/question_1_12.jpeg","4","mat_12","5","1","1","6799.799999998882","","","","","","","","","","","","","","","","","","","","",""
"","","","","","html-keyboard-response","28","111310","0.0-2.0-2.0-0.12","60ff35e594f890d3f082e37c","D2","batch4","spm_show_trial_num","null","<p class=block-text>Trial 13 out of 60</p>","null","","","","","","","","","","","","","","","","","","","","","","","","","",""
"","","","","","image-button-response","29","113345","0.0-2.0-2.0-1.12","60ff35e594f890d3f082e37c","D2","batch4","spm_respsonse","2029.2999999988824","img/question_2_1.jpeg","1","mat_13","2","1","1","2029.2999999988824","","","","","","","","","","","","","","","","","","","","",""
"","","","","","html-keyboard-response","30","114407","0.0-2.0-2.0-0.13","60ff35e594f890d3f082e37c","D2","batch4","spm_show_trial_num","null","<p class=block-text>Trial 14 out of 60</p>","null","","","","","","","","","","","","","","","","","","","","","","","","","",""
"","","","","","image-button-response","31","117763","0.0-2.0-2.0-1.13","60ff35e594f890d3f082e37c","D2","batch4","spm_respsonse","3351.4000000003725","img/question_2_2.jpeg","2","mat_14","6","0","0","3351.4000000003725","","","","","","","","","","","","","","","","","","","","",""
"","","","","","html-keyboard-response","32","118841","0.0-2.0-2.0-0.14","60ff35e594f890d3f082e37c","D2","batch4","spm_show_trial_num","null","<p class=block-text>Trial 15 out of 60</p>","null","","","","","","","","","","","","","","","","","","","","","","","","","",""
"","","","","","image-button-response","33","123948","0.0-2.0-2.0-1.14","60ff35e594f890d3f082e37c","D2","batch4","spm_respsonse","5103.4000000003725","img/question_2_3.jpeg","0","mat_15","1","1","1","5103.4000000003725","","","","","","","","","","","","","","","","","","","","",""
"","","","","","html-keyboard-response","34","125005","0.0-2.0-2.0-0.15","60ff35e594f890d3f082e37c","D2","batch4","spm_show_trial_num","null","<p class=block-text>Trial 16 out of 60</p>","null","","","","","","","","","","","","","","","","","","","","","","","","","",""
"","","","","","image-button-response","35","128233","0.0-2.0-2.0-1.15","60ff35e594f890d3f082e37c","D2","batch4","spm_respsonse","3222.300000000745","img/question_2_4.jpeg","1","mat_16","2","1","1","3222.300000000745","","","","","","","","","","","","","","","","","","","","",""
"","","","","","html-keyboard-response","36","129292","0.0-2.0-2.0-0.16","60ff35e594f890d3f082e37c","D2","batch4","spm_show_trial_num","null","<p class=block-text>Trial 17 out of 60</p>","null","","","","","","","","","","","","","","","","","","","","","","","","","",""
"","","","","","image-button-response","37","132728","0.0-2.0-2.0-1.16","60ff35e594f890d3f082e37c","D2","batch4","spm_respsonse","3431.7999999988824","img/question_2_5.jpeg","0","mat_17","1","1","1","3431.7999999988824","","","","","","","","","","","","","","","","","","","","",""
"","","","","","html-keyboard-response","38","133781","0.0-2.0-2.0-0.17","60ff35e594f890d3f082e37c","D2","batch4","spm_show_trial_num","null","<p class=block-text>Trial 18 out of 60</p>","null","","","","","","","","","","","","","","","","","","","","","","","","","",""
"","","","","","image-button-response","39","137826","0.0-2.0-2.0-1.17","60ff35e594f890d3f082e37c","D2","batch4","spm_respsonse","4040.2999999988824","img/question_2_6.jpeg","2","mat_18","3","1","1","4040.2999999988824","","","","","","","","","","","","","","","","","","","","",""
"","","","","","html-keyboard-response","40","138879","0.0-2.0-2.0-0.18","60ff35e594f890d3f082e37c","D2","batch4","spm_show_trial_num","null","<p class=block-text>Trial 19 out of 60</p>","null","","","","","","","","","","","","","","","","","","","","","","","","","",""
"","","","","","image-button-response","41","142417","0.0-2.0-2.0-1.18","60ff35e594f890d3f082e37c","D2","batch4","spm_respsonse","3533.0999999996275","img/question_2_7.jpeg","4","mat_19","5","1","1","3533.0999999996275","","","","","","","","","","","","","","","","","","","","",""
"","","","","","html-keyboard-response","42","143482","0.0-2.0-2.0-0.19","60ff35e594f890d3f082e37c","D2","batch4","spm_show_trial_num","null","<p class=block-text>Trial 20 out of 60</p>","null","","","","","","","","","","","","","","","","","","","","","","","","","",""
"","","","","","image-button-response","43","149854","0.0-2.0-2.0-1.19","60ff35e594f890d3f082e37c","D2","batch4","spm_respsonse","6367.5","img/question_2_8.jpeg","5","mat_20","6","1","1","6367.5","","","","","","","","","","","","","","","","","","","","",""
"","","","","","html-keyboard-response","44","150908","0.0-2.0-2.0-0.20","60ff35e594f890d3f082e37c","D2","batch4","spm_show_trial_num","null","<p class=block-text>Trial 21 out of 60</p>","null","","","","","","","","","","","","","","","","","","","","","","","","","",""
"","","","","","image-button-response","45","154936","0.0-2.0-2.0-1.20","60ff35e594f890d3f082e37c","D2","batch4","spm_respsonse","4023.60000000149","img/question_2_9.jpeg","3","mat_21","4","1","1","4023.60000000149","","","","","","","","","","","","","","","","","","","","",""
"","","","","","html-keyboard-response","46","156001","0.0-2.0-2.0-0.21","60ff35e594f890d3f082e37c","D2","batch4","spm_show_trial_num","null","<p class=block-text>Trial 22 out of 60</p>","null","","","","","","","","","","","","","","","","","","","","","","","","","",""
"","","","","","image-button-response","47","160045","0.0-2.0-2.0-1.21","60ff35e594f890d3f082e37c","D2","batch4","spm_respsonse","4039.5999999996275","img/question_2_10.jpeg","2","mat_22","3","1","1","4039.5999999996275","","","","","","","","","","","","","","","","","","","","",""
"","","","","","html-keyboard-response","48","161101","0.0-2.0-2.0-0.22","60ff35e594f890d3f082e37c","D2","batch4","spm_show_trial_num","null","<p class=block-text>Trial 23 out of 60</p>","null","","","","","","","","","","","","","","","","","","","","","","","","","",""
"","","","","","image-button-response","49","166581","0.0-2.0-2.0-1.22","60ff35e594f890d3f082e37c","D2","batch4","spm_respsonse","5475.9000000003725","img/question_2_11.jpeg","3","mat_23","4","1","1","5475.9000000003725","","","","","","","","","","","","","","","","","","","","",""
"","","","","","html-keyboard-response","50","167640","0.0-2.0-2.0-0.23","60ff35e594f890d3f082e37c","D2","batch4","spm_show_trial_num","null","<p class=block-text>Trial 24 out of 60</p>","null","","","","","","","","","","","","","","","","","","","","","","","","","",""
"","","","","","image-button-response","51","173642","0.0-2.0-2.0-1.23","60ff35e594f890d3f082e37c","D2","batch4","spm_respsonse","5997.700000001118","img/question_2_12.jpeg","4","mat_24","5","1","1","5997.700000001118","","","","","","","","","","","","","","","","","","","","",""
"","","","","","html-button-response","52","175419","0.0-2.0-3.0","60ff35e594f890d3f082e37c","D2","batch4","attention_check","1523.6000000014901","<p class = block-text>Attention check: Please choose 1<br></p>","0","","","true","","","","","","","","","","","","","","","","","","","","","","",""
"","","","","","html-keyboard-response","53","176220","0.0-2.0-4.0-0.0","60ff35e594f890d3f082e37c","D2","batch4","spm_show_trial_num","null","<p class=block-text>Trial 25 out of 60</p>","null","","","","","","","","","","","","","","","","","","","","","","","","","",""
"","","","","","image-button-response","54","179866","0.0-2.0-4.0-1.0","60ff35e594f890d3f082e37c","D2","batch4","spm_respsonse","3641","img/question_3_1.jpeg","7","mat_25","8","1","1","3641","","","","","","","","","","","","","","","","","","","","",""
"","","","","","html-keyboard-response","55","180930","0.0-2.0-4.0-0.1","60ff35e594f890d3f082e37c","D2","batch4","spm_show_trial_num","null","<p class=block-text>Trial 26 out of 60</p>","null","","","","","","","","","","","","","","","","","","","","","","","","","",""
"","","","","","image-button-response","56","184575","0.0-2.0-4.0-1.1","60ff35e594f890d3f082e37c","D2","batch4","spm_respsonse","3638.7999999988824","img/question_3_2.jpeg","1","mat_26","2","1","1","3638.7999999988824","","","","","","","","","","","","","","","","","","","","",""
"","","","","","html-keyboard-response","57","185628","0.0-2.0-4.0-0.2","60ff35e594f890d3f082e37c","D2","batch4","spm_show_trial_num","null","<p class=block-text>Trial 27 out of 60</p>","null","","","","","","","","","","","","","","","","","","","","","","","","","",""
"","","","","","image-button-response","58","191519","0.0-2.0-4.0-1.2","60ff35e594f890d3f082e37c","D2","batch4","spm_respsonse","5886.89999999851","img/question_3_3.jpeg","2","mat_27","3","1","1","5886.89999999851","","","","","","","","","","","","","","","","","","","","",""
"","","","","","html-keyboard-response","59","192571","0.0-2.0-4.0-0.3","60ff35e594f890d3f082e37c","D2","batch4","spm_show_trial_num","null","<p class=block-text>Trial 28 out of 60</p>","null","","","","","","","","","","","","","","","","","","","","","","","","","",""
"","","","","","image-button-response","60","202786","0.0-2.0-4.0-1.3","60ff35e594f890d3f082e37c","D2","batch4","spm_respsonse","10211.099999999627","img/question_3_4.jpeg","7","mat_28","8","1","1","10211.099999999627","","","","","","","","","","","","","","","","","","","","",""
"","","","","","html-keyboard-response","61","203849","0.0-2.0-4.0-0.4","60ff35e594f890d3f082e37c","D2","batch4","spm_show_trial_num","null","<p class=block-text>Trial 29 out of 60</p>","null","","","","","","","","","","","","","","","","","","","","","","","","","",""
"","","","","","image-button-response","62","208293","0.0-2.0-4.0-1.4","60ff35e594f890d3f082e37c","D2","batch4","spm_respsonse","4438.5999999996275","img/question_3_5.jpeg","6","mat_29","7","1","1","4438.5999999996275","","","","","","","","","","","","","","","","","","","","",""
"","","","","","html-keyboard-response","63","209352","0.0-2.0-4.0-0.5","60ff35e594f890d3f082e37c","D2","batch4","spm_show_trial_num","null","<p class=block-text>Trial 30 out of 60</p>","null","","","","","","","","","","","","","","","","","","","","","","","","","",""
"","","","","","image-button-response","64","219209","0.0-2.0-4.0-1.5","60ff35e594f890d3f082e37c","D2","batch4","spm_respsonse","9854.39999999851","img/question_3_6.jpeg","3","mat_30","4","1","1","9854.39999999851","","","","","","","","","","","","","","","","","","","","",""
"","","","","","html-keyboard-response","65","220273","0.0-2.0-4.0-0.6","60ff35e594f890d3f082e37c","D2","batch4","spm_show_trial_num","null","<p class=block-text>Trial 31 out of 60</p>","null","","","","","","","","","","","","","","","","","","","","","","","","","",""
"","","","","","image-button-response","66","226980","0.0-2.0-4.0-1.6","60ff35e594f890d3f082e37c","D2","batch4","spm_respsonse","6702","img/question_3_7.jpeg","4","mat_31","5","1","1","6702","","","","","","","","","","","","","","","","","","","","",""
"","","","","","html-keyboard-response","67","228039","0.0-2.0-4.0-0.7","60ff35e594f890d3f082e37c","D2","batch4","spm_show_trial_num","null","<p class=block-text>Trial 32 out of 60</p>","null","","","","","","","","","","","","","","","","","","","","","","","","","",""
"","","","","","image-button-response","68","231579","0.0-2.0-4.0-1.7","60ff35e594f890d3f082e37c","D2","batch4","spm_respsonse","3535.4000000003725","img/question_3_8.jpeg","0","mat_32","1","1","1","3535.4000000003725","","","","","","","","","","","","","","","","","","","","",""
"","","","","","html-keyboard-response","69","232639","0.0-2.0-4.0-0.8","60ff35e594f890d3f082e37c","D2","batch4","spm_show_trial_num","null","<p class=block-text>Trial 33 out of 60</p>","null","","","","","","","","","","","","","","","","","","","","","","","","","",""
"","","","","","image-button-response","70","239438","0.0-2.0-4.0-1.8","60ff35e594f890d3f082e37c","D2","batch4","spm_respsonse","6794.700000001118","img/question_3_9.jpeg","6","mat_33","7","1","1","6794.700000001118","","","","","","","","","","","","","","","","","","","","",""
"","","","","","html-keyboard-response","71","240492","0.0-2.0-4.0-0.9","60ff35e594f890d3f082e37c","D2","batch4","spm_show_trial_num","null","<p class=block-text>Trial 34 out of 60</p>","null","","","","","","","","","","","","","","","","","","","","","","","","","",""
"","","","","","image-button-response","72","252192","0.0-2.0-4.0-1.9","60ff35e594f890d3f082e37c","D2","batch4","spm_respsonse","11694.700000001118","img/question_3_10.jpeg","7","mat_34","6","0","0","11694.700000001118","","","","","","","","","","","","","","","","","","","","",""
"","","","","","html-keyboard-response","73","253259","0.0-2.0-4.0-0.10","60ff35e594f890d3f082e37c","D2","batch4","spm_show_trial_num","null","<p class=block-text>Trial 35 out of 60</p>","null","","","","","","","","","","","","","","","","","","","","","","","","","",""
"","","","","","image-button-response","74","277368","0.0-2.0-4.0-1.10","60ff35e594f890d3f082e37c","D2","batch4","spm_respsonse","24104.599999999627","img/question_3_11.jpeg","0","mat_35","1","1","1","24104.599999999627","","","","","","","","","","","","","","","","","","","","",""
"","","","","","html-keyboard-response","75","278433","0.0-2.0-4.0-0.11","60ff35e594f890d3f082e37c","D2","batch4","spm_show_trial_num","null","<p class=block-text>Trial 36 out of 60</p>","null","","","","","","","","","","","","","","","","","","","","","","","","","",""
"","","","","","image-button-response","76","293420","0.0-2.0-4.0-1.11","60ff35e594f890d3f082e37c","D2","batch4","spm_respsonse","14982.199999999255","img/question_3_12.jpeg","4","mat_36","2","0","0","14982.199999999255","","","","","","","","","","","","","","","","","","","","",""
"","","","","","html-keyboard-response","77","294475","0.0-2.0-4.0-0.12","60ff35e594f890d3f082e37c","D2","batch4","spm_show_trial_num","null","<p class=block-text>Trial 37 out of 60</p>","null","","","","","","","","","","","","","","","","","","","","","","","","","",""
"","","","","","image-button-response","78","297204","0.0-2.0-4.0-1.12","60ff35e594f890d3f082e37c","D2","batch4","spm_respsonse","2724","img/question_4_1.jpeg","2","mat_37","3","1","1","2724","","","","","","","","","","","","","","","","","","","","",""
"","","","","","html-keyboard-response","79","298288","0.0-2.0-4.0-0.13","60ff35e594f890d3f082e37c","D2","batch4","spm_show_trial_num","null","<p class=block-text>Trial 38 out of 60</p>","null","","","","","","","","","","","","","","","","","","","","","","","","","",""
"","","","","","image-button-response","80","307706","0.0-2.0-4.0-1.13","60ff35e594f890d3f082e37c","D2","batch4","spm_respsonse","9414.400000000373","img/question_4_2.jpeg","3","mat_38","4","1","1","9414.400000000373","","","","","","","","","","","","","","","","","","","","",""
"","","","","","html-keyboard-response","81","308761","0.0-2.0-4.0-0.14","60ff35e594f890d3f082e37c","D2","batch4","spm_show_trial_num","null","<p class=block-text>Trial 39 out of 60</p>","null","","","","","","","","","","","","","","","","","","","","","","","","","",""
"","","","","","image-button-response","82","317674","0.0-2.0-4.0-1.14","60ff35e594f890d3f082e37c","D2","batch4","spm_respsonse","8909.800000000745","img/question_4_3.jpeg","2","mat_39","3","1","1","8909.800000000745","","","","","","","","","","","","","","","","","","","","",""
"","","","","","html-keyboard-response","83","318728","0.0-2.0-4.0-0.15","60ff35e594f890d3f082e37c","D2","batch4","spm_show_trial_num","null","<p class=block-text>Trial 40 out of 60</p>","null","","","","","","","","","","","","","","","","","","","","","","","","","",""
"","","","","","image-button-response","84","324990","0.0-2.0-4.0-1.15","60ff35e594f890d3f082e37c","D2","batch4","spm_respsonse","6257","img/question_4_4.jpeg","6","mat_40","7","1","1","6257","","","","","","","","","","","","","","","","","","","","",""
"","","","","","html-keyboard-response","85","326045","0.0-2.0-4.0-0.16","60ff35e594f890d3f082e37c","D2","batch4","spm_show_trial_num","null","<p class=block-text>Trial 41 out of 60</p>","null","","","","","","","","","","","","","","","","","","","","","","","","","",""
"","","","","","image-button-response","86","333880","0.0-2.0-4.0-1.16","60ff35e594f890d3f082e37c","D2","batch4","spm_respsonse","7830.0999999996275","img/question_4_5.jpeg","7","mat_41","8","1","1","7830.0999999996275","","","","","","","","","","","","","","","","","","","","",""
"","","","","","html-keyboard-response","87","334933","0.0-2.0-4.0-0.17","60ff35e594f890d3f082e37c","D2","batch4","spm_show_trial_num","null","<p class=block-text>Trial 42 out of 60</p>","null","","","","","","","","","","","","","","","","","","","","","","","","","",""
"","","","","","image-button-response","88","341923","0.0-2.0-4.0-1.17","60ff35e594f890d3f082e37c","D2","batch4","spm_respsonse","6986.0999999996275","img/question_4_6.jpeg","5","mat_42","6","1","1","6986.0999999996275","","","","","","","","","","","","","","","","","","","","",""
"","","","","","html-keyboard-response","89","342991","0.0-2.0-4.0-0.18","60ff35e594f890d3f082e37c","D2","batch4","spm_show_trial_num","null","<p class=block-text>Trial 43 out of 60</p>","null","","","","","","","","","","","","","","","","","","","","","","","","","",""
"","","","","","image-button-response","90","355018","0.0-2.0-4.0-1.18","60ff35e594f890d3f082e37c","D2","batch4","spm_respsonse","12022","img/question_4_7.jpeg","4","mat_43","5","1","1","12022","","","","","","","","","","","","","","","","","","","","",""
"","","","","","html-keyboard-response","91","356070","0.0-2.0-4.0-0.19","60ff35e594f890d3f082e37c","D2","batch4","spm_show_trial_num","null","<p class=block-text>Trial 44 out of 60</p>","null","","","","","","","","","","","","","","","","","","","","","","","","","",""
"","","","","","image-button-response","92","364102","0.0-2.0-4.0-1.19","60ff35e594f890d3f082e37c","D2","batch4","spm_respsonse","8025.4000000003725","img/question_4_8.jpeg","3","mat_44","4","1","1","8025.4000000003725","","","","","","","","","","","","","","","","","","","","",""
"","","","","","html-keyboard-response","93","365155","0.0-2.0-4.0-0.20","60ff35e594f890d3f082e37c","D2","batch4","spm_show_trial_num","null","<p class=block-text>Trial 45 out of 60</p>","null","","","","","","","","","","","","","","","","","","","","","","","","","",""
"","","","","","image-button-response","94","376149","0.0-2.0-4.0-1.20","60ff35e594f890d3f082e37c","D2","batch4","spm_respsonse","10988.099999999627","img/question_4_9.jpeg","0","mat_45","1","1","1","10988.099999999627","","","","","","","","","","","","","","","","","","","","",""
"","","","","","html-keyboard-response","95","377212","0.0-2.0-4.0-0.21","60ff35e594f890d3f082e37c","D2","batch4","spm_show_trial_num","null","<p class=block-text>Trial 46 out of 60</p>","null","","","","","","","","","","","","","","","","","","","","","","","","","",""
"","","","","","image-button-response","96","392153","0.0-2.0-4.0-1.21","60ff35e594f890d3f082e37c","D2","batch4","spm_respsonse","14939.400000000373","img/question_4_10.jpeg","1","mat_46","2","1","1","14939.400000000373","","","","","","","","","","","","","","","","","","","","",""
"","","","","","html-keyboard-response","97","393208","0.0-2.0-4.0-0.22","60ff35e594f890d3f082e37c","D2","batch4","spm_show_trial_num","null","<p class=block-text>Trial 47 out of 60</p>","null","","","","","","","","","","","","","","","","","","","","","","","","","",""
"","","","","","image-button-response","98","422320","0.0-2.0-4.0-1.22","60ff35e594f890d3f082e37c","D2","batch4","spm_respsonse","29106.900000000373","img/question_4_11.jpeg","6","mat_47","5","0","0","29106.900000000373","","","","","","","","","","","","","","","","","","","","",""
"","","","","","html-keyboard-response","99","423398","0.0-2.0-4.0-0.23","60ff35e594f890d3f082e37c","D2","batch4","spm_show_trial_num","null","<p class=block-text>Trial 48 out of 60</p>","null","","","","","","","","","","","","","","","","","","","","","","","","","",""
"","","","","","image-button-response","100","441568","0.0-2.0-4.0-1.23","60ff35e594f890d3f082e37c","D2","batch4","spm_respsonse","18164.300000000745","img/question_4_12.jpeg","6","mat_48","6","0","0","18164.300000000745","","","","","","","","","","","","","","","","","","","","",""
"","","","","","html-keyboard-response","101","442631","0.0-2.0-4.0-0.24","60ff35e594f890d3f082e37c","D2","batch4","spm_show_trial_num","null","<p class=block-text>Trial 49 out of 60</p>","null","","","","","","","","","","","","","","","","","","","","","","","","","",""
"","","","","","image-button-response","102","455224","0.0-2.0-4.0-1.24","60ff35e594f890d3f082e37c","D2","batch4","spm_respsonse","12587.400000000373","img/question_5_1.jpeg","6","mat_49","7","1","1","12587.400000000373","","","","","","","","","","","","","","","","","","","","",""
"","","","","","html-keyboard-response","103","456277","0.0-2.0-4.0-0.25","60ff35e594f890d3f082e37c","D2","batch4","spm_show_trial_num","null","<p class=block-text>Trial 50 out of 60</p>","null","","","","","","","","","","","","","","","","","","","","","","","","","",""
"","","","","","image-button-response","104","477970","0.0-2.0-4.0-1.25","60ff35e594f890d3f082e37c","D2","batch4","spm_respsonse","21687.699999999255","img/question_5_2.jpeg","2","mat_50","6","0","0","21687.699999999255","","","","","","","","","","","","","","","","","","","","",""
"","","","","","html-keyboard-response","105","479028","0.0-2.0-4.0-0.26","60ff35e594f890d3f082e37c","D2","batch4","spm_show_trial_num","null","<p class=block-text>Trial 51 out of 60</p>","null","","","","","","","","","","","","","","","","","","","","","","","","","",""
"","","","","","image-button-response","106","497522","0.0-2.0-4.0-1.26","60ff35e594f890d3f082e37c","D2","batch4","spm_respsonse","18488.799999998882","img/question_5_3.jpeg","7","mat_51","8","1","1","18488.799999998882","","","","","","","","","","","","","","","","","","","","",""
"","","","","","html-keyboard-response","107","498576","0.0-2.0-4.0-0.27","60ff35e594f890d3f082e37c","D2","batch4","spm_show_trial_num","null","<p class=block-text>Trial 52 out of 60</p>","null","","","","","","","","","","","","","","","","","","","","","","","","","",""
"","","","","","image-button-response","108","505190","0.0-2.0-4.0-1.27","60ff35e594f890d3f082e37c","D2","batch4","spm_respsonse","6609.4000000003725","img/question_5_4.jpeg","2","mat_52","2","0","0","6609.4000000003725","","","","","","","","","","","","","","","","","","","","",""
"","","","","","html-keyboard-response","109","506243","0.0-2.0-4.0-0.28","60ff35e594f890d3f082e37c","D2","batch4","spm_show_trial_num","null","<p class=block-text>Trial 53 out of 60</p>","null","","","","","","","","","","","","","","","","","","","","","","","","","",""
"","","","","","image-button-response","110","513258","0.0-2.0-4.0-1.28","60ff35e594f890d3f082e37c","D2","batch4","spm_respsonse","7008.800000000745","img/question_5_5.jpeg","6","mat_53","1","0","0","7008.800000000745","","","","","","","","","","","","","","","","","","","","",""
"","","","","","html-keyboard-response","111","514312","0.0-2.0-4.0-0.29","60ff35e594f890d3f082e37c","D2","batch4","spm_show_trial_num","null","<p class=block-text>Trial 54 out of 60</p>","null","","","","","","","","","","","","","","","","","","","","","","","","","",""
"","","","","","image-button-response","112","533807","0.0-2.0-4.0-1.29","60ff35e594f890d3f082e37c","D2","batch4","spm_respsonse","19489.599999999627","img/question_5_6.jpeg","1","mat_54","5","0","0","19489.599999999627","","","","","","","","","","","","","","","","","","","","",""
"","","","","","html-keyboard-response","113","534859","0.0-2.0-4.0-0.30","60ff35e594f890d3f082e37c","D2","batch4","spm_show_trial_num","null","<p class=block-text>Trial 55 out of 60</p>","null","","","","","","","","","","","","","","","","","","","","","","","","","",""
"","","","","","image-button-response","114","560733","0.0-2.0-4.0-1.30","60ff35e594f890d3f082e37c","D2","batch4","spm_respsonse","25868.299999998882","img/question_5_7.jpeg","2","mat_55","1","0","0","25868.299999998882","","","","","","","","","","","","","","","","","","","","",""
"","","","","","html-keyboard-response","115","561798","0.0-2.0-4.0-0.31","60ff35e594f890d3f082e37c","D2","batch4","spm_show_trial_num","null","<p class=block-text>Trial 56 out of 60</p>","null","","","","","","","","","","","","","","","","","","","","","","","","","",""
"","","","","","image-button-response","116","573745","0.0-2.0-4.0-1.31","60ff35e594f890d3f082e37c","D2","batch4","spm_respsonse","11940.800000000745","img/question_5_8.jpeg","5","mat_56","6","1","1","11940.800000000745","","","","","","","","","","","","","","","","","","","","",""
"","","","","","html-keyboard-response","117","574797","0.0-2.0-4.0-0.32","60ff35e594f890d3f082e37c","D2","batch4","spm_show_trial_num","null","<p class=block-text>Trial 57 out of 60</p>","null","","","","","","","","","","","","","","","","","","","","","","","","","",""
"","","","","","image-button-response","118","584115","0.0-2.0-4.0-1.32","60ff35e594f890d3f082e37c","D2","batch4","spm_respsonse","9313","img/question_5_9.jpeg","0","mat_57","3","0","0","9313","","","","","","","","","","","","","","","","","","","","",""
"","","","","","html-keyboard-response","119","585184","0.0-2.0-4.0-0.33","60ff35e594f890d3f082e37c","D2","batch4","spm_show_trial_num","null","<p class=block-text>Trial 58 out of 60</p>","null","","","","","","","","","","","","","","","","","","","","","","","","","",""
"","","","","","image-button-response","120","606864","0.0-2.0-4.0-1.33","60ff35e594f890d3f082e37c","D2","batch4","spm_respsonse","21678.800000000745","img/question_5_10.jpeg","3","mat_58","2","0","0","21678.800000000745","","","","","","","","","","","","","","","","","","","","",""
"","","","","","html-keyboard-response","121","607917","0.0-2.0-4.0-0.34","60ff35e594f890d3f082e37c","D2","batch4","spm_show_trial_num","null","<p class=block-text>Trial 59 out of 60</p>","null","","","","","","","","","","","","","","","","","","","","","","","","","",""
"","","","","","image-button-response","122","616508","0.0-2.0-4.0-1.34","60ff35e594f890d3f082e37c","D2","batch4","spm_respsonse","8585.5","img/question_5_11.jpeg","2","mat_59","4","0","0","8585.5","","","","","","","","","","","","","","","","","","","","",""
"","","","","","html-keyboard-response","123","617575","0.0-2.0-4.0-0.35","60ff35e594f890d3f082e37c","D2","batch4","spm_show_trial_num","null","<p class=block-text>Trial 60 out of 60</p>","null","","","","","","","","","","","","","","","","","","","","","","","","","",""
"","","","","","image-button-response","124","624972","0.0-2.0-4.0-1.35","60ff35e594f890d3f082e37c","D2","batch4","spm_respsonse","7392.5999999996275","img/question_5_12.jpeg","2","mat_60","5","0","0","7392.5999999996275","","","","","","","","","","","","","","","","","","","","",""
"","","","","","html-button-response","125","687444","0.0-2.0-5.0","60ff35e594f890d3f082e37c","D2","batch4","spm_goodbye","62210.300000000745","<p class= block-text>This concludes the Standard Progressive Matrix game. Thank you for your responses!<br> When you are ready, click the button continue</p>","0","","","","","","","","","","","","","","","","","","","","","","","","","",""
"true","","","","","fullscreen","126","697025","0.0-3.0-0.0","60ff35e594f890d3f082e37c","D2","batch4","","","","","","","","","","","","","","","","","","","","","","","","","","","","","",""
"","","","","","instructions","127","708066","0.0-3.0-1.0-0.0","60ff35e594f890d3f082e37c","D2","batch4","","11038.400000000373","","","","","","","","[{""page_index"":0,""viewing_time"":6224.5999999996275},{""page_index"":1,""viewing_time"":4813.5}]","","","","","","","","","","","","","","","","","","","",""
"","","","","","html-button-response","128","709198","0.0-3.0-1.0-1.0-0.0","60ff35e594f890d3f082e37c","D2","batch4","pattern_enter_quiz","1131.4000000003725","<p class=block-text> Let's answer a few questions <br>","0","","","","","","","","","","","","","","","","","","","","","","","","","",""
"","","","","","html-button-response","129","712176","0.0-3.0-1.0-1.0-1.0","60ff35e594f890d3f082e37c","D2","batch4","pattern_quiz","2976.5999999996275","<p class = block-text>True or False: You will have as much time as you want to make each choice. <br></p>","1","","","true","","","","","","","","","","","","","","","","","","","","","","",""
"","","","","","html-button-response","130","712902","0.0-3.0-1.0-1.0-2.0","60ff35e594f890d3f082e37c","D2","batch4","pattern_quiz_feedback","725","<p class = block-text>Correct! You should make your choice <strong> as fast as you can</strong>.</p>","0","","","","","","","","","","","","","","","","","","","","","","","","","",""
"","","","","","html-button-response","131","715489","0.0-3.0-1.0-1.0-3.0","60ff35e594f890d3f082e37c","D2","batch4","pattern_quiz","2586.5","<p class = block-text>True or False: You will look for 4 pieces in black or white color connected in a row either horizontally, vertically or diagonally. <br></p>","0","","","true","","","","","","","","","","","","","","","","","","","","","","",""
"","","","","","html-button-response","132","716200","0.0-3.0-1.0-1.0-4.0","60ff35e594f890d3f082e37c","D2","batch4","pattern_quiz_feedback","709.7000000011176","<p class = block-text>Correct! </p>","0","","","","","","","","","","","","","","","","","","","","","","","","","",""
"","","","","","html-button-response","133","717193","0.0-3.0-2.0","60ff35e594f890d3f082e37c","D2","batch4","pattern_enter_practice","991.8999999985099","<p class=block-text> Now that you've understood the game, let's do a few practice trials before we start!<br> <br>","0","","","","","","","","","","","","","","","","","","","","","","","","","",""
"","","","","","image-keyboard-response","134","721021","0.0-3.0-3.0-0.0","60ff35e594f890d3f082e37c","D2","batch4","pattern_practice","3826.5999999996275","stim/prac_no_16_1.png","j","","j","true","","","","","","","","","","","","","","","","","","","","","","",""
"","","","","","html-keyboard-response","135","722038","0.0-3.0-3.0-1.0","60ff35e594f890d3f082e37c","D2","batch4","pattern_feedback","null","<p style=""font-size:30px;color:green;"">Correct!</p>","null","","","","","","","","","","","","","","","","","","","","","","","","","",""
"","","","","","image-keyboard-response","136","723694","0.0-3.0-3.0-0.1","60ff35e594f890d3f082e37c","D2","batch4","pattern_practice","1652.699999999255","stim/prac_no_18_1.png","j","","j","true","","","","","","","","","","","","","","","","","","","","","","",""
"","","","","","html-keyboard-response","137","724708","0.0-3.0-3.0-1.1","60ff35e594f890d3f082e37c","D2","batch4","pattern_feedback","null","<p style=""font-size:30px;color:green;"">Correct!</p>","null","","","","","","","","","","","","","","","","","","","","","","","","","",""
"","","","","","image-keyboard-response","138","725498","0.0-3.0-3.0-0.2","60ff35e594f890d3f082e37c","D2","batch4","pattern_practice","785.7999999988824","stim/prac_yes_16_ver_w1.png","f","","f","true","","","","","","","","","","","","","","","","","","","","","","",""
"","","","","","html-keyboard-response","139","726514","0.0-3.0-3.0-1.2","60ff35e594f890d3f082e37c","D2","batch4","pattern_feedback","null","<p style=""font-size:30px;color:green;"">Correct!</p>","null","","","","","","","","","","","","","","","","","","","","","","","","","",""
"","","","","","image-keyboard-response","140","727755","0.0-3.0-3.0-0.3","60ff35e594f890d3f082e37c","D2","batch4","pattern_practice","1237","stim/prac_yes_20_dia_b1.png","f","","f","true","","","","","","","","","","","","","","","","","","","","","","",""
"","","","","","html-keyboard-response","141","728762","0.0-3.0-3.0-1.3","60ff35e594f890d3f082e37c","D2","batch4","pattern_feedback","null","<p style=""font-size:30px;color:green;"">Correct!</p>","null","","","","","","","","","","","","","","","","","","","","","","","","","",""
"","","","","","image-keyboard-response","142","729644","0.0-3.0-3.0-0.4","60ff35e594f890d3f082e37c","D2","batch4","pattern_practice","878.1000000014901","stim/prac_yes_18_hor_w1.png","f","","f","true","","","","","","","","","","","","","","","","","","","","","","",""
"","","","","","html-keyboard-response","143","730659","0.0-3.0-3.0-1.4","60ff35e594f890d3f082e37c","D2","batch4","pattern_feedback","null","<p style=""font-size:30px;color:green;"">Correct!</p>","null","","","","","","","","","","","","","","","","","","","","","","","","","",""
"","","","","","html-button-response","144","733626","0.0-3.0-4.0","60ff35e594f890d3f082e37c","D2","batch4","pattern_enter_official_trials","2965","<p class=block-text> Good job! You are done with practice trials!<br>
        You responded correctly on 100% of the trials.<br>
        Press the button below to start official trials. Now you won't see any feedback about your response</p>","0","","","","","","","","","","","","","","","","","","","","","","","","","",""
"","","","","","html-keyboard-response","145","734436","0.0-3.0-5.0-0.0","60ff35e594f890d3f082e37c","D2","batch4","pattern_show_trial_num","null","<p class=block-text>Trial 1 out of 78</p>","null","","","","","","","","","","","","","","","","","","","","","","","","","",""
"","","","","","image-keyboard-response","146","736661","0.0-3.0-5.0-1.0","60ff35e594f890d3f082e37c","D2","batch4","pattern_response","2224","stim/yes_23_ver_b1.png","f","pattern_48","f","true","","","","2224","true","1","","","","","","","","","","","","","","","","",""
"","","","","","html-keyboard-response","147","737972","0.0-3.0-5.0-0.1","60ff35e594f890d3f082e37c","D2","batch4","pattern_show_trial_num","null","<p class=block-text>Trial 2 out of 78</p>","null","","","","","","","","","","","","","","","","","","","","","","","","","",""
"","","","","","image-keyboard-response","148","742593","0.0-3.0-5.0-1.1","60ff35e594f890d3f082e37c","D2","batch4","pattern_response","4616","stim/no_67_1.png","j","pattern_39","j","true","","","","4616","true","2","","","","","","","","","","","","","","","","",""
"","","","","","html-keyboard-response","149","743920","0.0-3.0-5.0-0.2","60ff35e594f890d3f082e37c","D2","batch4","pattern_show_trial_num","null","<p class=block-text>Trial 3 out of 78</p>","null","","","","","","","","","","","","","","","","","","","","","","","","","",""
"","","","","","image-keyboard-response","150","746160","0.0-3.0-5.0-1.2","60ff35e594f890d3f082e37c","D2","batch4","pattern_response","2235.2000000011176","stim/no_43_2_b.png","j","pattern_23","j","true","","","","2235.2000000011176","true","3","","","","","","","","","","","","","","","","",""
"","","","","","html-keyboard-response","151","747463","0.0-3.0-5.0-0.3","60ff35e594f890d3f082e37c","D2","batch4","pattern_show_trial_num","null","<p class=block-text>Trial 4 out of 78</p>","null","","","","","","","","","","","","","","","","","","","","","","","","","",""
"","","","","","image-keyboard-response","152","750090","0.0-3.0-5.0-1.3","60ff35e594f890d3f082e37c","D2","batch4","pattern_response","2622.2000000011176","stim/no_47_1_b.png","j","pattern_27","j","true","","","","2622.2000000011176","true","4","","","","","","","","","","","","","","","","",""
"","","","","","html-keyboard-response","153","751409","0.0-3.0-5.0-0.4","60ff35e594f890d3f082e37c","D2","batch4","pattern_show_trial_num","null","<p class=block-text>Trial 5 out of 78</p>","null","","","","","","","","","","","","","","","","","","","","","","","","","",""
"","","","","","image-keyboard-response","154","752044","0.0-3.0-5.0-1.4","60ff35e594f890d3f082e37c","D2","batch4","pattern_response","629.4000000003725","stim/yes_12_hor_w1_w.png","f","pattern_42","f","true","","","","629.4000000003725","true","5","","","","","","","","","","","","","","","","",""
"","","","","","html-keyboard-response","155","753357","0.0-3.0-5.0-0.5","60ff35e594f890d3f082e37c","D2","batch4","pattern_show_trial_num","null","<p class=block-text>Trial 6 out of 78</p>","null","","","","","","","","","","","","","","","","","","","","","","","","","",""
"","","","","","image-keyboard-response","156","755439","0.0-3.0-5.0-1.5","60ff35e594f890d3f082e37c","D2","batch4","pattern_response","2078.0999999996275","stim/no_25_1_b.png","j","pattern_09","j","true","","","","2078.0999999996275","true","6","","","","","","","","","","","","","","","","",""
"","","","","","html-keyboard-response","157","756754","0.0-3.0-5.0-0.6","60ff35e594f890d3f082e37c","D2","batch4","pattern_show_trial_num","null","<p class=block-text>Trial 7 out of 78</p>","null","","","","","","","","","","","","","","","","","","","","","","","","","",""
"","","","","","image-keyboard-response","158","759497","0.0-3.0-5.0-1.6","60ff35e594f890d3f082e37c","D2","batch4","pattern_response","2739.4000000003725","stim/no_53_1_b.png","j","pattern_33","j","true","","","","2739.4000000003725","true","7","","","","","","","","","","","","","","","","",""
"","","","","","html-keyboard-response","159","760817","0.0-3.0-5.0-0.7","60ff35e594f890d3f082e37c","D2","batch4","pattern_show_trial_num","null","<p class=block-text>Trial 8 out of 78</p>","null","","","","","","","","","","","","","","","","","","","","","","","","","",""
"","","","","","image-keyboard-response","160","761688","0.0-3.0-5.0-1.7","60ff35e594f890d3f082e37c","D2","batch4","pattern_response","867.0999999996275","stim/yes_46_ver_b1_b.png","f","pattern_68","f","true","","","","867.0999999996275","true","8","","","","","","","","","","","","","","","","",""
"","","","","","html-keyboard-response","161","762996","0.0-3.0-5.0-0.8","60ff35e594f890d3f082e37c","D2","batch4","pattern_show_trial_num","null","<p class=block-text>Trial 9 out of 78</p>","null","","","","","","","","","","","","","","","","","","","","","","","","","",""
"","","","","","image-keyboard-response","162","765154","0.0-3.0-5.0-1.8","60ff35e594f890d3f082e37c","D2","batch4","pattern_response","2156.199999999255","stim/no_49_2_b.png","j","pattern_29","j","true","","","","2156.199999999255","true","9","","","","","","","","","","","","","","","","",""
"","","","","","html-keyboard-response","163","766469","0.0-3.0-5.0-0.9","60ff35e594f890d3f082e37c","D2","batch4","pattern_show_trial_num","null","<p class=block-text>Trial 10 out of 78</p>","null","","","","","","","","","","","","","","","","","","","","","","","","","",""
"","","","","","image-keyboard-response","164","767307","0.0-3.0-5.0-1.9","60ff35e594f890d3f082e37c","D2","batch4","pattern_response","835.1999999992549","stim/yes_36_ver_w1_w.png","f","pattern_58","f","true","","","","835.1999999992549","true","10","","","","","","","","","","","","","","","","",""
"","","","","","html-keyboard-response","165","768619","0.0-3.0-5.0-0.10","60ff35e594f890d3f082e37c","D2","batch4","pattern_show_trial_num","null","<p class=block-text>Trial 11 out of 78</p>","null","","","","","","","","","","","","","","","","","","","","","","","","","",""
"","","","","","image-keyboard-response","166","770783","0.0-3.0-5.0-1.10","60ff35e594f890d3f082e37c","D2","batch4","pattern_response","2160.5999999996275","stim/no_22_1_b.png","j","pattern_07","j","true","","","","2160.5999999996275","true","11","","","","","","","","","","","","","","","","",""
"","","","","","html-keyboard-response","167","772101","0.0-3.0-5.0-0.11","60ff35e594f890d3f082e37c","D2","batch4","pattern_show_trial_num","null","<p class=block-text>Trial 12 out of 78</p>","null","","","","","","","","","","","","","","","","","","","","","","","","","",""
"","","","","","image-keyboard-response","168","776153","0.0-3.0-5.0-1.11","60ff35e594f890d3f082e37c","D2","batch4","pattern_response","4048.800000000745","stim/no_58_1_w.png","j","pattern_35","j","true","","","","4048.800000000745","true","12","","","","","","","","","","","","","","","","",""
"","","","","","html-keyboard-response","169","777471","0.0-3.0-5.0-0.12","60ff35e594f890d3f082e37c","D2","batch4","pattern_show_trial_num","null","<p class=block-text>Trial 13 out of 78</p>","null","","","","","","","","","","","","","","","","","","","","","","","","","",""
"","","","","","image-keyboard-response","170","778326","0.0-3.0-5.0-1.12","60ff35e594f890d3f082e37c","D2","batch4","pattern_response","850.8999999985099","stim/yes_70_ver_b1.png","f","pattern_80","f","true","","","","850.8999999985099","true","13","","","","","","","","","","","","","","","","",""
"","","","","","html-keyboard-response","171","779634","0.0-3.0-5.0-0.13","60ff35e594f890d3f082e37c","D2","batch4","pattern_show_trial_num","null","<p class=block-text>Trial 14 out of 78</p>","null","","","","","","","","","","","","","","","","","","","","","","","","","",""
"","","","","","image-keyboard-response","172","782145","0.0-3.0-5.0-1.13","60ff35e594f890d3f082e37c","D2","batch4","pattern_response","2508.9000000003725","stim/yes_42_dia_w1_w.png","j","pattern_64","f","false","","","","2508.9000000003725","false","13","","","","","","","","","","","","","","","","",""
"","","","","","html-keyboard-response","173","783473","0.0-3.0-5.0-0.14","60ff35e594f890d3f082e37c","D2","batch4","pattern_show_trial_num","null","<p class=block-text>Trial 15 out of 78</p>","null","","","","","","","","","","","","","","","","","","","","","","","","","",""
"","","","","","image-keyboard-response","174","784890","0.0-3.0-5.0-1.14","60ff35e594f890d3f082e37c","D2","batch4","pattern_response","1413","stim/yes_44_ver_w1_w.png","f","pattern_66","f","true","","","","1413","true","14","","","","","","","","","","","","","","","","",""
"","","","","","html-keyboard-response","175","786201","0.0-3.0-5.0-0.15","60ff35e594f890d3f082e37c","D2","batch4","pattern_show_trial_num","null","<p class=block-text>Trial 16 out of 78</p>","null","","","","","","","","","","","","","","","","","","","","","","","","","",""
"","","","","","image-keyboard-response","176","787408","0.0-3.0-5.0-1.15","60ff35e594f890d3f082e37c","D2","batch4","pattern_response","1202.9000000003725","stim/yes_33_dia_w1_w.png","f","pattern_56","f","true","","","","1202.9000000003725","true","15","","","","","","","","","","","","","","","","",""
"","","","","","html-keyboard-response","177","788726","0.0-3.0-5.0-0.16","60ff35e594f890d3f082e37c","D2","batch4","pattern_show_trial_num","null","<p class=block-text>Trial 17 out of 78</p>","null","","","","","","","","","","","","","","","","","","","","","","","","","",""
"","","","","","image-keyboard-response","178","790792","0.0-3.0-5.0-1.16","60ff35e594f890d3f082e37c","D2","batch4","pattern_response","2062.7000000011176","stim/no_30_1_b.png","j","pattern_13","j","true","","","","2062.7000000011176","true","16","","","","","","","","","","","","","","","","",""
"","","","","","html-keyboard-response","179","792110","0.0-3.0-5.0-0.17","60ff35e594f890d3f082e37c","D2","batch4","pattern_show_trial_num","null","<p class=block-text>Trial 18 out of 78</p>","null","","","","","","","","","","","","","","","","","","","","","","","","","",""
"","","","","","image-keyboard-response","180","792950","0.0-3.0-5.0-1.17","60ff35e594f890d3f082e37c","D2","batch4","pattern_response","837","stim/yes_30_ver_b1_b.png","f","pattern_54","f","true","","","","837","true","17","","","","","","","","","","","","","","","","",""
"","","","","","html-keyboard-response","181","794262","0.0-3.0-5.0-0.18","60ff35e594f890d3f082e37c","D2","batch4","pattern_show_trial_num","null","<p class=block-text>Trial 19 out of 78</p>","null","","","","","","","","","","","","","","","","","","","","","","","","","",""
"","","","","","image-keyboard-response","182","798367","0.0-3.0-5.0-1.18","60ff35e594f890d3f082e37c","D2","batch4","pattern_response","4102.10000000149","stim/yes_58_dia_w1_w.png","j","pattern_76","f","false","","","","4102.10000000149","false","17","","","","","","","","","","","","","","","","",""
"","","","","","html-keyboard-response","183","799680","0.0-3.0-5.0-0.19","60ff35e594f890d3f082e37c","D2","batch4","pattern_show_trial_num","null","<p class=block-text>Trial 20 out of 78</p>","null","","","","","","","","","","","","","","","","","","","","","","","","","",""
"","","","","","image-keyboard-response","184","800489","0.0-3.0-5.0-1.19","60ff35e594f890d3f082e37c","D2","batch4","pattern_response","804.3000000007451","stim/yes_49_hor_w1_b.png","f","pattern_70","f","true","","","","804.3000000007451","true","18","","","","","","","","","","","","","","","","",""
"","","","","","html-keyboard-response","185","801811","0.0-3.0-5.0-0.20","60ff35e594f890d3f082e37c","D2","batch4","pattern_show_trial_num","null","<p class=block-text>Trial 21 out of 78</p>","null","","","","","","","","","","","","","","","","","","","","","","","","","",""
"","","","","","image-keyboard-response","186","802647","0.0-3.0-5.0-1.20","60ff35e594f890d3f082e37c","D2","batch4","pattern_response","832.6000000014901","stim/yes_37_hor_w1_w.png","f","pattern_60","f","true","","","","832.6000000014901","true","19","","","","","","","","","","","","","","","","",""
"","","","","","html-keyboard-response","187","803965","0.0-3.0-5.0-0.21","60ff35e594f890d3f082e37c","D2","batch4","pattern_show_trial_num","null","<p class=block-text>Trial 22 out of 78</p>","null","","","","","","","","","","","","","","","","","","","","","","","","","",""
"","","","","","image-keyboard-response","188","804654","0.0-3.0-5.0-1.21","60ff35e594f890d3f082e37c","D2","batch4","pattern_response","676.5","stim/yes_39_hor_w1_w.png","f","pattern_62","f","true","","","","676.5","true","20","","","","","","","","","","","","","","","","",""
"","","","","","html-keyboard-response","189","805964","0.0-3.0-5.0-0.22","60ff35e594f890d3f082e37c","D2","batch4","pattern_show_trial_num","null","<p class=block-text>Trial 23 out of 78</p>","null","","","","","","","","","","","","","","","","","","","","","","","","","",""
"","","","","","image-keyboard-response","190","806809","0.0-3.0-5.0-1.22","60ff35e594f890d3f082e37c","D2","batch4","pattern_response","841.5","stim/yes_26_dia_w2_w.png","f","pattern_50","f","true","","","","841.5","true","21","","","","","","","","","","","","","","","","",""
"","","","","","html-keyboard-response","191","808127","0.0-3.0-5.0-0.23","60ff35e594f890d3f082e37c","D2","batch4","pattern_show_trial_num","null","<p class=block-text>Trial 24 out of 78</p>","null","","","","","","","","","","","","","","","","","","","","","","","","","",""
"","","","","","image-keyboard-response","192","810240","0.0-3.0-5.0-1.23","60ff35e594f890d3f082e37c","D2","batch4","pattern_response","2110.699999999255","stim/no_39_1_w.png","j","pattern_21","j","true","","","","2110.699999999255","true","22","","","","","","","","","","","","","","","","",""
"","","","","","html-keyboard-response","193","811552","0.0-3.0-5.0-0.24","60ff35e594f890d3f082e37c","D2","batch4","pattern_show_trial_num","null","<p class=block-text>Trial 25 out of 78</p>","null","","","","","","","","","","","","","","","","","","","","","","","","","",""
"","","","","","image-keyboard-response","194","813209","0.0-3.0-5.0-1.24","60ff35e594f890d3f082e37c","D2","batch4","pattern_response","1653.2000000011176","stim/no_37_2_w.png","j","pattern_19","j","true","","","","1653.2000000011176","true","23","","","","","","","","","","","","","","","","",""
"","","","","","html-keyboard-response","195","814514","0.0-3.0-5.0-0.25","60ff35e594f890d3f082e37c","D2","batch4","pattern_show_trial_num","null","<p class=block-text>Trial 26 out of 78</p>","null","","","","","","","","","","","","","","","","","","","","","","","","","",""
"","","","","","image-keyboard-response","196","815417","0.0-3.0-5.0-1.25","60ff35e594f890d3f082e37c","D2","batch4","pattern_response","899","stim/no_12_1.png","j","pattern_01","j","true","","","","899","true","24","","","","","","","","","","","","","","","","",""
"","","","","","html-keyboard-response","197","816725","0.0-3.0-5.0-0.26","60ff35e594f890d3f082e37c","D2","batch4","pattern_show_trial_num","null","<p class=block-text>Trial 27 out of 78</p>","null","","","","","","","","","","","","","","","","","","","","","","","","","",""
"","","","","","image-keyboard-response","198","817926","0.0-3.0-5.0-1.26","60ff35e594f890d3f082e37c","D2","batch4","pattern_response","1197.2999999988824","stim/yes_63_dia_b1.png","f","pattern_78","f","true","","","","1197.2999999988824","true","25","","","","","","","","","","","","","","","","",""
"","","","","","html-keyboard-response","199","819256","0.0-3.0-5.0-0.27","60ff35e594f890d3f082e37c","D2","batch4","pattern_show_trial_num","null","<p class=block-text>Trial 28 out of 78</p>","null","","","","","","","","","","","","","","","","","","","","","","","","","",""
"","","","","","image-keyboard-response","200","820541","0.0-3.0-5.0-1.27","60ff35e594f890d3f082e37c","D2","batch4","pattern_response","1281.2000000011176","stim/no_28_2.png","j","pattern_11","j","true","","","","1281.2000000011176","true","26","","","","","","","","","","","","","","","","",""
"","","","","","html-keyboard-response","201","821852","0.0-3.0-5.0-0.28","60ff35e594f890d3f082e37c","D2","batch4","pattern_show_trial_num","null","<p class=block-text>Trial 29 out of 78</p>","null","","","","","","","","","","","","","","","","","","","","","","","","","",""
"","","","","","image-keyboard-response","202","822549","0.0-3.0-5.0-1.28","60ff35e594f890d3f082e37c","D2","batch4","pattern_response","693.5999999996275","stim/yes_15_dia_b1u_b.png","f","pattern_44","f","true","","","","693.5999999996275","true","27","","","","","","","","","","","","","","","","",""
"","","","","","html-keyboard-response","203","823856","0.0-3.0-5.0-0.29","60ff35e594f890d3f082e37c","D2","batch4","pattern_show_trial_num","null","<p class=block-text>Trial 30 out of 78</p>","null","","","","","","","","","","","","","","","","","","","","","","","","","",""
"","","","","","image-keyboard-response","204","825863","0.0-3.0-5.0-1.29","60ff35e594f890d3f082e37c","D2","batch4","pattern_response","2003.5999999996275","stim/no_51_1.png","j","pattern_31","j","true","","","","2003.5999999996275","true","28","","","","","","","","","","","","","","","","",""
"","","","","","html-keyboard-response","205","827179","0.0-3.0-5.0-0.30","60ff35e594f890d3f082e37c","D2","batch4","pattern_show_trial_num","null","<p class=block-text>Trial 31 out of 78</p>","null","","","","","","","","","","","","","","","","","","","","","","","","","",""
"","","","","","image-keyboard-response","206","828996","0.0-3.0-5.0-1.30","60ff35e594f890d3f082e37c","D2","batch4","pattern_response","1814","stim/no_36_1_b.png","j","pattern_17","j","true","","","","1814","true","29","","","","","","","","","","","","","","","","",""
"","","","","","html-keyboard-response","207","830304","0.0-3.0-5.0-0.31","60ff35e594f890d3f082e37c","D2","batch4","pattern_show_trial_num","null","<p class=block-text>Trial 32 out of 78</p>","null","","","","","","","","","","","","","","","","","","","","","","","","","",""
"","","","","","image-keyboard-response","208","831867","0.0-3.0-5.0-1.31","60ff35e594f890d3f082e37c","D2","batch4","pattern_response","1559.699999999255","stim/no_45_1_w.png","j","pattern_25","j","true","","","","1559.699999999255","true","30","","","","","","","","","","","","","","","","",""
"","","","","","html-keyboard-response","209","833189","0.0-3.0-5.0-0.32","60ff35e594f890d3f082e37c","D2","batch4","pattern_show_trial_num","null","<p class=block-text>Trial 33 out of 78</p>","null","","","","","","","","","","","","","","","","","","","","","","","","","",""
"","","","","","image-keyboard-response","210","834524","0.0-3.0-5.0-1.32","60ff35e594f890d3f082e37c","D2","batch4","pattern_response","1331.3999999985099","stim/yes_51_dia_b1.png","f","pattern_72","f","true","","","","1331.3999999985099","true","31","","","","","","","","","","","","","","","","",""
"","","","","","html-keyboard-response","211","835856","0.0-3.0-5.0-0.33","60ff35e594f890d3f082e37c","D2","batch4","pattern_show_trial_num","null","<p class=block-text>Trial 34 out of 78</p>","null","","","","","","","","","","","","","","","","","","","","","","","","","",""
"","","","","","image-keyboard-response","212","836780","0.0-3.0-5.0-1.33","60ff35e594f890d3f082e37c","D2","batch4","pattern_response","919.0999999996275","stim/no_18_1_b.png","j","pattern_05","j","true","","","","919.0999999996275","true","32","","","","","","","","","","","","","","","","",""
"","","","","","html-keyboard-response","213","838098","0.0-3.0-5.0-0.34","60ff35e594f890d3f082e37c","D2","batch4","pattern_show_trial_num","null","<p class=block-text>Trial 35 out of 78</p>","null","","","","","","","","","","","","","","","","","","","","","","","","","",""
"","","","","","image-keyboard-response","214","838801","0.0-3.0-5.0-1.34","60ff35e594f890d3f082e37c","D2","batch4","pattern_response","699.5999999996275","stim/yes_29_hor_b1_b.png","f","pattern_52","f","true","","","","699.5999999996275","true","33","","","","","","","","","","","","","","","","",""
"","","","","","html-keyboard-response","215","840106","0.0-3.0-5.0-0.35","60ff35e594f890d3f082e37c","D2","batch4","pattern_show_trial_num","null","<p class=block-text>Trial 36 out of 78</p>","null","","","","","","","","","","","","","","","","","","","","","","","","","",""
"","","","","","image-keyboard-response","216","843588","0.0-3.0-5.0-1.35","60ff35e594f890d3f082e37c","D2","batch4","pattern_response","3479.89999999851","stim/yes_53_ver_b1_b.png","j","pattern_74","f","false","","","","3479.89999999851","false","33","","","","","","","","","","","","","","","","",""
"","","","","","html-keyboard-response","217","844905","0.0-3.0-5.0-0.36","60ff35e594f890d3f082e37c","D2","batch4","pattern_show_trial_num","null","<p class=block-text>Trial 37 out of 78</p>","null","","","","","","","","","","","","","","","","","","","","","","","","","",""
"","","","","","image-keyboard-response","218","846143","0.0-3.0-5.0-1.36","60ff35e594f890d3f082e37c","D2","batch4","pattern_response","1233.8999999985099","stim/no_15_1_w.png","j","pattern_03","j","true","","","","1233.8999999985099","true","34","","","","","","","","","","","","","","","","",""
"","","","","","html-keyboard-response","219","847469","0.0-3.0-5.0-0.37","60ff35e594f890d3f082e37c","D2","batch4","pattern_show_trial_num","null","<p class=block-text>Trial 38 out of 78</p>","null","","","","","","","","","","","","","","","","","","","","","","","","","",""
"","","","","","image-keyboard-response","220","849141","0.0-3.0-5.0-1.37","60ff35e594f890d3f082e37c","D2","batch4","pattern_response","1669.800000000745","stim/no_33_1_b.png","j","pattern_15","j","true","","","","1669.800000000745","true","35","","","","","","","","","","","","","","","","",""
"","","","","","html-keyboard-response","221","850465","0.0-3.0-5.0-0.38","60ff35e594f890d3f082e37c","D2","batch4","pattern_show_trial_num","null","<p class=block-text>Trial 39 out of 78</p>","null","","","","","","","","","","","","","","","","","","","","","","","","","",""
"","","","","","image-keyboard-response","222","851211","0.0-3.0-5.0-1.38","60ff35e594f890d3f082e37c","D2","batch4","pattern_response","741.1000000014901","stim/yes_17_ver_b1_b.png","f","pattern_46","f","true","","","","741.1000000014901","true","36","","","","","","","","","","","","","","","","",""
"","","","","","image-keyboard-response","223","853938","0.0-3.0-6.0","60ff35e594f890d3f082e37c","D2","batch4","attention_check","2216.300000000745","stim/empty_board.png","j","","j","true","","","","","","","500","[""f"",""j""]","","","","","","","","","","","","","","",""
"","","","","","html-keyboard-response","224","854754","0.0-3.0-7.0-0.0","60ff35e594f890d3f082e37c","D2","batch4","pattern_show_trial_num","null","<p class=block-text>Trial 40 out of 78</p>","null","","","","","","","","","","","","","","","","","","","","","","","","","",""
"","","","","","image-keyboard-response","225","856593","0.0-3.0-7.0-1.0","60ff35e594f890d3f082e37c","D2","batch4","pattern_response","1834.0999999996275","stim/yes_52_ver_w1.png","f","pattern_73","f","true","","","","1834.0999999996275","true","37","","","","","","","","","","","","","","","","",""
"","","","","","html-keyboard-response","226","857897","0.0-3.0-7.0-0.1","60ff35e594f890d3f082e37c","D2","batch4","pattern_show_trial_num","null","<p class=block-text>Trial 41 out of 78</p>","null","","","","","","","","","","","","","","","","","","","","","","","","","",""
"","","","","","image-keyboard-response","227","859994","0.0-3.0-7.0-1.1","60ff35e594f890d3f082e37c","D2","batch4","pattern_response","2092.199999999255","stim/no_36_2_w.png","j","pattern_18","j","true","","","","2092.199999999255","true","38","","","","","","","","","","","","","","","","",""
"","","","","","html-keyboard-response","228","861315","0.0-3.0-7.0-0.2","60ff35e594f890d3f082e37c","D2","batch4","pattern_show_trial_num","null","<p class=block-text>Trial 42 out of 78</p>","null","","","","","","","","","","","","","","","","","","","","","","","","","",""
"","","","","","image-keyboard-response","229","862409","0.0-3.0-7.0-1.2","60ff35e594f890d3f082e37c","D2","batch4","pattern_response","1090.8999999985099","stim/yes_55_hor_w1_w.png","f","pattern_75","f","true","","","","1090.8999999985099","true","39","","","","","","","","","","","","","","","","",""
"","","","","","html-keyboard-response","230","863723","0.0-3.0-7.0-0.3","60ff35e594f890d3f082e37c","D2","batch4","pattern_show_trial_num","null","<p class=block-text>Trial 43 out of 78</p>","null","","","","","","","","","","","","","","","","","","","","","","","","","",""
"","","","","","image-keyboard-response","231","866109","0.0-3.0-7.0-1.3","60ff35e594f890d3f082e37c","D2","batch4","pattern_response","2380.7000000011176","stim/yes_35_dia_b1.png","f","pattern_57","f","true","","","","2380.7000000011176","true","40","","","","","","","","","","","","","","","","",""
"","","","","","html-keyboard-response","232","867418","0.0-3.0-7.0-0.4","60ff35e594f890d3f082e37c","D2","batch4","pattern_show_trial_num","null","<p class=block-text>Trial 44 out of 78</p>","null","","","","","","","","","","","","","","","","","","","","","","","","","",""
"","","","","","image-keyboard-response","233","868251","0.0-3.0-7.0-1.4","60ff35e594f890d3f082e37c","D2","batch4","pattern_response","829.4000000003725","stim/no_13_2_b.png","j","pattern_02","j","true","","","","829.4000000003725","true","41","","","","","","","","","","","","","","","","",""
"","","","","","html-keyboard-response","234","869561","0.0-3.0-7.0-0.5","60ff35e594f890d3f082e37c","D2","batch4","pattern_show_trial_num","null","<p class=block-text>Trial 45 out of 78</p>","null","","","","","","","","","","","","","","","","","","","","","","","","","",""
"","","","","","image-keyboard-response","235","870995","0.0-3.0-7.0-1.5","60ff35e594f890d3f082e37c","D2","batch4","pattern_response","1431.199999999255","stim/no_42_1_w.png","j","pattern_22","j","true","","","","1431.199999999255","true","42","","","","","","","","","","","","","","","","",""
"","","","","","html-keyboard-response","236","872308","0.0-3.0-7.0-0.6","60ff35e594f890d3f082e37c","D2","batch4","pattern_show_trial_num","null","<p class=block-text>Trial 46 out of 78</p>","null","","","","","","","","","","","","","","","","","","","","","","","","","",""
"","","","","","image-keyboard-response","237","873132","0.0-3.0-7.0-1.6","60ff35e594f890d3f082e37c","D2","batch4","pattern_response","820.1999999992549","stim/yes_22_ver_w1.png","f","pattern_47","f","true","","","","820.1999999992549","true","43","","","","","","","","","","","","","","","","",""
"","","","","","html-keyboard-response","238","874448","0.0-3.0-7.0-0.7","60ff35e594f890d3f082e37c","D2","batch4","pattern_show_trial_num","null","<p class=block-text>Trial 47 out of 78</p>","null","","","","","","","","","","","","","","","","","","","","","","","","","",""
"","","","","","image-keyboard-response","239","875494","0.0-3.0-7.0-1.7","60ff35e594f890d3f082e37c","D2","batch4","pattern_response","1041.9000000003725","stim/no_23_1.png","j","pattern_08","j","true","","","","1041.9000000003725","true","44","","","","","","","","","","","","","","","","",""
"","","","","","html-keyboard-response","240","876813","0.0-3.0-7.0-0.8","60ff35e594f890d3f082e37c","D2","batch4","pattern_show_trial_num","null","<p class=block-text>Trial 48 out of 78</p>","null","","","","","","","","","","","","","","","","","","","","","","","","","",""
"","","","","","image-keyboard-response","241","878255","0.0-3.0-7.0-1.8","60ff35e594f890d3f082e37c","D2","batch4","pattern_response","1438.2999999988824","stim/yes_31_hor_b1.png","f","pattern_55","f","true","","","","1438.2999999988824","true","45","","","","","","","","","","","","","","","","",""
"","","","","","html-keyboard-response","242","879562","0.0-3.0-7.0-0.9","60ff35e594f890d3f082e37c","D2","batch4","pattern_show_trial_num","null","<p class=block-text>Trial 49 out of 78</p>","null","","","","","","","","","","","","","","","","","","","","","","","","","",""
"","","","","","image-keyboard-response","243","881933","0.0-3.0-7.0-1.9","60ff35e594f890d3f082e37c","D2","batch4","pattern_response","2367.2999999988824","stim/yes_50_dia_w1.png","j","pattern_71","f","false","","","","2367.2999999988824","false","45","","","","","","","","","","","","","","","","",""
"","","","","","html-keyboard-response","244","883251","0.0-3.0-7.0-0.10","60ff35e594f890d3f082e37c","D2","batch4","pattern_show_trial_num","null","<p class=block-text>Trial 50 out of 78</p>","null","","","","","","","","","","","","","","","","","","","","","","","","","",""
"","","","","","image-keyboard-response","245","884372","0.0-3.0-7.0-1.10","60ff35e594f890d3f082e37c","D2","batch4","pattern_response","1119.300000000745","stim/yes_17_dia_w1.png","f","pattern_45","f","true","","","","1119.300000000745","true","46","","","","","","","","","","","","","","","","",""
"","","","","","html-keyboard-response","246","885688","0.0-3.0-7.0-0.11","60ff35e594f890d3f082e37c","D2","batch4","pattern_show_trial_num","null","<p class=block-text>Trial 51 out of 78</p>","null","","","","","","","","","","","","","","","","","","","","","","","","","",""
"","","","","","image-keyboard-response","247","886485","0.0-3.0-7.0-1.11","60ff35e594f890d3f082e37c","D2","batch4","pattern_response","794.5999999996275","stim/yes_14_hor_b1_w.png","f","pattern_43","f","true","","","","794.5999999996275","true","47","","","","","","","","","","","","","","","","",""
"","","","","","html-keyboard-response","248","887800","0.0-3.0-7.0-0.12","60ff35e594f890d3f082e37c","D2","batch4","pattern_show_trial_num","null","<p class=block-text>Trial 52 out of 78</p>","null","","","","","","","","","","","","","","","","","","","","","","","","","",""
"","","","","","image-keyboard-response","249","890492","0.0-3.0-7.0-1.12","60ff35e594f890d3f082e37c","D2","batch4","pattern_response","2689","stim/yes_48_dia_w1_w.png","j","pattern_69","f","false","","","","2689","false","47","","","","","","","","","","","","","","","","",""
"","","","","","html-keyboard-response","250","891814","0.0-3.0-7.0-0.13","60ff35e594f890d3f082e37c","D2","batch4","pattern_show_trial_num","null","<p class=block-text>Trial 53 out of 78</p>","null","","","","","","","","","","","","","","","","","","","","","","","","","",""
"","","","","","image-keyboard-response","251","892904","0.0-3.0-7.0-1.13","60ff35e594f890d3f082e37c","D2","batch4","pattern_response","1085.9000000003725","stim/yes_43_ver_w1_w.png","f","pattern_65","f","true","","","","1085.9000000003725","true","48","","","","","","","","","","","","","","","","",""
"","","","","","html-keyboard-response","252","894223","0.0-3.0-7.0-0.14","60ff35e594f890d3f082e37c","D2","batch4","pattern_show_trial_num","null","<p class=block-text>Trial 54 out of 78</p>","null","","","","","","","","","","","","","","","","","","","","","","","","","",""
"","","","","","image-keyboard-response","253","896736","0.0-3.0-7.0-1.14","60ff35e594f890d3f082e37c","D2","batch4","pattern_response","2509","stim/no_52_1.png","j","pattern_32","j","true","","","","2509","true","49","","","","","","","","","","","","","","","","",""
"","","","","","html-keyboard-response","254","898060","0.0-3.0-7.0-0.15","60ff35e594f890d3f082e37c","D2","batch4","pattern_show_trial_num","null","<p class=block-text>Trial 55 out of 78</p>","null","","","","","","","","","","","","","","","","","","","","","","","","","",""
"","","","","","image-keyboard-response","255","899505","0.0-3.0-7.0-1.15","60ff35e594f890d3f082e37c","D2","batch4","pattern_response","1441","stim/no_32_1_w.png","j","pattern_14","j","true","","","","1441","true","50","","","","","","","","","","","","","","","","",""
"","","","","","html-keyboard-response","256","900816","0.0-3.0-7.0-0.16","60ff35e594f890d3f082e37c","D2","batch4","pattern_show_trial_num","null","<p class=block-text>Trial 56 out of 78</p>","null","","","","","","","","","","","","","","","","","","","","","","","","","",""
"","","","","","image-keyboard-response","257","903662","0.0-3.0-7.0-1.16","60ff35e594f890d3f082e37c","D2","batch4","pattern_response","2841.2000000011176","stim/no_48_1_w.png","j","pattern_28","j","true","","","","2841.2000000011176","true","51","","","","","","","","","","","","","","","","",""
"","","","","","html-keyboard-response","258","904976","0.0-3.0-7.0-0.17","60ff35e594f890d3f082e37c","D2","batch4","pattern_show_trial_num","null","<p class=block-text>Trial 57 out of 78</p>","null","","","","","","","","","","","","","","","","","","","","","","","","","",""
"","","","","","image-keyboard-response","259","905745","0.0-3.0-7.0-1.17","60ff35e594f890d3f082e37c","D2","batch4","pattern_response","764.9000000003725","stim/yes_25_hor_b1_b.png","f","pattern_49","f","true","","","","764.9000000003725","true","52","","","","","","","","","","","","","","","","",""
"","","","","","html-keyboard-response","260","907063","0.0-3.0-7.0-0.18","60ff35e594f890d3f082e37c","D2","batch4","pattern_show_trial_num","null","<p class=block-text>Trial 58 out of 78</p>","null","","","","","","","","","","","","","","","","","","","","","","","","","",""
"","","","","","image-keyboard-response","261","907987","0.0-3.0-7.0-1.18","60ff35e594f890d3f082e37c","D2","batch4","pattern_response","921.4000000003725","stim/no_17_1_w.png","j","pattern_04","j","true","","","","921.4000000003725","true","53","","","","","","","","","","","","","","","","",""
"","","","","","html-keyboard-response","262","909316","0.0-3.0-7.0-0.19","60ff35e594f890d3f082e37c","D2","batch4","pattern_show_trial_num","null","<p class=block-text>Trial 59 out of 78</p>","null","","","","","","","","","","","","","","","","","","","","","","","","","",""
"","","","","","image-keyboard-response","263","910771","0.0-3.0-7.0-1.19","60ff35e594f890d3f082e37c","D2","batch4","pattern_response","1451.5999999996275","stim/no_34_1_b.png","j","pattern_16","j","true","","","","1451.5999999996275","true","54","","","","","","","","","","","","","","","","",""
"","","","","","html-keyboard-response","264","912086","0.0-3.0-7.0-0.20","60ff35e594f890d3f082e37c","D2","batch4","pattern_show_trial_num","null","<p class=block-text>Trial 60 out of 78</p>","null","","","","","","","","","","","","","","","","","","","","","","","","","",""
"","","","","","image-keyboard-response","265","913055","0.0-3.0-7.0-1.20","60ff35e594f890d3f082e37c","D2","batch4","pattern_response","964.9000000003725","stim/yes_67_hor_b1.png","f","pattern_79","f","true","","","","964.9000000003725","true","55","","","","","","","","","","","","","","","","",""
"","","","","","html-keyboard-response","266","914375","0.0-3.0-7.0-0.21","60ff35e594f890d3f082e37c","D2","batch4","pattern_show_trial_num","null","<p class=block-text>Trial 61 out of 78</p>","null","","","","","","","","","","","","","","","","","","","","","","","","","",""
"","","","","","image-keyboard-response","267","915893","0.0-3.0-7.0-1.21","60ff35e594f890d3f082e37c","D2","batch4","pattern_response","1515.5","stim/no_55_1_w.png","j","pattern_34","j","true","","","","1515.5","true","56","","","","","","","","","","","","","","","","",""
"","","","","","html-keyboard-response","268","917203","0.0-3.0-7.0-0.22","60ff35e594f890d3f082e37c","D2","batch4","pattern_show_trial_num","null","<p class=block-text>Trial 62 out of 78</p>","null","","","","","","","","","","","","","","","","","","","","","","","","","",""
"","","","","","image-keyboard-response","269","918325","0.0-3.0-7.0-1.22","60ff35e594f890d3f082e37c","D2","batch4","pattern_response","1119.5","stim/yes_38_hor_b1_b.png","j","pattern_61","f","false","","","","1119.5","false","56","","","","","","","","","","","","","","","","",""
"","","","","","html-keyboard-response","270","919639","0.0-3.0-7.0-0.23","60ff35e594f890d3f082e37c","D2","batch4","pattern_show_trial_num","null","<p class=block-text>Trial 63 out of 78</p>","null","","","","","","","","","","","","","","","","","","","","","","","","","",""
"","","","","","image-keyboard-response","271","920721","0.0-3.0-7.0-1.23","60ff35e594f890d3f082e37c","D2","batch4","pattern_response","1078.7999999988824","stim/yes_45_hor_b2_b.png","f","pattern_67","f","true","","","","1078.7999999988824","true","57","","","","","","","","","","","","","","","","",""
"","","","","","html-keyboard-response","272","922030","0.0-3.0-7.0-0.24","60ff35e594f890d3f082e37c","D2","batch4","pattern_show_trial_num","null","<p class=block-text>Trial 64 out of 78</p>","null","","","","","","","","","","","","","","","","","","","","","","","","","",""
"","","","","","image-keyboard-response","273","924139","0.0-3.0-7.0-1.24","60ff35e594f890d3f082e37c","D2","batch4","pattern_response","2104.199999999255","stim/no_50_1.png","j","pattern_30","j","true","","","","2104.199999999255","true","58","","","","","","","","","","","","","","","","",""
"","","","","","html-keyboard-response","274","925469","0.0-3.0-7.0-0.25","60ff35e594f890d3f082e37c","D2","batch4","pattern_show_trial_num","null","<p class=block-text>Trial 65 out of 78</p>","null","","","","","","","","","","","","","","","","","","","","","","","","","",""
"","","","","","image-keyboard-response","275","928017","0.0-3.0-7.0-1.25","60ff35e594f890d3f082e37c","D2","batch4","pattern_response","2545.199999999255","stim/no_62_1_w.png","j","pattern_36","j","true","","","","2545.199999999255","true","59","","","","","","","","","","","","","","","","",""
"","","","","","html-keyboard-response","276","929341","0.0-3.0-7.0-0.26","60ff35e594f890d3f082e37c","D2","batch4","pattern_show_trial_num","null","<p class=block-text>Trial 66 out of 78</p>","null","","","","","","","","","","","","","","","","","","","","","","","","","",""
"","","","","","image-keyboard-response","277","932318","0.0-3.0-7.0-1.26","60ff35e594f890d3f082e37c","D2","batch4","pattern_response","2972.5","stim/no_70_2.png","j","pattern_40","j","true","","","","2972.5","true","60","","","","","","","","","","","","","","","","",""
"","","","","","html-keyboard-response","278","933624","0.0-3.0-7.0-0.27","60ff35e594f890d3f082e37c","D2","batch4","pattern_show_trial_num","null","<p class=block-text>Trial 67 out of 78</p>","null","","","","","","","","","","","","","","","","","","","","","","","","","",""
"","","","","","image-keyboard-response","279","936242","0.0-3.0-7.0-1.27","60ff35e594f890d3f082e37c","D2","batch4","pattern_response","2613.199999999255","stim/no_38_1_b.png","j","pattern_20","j","true","","","","2613.199999999255","true","61","","","","","","","","","","","","","","","","",""
"","","","","","html-keyboard-response","280","937570","0.0-3.0-7.0-0.28","60ff35e594f890d3f082e37c","D2","batch4","pattern_show_trial_num","null","<p class=block-text>Trial 68 out of 78</p>","null","","","","","","","","","","","","","","","","","","","","","","","","","",""
"","","","","","image-keyboard-response","281","939317","0.0-3.0-7.0-1.28","60ff35e594f890d3f082e37c","D2","batch4","pattern_response","1745.7000000011176","stim/yes_60_ver_b1_b.png","f","pattern_77","f","true","","","","1745.7000000011176","true","62","","","","","","","","","","","","","","","","",""
"","","","","","html-keyboard-response","282","940621","0.0-3.0-7.0-0.29","60ff35e594f890d3f082e37c","D2","batch4","pattern_show_trial_num","null","<p class=block-text>Trial 69 out of 78</p>","null","","","","","","","","","","","","","","","","","","","","","","","","","",""
"","","","","","image-keyboard-response","283","941639","0.0-3.0-7.0-1.29","60ff35e594f890d3f082e37c","D2","batch4","pattern_response","1015.5","stim/no_29_1_b.png","j","pattern_12","j","true","","","","1015.5","true","63","","","","","","","","","","","","","","","","",""
"","","","","","html-keyboard-response","284","942949","0.0-3.0-7.0-0.30","60ff35e594f890d3f082e37c","D2","batch4","pattern_show_trial_num","null","<p class=block-text>Trial 70 out of 78</p>","null","","","","","","","","","","","","","","","","","","","","","","","","","",""
"","","","","","image-keyboard-response","285","944327","0.0-3.0-7.0-1.30","60ff35e594f890d3f082e37c","D2","batch4","pattern_response","1375.4000000003725","stim/no_26_1_w.png","j","pattern_10","j","true","","","","1375.4000000003725","true","64","","","","","","","","","","","","","","","","",""
"","","","","","html-keyboard-response","286","945635","0.0-3.0-7.0-0.31","60ff35e594f890d3f082e37c","D2","batch4","pattern_show_trial_num","null","<p class=block-text>Trial 71 out of 78</p>","null","","","","","","","","","","","","","","","","","","","","","","","","","",""
"","","","","","image-keyboard-response","287","947407","0.0-3.0-7.0-1.31","60ff35e594f890d3f082e37c","D2","batch4","pattern_response","1746.6000000014901","stim/yes_37_dia_w1.png","j","pattern_59","f","false","","","","1746.6000000014901","false","64","","","","","","","","","","","","","","","","",""
"","","","","","html-keyboard-response","288","948720","0.0-3.0-7.0-0.32","60ff35e594f890d3f082e37c","D2","batch4","pattern_show_trial_num","null","<p class=block-text>Trial 72 out of 78</p>","null","","","","","","","","","","","","","","","","","","","","","","","","","",""
"","","","","","image-keyboard-response","289","949568","0.0-3.0-7.0-1.32","60ff35e594f890d3f082e37c","D2","batch4","pattern_response","844","stim/no_20_1_w.png","j","pattern_06","j","true","","","","844","true","65","","","","","","","","","","","","","","","","",""
"","","","","","html-keyboard-response","290","950882","0.0-3.0-7.0-0.33","60ff35e594f890d3f082e37c","D2","batch4","pattern_show_trial_num","null","<p class=block-text>Trial 73 out of 78</p>","null","","","","","","","","","","","","","","","","","","","","","","","","","",""
"","","","","","image-keyboard-response","291","952607","0.0-3.0-7.0-1.33","60ff35e594f890d3f082e37c","D2","batch4","pattern_response","1721.9000000003725","stim/yes_28_ver_b1.png","f","pattern_51","f","true","","","","1721.9000000003725","true","66","","","","","","","","","","","","","","","","",""
"","","","","","html-keyboard-response","292","953912","0.0-3.0-7.0-0.34","60ff35e594f890d3f082e37c","D2","batch4","pattern_show_trial_num","null","<p class=block-text>Trial 74 out of 78</p>","null","","","","","","","","","","","","","","","","","","","","","","","","","",""
"","","","","","image-keyboard-response","293","956258","0.0-3.0-7.0-1.34","60ff35e594f890d3f082e37c","D2","batch4","pattern_response","2343.2999999988824","stim/no_44_1.png","j","pattern_24","j","true","","","","2343.2999999988824","true","67","","","","","","","","","","","","","","","","",""
"","","","","","html-keyboard-response","294","957568","0.0-3.0-7.0-0.35","60ff35e594f890d3f082e37c","D2","batch4","pattern_show_trial_num","null","<p class=block-text>Trial 75 out of 78</p>","null","","","","","","","","","","","","","","","","","","","","","","","","","",""
"","","","","","image-keyboard-response","295","958642","0.0-3.0-7.0-1.35","60ff35e594f890d3f082e37c","D2","batch4","pattern_response","1069.699999999255","stim/yes_40_dia_b1_b.png","f","pattern_63","f","true","","","","1069.699999999255","true","68","","","","","","","","","","","","","","","","",""
"","","","","","html-keyboard-response","296","959947","0.0-3.0-7.0-0.36","60ff35e594f890d3f082e37c","D2","batch4","pattern_show_trial_num","null","<p class=block-text>Trial 76 out of 78</p>","null","","","","","","","","","","","","","","","","","","","","","","","","","",""
"","","","","","image-keyboard-response","297","961428","0.0-3.0-7.0-1.36","60ff35e594f890d3f082e37c","D2","batch4","pattern_response","1476.9000000003725","stim/yes_29_ver_w1.png","f","pattern_53","f","true","","","","1476.9000000003725","true","69","","","","","","","","","","","","","","","","",""
"","","","","","html-keyboard-response","298","962738","0.0-3.0-7.0-0.37","60ff35e594f890d3f082e37c","D2","batch4","pattern_show_trial_num","null","<p class=block-text>Trial 77 out of 78</p>","null","","","","","","","","","","","","","","","","","","","","","","","","","",""
"","","","","","image-keyboard-response","299","964852","0.0-3.0-7.0-1.37","60ff35e594f890d3f082e37c","D2","batch4","pattern_response","2110.0999999996275","stim/no_46_1_b.png","j","pattern_26","j","true","","","","2110.0999999996275","true","70","","","","","","","","","","","","","","","","",""
"","","","","","html-keyboard-response","300","966169","0.0-3.0-7.0-0.38","60ff35e594f890d3f082e37c","D2","batch4","pattern_show_trial_num","null","<p class=block-text>Trial 78 out of 78</p>","null","","","","","","","","","","","","","","","","","","","","","","","","","",""
"","","","","","image-keyboard-response","301","969144","0.0-3.0-7.0-1.38","60ff35e594f890d3f082e37c","D2","batch4","pattern_response","2970.7000000011176","stim/no_65_1_b.png","j","pattern_38","j","true","","","","2970.7000000011176","true","71","","","","","","","","","","","","","","","","",""
"","","","","","html-button-response","302","980440","0.0-3.0-8.0","60ff35e594f890d3f082e37c","D2","batch4","","10780.299999998882","<p class = block-text>This concludes the 4-in-a-row detection game.Thank you for your responses!<br>
            You responded correctly on 91% of the trials.<br>
            When you are ready, press ""Continue"" button to continue </p>","0","","","","","","","","","","","","","","","","","","","","","","","","","",""
"true","","","","","fullscreen","303","989466","0.0-4.0-0.0","60ff35e594f890d3f082e37c","D2","batch4","","","","","","","","","","","","","","","","","","","","","","","","","","","","","",""
"","","","","","instructions","304","1026057","0.0-4.0-1.0-0.0-0.0","60ff35e594f890d3f082e37c","D2","batch4","tol-instructions","36588.800000000745","","","","","","","","[{""page_index"":0,""viewing_time"":6154.4000000003725},{""page_index"":1,""viewing_time"":4800.4000000003725},{""page_index"":2,""viewing_time"":2132.0999999996275},{""page_index"":3,""viewing_time"":5235.5999999996275},{""page_index"":4,""viewing_time"":6074.300000000745},{""page_index"":5,""viewing_time"":9877.900000000373},{""page_index"":6,""viewing_time"":2313.7999999988824}]","","","","","","","","","","","","","","","","","","","",""
"","","","","","html-button-response","305","1051598","0.0-4.0-1.0-1.0-0.0","60ff35e594f890d3f082e37c","D2","batch4","tol_enter_quiz","25539.700000001118","<p class=block-text> Let's answer a few questions <br>","0","","","","","","","","","","","","","","","","","","","","","","","","","",""
"","","","","","html-button-response","306","1054896","0.0-4.0-1.0-1.0-1.0","60ff35e594f890d3f082e37c","D2","batch4","tol_quiz","3296.5","<p class = block-text>True or False: You can only move the ball on top of a peg. <br></p>","0","","","true","","","","","","","","","","","","","","","","","","","","","","",""
"","","","","","html-button-response","307","1055864","0.0-4.0-1.0-1.0-2.0","60ff35e594f890d3f082e37c","D2","batch4","tol_quiz_feedback","967.7000000011176","<p class = block-text>Correct! You can only move the ball on top of a peg.</p>","0","","","","","","","","","","","","","","","","","","","","","","","","","",""
"","","","","","html-button-response","308","1057741","0.0-4.0-1.0-1.0-3.0","60ff35e594f890d3f082e37c","D2","batch4","tol_quiz","1875.699999999255","<p class = block-text>True or False: You should try to match your board with the target board with fewest moves possible. <br></p>","0","","","true","","","","","","","","","","","","","","","","","","","","","","",""
"","","","","","html-button-response","309","1058318","0.0-4.0-1.0-1.0-4.0","60ff35e594f890d3f082e37c","D2","batch4","tol_quiz_feedback","576.3000000007451","<p class = block-text>Correct! </p>","0","","","","","","","","","","","","","","","","","","","","","","","","","",""
"","","","","","html-button-response","310","1059562","0.0-4.0-2.0","60ff35e594f890d3f082e37c","D2","batch4","","1243.0999999996275","<p class=block-text> Now that you've understood the game, let's practice a few easier examples before we start!<br> <br>","0","","","","","","","","","","","","","","","","","","","","","","","","","",""
"","","","","","single-stim-button","311","1061680","0.0-4.0-3.0-0.0","60ff35e594f890d3f082e37c","D2","batch4","tol_practice","2116","","","","","","","","","","","","","","tol_peg_2","2116","2116","0","[[1,2,0],[0,0],[0]]","1","[[1,2,0],[0,0],[3]]","practice","2116","","","","","",""
"","","","","","single-stim-button","312","1063352","0.0-4.0-3.0-1.0","60ff35e594f890d3f082e37c","D2","batch4","tol_practice","1672","","","","","","","","","","","","","","tol_peg_3","1672","1672","0","[[1,2,0],[0,0],[3]]","1","[[1,2,0],[0,0],[3]]","practice","1672","","","","","",""
"","","","","","poldrack-single-stim","313","1064354","0.0-4.0-4.0","60ff35e594f890d3f082e37c","D2","batch4","tol_feedback","-1","","","","","true","","","","","","","","","","1000","1000","500","","","","","","-1","none","true","","0",""
"","","","","","single-stim-button","314","1066893","0.0-4.0-5.0-0.0","60ff35e594f890d3f082e37c","D2","batch4","tol_practice","2536","","","","","","","","","","","","","","tol_peg_1","2536","2536","0","[[1,0,0],[3,0],[0]]","2","[[0,0,0],[3,1],[2]]","practice","2536","","","","","",""
"","","","","","single-stim-button","315","1068213","0.0-4.0-5.0-1.0","60ff35e594f890d3f082e37c","D2","batch4","tol_practice","1319","","","","","","","","","","","","","","tol_peg_3","1319","1319","0","[[1,0,0],[3,0],[2]]","2","[[0,0,0],[3,1],[2]]","practice","1319","","","","","",""
"","","","","","single-stim-button","316","1068970","0.0-4.0-5.1-0.1","60ff35e594f890d3f082e37c","D2","batch4","tol_practice","757","","","","","","","","","","","","","","tol_peg_1","757","757","0","[[0,0,0],[3,0],[2]]","3","[[0,0,0],[3,1],[2]]","practice","757","","","","","",""
"","","","","","single-stim-button","317","1069634","0.0-4.0-5.1-1.1","60ff35e594f890d3f082e37c","D2","batch4","tol_practice","663","","","","","","","","","","","","","","tol_peg_2","663","663","0","[[0,0,0],[3,1],[2]]","3","[[0,0,0],[3,1],[2]]","practice","663","","","","","",""
"","","","","","poldrack-single-stim","318","1070646","0.0-4.0-6.0","60ff35e594f890d3f082e37c","D2","batch4","tol_feedback","-1","","","","","true","","","","","","","","","","1000","1000","500","","","","","","-1","none","true","","0",""
"","","","","","single-stim-button","319","1072690","0.0-4.0-7.0-0.0","60ff35e594f890d3f082e37c","D2","batch4","tol_practice","2043","","","","","","","","","","","","","","tol_peg_2","2043","2043","0","[[1,2,0],[0,0],[0]]","4","[[1,0,0],[2,0],[3]]","practice","2043","","","","","",""
"","","","","","single-stim-button","320","1073298","0.0-4.0-7.0-1.0","60ff35e594f890d3f082e37c","D2","batch4","tol_practice","608","","","","","","","","","","","","","","tol_peg_3","608","608","0","[[1,2,0],[0,0],[3]]","4","[[1,0,0],[2,0],[3]]","practice","608","","","","","",""
"","","","","","single-stim-button","321","1073830","0.0-4.0-7.1-0.1","60ff35e594f890d3f082e37c","D2","batch4","tol_practice","531","","","","","","","","","","","","","","tol_peg_1","531","531","0","[[1,0,0],[0,0],[3]]","5","[[1,0,0],[2,0],[3]]","practice","531","","","","","",""
"","","","","","single-stim-button","322","1074408","0.0-4.0-7.1-1.1","60ff35e594f890d3f082e37c","D2","batch4","tol_practice","578","","","","","","","","","","","","","","tol_peg_2","578","578","0","[[1,0,0],[2,0],[3]]","5","[[1,0,0],[2,0],[3]]","practice","578","","","","","",""
"","","","","","poldrack-single-stim","323","1075420","0.0-4.0-8.0","60ff35e594f890d3f082e37c","D2","batch4","tol_feedback","-1","","","","","true","","","","","","","","","","1000","1000","500","","","","","","-1","none","true","","0",""
"","","","","","html-button-response","324","1077246","0.0-4.0-9.0","60ff35e594f890d3f082e37c","D2","batch4","tol_instruction","1824.3999999985099","<div class = centerbox><p class = center-block-text>Great job! You are done with practice trials<br>You are about to start official trials.<br> <br> Problem <strong>1</strong> out of 25 problems</p></div>","0","","","","","","","","","","","","","","","","","","","","","","","","","",""
"","","","","","single-stim-button","325","1084865","0.0-4.0-10.0-0.0","60ff35e594f890d3f082e37c","D2","batch4","tol_tohand","6606","","","","","","","","","","","","","","tol_peg_2","6606","6606","0","[[1,2,0],[0,0],[0]]","1","[[1,3,0],[2,0],[0]]","0","0","","","","","","3"
"","","","","","single-stim-button","326","1085716","0.0-4.0-10.0-1.0","60ff35e594f890d3f082e37c","D2","batch4","tol_toboard","851","","","","","","","","","","","","","","tol_peg_3","851","851","0","[[1,2,0],[0,0],[3]]","1","[[1,3,0],[2,0],[0]]","0","0","","","","","","3"
"","","","","","single-stim-button","327","1086256","0.0-4.0-10.1-0.1","60ff35e594f890d3f082e37c","D2","batch4","tol_tohand","538","","","","","","","","","","","","","","tol_peg_1","538","538","0","[[1,0,0],[0,0],[3]]","2","[[1,3,0],[2,0],[0]]","0","0","","","","","","3"
"","","","","","single-stim-button","328","1086944","0.0-4.0-10.1-1.1","60ff35e594f890d3f082e37c","D2","batch4","tol_toboard","688","","","","","","","","","","","","","","tol_peg_2","688","688","0","[[1,0,0],[2,0],[3]]","2","[[1,3,0],[2,0],[0]]","0","0","","","","","","3"
"","","","","","single-stim-button","329","1087436","0.0-4.0-10.2-0.2","60ff35e594f890d3f082e37c","D2","batch4","tol_tohand","492","","","","","","","","","","","","","","tol_peg_3","492","492","0","[[1,0,0],[2,0],[0]]","3","[[1,3,0],[2,0],[0]]","0","0","","","","","","3"
"","","","","","single-stim-button","330","1088311","0.0-4.0-10.2-1.2","60ff35e594f890d3f082e37c","D2","batch4","tol_toboard","875","","","","","","","","","","","","","","tol_peg_1","875","875","0","[[1,3,0],[2,0],[0]]","3","[[1,3,0],[2,0],[0]]","0","0","","","","","","3"
"","","","","","poldrack-single-stim","331","1089312","0.0-4.0-11.0","60ff35e594f890d3f082e37c","D2","batch4","tol_feedback","-1","","","","","true","","","","","","","","","","1000","1000","500","","","","","","-1","none","true","6606","7636",""
"","","","","","html-button-response","332","1090474","0.0-4.0-12.0","60ff35e594f890d3f082e37c","D2","batch4","tol_trial_num","1160.4000000003725","<div class = centerbox><p class = center-block-text>problem <strong>2</strong> out of 25 problems</p></div>","0","","","","","","","","","","","","","","","","","","","","","","","","","",""
"","","","","","single-stim-button","333","1094328","0.0-4.0-13.0-0.0","60ff35e594f890d3f082e37c","D2","batch4","tol_tohand","3854","","","","","","","","","","","","","","tol_peg_1","3854","3854","0","[[1,0,0],[3,0],[0]]","1","[[2,1,3],[0,0],[0]]","1","0","","","","","","5"
"","","","","","single-stim-button","334","1096696","0.0-4.0-13.0-1.0","60ff35e594f890d3f082e37c","D2","batch4","tol_toboard","2368","","","","","","","","","","","","","","tol_peg_3","2368","2368","0","[[1,0,0],[3,0],[2]]","1","[[2,1,3],[0,0],[0]]","1","0","","","","","","5"
"","","","","","single-stim-button","335","1097422","0.0-4.0-13.1-0.1","60ff35e594f890d3f082e37c","D2","batch4","tol_tohand","725","","","","","","","","","","","","","","tol_peg_1","725","725","0","[[0,0,0],[3,0],[2]]","2","[[2,1,3],[0,0],[0]]","1","0","","","","","","5"
"","","","","","single-stim-button","336","1098181","0.0-4.0-13.1-1.1","60ff35e594f890d3f082e37c","D2","batch4","tol_toboard","759","","","","","","","","","","","","","","tol_peg_2","759","759","0","[[0,0,0],[3,1],[2]]","2","[[2,1,3],[0,0],[0]]","1","0","","","","","","5"
"","","","","","single-stim-button","337","1098578","0.0-4.0-13.2-0.2","60ff35e594f890d3f082e37c","D2","batch4","tol_tohand","395","","","","","","","","","","","","","","tol_peg_3","395","395","0","[[0,0,0],[3,1],[0]]","3","[[2,1,3],[0,0],[0]]","1","0","","","","","","5"
"","","","","","single-stim-button","338","1099304","0.0-4.0-13.2-1.2","60ff35e594f890d3f082e37c","D2","batch4","tol_toboard","726","","","","","","","","","","","","","","tol_peg_1","726","726","0","[[2,0,0],[3,1],[0]]","3","[[2,1,3],[0,0],[0]]","1","0","","","","","","5"
"","","","","","single-stim-button","339","1099758","0.0-4.0-13.3-0.3","60ff35e594f890d3f082e37c","D2","batch4","tol_tohand","454","","","","","","","","","","","","","","tol_peg_2","454","454","0","[[2,0,0],[3,0],[0]]","4","[[2,1,3],[0,0],[0]]","1","0","","","","","","5"
"","","","","","single-stim-button","340","1100508","0.0-4.0-13.3-1.3","60ff35e594f890d3f082e37c","D2","batch4","tol_toboard","750","","","","","","","","","","","","","","tol_peg_1","750","750","0","[[2,1,0],[3,0],[0]]","4","[[2,1,3],[0,0],[0]]","1","0","","","","","","5"
"","","","","","single-stim-button","341","1100885","0.0-4.0-13.4-0.4","60ff35e594f890d3f082e37c","D2","batch4","tol_tohand","377","","","","","","","","","","","","","","tol_peg_2","377","377","0","[[2,1,0],[0,0],[0]]","5","[[2,1,3],[0,0],[0]]","1","0","","","","","","5"
"","","","","","single-stim-button","342","1101742","0.0-4.0-13.4-1.4","60ff35e594f890d3f082e37c","D2","batch4","tol_toboard","857","","","","","","","","","","","","","","tol_peg_1","857","857","0","[[2,1,3],[0,0],[0]]","5","[[2,1,3],[0,0],[0]]","1","0","","","","","","5"
"","","","","","poldrack-single-stim","343","1102753","0.0-4.0-14.0","60ff35e594f890d3f082e37c","D2","batch4","tol_feedback","-1","","","","","true","","","","","","","","","","1000","1000","500","","","","","","-1","none","true","3854","5805",""
"","","","","","html-button-response","344","1103728","0.0-4.0-15.0","60ff35e594f890d3f082e37c","D2","batch4","tol_trial_num","974.0999999996275","<div class = centerbox><p class = center-block-text>problem <strong>3</strong> out of 25 problems</p></div>","0","","","","","","","","","","","","","","","","","","","","","","","","","",""
"","","","","","single-stim-button","345","1105971","0.0-4.0-16.0-0.0","60ff35e594f890d3f082e37c","D2","batch4","tol_tohand","2241","","","","","","","","","","","","","","tol_peg_1","2241","2241","0","[[2,0,0],[0,0],[1]]","1","[[1,2,0],[3,0],[0]]","2","0","","","","","","4"
"","","","","","single-stim-button","346","1107040","0.0-4.0-16.0-1.0","60ff35e594f890d3f082e37c","D2","batch4","tol_toboard","1069","","","","","","","","","","","","","","tol_peg_2","1069","1069","0","[[2,0,0],[3,0],[1]]","1","[[1,2,0],[3,0],[0]]","2","0","","","","","","4"
"","","","","","single-stim-button","347","1109292","0.0-4.0-16.1-0.1","60ff35e594f890d3f082e37c","D2","batch4","tol_tohand","2251","","","","","","","","","","","","","","tol_peg_1","2251","2251","0","[[0,0,0],[3,0],[1]]","2","[[1,2,0],[3,0],[0]]","2","0","","","","","","4"
