"success","timeout","failed_images","failed_audio","failed_video","trial_type","trial_index","time_elapsed","internal_node_id","subject_id","study_id","session_id","view_history","rt","stimulus","response","task","correct","answer","item","fiar_detect_rt","fiar_detect_correct","total_correct_fiar_detect","post_trial_gap","choices","spm_correct","spm_rt","mouse_click","stim_duration","block_duration","timing_post_trial","current_position","tol_num_moves_made","tol_target","tol_problem_id","tol_rt","key_press","possible_responses","tol_correct","preplanning","tol_rt_per_trial","tol_min_moves"
"true","false","[]","[]","[]","preload","0","3076","0.0-0.0","61005c6df08e9fc8d3767e69","D2","batch4","","","","","","","","","","","","","","","","","","","","","","","","","","","","","",""
"true","","","","","fullscreen","1","14078","0.0-1.0-0.0","61005c6df08e9fc8d3767e69","D2","batch4","","","","","","","","","","","","","","","","","","","","","","","","","","","","","",""
"true","","","","","fullscreen","2","17934","0.0-2.0-0.0","61005c6df08e9fc8d3767e69","D2","batch4","","","","","","","","","","","","","","","","","","","","","","","","","","","","","",""
"","","","","","instructions","3","92785","0.0-2.0-1.0-0.0","61005c6df08e9fc8d3767e69","D2","batch4","[{""page_index"":0,""viewing_time"":69982.90000000002},{""page_index"":1,""viewing_time"":4863.5}]","74847.20000000007","","","","","","","","","","","","","","","","","","","","","","","","","","","",""
"","","","","","html-button-response","4","93965","0.0-2.0-1.0-1.0-0.0","61005c6df08e9fc8d3767e69","D2","batch4","","1174.9000000000233","<p class=block-text> Let's answer a few questions <br>","0","pattern_enter_quiz","","","","","","","","","","","","","","","","","","","","","","","","",""
"","","","","","html-button-response","5","95802","0.0-2.0-1.0-1.0-1.0","61005c6df08e9fc8d3767e69","D2","batch4","","1831.0999999999767","<p class = block-text>True or False: You will have as much time as you want to make each choice. <br></p>","1","pattern_quiz","true","","","","","","","","","","","","","","","","","","","","","","","",""
"","","","","","html-button-response","6","97521","0.0-2.0-1.0-1.0-2.0","61005c6df08e9fc8d3767e69","D2","batch4","","1713.3000000000466","<p class = block-text>Correct! You should make your choice <strong> as fast as you can</strong>.</p>","0","pattern_quiz_feedback","","","","","","","","","","","","","","","","","","","","","","","","",""
"","","","","","html-button-response","7","100579","0.0-2.0-1.0-1.0-3.0","61005c6df08e9fc8d3767e69","D2","batch4","","3053.5","<p class = block-text>True or False: You will look for 4 pieces in black or white color connected in a row either horizontally, vertically or diagonally. <br></p>","0","pattern_quiz","true","","","","","","","","","","","","","","","","","","","","","","","",""
"","","","","","html-button-response","8","101889","0.0-2.0-1.0-1.0-4.0","61005c6df08e9fc8d3767e69","D2","batch4","","1306.4000000000233","<p class = block-text>Correct! </p>","0","pattern_quiz_feedback","","","","","","","","","","","","","","","","","","","","","","","","",""
"","","","","","html-button-response","9","134674","0.0-2.0-2.0","61005c6df08e9fc8d3767e69","D2","batch4","","32776.90000000002","<p class=block-text> Now that you've understood the game, let's do a few practice trials before we start!<br> <br>","0","pattern_enter_practice","","","","","","","","","","","","","","","","","","","","","","","","",""
"","","","","","image-keyboard-response","10","138389","0.0-2.0-3.0-0.0","61005c6df08e9fc8d3767e69","D2","batch4","","3651.6999999999534","stim/prac_yes_20_dia_b1.png","f","pattern_practice","true","f","","","","","","","","","","","","","","","","","","","","","","",""
"","","","","","html-keyboard-response","11","139402","0.0-2.0-3.0-1.0","61005c6df08e9fc8d3767e69","D2","batch4","","null","<p style=""font-size:30px;color:green;"">Correct!</p>","null","pattern_feedback","","","","","","","","","","","","","","","","","","","","","","","","",""
"","","","","","image-keyboard-response","12","140802","0.0-2.0-3.0-0.1","61005c6df08e9fc8d3767e69","D2","batch4","","1394.2000000000698","stim/prac_no_16_1.png","j","pattern_practice","true","j","","","","","","","","","","","","","","","","","","","","","","",""
"","","","","","html-keyboard-response","13","141823","0.0-2.0-3.0-1.1","61005c6df08e9fc8d3767e69","D2","batch4","","null","<p style=""font-size:30px;color:green;"">Correct!</p>","null","pattern_feedback","","","","","","","","","","","","","","","","","","","","","","","","",""
"","","","","","image-keyboard-response","14","143118","0.0-2.0-3.0-0.2","61005c6df08e9fc8d3767e69","D2","batch4","","1290.5","stim/prac_yes_16_ver_w1.png","f","pattern_practice","true","f","","","","","","","","","","","","","","","","","","","","","","",""
"","","","","","html-keyboard-response","15","144143","0.0-2.0-3.0-1.2","61005c6df08e9fc8d3767e69","D2","batch4","","null","<p style=""font-size:30px;color:green;"">Correct!</p>","null","pattern_feedback","","","","","","","","","","","","","","","","","","","","","","","","",""
"","","","","","image-keyboard-response","16","145092","0.0-2.0-3.0-0.3","61005c6df08e9fc8d3767e69","D2","batch4","","944.5999999999767","stim/prac_no_18_1.png","j","pattern_practice","true","j","","","","","","","","","","","","","","","","","","","","","","",""
"","","","","","html-keyboard-response","17","146110","0.0-2.0-3.0-1.3","61005c6df08e9fc8d3767e69","D2","batch4","","null","<p style=""font-size:30px;color:green;"">Correct!</p>","null","pattern_feedback","","","","","","","","","","","","","","","","","","","","","","","","",""
"","","","","","image-keyboard-response","18","146837","0.0-2.0-3.0-0.4","61005c6df08e9fc8d3767e69","D2","batch4","","722.5","stim/prac_yes_18_hor_w1.png","f","pattern_practice","true","f","","","","","","","","","","","","","","","","","","","","","","",""
"","","","","","html-keyboard-response","19","147855","0.0-2.0-3.0-1.4","61005c6df08e9fc8d3767e69","D2","batch4","","null","<p style=""font-size:30px;color:green;"">Correct!</p>","null","pattern_feedback","","","","","","","","","","","","","","","","","","","","","","","","",""
"","","","","","html-button-response","20","150082","0.0-2.0-4.0","61005c6df08e9fc8d3767e69","D2","batch4","","2222.8000000000466","<p class=block-text> Good job! You are done with practice trials!<br>
        You responded correctly on 100% of the trials.<br>
        Press the button below to start official trials. Now you won't see any feedback about your response</p>","0","pattern_enter_official_trials","","","","","","","","","","","","","","","","","","","","","","","","",""
"","","","","","html-keyboard-response","21","150893","0.0-2.0-5.0-0.0","61005c6df08e9fc8d3767e69","D2","batch4","","null","<p class=block-text>Trial 1 out of 78</p>","null","pattern_show_trial_num","","","","","","","","","","","","","","","","","","","","","","","","",""
"","","","","","image-keyboard-response","22","152153","0.0-2.0-5.0-1.0","61005c6df08e9fc8d3767e69","D2","batch4","","1254.5999999999767","stim/yes_33_dia_w1_w.png","f","pattern_response","true","f","pattern_56","1254.5999999999767","true","1","","","","","","","","","","","","","","","","","","",""
"","","","","","html-keyboard-response","23","153471","0.0-2.0-5.0-0.1","61005c6df08e9fc8d3767e69","D2","batch4","","null","<p class=block-text>Trial 2 out of 78</p>","null","pattern_show_trial_num","","","","","","","","","","","","","","","","","","","","","","","","",""
"","","","","","image-keyboard-response","24","154261","0.0-2.0-5.0-1.1","61005c6df08e9fc8d3767e69","D2","batch4","","784.0999999999767","stim/yes_46_ver_b1_b.png","f","pattern_response","true","f","pattern_68","784.0999999999767","true","2","","","","","","","","","","","","","","","","","","",""
"","","","","","html-keyboard-response","25","155583","0.0-2.0-5.0-0.2","61005c6df08e9fc8d3767e69","D2","batch4","","null","<p class=block-text>Trial 3 out of 78</p>","null","pattern_show_trial_num","","","","","","","","","","","","","","","","","","","","","","","","",""
"","","","","","image-keyboard-response","26","156915","0.0-2.0-5.0-1.2","61005c6df08e9fc8d3767e69","D2","batch4","","1327.2000000000698","stim/no_25_1_b.png","j","pattern_response","true","j","pattern_09","1327.2000000000698","true","3","","","","","","","","","","","","","","","","","","",""
"","","","","","html-keyboard-response","27","158239","0.0-2.0-5.0-0.3","61005c6df08e9fc8d3767e69","D2","batch4","","null","<p class=block-text>Trial 4 out of 78</p>","null","pattern_show_trial_num","","","","","","","","","","","","","","","","","","","","","","","","",""
"","","","","","image-keyboard-response","28","159413","0.0-2.0-5.0-1.3","61005c6df08e9fc8d3767e69","D2","batch4","","1168.9000000000233","stim/no_18_1_b.png","j","pattern_response","true","j","pattern_05","1168.9000000000233","true","4","","","","","","","","","","","","","","","","","","",""
"","","","","","html-keyboard-response","29","160735","0.0-2.0-5.0-0.4","61005c6df08e9fc8d3767e69","D2","batch4","","null","<p class=block-text>Trial 5 out of 78</p>","null","pattern_show_trial_num","","","","","","","","","","","","","","","","","","","","","","","","",""
"","","","","","image-keyboard-response","30","161556","0.0-2.0-5.0-1.4","61005c6df08e9fc8d3767e69","D2","batch4","","815.4000000000233","stim/yes_17_ver_b1_b.png","f","pattern_response","true","f","pattern_46","815.4000000000233","true","5","","","","","","","","","","","","","","","","","","",""
"","","","","","html-keyboard-response","31","162879","0.0-2.0-5.0-0.5","61005c6df08e9fc8d3767e69","D2","batch4","","null","<p class=block-text>Trial 6 out of 78</p>","null","pattern_show_trial_num","","","","","","","","","","","","","","","","","","","","","","","","",""
"","","","","","image-keyboard-response","32","163661","0.0-2.0-5.0-1.5","61005c6df08e9fc8d3767e69","D2","batch4","","776.0999999999767","stim/yes_70_ver_b1.png","f","pattern_response","true","f","pattern_80","776.0999999999767","true","6","","","","","","","","","","","","","","","","","","",""
"","","","","","html-keyboard-response","33","164991","0.0-2.0-5.0-0.6","61005c6df08e9fc8d3767e69","D2","batch4","","null","<p class=block-text>Trial 7 out of 78</p>","null","pattern_show_trial_num","","","","","","","","","","","","","","","","","","","","","","","","",""
"","","","","","image-keyboard-response","34","166619","0.0-2.0-5.0-1.6","61005c6df08e9fc8d3767e69","D2","batch4","","1623.5999999999767","stim/no_43_2_b.png","j","pattern_response","true","j","pattern_23","1623.5999999999767","true","7","","","","","","","","","","","","","","","","","","",""
"","","","","","html-keyboard-response","35","167950","0.0-2.0-5.0-0.7","61005c6df08e9fc8d3767e69","D2","batch4","","null","<p class=block-text>Trial 8 out of 78</p>","null","pattern_show_trial_num","","","","","","","","","","","","","","","","","","","","","","","","",""
"","","","","","image-keyboard-response","36","168968","0.0-2.0-5.0-1.7","61005c6df08e9fc8d3767e69","D2","batch4","","1014.5999999999767","stim/yes_30_ver_b1_b.png","j","pattern_response","false","f","pattern_54","1014.5999999999767","false","7","","","","","","","","","","","","","","","","","","",""
"","","","","","html-keyboard-response","37","170287","0.0-2.0-5.0-0.8","61005c6df08e9fc8d3767e69","D2","batch4","","null","<p class=block-text>Trial 9 out of 78</p>","null","pattern_show_trial_num","","","","","","","","","","","","","","","","","","","","","","","","",""
"","","","","","image-keyboard-response","38","171171","0.0-2.0-5.0-1.8","61005c6df08e9fc8d3767e69","D2","batch4","","879.5999999999767","stim/no_12_1.png","j","pattern_response","true","j","pattern_01","879.5999999999767","true","8","","","","","","","","","","","","","","","","","","",""
"","","","","","html-keyboard-response","39","172495","0.0-2.0-5.0-0.9","61005c6df08e9fc8d3767e69","D2","batch4","","null","<p class=block-text>Trial 10 out of 78</p>","null","pattern_show_trial_num","","","","","","","","","","","","","","","","","","","","","","","","",""
"","","","","","image-keyboard-response","40","173279","0.0-2.0-5.0-1.9","61005c6df08e9fc8d3767e69","D2","batch4","","778.5999999999767","stim/yes_23_ver_b1.png","f","pattern_response","true","f","pattern_48","778.5999999999767","true","9","","","","","","","","","","","","","","","","","","",""
"","","","","","html-keyboard-response","41","174594","0.0-2.0-5.0-0.10","61005c6df08e9fc8d3767e69","D2","batch4","","null","<p class=block-text>Trial 11 out of 78</p>","null","pattern_show_trial_num","","","","","","","","","","","","","","","","","","","","","","","","",""
"","","","","","image-keyboard-response","42","176966","0.0-2.0-5.0-1.10","61005c6df08e9fc8d3767e69","D2","batch4","","2368.399999999907","stim/no_28_2.png","j","pattern_response","true","j","pattern_11","2368.399999999907","true","10","","","","","","","","","","","","","","","","","","",""
"","","","","","html-keyboard-response","43","178287","0.0-2.0-5.0-0.11","61005c6df08e9fc8d3767e69","D2","batch4","","null","<p class=block-text>Trial 12 out of 78</p>","null","pattern_show_trial_num","","","","","","","","","","","","","","","","","","","","","","","","",""
"","","","","","image-keyboard-response","44","180697","0.0-2.0-5.0-1.11","61005c6df08e9fc8d3767e69","D2","batch4","","2403.9000000000233","stim/no_47_1_b.png","j","pattern_response","true","j","pattern_27","2403.9000000000233","true","11","","","","","","","","","","","","","","","","","","",""
"","","","","","html-keyboard-response","45","182014","0.0-2.0-5.0-0.12","61005c6df08e9fc8d3767e69","D2","batch4","","null","<p class=block-text>Trial 13 out of 78</p>","null","pattern_show_trial_num","","","","","","","","","","","","","","","","","","","","","","","","",""
"","","","","","image-keyboard-response","46","184350","0.0-2.0-5.0-1.12","61005c6df08e9fc8d3767e69","D2","batch4","","2331.899999999907","stim/no_36_1_b.png","j","pattern_response","true","j","pattern_17","2331.899999999907","true","12","","","","","","","","","","","","","","","","","","",""
"","","","","","html-keyboard-response","47","185679","0.0-2.0-5.0-0.13","61005c6df08e9fc8d3767e69","D2","batch4","","null","<p class=block-text>Trial 14 out of 78</p>","null","pattern_show_trial_num","","","","","","","","","","","","","","","","","","","","","","","","",""
"","","","","","image-keyboard-response","48","186361","0.0-2.0-5.0-1.13","61005c6df08e9fc8d3767e69","D2","batch4","","676.5","stim/yes_26_dia_w2_w.png","f","pattern_response","true","f","pattern_50","676.5","true","13","","","","","","","","","","","","","","","","","","",""
"","","","","","html-keyboard-response","49","187678","0.0-2.0-5.0-0.14","61005c6df08e9fc8d3767e69","D2","batch4","","null","<p class=block-text>Trial 15 out of 78</p>","null","pattern_show_trial_num","","","","","","","","","","","","","","","","","","","","","","","","",""
"","","","","","image-keyboard-response","50","189800","0.0-2.0-5.0-1.14","61005c6df08e9fc8d3767e69","D2","batch4","","2116","stim/yes_36_ver_w1_w.png","f","pattern_response","true","f","pattern_58","2116","true","14","","","","","","","","","","","","","","","","","","",""
"","","","","","html-keyboard-response","51","191118","0.0-2.0-5.0-0.15","61005c6df08e9fc8d3767e69","D2","batch4","","null","<p class=block-text>Trial 16 out of 78</p>","null","pattern_show_trial_num","","","","","","","","","","","","","","","","","","","","","","","","",""
"","","","","","image-keyboard-response","52","195483","0.0-2.0-5.0-1.15","61005c6df08e9fc8d3767e69","D2","batch4","","4357.400000000023","stim/no_53_1_b.png","j","pattern_response","true","j","pattern_33","4357.400000000023","true","15","","","","","","","","","","","","","","","","","","",""
"","","","","","html-keyboard-response","53","196815","0.0-2.0-5.0-0.16","61005c6df08e9fc8d3767e69","D2","batch4","","null","<p class=block-text>Trial 17 out of 78</p>","null","pattern_show_trial_num","","","","","","","","","","","","","","","","","","","","","","","","",""
"","","","","","image-keyboard-response","54","198737","0.0-2.0-5.0-1.16","61005c6df08e9fc8d3767e69","D2","batch4","","1915.8000000000466","stim/yes_63_dia_b1.png","f","pattern_response","true","f","pattern_78","1915.8000000000466","true","16","","","","","","","","","","","","","","","","","","",""
"","","","","","html-keyboard-response","55","200063","0.0-2.0-5.0-0.17","61005c6df08e9fc8d3767e69","D2","batch4","","null","<p class=block-text>Trial 18 out of 78</p>","null","pattern_show_trial_num","","","","","","","","","","","","","","","","","","","","","","","","",""
"","","","","","image-keyboard-response","56","201943","0.0-2.0-5.0-1.17","61005c6df08e9fc8d3767e69","D2","batch4","","1873.6000000000931","stim/no_39_1_w.png","j","pattern_response","true","j","pattern_21","1873.6000000000931","true","17","","","","","","","","","","","","","","","","","","",""
"","","","","","html-keyboard-response","57","203263","0.0-2.0-5.0-0.18","61005c6df08e9fc8d3767e69","D2","batch4","","null","<p class=block-text>Trial 19 out of 78</p>","null","pattern_show_trial_num","","","","","","","","","","","","","","","","","","","","","","","","",""
"","","","","","image-keyboard-response","58","206071","0.0-2.0-5.0-1.18","61005c6df08e9fc8d3767e69","D2","batch4","","2801.29999999993","stim/yes_58_dia_w1_w.png","f","pattern_response","true","f","pattern_76","2801.29999999993","true","18","","","","","","","","","","","","","","","","","","",""
"","","","","","html-keyboard-response","59","207390","0.0-2.0-5.0-0.19","61005c6df08e9fc8d3767e69","D2","batch4","","null","<p class=block-text>Trial 20 out of 78</p>","null","pattern_show_trial_num","","","","","","","","","","","","","","","","","","","","","","","","",""
"","","","","","image-keyboard-response","60","210765","0.0-2.0-5.0-1.19","61005c6df08e9fc8d3767e69","D2","batch4","","3367.899999999907","stim/no_58_1_w.png","j","pattern_response","true","j","pattern_35","3367.899999999907","true","19","","","","","","","","","","","","","","","","","","",""
"","","","","","html-keyboard-response","61","212094","0.0-2.0-5.0-0.20","61005c6df08e9fc8d3767e69","D2","batch4","","null","<p class=block-text>Trial 21 out of 78</p>","null","pattern_show_trial_num","","","","","","","","","","","","","","","","","","","","","","","","",""
"","","","","","image-keyboard-response","62","214472","0.0-2.0-5.0-1.20","61005c6df08e9fc8d3767e69","D2","batch4","","2373.9000000000233","stim/no_49_2_b.png","j","pattern_response","true","j","pattern_29","2373.9000000000233","true","20","","","","","","","","","","","","","","","","","","",""
"","","","","","html-keyboard-response","63","215790","0.0-2.0-5.0-0.21","61005c6df08e9fc8d3767e69","D2","batch4","","null","<p class=block-text>Trial 22 out of 78</p>","null","pattern_show_trial_num","","","","","","","","","","","","","","","","","","","","","","","","",""
"","","","","","image-keyboard-response","64","216654","0.0-2.0-5.0-1.21","61005c6df08e9fc8d3767e69","D2","batch4","","858.5","stim/yes_15_dia_b1u_b.png","f","pattern_response","true","f","pattern_44","858.5","true","21","","","","","","","","","","","","","","","","","","",""
"","","","","","html-keyboard-response","65","217983","0.0-2.0-5.0-0.22","61005c6df08e9fc8d3767e69","D2","batch4","","null","<p class=block-text>Trial 23 out of 78</p>","null","pattern_show_trial_num","","","","","","","","","","","","","","","","","","","","","","","","",""
"","","","","","image-keyboard-response","66","221265","0.0-2.0-5.0-1.22","61005c6df08e9fc8d3767e69","D2","batch4","","3277.5999999998603","stim/no_51_1.png","j","pattern_response","true","j","pattern_31","3277.5999999998603","true","22","","","","","","","","","","","","","","","","","","",""
"","","","","","html-keyboard-response","67","222591","0.0-2.0-5.0-0.23","61005c6df08e9fc8d3767e69","D2","batch4","","null","<p class=block-text>Trial 24 out of 78</p>","null","pattern_show_trial_num","","","","","","","","","","","","","","","","","","","","","","","","",""
"","","","","","image-keyboard-response","68","223610","0.0-2.0-5.0-1.23","61005c6df08e9fc8d3767e69","D2","batch4","","1012.3000000000466","stim/yes_37_hor_w1_w.png","f","pattern_response","true","f","pattern_60","1012.3000000000466","true","23","","","","","","","","","","","","","","","","","","",""
"","","","","","html-keyboard-response","69","224943","0.0-2.0-5.0-0.24","61005c6df08e9fc8d3767e69","D2","batch4","","null","<p class=block-text>Trial 25 out of 78</p>","null","pattern_show_trial_num","","","","","","","","","","","","","","","","","","","","","","","","",""
"","","","","","image-keyboard-response","70","226753","0.0-2.0-5.0-1.24","61005c6df08e9fc8d3767e69","D2","batch4","","1806.3999999999069","stim/yes_42_dia_w1_w.png","j","pattern_response","false","f","pattern_64","1806.3999999999069","false","23","","","","","","","","","","","","","","","","","","",""
"","","","","","html-keyboard-response","71","228078","0.0-2.0-5.0-0.25","61005c6df08e9fc8d3767e69","D2","batch4","","null","<p class=block-text>Trial 26 out of 78</p>","null","pattern_show_trial_num","","","","","","","","","","","","","","","","","","","","","","","","",""
"","","","","","image-keyboard-response","72","229909","0.0-2.0-5.0-1.25","61005c6df08e9fc8d3767e69","D2","batch4","","1823.6999999999534","stim/no_45_1_w.png","j","pattern_response","true","j","pattern_25","1823.6999999999534","true","24","","","","","","","","","","","","","","","","","","",""
"","","","","","html-keyboard-response","73","231231","0.0-2.0-5.0-0.26","61005c6df08e9fc8d3767e69","D2","batch4","","null","<p class=block-text>Trial 27 out of 78</p>","null","pattern_show_trial_num","","","","","","","","","","","","","","","","","","","","","","","","",""
"","","","","","image-keyboard-response","74","232618","0.0-2.0-5.0-1.26","61005c6df08e9fc8d3767e69","D2","batch4","","1382.5999999998603","stim/yes_49_hor_w1_b.png","f","pattern_response","true","f","pattern_70","1382.5999999998603","true","25","","","","","","","","","","","","","","","","","","",""
"","","","","","html-keyboard-response","75","233934","0.0-2.0-5.0-0.27","61005c6df08e9fc8d3767e69","D2","batch4","","null","<p class=block-text>Trial 28 out of 78</p>","null","pattern_show_trial_num","","","","","","","","","","","","","","","","","","","","","","","","",""
"","","","","","image-keyboard-response","76","235326","0.0-2.0-5.0-1.27","61005c6df08e9fc8d3767e69","D2","batch4","","1386.1000000000931","stim/no_30_1_b.png","j","pattern_response","true","j","pattern_13","1386.1000000000931","true","26","","","","","","","","","","","","","","","","","","",""
"","","","","","html-keyboard-response","77","236655","0.0-2.0-5.0-0.28","61005c6df08e9fc8d3767e69","D2","batch4","","null","<p class=block-text>Trial 29 out of 78</p>","null","pattern_show_trial_num","","","","","","","","","","","","","","","","","","","","","","","","",""
"","","","","","image-keyboard-response","78","237381","0.0-2.0-5.0-1.28","61005c6df08e9fc8d3767e69","D2","batch4","","721.6999999999534","stim/yes_12_hor_w1_w.png","f","pattern_response","true","f","pattern_42","721.6999999999534","true","27","","","","","","","","","","","","","","","","","","",""
"","","","","","html-keyboard-response","79","238703","0.0-2.0-5.0-0.29","61005c6df08e9fc8d3767e69","D2","batch4","","null","<p class=block-text>Trial 30 out of 78</p>","null","pattern_show_trial_num","","","","","","","","","","","","","","","","","","","","","","","","",""
"","","","","","image-keyboard-response","80","240571","0.0-2.0-5.0-1.29","61005c6df08e9fc8d3767e69","D2","batch4","","1863.1999999999534","stim/no_33_1_b.png","j","pattern_response","true","j","pattern_15","1863.1999999999534","true","28","","","","","","","","","","","","","","","","","","",""
"","","","","","html-keyboard-response","81","241902","0.0-2.0-5.0-0.30","61005c6df08e9fc8d3767e69","D2","batch4","","null","<p class=block-text>Trial 31 out of 78</p>","null","pattern_show_trial_num","","","","","","","","","","","","","","","","","","","","","","","","",""
"","","","","","image-keyboard-response","82","243922","0.0-2.0-5.0-1.30","61005c6df08e9fc8d3767e69","D2","batch4","","2013.9000000001397","stim/yes_44_ver_w1_w.png","f","pattern_response","true","f","pattern_66","2013.9000000001397","true","29","","","","","","","","","","","","","","","","","","",""
"","","","","","html-keyboard-response","83","245247","0.0-2.0-5.0-0.31","61005c6df08e9fc8d3767e69","D2","batch4","","null","<p class=block-text>Trial 32 out of 78</p>","null","pattern_show_trial_num","","","","","","","","","","","","","","","","","","","","","","","","",""
"","","","","","image-keyboard-response","84","247640","0.0-2.0-5.0-1.31","61005c6df08e9fc8d3767e69","D2","batch4","","2388.899999999907","stim/no_67_1.png","j","pattern_response","true","j","pattern_39","2388.899999999907","true","30","","","","","","","","","","","","","","","","","","",""
"","","","","","html-keyboard-response","85","248958","0.0-2.0-5.0-0.32","61005c6df08e9fc8d3767e69","D2","batch4","","null","<p class=block-text>Trial 33 out of 78</p>","null","pattern_show_trial_num","","","","","","","","","","","","","","","","","","","","","","","","",""
"","","","","","image-keyboard-response","86","251059","0.0-2.0-5.0-1.32","61005c6df08e9fc8d3767e69","D2","batch4","","2094.0999999998603","stim/no_22_1_b.png","j","pattern_response","true","j","pattern_07","2094.0999999998603","true","31","","","","","","","","","","","","","","","","","","",""
"","","","","","html-keyboard-response","87","252382","0.0-2.0-5.0-0.33","61005c6df08e9fc8d3767e69","D2","batch4","","null","<p class=block-text>Trial 34 out of 78</p>","null","pattern_show_trial_num","","","","","","","","","","","","","","","","","","","","","","","","",""
"","","","","","image-keyboard-response","88","254342","0.0-2.0-5.0-1.33","61005c6df08e9fc8d3767e69","D2","batch4","","1953.3999999999069","stim/yes_51_dia_b1.png","f","pattern_response","true","f","pattern_72","1953.3999999999069","true","32","","","","","","","","","","","","","","","","","","",""
"","","","","","html-keyboard-response","89","255662","0.0-2.0-5.0-0.34","61005c6df08e9fc8d3767e69","D2","batch4","","null","<p class=block-text>Trial 35 out of 78</p>","null","pattern_show_trial_num","","","","","","","","","","","","","","","","","","","","","","","","",""
"","","","","","image-keyboard-response","90","256595","0.0-2.0-5.0-1.34","61005c6df08e9fc8d3767e69","D2","batch4","","927","stim/yes_39_hor_w1_w.png","f","pattern_response","true","f","pattern_62","927","true","33","","","","","","","","","","","","","","","","","","",""
"","","","","","html-keyboard-response","91","257919","0.0-2.0-5.0-0.35","61005c6df08e9fc8d3767e69","D2","batch4","","null","<p class=block-text>Trial 36 out of 78</p>","null","pattern_show_trial_num","","","","","","","","","","","","","","","","","","","","","","","","",""
"","","","","","image-keyboard-response","92","258863","0.0-2.0-5.0-1.35","61005c6df08e9fc8d3767e69","D2","batch4","","938.4000000001397","stim/no_15_1_w.png","j","pattern_response","true","j","pattern_03","938.4000000001397","true","34","","","","","","","","","","","","","","","","","","",""
"","","","","","html-keyboard-response","93","260190","0.0-2.0-5.0-0.36","61005c6df08e9fc8d3767e69","D2","batch4","","null","<p class=block-text>Trial 37 out of 78</p>","null","pattern_show_trial_num","","","","","","","","","","","","","","","","","","","","","","","","",""
"","","","","","image-keyboard-response","94","261068","0.0-2.0-5.0-1.36","61005c6df08e9fc8d3767e69","D2","batch4","","873.8999999999069","stim/yes_53_ver_b1_b.png","f","pattern_response","true","f","pattern_74","873.8999999999069","true","35","","","","","","","","","","","","","","","","","","",""
"","","","","","html-keyboard-response","95","262399","0.0-2.0-5.0-0.37","61005c6df08e9fc8d3767e69","D2","batch4","","null","<p class=block-text>Trial 38 out of 78</p>","null","pattern_show_trial_num","","","","","","","","","","","","","","","","","","","","","","","","",""
"","","","","","image-keyboard-response","96","264951","0.0-2.0-5.0-1.37","61005c6df08e9fc8d3767e69","D2","batch4","","2546.9000000001397","stim/no_37_2_w.png","j","pattern_response","true","j","pattern_19","2546.9000000001397","true","36","","","","","","","","","","","","","","","","","","",""
"","","","","","html-keyboard-response","97","266270","0.0-2.0-5.0-0.38","61005c6df08e9fc8d3767e69","D2","batch4","","null","<p class=block-text>Trial 39 out of 78</p>","null","pattern_show_trial_num","","","","","","","","","","","","","","","","","","","","","","","","",""
"","","","","","image-keyboard-response","98","267792","0.0-2.0-5.0-1.38","61005c6df08e9fc8d3767e69","D2","batch4","","1516.5","stim/yes_29_hor_b1_b.png","f","pattern_response","true","f","pattern_52","1516.5","true","37","","","","","","","","","","","","","","","","","","",""
"","","","","","image-keyboard-response","99","271267","0.0-2.0-6.0","61005c6df08e9fc8d3767e69","D2","batch4","","2966.6999999999534","stim/empty_board.png","j","attention_check","true","j","","","","","500","[""f"",""j""]","","","","","","","","","","","","","","","","",""
"","","","","","html-keyboard-response","100","272078","0.0-2.0-7.0-0.0","61005c6df08e9fc8d3767e69","D2","batch4","","null","<p class=block-text>Trial 40 out of 78</p>","null","pattern_show_trial_num","","","","","","","","","","","","","","","","","","","","","","","","",""
"","","","","","image-keyboard-response","101","274738","0.0-2.0-7.0-1.0","61005c6df08e9fc8d3767e69","D2","batch4","","2653.6999999999534","stim/no_32_1_w.png","j","pattern_response","true","j","pattern_14","2653.6999999999534","true","38","","","","","","","","","","","","","","","","","","",""
"","","","","","html-keyboard-response","102","276063","0.0-2.0-7.0-0.1","61005c6df08e9fc8d3767e69","D2","batch4","","null","<p class=block-text>Trial 41 out of 78</p>","null","pattern_show_trial_num","","","","","","","","","","","","","","","","","","","","","","","","",""
"","","","","","image-keyboard-response","103","279128","0.0-2.0-7.0-1.1","61005c6df08e9fc8d3767e69","D2","batch4","","3059.9000000001397","stim/no_62_1_w.png","j","pattern_response","true","j","pattern_36","3059.9000000001397","true","39","","","","","","","","","","","","","","","","","","",""
"","","","","","html-keyboard-response","104","280447","0.0-2.0-7.0-0.2","61005c6df08e9fc8d3767e69","D2","batch4","","null","<p class=block-text>Trial 42 out of 78</p>","null","pattern_show_trial_num","","","","","","","","","","","","","","","","","","","","","","","","",""
"","","","","","image-keyboard-response","105","283131","0.0-2.0-7.0-1.2","61005c6df08e9fc8d3767e69","D2","batch4","","2678","stim/no_55_1_w.png","j","pattern_response","true","j","pattern_34","2678","true","40","","","","","","","","","","","","","","","","","","",""
"","","","","","html-keyboard-response","106","284463","0.0-2.0-7.0-0.3","61005c6df08e9fc8d3767e69","D2","batch4","","null","<p class=block-text>Trial 43 out of 78</p>","null","pattern_show_trial_num","","","","","","","","","","","","","","","","","","","","","","","","",""
"","","","","","image-keyboard-response","107","286095","0.0-2.0-7.0-1.3","61005c6df08e9fc8d3767e69","D2","batch4","","1627.6999999999534","stim/no_23_1.png","j","pattern_response","true","j","pattern_08","1627.6999999999534","true","41","","","","","","","","","","","","","","","","","","",""
"","","","","","html-keyboard-response","108","287423","0.0-2.0-7.0-0.4","61005c6df08e9fc8d3767e69","D2","batch4","","null","<p class=block-text>Trial 44 out of 78</p>","null","pattern_show_trial_num","","","","","","","","","","","","","","","","","","","","","","","","",""
"","","","","","image-keyboard-response","109","290261","0.0-2.0-7.0-1.4","61005c6df08e9fc8d3767e69","D2","batch4","","2831.8000000000466","stim/yes_50_dia_w1.png","j","pattern_response","false","f","pattern_71","2831.8000000000466","false","41","","","","","","","","","","","","","","","","","","",""
"","","","","","html-keyboard-response","110","291583","0.0-2.0-7.0-0.5","61005c6df08e9fc8d3767e69","D2","batch4","","null","<p class=block-text>Trial 45 out of 78</p>","null","pattern_show_trial_num","","","","","","","","","","","","","","","","","","","","","","","","",""
"","","","","","image-keyboard-response","111","293604","0.0-2.0-7.0-1.5","61005c6df08e9fc8d3767e69","D2","batch4","","2015.0999999998603","stim/yes_38_hor_b1_b.png","j","pattern_response","false","f","pattern_61","2015.0999999998603","false","41","","","","","","","","","","","","","","","","","","",""
"","","","","","html-keyboard-response","112","294927","0.0-2.0-7.0-0.6","61005c6df08e9fc8d3767e69","D2","batch4","","null","<p class=block-text>Trial 46 out of 78</p>","null","pattern_show_trial_num","","","","","","","","","","","","","","","","","","","","","","","","",""
"","","","","","image-keyboard-response","113","295791","0.0-2.0-7.0-1.6","61005c6df08e9fc8d3767e69","D2","batch4","","857.8000000000466","stim/yes_25_hor_b1_b.png","f","pattern_response","true","f","pattern_49","857.8000000000466","true","42","","","","","","","","","","","","","","","","","","",""
"","","","","","html-keyboard-response","114","297119","0.0-2.0-7.0-0.7","61005c6df08e9fc8d3767e69","D2","batch4","","null","<p class=block-text>Trial 47 out of 78</p>","null","pattern_show_trial_num","","","","","","","","","","","","","","","","","","","","","","","","",""
"","","","","","image-keyboard-response","115","301389","0.0-2.0-7.0-1.7","61005c6df08e9fc8d3767e69","D2","batch4","","4265.800000000047","stim/yes_48_dia_w1_w.png","j","pattern_response","false","f","pattern_69","4265.800000000047","false","42","","","","","","","","","","","","","","","","","","",""
"","","","","","html-keyboard-response","116","302719","0.0-2.0-7.0-0.8","61005c6df08e9fc8d3767e69","D2","batch4","","null","<p class=block-text>Trial 48 out of 78</p>","null","pattern_show_trial_num","","","","","","","","","","","","","","","","","","","","","","","","",""
"","","","","","image-keyboard-response","117","303470","0.0-2.0-7.0-1.8","61005c6df08e9fc8d3767e69","D2","batch4","","745.2999999998137","stim/yes_22_ver_w1.png","f","pattern_response","true","f","pattern_47","745.2999999998137","true","43","","","","","","","","","","","","","","","","","","",""
"","","","","","html-keyboard-response","118","304799","0.0-2.0-7.0-0.9","61005c6df08e9fc8d3767e69","D2","batch4","","null","<p class=block-text>Trial 49 out of 78</p>","null","pattern_show_trial_num","","","","","","","","","","","","","","","","","","","","","","","","",""
"","","","","","image-keyboard-response","119","306131","0.0-2.0-7.0-1.9","61005c6df08e9fc8d3767e69","D2","batch4","","1327.1000000000931","stim/yes_29_ver_w1.png","f","pattern_response","true","f","pattern_53","1327.1000000000931","true","44","","","","","","","","","","","","","","","","","","",""
"","","","","","html-keyboard-response","120","307455","0.0-2.0-7.0-0.10","61005c6df08e9fc8d3767e69","D2","batch4","","null","<p class=block-text>Trial 50 out of 78</p>","null","pattern_show_trial_num","","","","","","","","","","","","","","","","","","","","","","","","",""
"","","","","","image-keyboard-response","121","309694","0.0-2.0-7.0-1.10","61005c6df08e9fc8d3767e69","D2","batch4","","2234.3000000000466","stim/no_29_1_b.png","j","pattern_response","true","j","pattern_12","2234.3000000000466","true","45","","","","","","","","","","","","","","","","","","",""
"","","","","","html-keyboard-response","122","311023","0.0-2.0-7.0-0.11","61005c6df08e9fc8d3767e69","D2","batch4","","null","<p class=block-text>Trial 51 out of 78</p>","null","pattern_show_trial_num","","","","","","","","","","","","","","","","","","","","","","","","",""
"","","","","","image-keyboard-response","123","312871","0.0-2.0-7.0-1.11","61005c6df08e9fc8d3767e69","D2","batch4","","1841.4000000001397","stim/yes_55_hor_w1_w.png","f","pattern_response","true","f","pattern_75","1841.4000000001397","true","46","","","","","","","","","","","","","","","","","","",""
"","","","","","html-keyboard-response","124","314191","0.0-2.0-7.0-0.12","61005c6df08e9fc8d3767e69","D2","batch4","","null","<p class=block-text>Trial 52 out of 78</p>","null","pattern_show_trial_num","","","","","","","","","","","","","","","","","","","","","","","","",""
"","","","","","image-keyboard-response","125","315499","0.0-2.0-7.0-1.12","61005c6df08e9fc8d3767e69","D2","batch4","","1302.1999999999534","stim/no_13_2_b.png","j","pattern_response","true","j","pattern_02","1302.1999999999534","true","47","","","","","","","","","","","","","","","","","","",""
"","","","","","html-keyboard-response","126","316831","0.0-2.0-7.0-0.13","61005c6df08e9fc8d3767e69","D2","batch4","","null","<p class=block-text>Trial 53 out of 78</p>","null","pattern_show_trial_num","","","","","","","","","","","","","","","","","","","","","","","","",""
"","","","","","image-keyboard-response","127","318884","0.0-2.0-7.0-1.13","61005c6df08e9fc8d3767e69","D2","batch4","","2047","stim/no_50_1.png","j","pattern_response","true","j","pattern_30","2047","true","48","","","","","","","","","","","","","","","","","","",""
"","","","","","html-keyboard-response","128","320207","0.0-2.0-7.0-0.14","61005c6df08e9fc8d3767e69","D2","batch4","","null","<p class=block-text>Trial 54 out of 78</p>","null","pattern_show_trial_num","","","","","","","","","","","","","","","","","","","","","","","","",""
"","","","","","image-keyboard-response","129","321774","0.0-2.0-7.0-1.14","61005c6df08e9fc8d3767e69","D2","batch4","","1561.7999999998137","stim/no_26_1_w.png","j","pattern_response","true","j","pattern_10","1561.7999999998137","true","49","","","","","","","","","","","","","","","","","","",""
"","","","","","html-keyboard-response","130","323103","0.0-2.0-7.0-0.15","61005c6df08e9fc8d3767e69","D2","batch4","","null","<p class=block-text>Trial 55 out of 78</p>","null","pattern_show_trial_num","","","","","","","","","","","","","","","","","","","","","","","","",""
"","","","","","image-keyboard-response","131","325038","0.0-2.0-7.0-1.15","61005c6df08e9fc8d3767e69","D2","batch4","","1930","stim/yes_37_dia_w1.png","j","pattern_response","false","f","pattern_59","1930","false","49","","","","","","","","","","","","","","","","","","",""
"","","","","","html-keyboard-response","132","326366","0.0-2.0-7.0-0.16","61005c6df08e9fc8d3767e69","D2","batch4","","null","<p class=block-text>Trial 56 out of 78</p>","null","pattern_show_trial_num","","","","","","","","","","","","","","","","","","","","","","","","",""
"","","","","","image-keyboard-response","133","330549","0.0-2.0-7.0-1.16","61005c6df08e9fc8d3767e69","D2","batch4","","4176.800000000047","stim/no_65_1_b.png","j","pattern_response","true","j","pattern_38","4176.800000000047","true","50","","","","","","","","","","","","","","","","","","",""
"","","","","","html-keyboard-response","134","331870","0.0-2.0-7.0-0.17","61005c6df08e9fc8d3767e69","D2","batch4","","null","<p class=block-text>Trial 57 out of 78</p>","null","pattern_show_trial_num","","","","","","","","","","","","","","","","","","","","","","","","",""
"","","","","","image-keyboard-response","135","335950","0.0-2.0-7.0-1.17","61005c6df08e9fc8d3767e69","D2","batch4","","4076.6999999999534","stim/no_44_1.png","j","pattern_response","true","j","pattern_24","4076.6999999999534","true","51","","","","","","","","","","","","","","","","","","",""
"","","","","","html-keyboard-response","136","337278","0.0-2.0-7.0-0.18","61005c6df08e9fc8d3767e69","D2","batch4","","null","<p class=block-text>Trial 58 out of 78</p>","null","pattern_show_trial_num","","","","","","","","","","","","","","","","","","","","","","","","",""
"","","","","","image-keyboard-response","137","339243","0.0-2.0-7.0-1.18","61005c6df08e9fc8d3767e69","D2","batch4","","1960.2999999998137","stim/no_20_1_w.png","j","pattern_response","true","j","pattern_06","1960.2999999998137","true","52","","","","","","","","","","","","","","","","","","",""
"","","","","","html-keyboard-response","138","340575","0.0-2.0-7.0-0.19","61005c6df08e9fc8d3767e69","D2","batch4","","null","<p class=block-text>Trial 59 out of 78</p>","null","pattern_show_trial_num","","","","","","","","","","","","","","","","","","","","","","","","",""
"","","","","","image-keyboard-response","139","342781","0.0-2.0-7.0-1.19","61005c6df08e9fc8d3767e69","D2","batch4","","2201.100000000093","stim/no_42_1_w.png","j","pattern_response","true","j","pattern_22","2201.100000000093","true","53","","","","","","","","","","","","","","","","","","",""
"","","","","","html-keyboard-response","140","344111","0.0-2.0-7.0-0.20","61005c6df08e9fc8d3767e69","D2","batch4","","null","<p class=block-text>Trial 60 out of 78</p>","null","pattern_show_trial_num","","","","","","","","","","","","","","","","","","","","","","","","",""
"","","","","","image-keyboard-response","141","346908","0.0-2.0-7.0-1.20","61005c6df08e9fc8d3767e69","D2","batch4","","2791.899999999907","stim/no_52_1.png","j","pattern_response","true","j","pattern_32","2791.899999999907","true","54","","","","","","","","","","","","","","","","","","",""
"","","","","","html-keyboard-response","142","348239","0.0-2.0-7.0-0.21","61005c6df08e9fc8d3767e69","D2","batch4","","null","<p class=block-text>Trial 61 out of 78</p>","null","pattern_show_trial_num","","","","","","","","","","","","","","","","","","","","","","","","",""
"","","","","","image-keyboard-response","143","352555","0.0-2.0-7.0-1.21","61005c6df08e9fc8d3767e69","D2","batch4","","4310.199999999953","stim/no_70_2.png","j","pattern_response","true","j","pattern_40","4310.199999999953","true","55","","","","","","","","","","","","","","","","","","",""
"","","","","","html-keyboard-response","144","353887","0.0-2.0-7.0-0.22","61005c6df08e9fc8d3767e69","D2","batch4","","null","<p class=block-text>Trial 62 out of 78</p>","null","pattern_show_trial_num","","","","","","","","","","","","","","","","","","","","","","","","",""
"","","","","","image-keyboard-response","145","355573","0.0-2.0-7.0-1.22","61005c6df08e9fc8d3767e69","D2","batch4","","1680.3999999999069","stim/no_17_1_w.png","j","pattern_response","true","j","pattern_04","1680.3999999999069","true","56","","","","","","","","","","","","","","","","","","",""
"","","","","","html-keyboard-response","146","356894","0.0-2.0-7.0-0.23","61005c6df08e9fc8d3767e69","D2","batch4","","null","<p class=block-text>Trial 63 out of 78</p>","null","pattern_show_trial_num","","","","","","","","","","","","","","","","","","","","","","","","",""
"","","","","","image-keyboard-response","147","357781","0.0-2.0-7.0-1.23","61005c6df08e9fc8d3767e69","D2","batch4","","880.3000000000466","stim/yes_43_ver_w1_w.png","f","pattern_response","true","f","pattern_65","880.3000000000466","true","57","","","","","","","","","","","","","","","","","","",""
"","","","","","html-keyboard-response","148","359103","0.0-2.0-7.0-0.24","61005c6df08e9fc8d3767e69","D2","batch4","","null","<p class=block-text>Trial 64 out of 78</p>","null","pattern_show_trial_num","","","","","","","","","","","","","","","","","","","","","","","","",""
"","","","","","image-keyboard-response","149","362110","0.0-2.0-7.0-1.24","61005c6df08e9fc8d3767e69","D2","batch4","","3003.1999999999534","stim/no_34_1_b.png","j","pattern_response","true","j","pattern_16","3003.1999999999534","true","58","","","","","","","","","","","","","","","","","","",""
"","","","","","html-keyboard-response","150","363439","0.0-2.0-7.0-0.25","61005c6df08e9fc8d3767e69","D2","batch4","","null","<p class=block-text>Trial 65 out of 78</p>","null","pattern_show_trial_num","","","","","","","","","","","","","","","","","","","","","","","","",""
"","","","","","image-keyboard-response","151","364513","0.0-2.0-7.0-1.25","61005c6df08e9fc8d3767e69","D2","batch4","","1069.1999999999534","stim/yes_45_hor_b2_b.png","f","pattern_response","true","f","pattern_67","1069.1999999999534","true","59","","","","","","","","","","","","","","","","","","",""
"","","","","","html-keyboard-response","152","365839","0.0-2.0-7.0-0.26","61005c6df08e9fc8d3767e69","D2","batch4","","null","<p class=block-text>Trial 66 out of 78</p>","null","pattern_show_trial_num","","","","","","","","","","","","","","","","","","","","","","","","",""
"","","","","","image-keyboard-response","153","368116","0.0-2.0-7.0-1.26","61005c6df08e9fc8d3767e69","D2","batch4","","2273.1999999999534","stim/yes_52_ver_w1.png","f","pattern_response","true","f","pattern_73","2273.1999999999534","true","60","","","","","","","","","","","","","","","","","","",""
"","","","","","html-keyboard-response","154","369439","0.0-2.0-7.0-0.27","61005c6df08e9fc8d3767e69","D2","batch4","","null","<p class=block-text>Trial 67 out of 78</p>","null","pattern_show_trial_num","","","","","","","","","","","","","","","","","","","","","","","","",""
"","","","","","image-keyboard-response","155","370428","0.0-2.0-7.0-1.27","61005c6df08e9fc8d3767e69","D2","batch4","","983.1000000000931","stim/yes_67_hor_b1.png","f","pattern_response","true","f","pattern_79","983.1000000000931","true","61","","","","","","","","","","","","","","","","","","",""
"","","","","","html-keyboard-response","156","371759","0.0-2.0-7.0-0.28","61005c6df08e9fc8d3767e69","D2","batch4","","null","<p class=block-text>Trial 68 out of 78</p>","null","pattern_show_trial_num","","","","","","","","","","","","","","","","","","","","","","","","",""
"","","","","","image-keyboard-response","157","372731","0.0-2.0-7.0-1.28","61005c6df08e9fc8d3767e69","D2","batch4","","966.6000000000931","stim/yes_60_ver_b1_b.png","f","pattern_response","true","f","pattern_77","966.6000000000931","true","62","","","","","","","","","","","","","","","","","","",""
"","","","","","html-keyboard-response","158","374063","0.0-2.0-7.0-0.29","61005c6df08e9fc8d3767e69","D2","batch4","","null","<p class=block-text>Trial 69 out of 78</p>","null","pattern_show_trial_num","","","","","","","","","","","","","","","","","","","","","","","","",""
"","","","","","image-keyboard-response","159","377253","0.0-2.0-7.0-1.29","61005c6df08e9fc8d3767e69","D2","batch4","","3185.100000000093","stim/no_46_1_b.png","j","pattern_response","true","j","pattern_26","3185.100000000093","true","63","","","","","","","","","","","","","","","","","","",""
"","","","","","html-keyboard-response","160","378574","0.0-2.0-7.0-0.30","61005c6df08e9fc8d3767e69","D2","batch4","","null","<p class=block-text>Trial 70 out of 78</p>","null","pattern_show_trial_num","","","","","","","","","","","","","","","","","","","","","","","","",""
"","","","","","image-keyboard-response","161","380640","0.0-2.0-7.0-1.30","61005c6df08e9fc8d3767e69","D2","batch4","","2060.899999999907","stim/no_36_2_w.png","j","pattern_response","true","j","pattern_18","2060.899999999907","true","64","","","","","","","","","","","","","","","","","","",""
"","","","","","html-keyboard-response","162","381966","0.0-2.0-7.0-0.31","61005c6df08e9fc8d3767e69","D2","batch4","","null","<p class=block-text>Trial 71 out of 78</p>","null","pattern_show_trial_num","","","","","","","","","","","","","","","","","","","","","","","","",""
"","","","","","image-keyboard-response","163","383868","0.0-2.0-7.0-1.31","61005c6df08e9fc8d3767e69","D2","batch4","","1897.3999999999069","stim/yes_40_dia_b1_b.png","f","pattern_response","true","f","pattern_63","1897.3999999999069","true","65","","","","","","","","","","","","","","","","","","",""
"","","","","","html-keyboard-response","164","385199","0.0-2.0-7.0-0.32","61005c6df08e9fc8d3767e69","D2","batch4","","null","<p class=block-text>Trial 72 out of 78</p>","null","pattern_show_trial_num","","","","","","","","","","","","","","","","","","","","","","","","",""
"","","","","","image-keyboard-response","165","386759","0.0-2.0-7.0-1.32","61005c6df08e9fc8d3767e69","D2","batch4","","1553.9000000001397","stim/yes_31_hor_b1.png","f","pattern_response","true","f","pattern_55","1553.9000000001397","true","66","","","","","","","","","","","","","","","","","","",""
"","","","","","html-keyboard-response","166","388079","0.0-2.0-7.0-0.33","61005c6df08e9fc8d3767e69","D2","batch4","","null","<p class=block-text>Trial 73 out of 78</p>","null","pattern_show_trial_num","","","","","","","","","","","","","","","","","","","","","","","","",""
"","","","","","image-keyboard-response","167","390676","0.0-2.0-7.0-1.33","61005c6df08e9fc8d3767e69","D2","batch4","","2593.5","stim/no_38_1_b.png","j","pattern_response","true","j","pattern_20","2593.5","true","67","","","","","","","","","","","","","","","","","","",""
"","","","","","html-keyboard-response","168","391998","0.0-2.0-7.0-0.34","61005c6df08e9fc8d3767e69","D2","batch4","","null","<p class=block-text>Trial 74 out of 78</p>","null","pattern_show_trial_num","","","","","","","","","","","","","","","","","","","","","","","","",""
"","","","","","image-keyboard-response","169","396369","0.0-2.0-7.0-1.34","61005c6df08e9fc8d3767e69","D2","batch4","","4367","stim/no_48_1_w.png","j","pattern_response","true","j","pattern_28","4367","true","68","","","","","","","","","","","","","","","","","","",""
"","","","","","html-keyboard-response","170","397695","0.0-2.0-7.0-0.35","61005c6df08e9fc8d3767e69","D2","batch4","","null","<p class=block-text>Trial 75 out of 78</p>","null","pattern_show_trial_num","","","","","","","","","","","","","","","","","","","","","","","","",""
"","","","","","image-keyboard-response","171","398444","0.0-2.0-7.0-1.35","61005c6df08e9fc8d3767e69","D2","batch4","","742.8000000000466","stim/yes_14_hor_b1_w.png","f","pattern_response","true","f","pattern_43","742.8000000000466","true","69","","","","","","","","","","","","","","","","","","",""
"","","","","","html-keyboard-response","172","399775","0.0-2.0-7.0-0.36","61005c6df08e9fc8d3767e69","D2","batch4","","null","<p class=block-text>Trial 76 out of 78</p>","null","pattern_show_trial_num","","","","","","","","","","","","","","","","","","","","","","","","",""
"","","","","","image-keyboard-response","173","401124","0.0-2.0-7.0-1.36","61005c6df08e9fc8d3767e69","D2","batch4","","1344.3999999999069","stim/yes_28_ver_b1.png","f","pattern_response","true","f","pattern_51","1344.3999999999069","true","70","","","","","","","","","","","","","","","","","","",""
"","","","","","html-keyboard-response","174","402447","0.0-2.0-7.0-0.37","61005c6df08e9fc8d3767e69","D2","batch4","","null","<p class=block-text>Trial 77 out of 78</p>","null","pattern_show_trial_num","","","","","","","","","","","","","","","","","","","","","","","","",""
"","","","","","image-keyboard-response","175","403229","0.0-2.0-7.0-1.37","61005c6df08e9fc8d3767e69","D2","batch4","","752.6000000000931","stim/yes_35_dia_b1.png","f","pattern_response","true","f","pattern_57","752.6000000000931","true","71","","","","","","","","","","","","","","","","","","",""
"","","","","","html-keyboard-response","176","404558","0.0-2.0-7.0-0.38","61005c6df08e9fc8d3767e69","D2","batch4","","null","<p class=block-text>Trial 78 out of 78</p>","null","pattern_show_trial_num","","","","","","","","","","","","","","","","","","","","","","","","",""
"","","","","","image-keyboard-response","177","405428","0.0-2.0-7.0-1.38","61005c6df08e9fc8d3767e69","D2","batch4","","864.8000000000466","stim/yes_17_dia_w1.png","f","pattern_response","true","f","pattern_45","864.8000000000466","true","72","","","","","","","","","","","","","","","","","","",""
"","","","","","html-button-response","178","409745","0.0-2.0-8.0","61005c6df08e9fc8d3767e69","D2","batch4","","3806.899999999907","<p class = block-text>This concludes the 4-in-a-row detection game.Thank you for your responses!<br>
            You responded correctly on 92% of the trials.<br>
            When you are ready, press ""Continue"" button to continue </p>","0","","","","","","","","","","","","","","","","","","","","","","","","","",""
"true","","","","","fullscreen","179","413262","0.0-3.0-0.0","61005c6df08e9fc8d3767e69","D2","batch4","","","","","spm_fullscreen","","","","","","","","","","","","","","","","","","","","","","","","",""
"","","","","","html-button-response","180","439529","0.0-3.0-1.0","61005c6df08e9fc8d3767e69","D2","batch4","","26262.5","<p class = block-text><b>Instructions</b> <br>This is a widely used intelligence test in research. <br>In this test, a figure with a missing piece will be presented.<br>Below the figure are alternative pieces to complete the figure, only one of which is correct.<br> Different figures might involve different principles for obtaining the missing piece<br>Your job is to select the most logical piece to complete the figure.</p>","0","","","","","","","","","","","","","","","","","","","","","","","","","",""
"","","","","","html-keyboard-response","181","440334","0.0-3.0-2.0-0.0","61005c6df08e9fc8d3767e69","D2","batch4","","null","<p class=block-text>Trial 1 out of 60</p>","null","spm_show_trial_num","","","","","","","","","","","","","","","","","","","","","","","","",""
"","","","","","image-button-response","182","444371","0.0-3.0-2.0-1.0","61005c6df08e9fc8d3767e69","D2","batch4","","4025.5","img/question_1_1.jpeg","3","spm_respsonse","1","4","mat_01","","","","","","1","4025.5","","","","","","","","","","","","","","",""
"","","","","","html-keyboard-response","183","445456","0.0-3.0-2.0-0.1","61005c6df08e9fc8d3767e69","D2","batch4","","null","<p class=block-text>Trial 2 out of 60</p>","null","spm_show_trial_num","","","","","","","","","","","","","","","","","","","","","","","","",""
"","","","","","image-button-response","184","448836","0.0-3.0-2.0-1.1","61005c6df08e9fc8d3767e69","D2","batch4","","3372.100000000093","img/question_1_2.jpeg","4","spm_respsonse","1","5","mat_02","","","","","","1","3372.100000000093","","","","","","","","","","","","","","",""
"","","","","","html-keyboard-response","185","449903","0.0-3.0-2.0-0.2","61005c6df08e9fc8d3767e69","D2","batch4","","null","<p class=block-text>Trial 3 out of 60</p>","null","spm_show_trial_num","","","","","","","","","","","","","","","","","","","","","","","","",""
"","","","","","image-button-response","186","453540","0.0-3.0-2.0-1.2","61005c6df08e9fc8d3767e69","D2","batch4","","3627.8000000000466","img/question_1_3.jpeg","0","spm_respsonse","1","1","mat_03","","","","","","1","3627.8000000000466","","","","","","","","","","","","","","",""
"","","","","","html-keyboard-response","187","454623","0.0-3.0-2.0-0.3","61005c6df08e9fc8d3767e69","D2","batch4","","null","<p class=block-text>Trial 4 out of 60</p>","null","spm_show_trial_num","","","","","","","","","","","","","","","","","","","","","","","","",""
"","","","","","image-button-response","188","458522","0.0-3.0-2.0-1.3","61005c6df08e9fc8d3767e69","D2","batch4","","3890.7999999998137","img/question_1_4.jpeg","1","spm_respsonse","1","2","mat_04","","","","","","1","3890.7999999998137","","","","","","","","","","","","","","",""
"","","","","","html-keyboard-response","189","459598","0.0-3.0-2.0-0.4","61005c6df08e9fc8d3767e69","D2","batch4","","null","<p class=block-text>Trial 5 out of 60</p>","null","spm_show_trial_num","","","","","","","","","","","","","","","","","","","","","","","","",""
"","","","","","image-button-response","190","462457","0.0-3.0-2.0-1.4","61005c6df08e9fc8d3767e69","D2","batch4","","2851.3000000000466","img/question_1_5.jpeg","5","spm_respsonse","1","6","mat_05","","","","","","1","2851.3000000000466","","","","","","","","","","","","","","",""
"","","","","","html-keyboard-response","191","463519","0.0-3.0-2.0-0.5","61005c6df08e9fc8d3767e69","D2","batch4","","null","<p class=block-text>Trial 6 out of 60</p>","null","spm_show_trial_num","","","","","","","","","","","","","","","","","","","","","","","","",""
"","","","","","image-button-response","192","467690","0.0-3.0-2.0-1.5","61005c6df08e9fc8d3767e69","D2","batch4","","4163.09999999986","img/question_1_6.jpeg","2","spm_respsonse","1","3","mat_06","","","","","","1","4163.09999999986","","","","","","","","","","","","","","",""
"","","","","","html-keyboard-response","193","468766","0.0-3.0-2.0-0.6","61005c6df08e9fc8d3767e69","D2","batch4","","null","<p class=block-text>Trial 7 out of 60</p>","null","spm_show_trial_num","","","","","","","","","","","","","","","","","","","","","","","","",""
"","","","","","image-button-response","194","473403","0.0-3.0-2.0-1.6","61005c6df08e9fc8d3767e69","D2","batch4","","4630.59999999986","img/question_1_7.jpeg","5","spm_respsonse","1","6","mat_07","","","","","","1","4630.59999999986","","","","","","","","","","","","","","",""
"","","","","","html-keyboard-response","195","474479","0.0-3.0-2.0-0.7","61005c6df08e9fc8d3767e69","D2","batch4","","null","<p class=block-text>Trial 8 out of 60</p>","null","spm_show_trial_num","","","","","","","","","","","","","","","","","","","","","","","","",""
"","","","","","image-button-response","196","477410","0.0-3.0-2.0-1.7","61005c6df08e9fc8d3767e69","D2","batch4","","2923.2000000001863","img/question_1_8.jpeg","1","spm_respsonse","1","2","mat_08","","","","","","1","2923.2000000001863","","","","","","","","","","","","","","",""
"","","","","","html-keyboard-response","197","478478","0.0-3.0-2.0-0.8","61005c6df08e9fc8d3767e69","D2","batch4","","null","<p class=block-text>Trial 9 out of 60</p>","null","spm_show_trial_num","","","","","","","","","","","","","","","","","","","","","","","","",""
"","","","","","image-button-response","198","481601","0.0-3.0-2.0-1.8","61005c6df08e9fc8d3767e69","D2","batch4","","3114.6999999999534","img/question_1_9.jpeg","0","spm_respsonse","1","1","mat_09","","","","","","1","3114.6999999999534","","","","","","","","","","","","","","",""
"","","","","","html-keyboard-response","199","482670","0.0-3.0-2.0-0.9","61005c6df08e9fc8d3767e69","D2","batch4","","null","<p class=block-text>Trial 10 out of 60</p>","null","spm_show_trial_num","","","","","","","","","","","","","","","","","","","","","","","","",""
"","","","","","image-button-response","200","488346","0.0-3.0-2.0-1.9","61005c6df08e9fc8d3767e69","D2","batch4","","5667.899999999907","img/question_1_10.jpeg","2","spm_respsonse","1","3","mat_10","","","","","","1","5667.899999999907","","","","","","","","","","","","","","",""
"","","","","","html-keyboard-response","201","489422","0.0-3.0-2.0-0.10","61005c6df08e9fc8d3767e69","D2","batch4","","null","<p class=block-text>Trial 11 out of 60</p>","null","spm_show_trial_num","","","","","","","","","","","","","","","","","","","","","","","","",""
"","","","","","image-button-response","202","496531","0.0-3.0-2.0-1.10","61005c6df08e9fc8d3767e69","D2","batch4","","7100.100000000093","img/question_1_11.jpeg","3","spm_respsonse","1","4","mat_11","","","","","","1","7100.100000000093","","","","","","","","","","","","","","",""
"","","","","","html-keyboard-response","203","497599","0.0-3.0-2.0-0.11","61005c6df08e9fc8d3767e69","D2","batch4","","null","<p class=block-text>Trial 12 out of 60</p>","null","spm_show_trial_num","","","","","","","","","","","","","","","","","","","","","","","","",""
"","","","","","image-button-response","204","503723","0.0-3.0-2.0-1.11","61005c6df08e9fc8d3767e69","D2","batch4","","6115.100000000093","img/question_1_12.jpeg","5","spm_respsonse","0","5","mat_12","","","","","","0","6115.100000000093","","","","","","","","","","","","","","",""
"","","","","","html-keyboard-response","205","504798","0.0-3.0-2.0-0.12","61005c6df08e9fc8d3767e69","D2","batch4","","null","<p class=block-text>Trial 13 out of 60</p>","null","spm_show_trial_num","","","","","","","","","","","","","","","","","","","","","","","","",""
"","","","","","image-button-response","206","507058","0.0-3.0-2.0-1.12","61005c6df08e9fc8d3767e69","D2","batch4","","2252.6999999999534","img/question_2_1.jpeg","1","spm_respsonse","1","2","mat_13","","","","","","1","2252.6999999999534","","","","","","","","","","","","","","",""
"","","","","","html-keyboard-response","207","508127","0.0-3.0-2.0-0.13","61005c6df08e9fc8d3767e69","D2","batch4","","null","<p class=block-text>Trial 14 out of 60</p>","null","spm_show_trial_num","","","","","","","","","","","","","","","","","","","","","","","","",""
"","","","","","image-button-response","208","511370","0.0-3.0-2.0-1.13","61005c6df08e9fc8d3767e69","D2","batch4","","3233.600000000093","img/question_2_2.jpeg","5","spm_respsonse","1","6","mat_14","","","","","","1","3233.600000000093","","","","","","","","","","","","","","",""
"","","","","","html-keyboard-response","209","512446","0.0-3.0-2.0-0.14","61005c6df08e9fc8d3767e69","D2","batch4","","null","<p class=block-text>Trial 15 out of 60</p>","null","spm_show_trial_num","","","","","","","","","","","","","","","","","","","","","","","","",""
"","","","","","image-button-response","210","514809","0.0-3.0-2.0-1.14","61005c6df08e9fc8d3767e69","D2","batch4","","2354.899999999907","img/question_2_3.jpeg","0","spm_respsonse","1","1","mat_15","","","","","","1","2354.899999999907","","","","","","","","","","","","","","",""
"","","","","","html-keyboard-response","211","515887","0.0-3.0-2.0-0.15","61005c6df08e9fc8d3767e69","D2","batch4","","null","<p class=block-text>Trial 16 out of 60</p>","null","spm_show_trial_num","","","","","","","","","","","","","","","","","","","","","","","","",""
"","","","","","image-button-response","212","519457","0.0-3.0-2.0-1.15","61005c6df08e9fc8d3767e69","D2","batch4","","3563.600000000093","img/question_2_4.jpeg","1","spm_respsonse","1","2","mat_16","","","","","","1","3563.600000000093","","","","","","","","","","","","","","",""
"","","","","","html-keyboard-response","213","520526","0.0-3.0-2.0-0.16","61005c6df08e9fc8d3767e69","D2","batch4","","null","<p class=block-text>Trial 17 out of 60</p>","null","spm_show_trial_num","","","","","","","","","","","","","","","","","","","","","","","","",""
"","","","","","image-button-response","214","525258","0.0-3.0-2.0-1.16","61005c6df08e9fc8d3767e69","D2","batch4","","4724.300000000047","img/question_2_5.jpeg","0","spm_respsonse","1","1","mat_17","","","","","","1","4724.300000000047","","","","","","","","","","","","","","",""
"","","","","","html-keyboard-response","215","526334","0.0-3.0-2.0-0.17","61005c6df08e9fc8d3767e69","D2","batch4","","null","<p class=block-text>Trial 18 out of 60</p>","null","spm_show_trial_num","","","","","","","","","","","","","","","","","","","","","","","","",""
"","","","","","image-button-response","216","530138","0.0-3.0-2.0-1.17","61005c6df08e9fc8d3767e69","D2","batch4","","3795.899999999907","img/question_2_6.jpeg","2","spm_respsonse","1","3","mat_18","","","","","","1","3795.899999999907","","","","","","","","","","","","","","",""
"","","","","","html-keyboard-response","217","531215","0.0-3.0-2.0-0.18","61005c6df08e9fc8d3767e69","D2","batch4","","null","<p class=block-text>Trial 19 out of 60</p>","null","spm_show_trial_num","","","","","","","","","","","","","","","","","","","","","","","","",""
"","","","","","image-button-response","218","539595","0.0-3.0-2.0-1.18","61005c6df08e9fc8d3767e69","D2","batch4","","8372.699999999953","img/question_2_7.jpeg","4","spm_respsonse","1","5","mat_19","","","","","","1","8372.699999999953","","","","","","","","","","","","","","",""
"","","","","","html-keyboard-response","219","540671","0.0-3.0-2.0-0.19","61005c6df08e9fc8d3767e69","D2","batch4","","null","<p class=block-text>Trial 20 out of 60</p>","null","spm_show_trial_num","","","","","","","","","","","","","","","","","","","","","","","","",""
"","","","","","image-button-response","220","545786","0.0-3.0-2.0-1.19","61005c6df08e9fc8d3767e69","D2","batch4","","5107.09999999986","img/question_2_8.jpeg","5","spm_respsonse","1","6","mat_20","","","","","","1","5107.09999999986","","","","","","","","","","","","","","",""
"","","","","","html-keyboard-response","221","546863","0.0-3.0-2.0-0.20","61005c6df08e9fc8d3767e69","D2","batch4","","null","<p class=block-text>Trial 21 out of 60</p>","null","spm_show_trial_num","","","","","","","","","","","","","","","","","","","","","","","","",""
"","","","","","image-button-response","222","553497","0.0-3.0-2.0-1.20","61005c6df08e9fc8d3767e69","D2","batch4","","6627.300000000047","img/question_2_9.jpeg","3","spm_respsonse","1","4","mat_21","","","","","","1","6627.300000000047","","","","","","","","","","","","","","",""
"","","","","","html-keyboard-response","223","554575","0.0-3.0-2.0-0.21","61005c6df08e9fc8d3767e69","D2","batch4","","null","<p class=block-text>Trial 22 out of 60</p>","null","spm_show_trial_num","","","","","","","","","","","","","","","","","","","","","","","","",""
"","","","","","image-button-response","224","561290","0.0-3.0-2.0-1.21","61005c6df08e9fc8d3767e69","D2","batch4","","6708","img/question_2_10.jpeg","2","spm_respsonse","1","3","mat_22","","","","","","1","6708","","","","","","","","","","","","","","",""
"","","","","","html-keyboard-response","225","562366","0.0-3.0-2.0-0.22","61005c6df08e9fc8d3767e69","D2","batch4","","null","<p class=block-text>Trial 23 out of 60</p>","null","spm_show_trial_num","","","","","","","","","","","","","","","","","","","","","","","","",""
"","","","","","image-button-response","226","565538","0.0-3.0-2.0-1.22","61005c6df08e9fc8d3767e69","D2","batch4","","3163.2000000001863","img/question_2_11.jpeg","3","spm_respsonse","1","4","mat_23","","","","","","1","3163.2000000001863","","","","","","","","","","","","","","",""
"","","","","","html-keyboard-response","227","566606","0.0-3.0-2.0-0.23","61005c6df08e9fc8d3767e69","D2","batch4","","null","<p class=block-text>Trial 24 out of 60</p>","null","spm_show_trial_num","","","","","","","","","","","","","","","","","","","","","","","","",""
"","","","","","image-button-response","228","571594","0.0-3.0-2.0-1.23","61005c6df08e9fc8d3767e69","D2","batch4","","4980.09999999986","img/question_2_12.jpeg","5","spm_respsonse","0","5","mat_24","","","","","","0","4980.09999999986","","","","","","","","","","","","","","",""
"","","","","","html-button-response","229","573393","0.0-3.0-3.0","61005c6df08e9fc8d3767e69","D2","batch4","","1535.2000000001863","<p class = block-text>Attention check: Please choose 1<br></p>","0","attention_check","true","","","","","","","","","","","","","","","","","","","","","","","",""
"","","","","","html-keyboard-response","230","574206","0.0-3.0-4.0-0.0","61005c6df08e9fc8d3767e69","D2","batch4","","null","<p class=block-text>Trial 25 out of 60</p>","null","spm_show_trial_num","","","","","","","","","","","","","","","","","","","","","","","","",""
"","","","","","image-button-response","231","580521","0.0-3.0-4.0-1.0","61005c6df08e9fc8d3767e69","D2","batch4","","6306.300000000047","img/question_3_1.jpeg","1","spm_respsonse","0","8","mat_25","","","","","","0","6306.300000000047","","","","","","","","","","","","","","",""
"","","","","","html-keyboard-response","232","581598","0.0-3.0-4.0-0.1","61005c6df08e9fc8d3767e69","D2","batch4","","null","<p class=block-text>Trial 26 out of 60</p>","null","spm_show_trial_num","","","","","","","","","","","","","","","","","","","","","","","","",""
"","","","","","image-button-response","233","587674","0.0-3.0-4.0-1.1","61005c6df08e9fc8d3767e69","D2","batch4","","6070.40000000014","img/question_3_2.jpeg","1","spm_respsonse","1","2","mat_26","","","","","","1","6070.40000000014","","","","","","","","","","","","","","",""
"","","","","","html-keyboard-response","234","588750","0.0-3.0-4.0-0.2","61005c6df08e9fc8d3767e69","D2","batch4","","null","<p class=block-text>Trial 27 out of 60</p>","null","spm_show_trial_num","","","","","","","","","","","","","","","","","","","","","","","","",""
"","","","","","image-button-response","235","597402","0.0-3.0-4.0-1.2","61005c6df08e9fc8d3767e69","D2","batch4","","8643.899999999907","img/question_3_3.jpeg","2","spm_respsonse","1","3","mat_27","","","","","","1","8643.899999999907","","","","","","","","","","","","","","",""
"","","","","","html-keyboard-response","236","598478","0.0-3.0-4.0-0.3","61005c6df08e9fc8d3767e69","D2","batch4","","null","<p class=block-text>Trial 28 out of 60</p>","null","spm_show_trial_num","","","","","","","","","","","","","","","","","","","","","","","","",""
"","","","","","image-button-response","237","602042","0.0-3.0-4.0-1.3","61005c6df08e9fc8d3767e69","D2","batch4","","3555.100000000093","img/question_3_4.jpeg","7","spm_respsonse","1","8","mat_28","","","","","","1","3555.100000000093","","","","","","","","","","","","","","",""
"","","","","","html-keyboard-response","238","603119","0.0-3.0-4.0-0.4","61005c6df08e9fc8d3767e69","D2","batch4","","null","<p class=block-text>Trial 29 out of 60</p>","null","spm_show_trial_num","","","","","","","","","","","","","","","","","","","","","","","","",""
"","","","","","image-button-response","239","607275","0.0-3.0-4.0-1.4","61005c6df08e9fc8d3767e69","D2","batch4","","4147.300000000047","img/question_3_5.jpeg","6","spm_respsonse","1","7","mat_29","","","","","","1","4147.300000000047","","","","","","","","","","","","","","",""
"","","","","","html-keyboard-response","240","608351","0.0-3.0-4.0-0.5","61005c6df08e9fc8d3767e69","D2","batch4","","null","<p class=block-text>Trial 30 out of 60</p>","null","spm_show_trial_num","","","","","","","","","","","","","","","","","","","","","","","","",""
"","","","","","image-button-response","241","613011","0.0-3.0-4.0-1.5","61005c6df08e9fc8d3767e69","D2","batch4","","4651.09999999986","img/question_3_6.jpeg","3","spm_respsonse","1","4","mat_30","","","","","","1","4651.09999999986","","","","","","","","","","","","","","",""
"","","","","","html-keyboard-response","242","614079","0.0-3.0-4.0-0.6","61005c6df08e9fc8d3767e69","D2","batch4","","null","<p class=block-text>Trial 31 out of 60</p>","null","spm_show_trial_num","","","","","","","","","","","","","","","","","","","","","","","","",""
"","","","","","image-button-response","243","618898","0.0-3.0-4.0-1.6","61005c6df08e9fc8d3767e69","D2","batch4","","4810.90000000014","img/question_3_7.jpeg","4","spm_respsonse","1","5","mat_31","","","","","","1","4810.90000000014","","","","","","","","","","","","","","",""
"","","","","","html-keyboard-response","244","619967","0.0-3.0-4.0-0.7","61005c6df08e9fc8d3767e69","D2","batch4","","null","<p class=block-text>Trial 32 out of 60</p>","null","spm_show_trial_num","","","","","","","","","","","","","","","","","","","","","","","","",""
"","","","","","image-button-response","245","625130","0.0-3.0-4.0-1.7","61005c6df08e9fc8d3767e69","D2","batch4","","5155","img/question_3_8.jpeg","3","spm_respsonse","0","1","mat_32","","","","","","0","5155","","","","","","","","","","","","","","",""
"","","","","","html-keyboard-response","246","626207","0.0-3.0-4.0-0.8","61005c6df08e9fc8d3767e69","D2","batch4","","null","<p class=block-text>Trial 33 out of 60</p>","null","spm_show_trial_num","","","","","","","","","","","","","","","","","","","","","","","","",""
"","","","","","image-button-response","247","633523","0.0-3.0-4.0-1.8","61005c6df08e9fc8d3767e69","D2","batch4","","7307.399999999907","img/question_3_9.jpeg","0","spm_respsonse","0","7","mat_33","","","","","","0","7307.399999999907","","","","","","","","","","","","","","",""
"","","","","","html-keyboard-response","248","634590","0.0-3.0-4.0-0.9","61005c6df08e9fc8d3767e69","D2","batch4","","null","<p class=block-text>Trial 34 out of 60</p>","null","spm_show_trial_num","","","","","","","","","","","","","","","","","","","","","","","","",""
"","","","","","image-button-response","249","641162","0.0-3.0-4.0-1.9","61005c6df08e9fc8d3767e69","D2","batch4","","6563.200000000186","img/question_3_10.jpeg","7","spm_respsonse","0","6","mat_34","","","","","","0","6563.200000000186","","","","","","","","","","","","","","",""
"","","","","","html-keyboard-response","250","642238","0.0-3.0-4.0-0.10","61005c6df08e9fc8d3767e69","D2","batch4","","null","<p class=block-text>Trial 35 out of 60</p>","null","spm_show_trial_num","","","","","","","","","","","","","","","","","","","","","","","","",""
"","","","","","image-button-response","251","653683","0.0-3.0-4.0-1.10","61005c6df08e9fc8d3767e69","D2","batch4","","11435","img/question_3_11.jpeg","7","spm_respsonse","0","1","mat_35","","","","","","0","11435","","","","","","","","","","","","","","",""
"","","","","","html-keyboard-response","252","654766","0.0-3.0-4.0-0.11","61005c6df08e9fc8d3767e69","D2","batch4","","null","<p class=block-text>Trial 36 out of 60</p>","null","spm_show_trial_num","","","","","","","","","","","","","","","","","","","","","","","","",""
"","","","","","image-button-response","253","664763","0.0-3.0-4.0-1.11","61005c6df08e9fc8d3767e69","D2","batch4","","9989.699999999953","img/question_3_12.jpeg","2","spm_respsonse","0","2","mat_36","","","","","","0","9989.699999999953","","","","","","","","","","","","","","",""
"","","","","","html-keyboard-response","254","665838","0.0-3.0-4.0-0.12","61005c6df08e9fc8d3767e69","D2","batch4","","null","<p class=block-text>Trial 37 out of 60</p>","null","spm_show_trial_num","","","","","","","","","","","","","","","","","","","","","","","","",""
"","","","","","image-button-response","255","671485","0.0-3.0-4.0-1.12","61005c6df08e9fc8d3767e69","D2","batch4","","5639.100000000093","img/question_4_1.jpeg","2","spm_respsonse","1","3","mat_37","","","","","","1","5639.100000000093","","","","","","","","","","","","","","",""
"","","","","","html-keyboard-response","256","672558","0.0-3.0-4.0-0.13","61005c6df08e9fc8d3767e69","D2","batch4","","null","<p class=block-text>Trial 38 out of 60</p>","null","spm_show_trial_num","","","","","","","","","","","","","","","","","","","","","","","","",""
"","","","","","image-button-response","257","682603","0.0-3.0-4.0-1.13","61005c6df08e9fc8d3767e69","D2","batch4","","10035.399999999907","img/question_4_2.jpeg","3","spm_respsonse","1","4","mat_38","","","","","","1","10035.399999999907","","","","","","","","","","","","","","",""
"","","","","","html-keyboard-response","258","683678","0.0-3.0-4.0-0.14","61005c6df08e9fc8d3767e69","D2","batch4","","null","<p class=block-text>Trial 39 out of 60</p>","null","spm_show_trial_num","","","","","","","","","","","","","","","","","","","","","","","","",""
"","","","","","image-button-response","259","689875","0.0-3.0-4.0-1.14","61005c6df08e9fc8d3767e69","D2","batch4","","6188.5","img/question_4_3.jpeg","2","spm_respsonse","1","3","mat_39","","","","","","1","6188.5","","","","","","","","","","","","","","",""
"","","","","","html-keyboard-response","260","690943","0.0-3.0-4.0-0.15","61005c6df08e9fc8d3767e69","D2","batch4","","null","<p class=block-text>Trial 40 out of 60</p>","null","spm_show_trial_num","","","","","","","","","","","","","","","","","","","","","","","","",""
"","","","","","image-button-response","261","696898","0.0-3.0-4.0-1.15","61005c6df08e9fc8d3767e69","D2","batch4","","5946.800000000047","img/question_4_4.jpeg","6","spm_respsonse","1","7","mat_40","","","","","","1","5946.800000000047","","","","","","","","","","","","","","",""
"","","","","","html-keyboard-response","262","697967","0.0-3.0-4.0-0.16","61005c6df08e9fc8d3767e69","D2","batch4","","null","<p class=block-text>Trial 41 out of 60</p>","null","spm_show_trial_num","","","","","","","","","","","","","","","","","","","","","","","","",""
"","","","","","image-button-response","263","706169","0.0-3.0-4.0-1.16","61005c6df08e9fc8d3767e69","D2","batch4","","8194.399999999907","img/question_4_5.jpeg","0","spm_respsonse","0","8","mat_41","","","","","","0","8194.399999999907","","","","","","","","","","","","","","",""
"","","","","","html-keyboard-response","264","707246","0.0-3.0-4.0-0.17","61005c6df08e9fc8d3767e69","D2","batch4","","null","<p class=block-text>Trial 42 out of 60</p>","null","spm_show_trial_num","","","","","","","","","","","","","","","","","","","","","","","","",""
"","","","","","image-button-response","265","714771","0.0-3.0-4.0-1.17","61005c6df08e9fc8d3767e69","D2","batch4","","7515.600000000093","img/question_4_6.jpeg","6","spm_respsonse","0","6","mat_42","","","","","","0","7515.600000000093","","","","","","","","","","","","","","",""
"","","","","","html-keyboard-response","266","715855","0.0-3.0-4.0-0.18","61005c6df08e9fc8d3767e69","D2","batch4","","null","<p class=block-text>Trial 43 out of 60</p>","null","spm_show_trial_num","","","","","","","","","","","","","","","","","","","","","","","","",""
"","","","","","image-button-response","267","723995","0.0-3.0-4.0-1.18","61005c6df08e9fc8d3767e69","D2","batch4","","8130.800000000047","img/question_4_7.jpeg","4","spm_respsonse","1","5","mat_43","","","","","","1","8130.800000000047","","","","","","","","","","","","","","",""
"","","","","","html-keyboard-response","268","725070","0.0-3.0-4.0-0.19","61005c6df08e9fc8d3767e69","D2","batch4","","null","<p class=block-text>Trial 44 out of 60</p>","null","spm_show_trial_num","","","","","","","","","","","","","","","","","","","","","","","","",""
"","","","","","image-button-response","269","732746","0.0-3.0-4.0-1.19","61005c6df08e9fc8d3767e69","D2","batch4","","7667.300000000047","img/question_4_8.jpeg","0","spm_respsonse","0","4","mat_44","","","","","","0","7667.300000000047","","","","","","","","","","","","","","",""
"","","","","","html-keyboard-response","270","733823","0.0-3.0-4.0-0.20","61005c6df08e9fc8d3767e69","D2","batch4","","null","<p class=block-text>Trial 45 out of 60</p>","null","spm_show_trial_num","","","","","","","","","","","","","","","","","","","","","","","","",""
"","","","","","image-button-response","271","743106","0.0-3.0-4.0-1.20","61005c6df08e9fc8d3767e69","D2","batch4","","9274.899999999907","img/question_4_9.jpeg","2","spm_respsonse","0","1","mat_45","","","","","","0","9274.899999999907","","","","","","","","","","","","","","",""
"","","","","","html-keyboard-response","272","744169","0.0-3.0-4.0-0.21","61005c6df08e9fc8d3767e69","D2","batch4","","null","<p class=block-text>Trial 46 out of 60</p>","null","spm_show_trial_num","","","","","","","","","","","","","","","","","","","","","","","","",""
"","","","","","image-button-response","273","752547","0.0-3.0-4.0-1.21","61005c6df08e9fc8d3767e69","D2","batch4","","8368.600000000093","img/question_4_10.jpeg","4","spm_respsonse","0","2","mat_46","","","","","","0","8368.600000000093","","","","","","","","","","","","","","",""
"","","","","","html-keyboard-response","274","753630","0.0-3.0-4.0-0.22","61005c6df08e9fc8d3767e69","D2","batch4","","null","<p class=block-text>Trial 47 out of 60</p>","null","spm_show_trial_num","","","","","","","","","","","","","","","","","","","","","","","","",""
"","","","","","image-button-response","275","760154","0.0-3.0-4.0-1.22","61005c6df08e9fc8d3767e69","D2","batch4","","6517.5","img/question_4_11.jpeg","4","spm_respsonse","1","5","mat_47","","","","","","1","6517.5","","","","","","","","","","","","","","",""
"","","","","","html-keyboard-response","276","761230","0.0-3.0-4.0-0.23","61005c6df08e9fc8d3767e69","D2","batch4","","null","<p class=block-text>Trial 48 out of 60</p>","null","spm_show_trial_num","","","","","","","","","","","","","","","","","","","","","","","","",""
"","","","","","image-button-response","277","769179","0.0-3.0-4.0-1.23","61005c6df08e9fc8d3767e69","D2","batch4","","7941.300000000047","img/question_4_12.jpeg","6","spm_respsonse","0","6","mat_48","","","","","","0","7941.300000000047","","","","","","","","","","","","","","",""
"","","","","","html-keyboard-response","278","770254","0.0-3.0-4.0-0.24","61005c6df08e9fc8d3767e69","D2","batch4","","null","<p class=block-text>Trial 49 out of 60</p>","null","spm_show_trial_num","","","","","","","","","","","","","","","","","","","","","","","","",""
"","","","","","image-button-response","279","775515","0.0-3.0-4.0-1.24","61005c6df08e9fc8d3767e69","D2","batch4","","5251.100000000093","img/question_5_1.jpeg","6","spm_respsonse","1","7","mat_49","","","","","","1","5251.100000000093","","","","","","","","","","","","","","",""
"","","","","","html-keyboard-response","280","776590","0.0-3.0-4.0-0.25","61005c6df08e9fc8d3767e69","D2","batch4","","null","<p class=block-text>Trial 50 out of 60</p>","null","spm_show_trial_num","","","","","","","","","","","","","","","","","","","","","","","","",""
"","","","","","image-button-response","281","781873","0.0-3.0-4.0-1.25","61005c6df08e9fc8d3767e69","D2","batch4","","5275.59999999986","img/question_5_2.jpeg","1","spm_respsonse","0","6","mat_50","","","","","","0","5275.59999999986","","","","","","","","","","","","","","",""
"","","","","","html-keyboard-response","282","782935","0.0-3.0-4.0-0.26","61005c6df08e9fc8d3767e69","D2","batch4","","null","<p class=block-text>Trial 51 out of 60</p>","null","spm_show_trial_num","","","","","","","","","","","","","","","","","","","","","","","","",""
"","","","","","image-button-response","283","789042","0.0-3.0-4.0-1.26","61005c6df08e9fc8d3767e69","D2","batch4","","6102","img/question_5_3.jpeg","7","spm_respsonse","1","8","mat_51","","","","","","1","6102","","","","","","","","","","","","","","",""
"","","","","","html-keyboard-response","284","790110","0.0-3.0-4.0-0.27","61005c6df08e9fc8d3767e69","D2","batch4","","null","<p class=block-text>Trial 52 out of 60</p>","null","spm_show_trial_num","","","","","","","","","","","","","","","","","","","","","","","","",""
"","","","","","image-button-response","285","797858","0.0-3.0-4.0-1.27","61005c6df08e9fc8d3767e69","D2","batch4","","7739.5","img/question_5_4.jpeg","2","spm_respsonse","0","2","mat_52","","","","","","0","7739.5","","","","","","","","","","","","","","",""
"","","","","","html-keyboard-response","286","798926","0.0-3.0-4.0-0.28","61005c6df08e9fc8d3767e69","D2","batch4","","null","<p class=block-text>Trial 53 out of 60</p>","null","spm_show_trial_num","","","","","","","","","","","","","","","","","","","","","","","","",""
"","","","","","image-button-response","287","804306","0.0-3.0-4.0-1.28","61005c6df08e9fc8d3767e69","D2","batch4","","5370.90000000014","img/question_5_5.jpeg","6","spm_respsonse","0","1","mat_53","","","","","","0","5370.90000000014","","","","","","","","","","","","","","",""
"","","","","","html-keyboard-response","288","805375","0.0-3.0-4.0-0.29","61005c6df08e9fc8d3767e69","D2","batch4","","null","<p class=block-text>Trial 54 out of 60</p>","null","spm_show_trial_num","","","","","","","","","","","","","","","","","","","","","","","","",""
"","","","","","image-button-response","289","811304","0.0-3.0-4.0-1.29","61005c6df08e9fc8d3767e69","D2","batch4","","5922.399999999907","img/question_5_6.jpeg","6","spm_respsonse","0","5","mat_54","","","","","","0","5922.399999999907","","","","","","","","","","","","","","",""
"","","","","","html-keyboard-response","290","812382","0.0-3.0-4.0-0.30","61005c6df08e9fc8d3767e69","D2","batch4","","null","<p class=block-text>Trial 55 out of 60</p>","null","spm_show_trial_num","","","","","","","","","","","","","","","","","","","","","","","","",""
"","","","","","image-button-response","291","819467","0.0-3.0-4.0-1.30","61005c6df08e9fc8d3767e69","D2","batch4","","7077.399999999907","img/question_5_7.jpeg","2","spm_respsonse","0","1","mat_55","","","","","","0","7077.399999999907","","","","","","","","","","","","","","",""
"","","","","","html-keyboard-response","292","820542","0.0-3.0-4.0-0.31","61005c6df08e9fc8d3767e69","D2","batch4","","null","<p class=block-text>Trial 56 out of 60</p>","null","spm_show_trial_num","","","","","","","","","","","","","","","","","","","","","","","","",""
"","","","","","image-button-response","293","828842","0.0-3.0-4.0-1.31","61005c6df08e9fc8d3767e69","D2","batch4","","8291.800000000047","img/question_5_8.jpeg","0","spm_respsonse","0","6","mat_56","","","","","","0","8291.800000000047","","","","","","","","","","","","","","",""
"","","","","","html-keyboard-response","294","829919","0.0-3.0-4.0-0.32","61005c6df08e9fc8d3767e69","D2","batch4","","null","<p class=block-text>Trial 57 out of 60</p>","null","spm_show_trial_num","","","","","","","","","","","","","","","","","","","","","","","","",""
"","","","","","image-button-response","295","837115","0.0-3.0-4.0-1.32","61005c6df08e9fc8d3767e69","D2","batch4","","7186.5","img/question_5_9.jpeg","7","spm_respsonse","0","3","mat_57","","","","","","0","7186.5","","","","","","","","","","","","","","",""
"","","","","","html-keyboard-response","296","838191","0.0-3.0-4.0-0.33","61005c6df08e9fc8d3767e69","D2","batch4","","null","<p class=block-text>Trial 58 out of 60</p>","null","spm_show_trial_num","","","","","","","","","","","","","","","","","","","","","","","","",""
"","","","","","image-button-response","297","842714","0.0-3.0-4.0-1.33","61005c6df08e9fc8d3767e69","D2","batch4","","4514.800000000047","img/question_5_10.jpeg","0","spm_respsonse","0","2","mat_58","","","","","","0","4514.800000000047","","","","","","","","","","","","","","",""
"","","","","","html-keyboard-response","298","843790","0.0-3.0-4.0-0.34","61005c6df08e9fc8d3767e69","D2","batch4","","null","<p class=block-text>Trial 59 out of 60</p>","null","spm_show_trial_num","","","","","","","","","","","","","","","","","","","","","","","","",""
"","","","","","image-button-response","299","848506","0.0-3.0-4.0-1.34","61005c6df08e9fc8d3767e69","D2","batch4","","4708.199999999953","img/question_5_11.jpeg","0","spm_respsonse","0","4","mat_59","","","","","","0","4708.199999999953","","","","","","","","","","","","","","",""
"","","","","","html-keyboard-response","300","849566","0.0-3.0-4.0-0.35","61005c6df08e9fc8d3767e69","D2","batch4","","null","<p class=block-text>Trial 60 out of 60</p>","null","spm_show_trial_num","","","","","","","","","","","","","","","","","","","","","","","","",""
"","","","","","image-button-response","301","855681","0.0-3.0-4.0-1.35","61005c6df08e9fc8d3767e69","D2","batch4","","6107.5","img/question_5_12.jpeg","5","spm_respsonse","0","5","mat_60","","","","","","0","6107.5","","","","","","","","","","","","","","",""
"","","","","","html-button-response","302","875514","0.0-3.0-5.0","61005c6df08e9fc8d3767e69","D2","batch4","","19576.40000000014","<p class= block-text>This concludes the Standard Progressive Matrix game. Thank you for your responses!<br> When you are ready, click the button continue</p>","0","spm_goodbye","","","","","","","","","","","","","","","","","","","","","","","","",""
"true","","","","","fullscreen","303","878399","0.0-4.0-0.0","61005c6df08e9fc8d3767e69","D2","batch4","","","","","","","","","","","","","","","","","","","","","","","","","","","","","",""
"","","","","","instructions","304","921290","0.0-4.0-1.0-0.0-0.0","61005c6df08e9fc8d3767e69","D2","batch4","[{""page_index"":0,""viewing_time"":10799.800000000047},{""page_index"":1,""viewing_time"":5127.40000000014},{""page_index"":2,""viewing_time"":3399.899999999907},{""page_index"":3,""viewing_time"":6368},{""page_index"":4,""viewing_time"":5984.199999999953},{""page_index"":5,""viewing_time"":9311.800000000047},{""page_index"":6,""viewing_time"":1895.8000000000466}]","42888.5","","","tol-instructions","","","","","","","","","","","","","","","","","","","","","","","","",""
"","","","","","html-button-response","305","922138","0.0-4.0-1.0-1.0-0.0","61005c6df08e9fc8d3767e69","D2","batch4","","843.6000000000931","<p class=block-text> Let's answer a few questions <br>","0","tol_enter_quiz","","","","","","","","","","","","","","","","","","","","","","","","",""
"","","","","","html-button-response","306","927209","0.0-4.0-1.0-1.0-1.0","61005c6df08e9fc8d3767e69","D2","batch4","","5067.299999999814","<p class = block-text>True or False: You can only move the ball on top of a peg. <br></p>","0","tol_quiz","true","","","","","","","","","","","","","","","","","","","","","","","",""
"","","","","","html-button-response","307","928539","0.0-4.0-1.0-1.0-2.0","61005c6df08e9fc8d3767e69","D2","batch4","","1323.8000000000466","<p class = block-text>Correct! You can only move the ball on top of a peg.</p>","0","tol_quiz_feedback","","","","","","","","","","","","","","","","","","","","","","","","",""
"","","","","","html-button-response","308","930786","0.0-4.0-1.0-1.0-3.0","61005c6df08e9fc8d3767e69","D2","batch4","","2243","<p class = block-text>True or False: You should try to match your board with the target board with fewest moves possible. <br></p>","0","tol_quiz","true","","","","","","","","","","","","","","","","","","","","","","","",""
"","","","","","html-button-response","309","931424","0.0-4.0-1.0-1.0-4.0","61005c6df08e9fc8d3767e69","D2","batch4","","634.1999999999534","<p class = block-text>Correct! </p>","0","tol_quiz_feedback","","","","","","","","","","","","","","","","","","","","","","","","",""
"","","","","","html-button-response","310","932809","0.0-4.0-2.0","61005c6df08e9fc8d3767e69","D2","batch4","","1380.0999999998603","<p class=block-text> Now that you've understood the game, let's practice a few easier examples before we start!<br> <br>","0","","","","","","","","","","","","","","","","","","","","","","","","","",""
"","","","","","single-stim-button","311","935521","0.0-4.0-3.0-0.0","61005c6df08e9fc8d3767e69","D2","batch4","","2702","","","tol_practice","","","","","","","","","","","tol_peg_2","2702","2702","0","[[1,2,0],[0,0],[0]]","1","[[1,2,0],[0,0],[3]]","practice","2702","","","","","",""
"","","","","","single-stim-button","312","936387","0.0-4.0-3.0-1.0","61005c6df08e9fc8d3767e69","D2","batch4","","861","","","tol_practice","","","","","","","","","","","tol_peg_3","861","861","0","[[1,2,0],[0,0],[3]]","1","[[1,2,0],[0,0],[3]]","practice","861","","","","","",""
"","","","","","poldrack-single-stim","313","937397","0.0-4.0-4.0","61005c6df08e9fc8d3767e69","D2","batch4","","-1","","","tol_feedback","true","","","","","","","","","","","1000","1000","500","","","","","","-1","none","true","","0",""
"","","","","","single-stim-button","314","940138","0.0-4.0-5.0-0.0","61005c6df08e9fc8d3767e69","D2","batch4","","2739","","","tol_practice","","","","","","","","","","","tol_peg_1","2739","2739","0","[[1,0,0],[3,0],[0]]","2","[[0,0,0],[3,1],[2]]","practice","2739","","","","","",""
"","","","","","single-stim-button","315","940899","0.0-4.0-5.0-1.0","61005c6df08e9fc8d3767e69","D2","batch4","","757","","","tol_practice","","","","","","","","","","","tol_peg_3","757","757","0","[[1,0,0],[3,0],[2]]","2","[[0,0,0],[3,1],[2]]","practice","757","","","","","",""
"","","","","","single-stim-button","316","941434","0.0-4.0-5.1-0.1","61005c6df08e9fc8d3767e69","D2","batch4","","532","","","tol_practice","","","","","","","","","","","tol_peg_1","532","532","0","[[0,0,0],[3,0],[2]]","3","[[0,0,0],[3,1],[2]]","practice","532","","","","","",""
"","","","","","single-stim-button","317","942002","0.0-4.0-5.1-1.1","61005c6df08e9fc8d3767e69","D2","batch4","","565","","","tol_practice","","","","","","","","","","","tol_peg_2","565","565","0","[[0,0,0],[3,1],[2]]","3","[[0,0,0],[3,1],[2]]","practice","565","","","","","",""
"","","","","","poldrack-single-stim","318","943008","0.0-4.0-6.0","61005c6df08e9fc8d3767e69","D2","batch4","","-1","","","tol_feedback","true","","","","","","","","","","","1000","1000","500","","","","","","-1","none","true","","0",""
"","","","","","single-stim-button","319","945034","0.0-4.0-7.0-0.0","61005c6df08e9fc8d3767e69","D2","batch4","","2024","","","tol_practice","","","","","","","","","","","tol_peg_2","2024","2024","0","[[1,2,0],[0,0],[0]]","4","[[1,0,0],[2,0],[3]]","practice","2024","","","","","",""
"","","","","","single-stim-button","320","945627","0.0-4.0-7.0-1.0","61005c6df08e9fc8d3767e69","D2","batch4","","589","","","tol_practice","","","","","","","","","","","tol_peg_3","589","589","0","[[1,2,0],[0,0],[3]]","4","[[1,0,0],[2,0],[3]]","practice","589","","","","","",""
"","","","","","single-stim-button","321","946242","0.0-4.0-7.1-0.1","61005c6df08e9fc8d3767e69","D2","batch4","","612","","","tol_practice","","","","","","","","","","","tol_peg_1","612","612","0","[[1,0,0],[0,0],[3]]","5","[[1,0,0],[2,0],[3]]","practice","612","","","","","",""
"","","","","","single-stim-button","322","947019","0.0-4.0-7.1-1.1","61005c6df08e9fc8d3767e69","D2","batch4","","773","","","tol_practice","","","","","","","","","","","tol_peg_2","773","773","0","[[1,0,0],[2,0],[3]]","5","[[1,0,0],[2,0],[3]]","practice","773","","","","","",""
"","","","","","poldrack-single-stim","323","948031","0.0-4.0-8.0","61005c6df08e9fc8d3767e69","D2","batch4","","-1","","","tol_feedback","true","","","","","","","","","","","1000","1000","500","","","","","","-1","none","true","","0",""
"","","","","","html-button-response","324","950889","0.0-4.0-9.0","61005c6df08e9fc8d3767e69","D2","batch4","","2856.100000000093","<div class = centerbox><p class = center-block-text>Great job! You are done with practice trials<br>You are about to start official trials.<br> <br> Problem <strong>1</strong> out of 25 problems</p></div>","0","tol_instruction","","","","","","","","","","","","","","","","","","","","","","","","",""
"","","","","","single-stim-button","325","957179","0.0-4.0-10.0-0.0","61005c6df08e9fc8d3767e69","D2","batch4","","5273","","","tol_tohand","","","","","","","","","","","tol_peg_2","5273","5273","0","[[1,2,0],[0,0],[0]]","1","[[1,3,0],[2,0],[0]]","0","0","","","","","","3"
"","","","","","single-stim-button","326","959442","0.0-4.0-10.0-1.0","61005c6df08e9fc8d3767e69","D2","batch4","","2260","","","tol_toboard","","","","","","","","","","","tol_peg_3","2260","2260","0","[[1,2,0],[0,0],[3]]","1","[[1,3,0],[2,0],[0]]","0","0","","","","","","3"
"","","","","","single-stim-button","327","959890","0.0-4.0-10.1-0.1","61005c6df08e9fc8d3767e69","D2","batch4","","442","","","tol_tohand","","","","","","","","","","","tol_peg_1","442","442","0","[[1,0,0],[0,0],[3]]","2","[[1,3,0],[2,0],[0]]","0","0","","","","","","3"
"","","","","","single-stim-button","328","960353","0.0-4.0-10.1-1.1","61005c6df08e9fc8d3767e69","D2","batch4","","460","","","tol_toboard","","","","","","","","","","","tol_peg_2","460","460","0","[[1,0,0],[2,0],[3]]","2","[[1,3,0],[2,0],[0]]","0","0","","","","","","3"
"","","","","","single-stim-button","329","960731","0.0-4.0-10.2-0.2","61005c6df08e9fc8d3767e69","D2","batch4","","365","","","tol_tohand","","","","","","","","","","","tol_peg_3","365","365","0","[[1,0,0],[2,0],[0]]","3","[[1,3,0],[2,0],[0]]","0","0","","","","","","3"
"","","","","","single-stim-button","330","961570","0.0-4.0-10.2-1.2","61005c6df08e9fc8d3767e69","D2","batch4","","836","","","tol_toboard","","","","","","","","","","","tol_peg_1","836","836","0","[[1,3,0],[2,0],[0]]","3","[[1,3,0],[2,0],[0]]","0","0","","","","","","3"
"","","","","","poldrack-single-stim","331","962575","0.0-4.0-11.0","61005c6df08e9fc8d3767e69","D2","batch4","","-1","","","tol_feedback","true","","","","","","","","","","","1000","1000","500","","","","","","-1","none","true","5273","6080",""
"","","","","","html-button-response","332","963441","0.0-4.0-12.0","61005c6df08e9fc8d3767e69","D2","batch4","","863.1999999999534","<div class = centerbox><p class = center-block-text>problem <strong>2</strong> out of 25 problems</p></div>","0","tol_trial_num","","","","","","","","","","","","","","","","","","","","","","","","",""
"","","","","","single-stim-button","333","966611","0.0-4.0-13.0-0.0","61005c6df08e9fc8d3767e69","D2","batch4","","3166","","","tol_tohand","","","","","","","","","","","tol_peg_1","3166","3166","0","[[1,0,0],[3,0],[0]]","1","[[2,1,3],[0,0],[0]]","1","0","","","","","","5"
"","","","","","single-stim-button","334","976346","0.0-4.0-13.0-1.0","61005c6df08e9fc8d3767e69","D2","batch4","","9730","","","tol_toboard","","","","","","","","","","","tol_peg_2","9730","9730","0","[[1,0,0],[3,2],[0]]","1","[[2,1,3],[0,0],[0]]","1","0","","","","","","5"
"","","","","","single-stim-button","335","977114","0.0-4.0-13.1-0.1","61005c6df08e9fc8d3767e69","D2","batch4","","765","","","tol_tohand","","","","","","","","","","","tol_peg_1","765","765","0","[[0,0,0],[3,2],[0]]","2","[[2,1,3],[0,0],[0]]","1","0","","","","","","5"
"","","","","","single-stim-button","336","979698","0.0-4.0-13.1-1.1","61005c6df08e9fc8d3767e69","D2","batch4","","2582","","","tol_toboard","","","","","","","","","","","tol_peg_3","2582","2582","0","[[0,0,0],[3,2],[1]]","2","[[2,1,3],[0,0],[0]]","1","0","","","","","","5"
"","","","","","single-stim-button","337","980163","0.0-4.0-13.2-0.2","61005c6df08e9fc8d3767e69","D2","batch4","","461","","","tol_tohand","","","","","","","","","","","tol_peg_2","461","461","0","[[0,0,0],[3,0],[1]]","3","[[2,1,3],[0,0],[0]]","1","0","","","","","","5"
"","","","","","single-stim-button","338","981123","0.0-4.0-13.2-1.2","61005c6df08e9fc8d3767e69","D2","batch4","","957","","","tol_toboard","","","","","","","","","","","tol_peg_1","957","957","0","[[2,0,0],[3,0],[1]]","3","[[2,1,3],[0,0],[0]]","1","0","","","","","","5"
"","","","","","single-stim-button","339","981595","0.0-4.0-13.3-0.3","61005c6df08e9fc8d3767e69","D2","batch4","","469","","","tol_tohand","","","","","","","","","","","tol_peg_3","469","469","0","[[2,0,0],[3,0],[0]]","4","[[2,1,3],[0,0],[0]]","1","0","","","","","","5"
"","","","","","single-stim-button","340","982227","0.0-4.0-13.3-1.3","61005c6df08e9fc8d3767e69","D2","batch4","","629","","","tol_toboard","","","","","","","","","","","tol_peg_1","629","629","0","[[2,1,0],[3,0],[0]]","4","[[2,1,3],[0,0],[0]]","1","0","","","","","","5"
"","","","","","single-stim-button","341","982650","0.0-4.0-13.4-0.4","61005c6df08e9fc8d3767e69","D2","batch4","","420","","","tol_tohand","","","","","","","","","","","tol_peg_2","420","420","0","[[2,1,0],[0,0],[0]]","5","[[2,1,3],[0,0],[0]]","1","0","","","","","","5"
"","","","","","single-stim-button","342","983075","0.0-4.0-13.4-1.4","61005c6df08e9fc8d3767e69","D2","batch4","","422","","","tol_toboard","","","","","","","","","","","tol_peg_1","422","422","0","[[2,1,3],[0,0],[0]]","5","[[2,1,3],[0,0],[0]]","1","0","","","","","","5"
"","","","","","poldrack-single-stim","343","984095","0.0-4.0-14.0","61005c6df08e9fc8d3767e69","D2","batch4","","-1","","","tol_feedback","true","","","","","","","","","","","1000","1000","500","","","","","","-1","none","true","3166","5281",""
"","","","","","html-button-response","344","984761","0.0-4.0-15.0","61005c6df08e9fc8d3767e69","D2","batch4","","663.1999999999534","<div class = centerbox><p class = center-block-text>problem <strong>3</strong> out of 25 problems</p></div>","0","tol_trial_num","","","","","","","","","","","","","","","","","","","","","","","","",""
"","","","","","single-stim-button","345","988368","0.0-4.0-16.0-0.0","61005c6df08e9fc8d3767e69","D2","batch4","","3605","","","tol_tohand","","","","","","","","","","","tol_peg_1","3605","3605","0","[[2,0,0],[0,0],[1]]","1","[[1,2,0],[3,0],[0]]","2","0","","","","","","4"
"","","","","","single-stim-button","346","989043","0.0-4.0-16.0-1.0","61005c6df08e9fc8d3767e69","D2","batch4","","672","","","tol_toboard","","","","","","","","","","","tol_peg_2","672","672","0","[[2,0,0],[3,0],[1]]","1","[[1,2,0],[3,0],[0]]","2","0","","","","","","4"
"","","","","","single-stim-button","347","990754","0.0-4.0-16.1-0.1","61005c6df08e9fc8d3767e69","D2","batch4","","1707","","","tol_tohand","","","","","","","","","","","tol_peg_1","1707","1707","0","[[0,0,0],[3,0],[1]]","2","[[1,2,0],[3,0],[0]]","2","0","","","","","","4"
