"success","timeout","failed_images","failed_audio","failed_video","trial_type","trial_index","time_elapsed","internal_node_id","subject_id","study_id","session_id","view_history","rt","stimulus","response","task","correct","answer","item","fiar_detect_rt","fiar_detect_correct","total_correct_fiar_detect","post_trial_gap","choices","spm_correct","spm_rt","mouse_click","stim_duration","block_duration","timing_post_trial","current_position","tol_num_moves_made","tol_target","tol_problem_id","tol_rt","key_press","possible_responses","tol_correct","preplanning","tol_rt_per_trial","tol_min_moves"
"true","false","[]","[]","[]","preload","0","1624","0.0-0.0","6100158db3080c7b157e85f1","B2","batch2","","","","","","","","","","","","","","","","","","","","","","","","","","","","","",""
"true","","","","","fullscreen","1","66734","0.0-1.0-0.0","6100158db3080c7b157e85f1","B2","batch2","","","","","","","","","","","","","","","","","","","","","","","","","","","","","",""
"true","","","","","fullscreen","2","70482","0.0-2.0-0.0","6100158db3080c7b157e85f1","B2","batch2","","","","","","","","","","","","","","","","","","","","","","","","","","","","","",""
"","","","","","instructions","3","89910","0.0-2.0-1.0-0.0","6100158db3080c7b157e85f1","B2","batch2","[{""page_index"":0,""viewing_time"":12603.799999982119},{""page_index"":1,""viewing_time"":6822.200000017881}]","19426.5","","","","","","","","","","","","","","","","","","","","","","","","","","","",""
"","","","","","html-button-response","4","91417","0.0-2.0-1.0-1.0-0.0","6100158db3080c7b157e85f1","B2","batch2","","1504.4000000059605","<p class=block-text> Let's answer a few questions <br>","0","pattern_enter_quiz","","","","","","","","","","","","","","","","","","","","","","","","",""
"","","","","","html-button-response","5","95186","0.0-2.0-1.0-1.0-1.0","6100158db3080c7b157e85f1","B2","batch2","","3766.0999999940395","<p class = block-text>True or False: You will have as much time as you want to make each choice. <br></p>","1","pattern_quiz","true","","","","","","","","","","","","","","","","","","","","","","","",""
"","","","","","html-button-response","6","96783","0.0-2.0-1.0-1.0-2.0","6100158db3080c7b157e85f1","B2","batch2","","1595.0999999940395","<p class = block-text>Correct! You should make your choice <strong> as fast as you can</strong>.</p>","0","pattern_quiz_feedback","","","","","","","","","","","","","","","","","","","","","","","","",""
"","","","","","html-button-response","7","100985","0.0-2.0-1.0-1.0-3.0","6100158db3080c7b157e85f1","B2","batch2","","4200.0999999940395","<p class = block-text>True or False: You will look for 4 pieces in black or white color connected in a row either horizontally, vertically or diagonally. <br></p>","0","pattern_quiz","true","","","","","","","","","","","","","","","","","","","","","","","",""
"","","","","","html-button-response","8","101738","0.0-2.0-1.0-1.0-4.0","6100158db3080c7b157e85f1","B2","batch2","","751.1000000238419","<p class = block-text>Correct! </p>","0","pattern_quiz_feedback","","","","","","","","","","","","","","","","","","","","","","","","",""
"","","","","","html-button-response","9","104110","0.0-2.0-2.0","6100158db3080c7b157e85f1","B2","batch2","","2368.600000023842","<p class=block-text> Now that you've understood the game, let's do a few practice trials before we start!<br> <br>","0","pattern_enter_practice","","","","","","","","","","","","","","","","","","","","","","","","",""
"","","","","","image-keyboard-response","10","107502","0.0-2.0-3.0-0.0","6100158db3080c7b157e85f1","B2","batch2","","3367.2999999821186","stim/prac_yes_16_ver_w1.png","f","pattern_practice","true","f","","","","","","","","","","","","","","","","","","","","","","",""
"","","","","","html-keyboard-response","11","108511","0.0-2.0-3.0-1.0","6100158db3080c7b157e85f1","B2","batch2","","null","<p style=""font-size:30px;color:green;"">Correct!</p>","null","pattern_feedback","","","","","","","","","","","","","","","","","","","","","","","","",""
"","","","","","image-keyboard-response","12","110182","0.0-2.0-3.0-0.1","6100158db3080c7b157e85f1","B2","batch2","","1669.2000000178814","stim/prac_no_18_1.png","j","pattern_practice","true","j","","","","","","","","","","","","","","","","","","","","","","",""
"","","","","","html-keyboard-response","13","111190","0.0-2.0-3.0-1.1","6100158db3080c7b157e85f1","B2","batch2","","null","<p style=""font-size:30px;color:green;"">Correct!</p>","null","pattern_feedback","","","","","","","","","","","","","","","","","","","","","","","","",""
"","","","","","image-keyboard-response","14","113627","0.0-2.0-3.0-0.2","6100158db3080c7b157e85f1","B2","batch2","","2434.4000000059605","stim/prac_no_16_1.png","j","pattern_practice","true","j","","","","","","","","","","","","","","","","","","","","","","",""
"","","","","","html-keyboard-response","15","114646","0.0-2.0-3.0-1.2","6100158db3080c7b157e85f1","B2","batch2","","null","<p style=""font-size:30px;color:green;"">Correct!</p>","null","pattern_feedback","","","","","","","","","","","","","","","","","","","","","","","","",""
"","","","","","image-keyboard-response","16","115971","0.0-2.0-3.0-0.3","6100158db3080c7b157e85f1","B2","batch2","","1321.7999999821186","stim/prac_yes_18_hor_w1.png","f","pattern_practice","true","f","","","","","","","","","","","","","","","","","","","","","","",""
"","","","","","html-keyboard-response","17","116983","0.0-2.0-3.0-1.3","6100158db3080c7b157e85f1","B2","batch2","","null","<p style=""font-size:30px;color:green;"">Correct!</p>","null","pattern_feedback","","","","","","","","","","","","","","","","","","","","","","","","",""
"","","","","","image-keyboard-response","18","118305","0.0-2.0-3.0-0.4","6100158db3080c7b157e85f1","B2","batch2","","1319.699999988079","stim/prac_yes_20_dia_b1.png","f","pattern_practice","true","f","","","","","","","","","","","","","","","","","","","","","","",""
"","","","","","html-keyboard-response","19","119311","0.0-2.0-3.0-1.4","6100158db3080c7b157e85f1","B2","batch2","","null","<p style=""font-size:30px;color:green;"">Correct!</p>","null","pattern_feedback","","","","","","","","","","","","","","","","","","","","","","","","",""
"","","","","","html-button-response","20","122937","0.0-2.0-4.0","6100158db3080c7b157e85f1","B2","batch2","","3624.4000000059605","<p class=block-text> Good job! You are done with practice trials!<br>
        You responded correctly on 100% of the trials.<br>
        Press the button below to start official trials. Now you won't see any feedback about your response</p>","0","pattern_enter_official_trials","","","","","","","","","","","","","","","","","","","","","","","","",""
"","","","","","html-keyboard-response","21","123744","0.0-2.0-5.0-0.0","6100158db3080c7b157e85f1","B2","batch2","","null","<p class=block-text>Trial 1 out of 78</p>","null","pattern_show_trial_num","","","","","","","","","","","","","","","","","","","","","","","","",""
"","","","","","image-keyboard-response","22","127421","0.0-2.0-5.0-1.0","6100158db3080c7b157e85f1","B2","batch2","","3674.2000000178814","stim/no_36_1_b.png","j","pattern_response","true","j","pattern_17","3674.2000000178814","true","1","","","","","","","","","","","","","","","","","","",""
"","","","","","html-keyboard-response","23","128740","0.0-2.0-5.0-0.1","6100158db3080c7b157e85f1","B2","batch2","","null","<p class=block-text>Trial 2 out of 78</p>","null","pattern_show_trial_num","","","","","","","","","","","","","","","","","","","","","","","","",""
"","","","","","image-keyboard-response","24","134003","0.0-2.0-5.0-1.1","6100158db3080c7b157e85f1","B2","batch2","","5261.199999988079","stim/no_43_2_b.png","j","pattern_response","true","j","pattern_23","5261.199999988079","true","2","","","","","","","","","","","","","","","","","","",""
"","","","","","html-keyboard-response","25","135322","0.0-2.0-5.0-0.2","6100158db3080c7b157e85f1","B2","batch2","","null","<p class=block-text>Trial 3 out of 78</p>","null","pattern_show_trial_num","","","","","","","","","","","","","","","","","","","","","","","","",""
"","","","","","image-keyboard-response","26","140998","0.0-2.0-5.0-1.2","6100158db3080c7b157e85f1","B2","batch2","","5674.300000011921","stim/yes_58_dia_w1_w.png","j","pattern_response","false","f","pattern_76","5674.300000011921","false","2","","","","","","","","","","","","","","","","","","",""
"","","","","","html-keyboard-response","27","142316","0.0-2.0-5.0-0.3","6100158db3080c7b157e85f1","B2","batch2","","null","<p class=block-text>Trial 4 out of 78</p>","null","pattern_show_trial_num","","","","","","","","","","","","","","","","","","","","","","","","",""
"","","","","","image-keyboard-response","28","144046","0.0-2.0-5.0-1.3","6100158db3080c7b157e85f1","B2","batch2","","1727.2000000178814","stim/yes_30_ver_b1_b.png","f","pattern_response","true","f","pattern_54","1727.2000000178814","true","3","","","","","","","","","","","","","","","","","","",""
"","","","","","html-keyboard-response","29","145360","0.0-2.0-5.0-0.4","6100158db3080c7b157e85f1","B2","batch2","","null","<p class=block-text>Trial 5 out of 78</p>","null","pattern_show_trial_num","","","","","","","","","","","","","","","","","","","","","","","","",""
"","","","","","image-keyboard-response","30","146137","0.0-2.0-5.0-1.4","6100158db3080c7b157e85f1","B2","batch2","","775.0999999940395","stim/yes_23_ver_b1.png","f","pattern_response","true","f","pattern_48","775.0999999940395","true","4","","","","","","","","","","","","","","","","","","",""
"","","","","","html-keyboard-response","31","147452","0.0-2.0-5.0-0.5","6100158db3080c7b157e85f1","B2","batch2","","null","<p class=block-text>Trial 6 out of 78</p>","null","pattern_show_trial_num","","","","","","","","","","","","","","","","","","","","","","","","",""
"","","","","","image-keyboard-response","32","148948","0.0-2.0-5.0-1.5","6100158db3080c7b157e85f1","B2","batch2","","1493.4000000059605","stim/yes_53_ver_b1_b.png","f","pattern_response","true","f","pattern_74","1493.4000000059605","true","5","","","","","","","","","","","","","","","","","","",""
"","","","","","html-keyboard-response","33","150266","0.0-2.0-5.0-0.6","6100158db3080c7b157e85f1","B2","batch2","","null","<p class=block-text>Trial 7 out of 78</p>","null","pattern_show_trial_num","","","","","","","","","","","","","","","","","","","","","","","","",""
"","","","","","image-keyboard-response","34","151069","0.0-2.0-5.0-1.6","6100158db3080c7b157e85f1","B2","batch2","","800.5","stim/yes_70_ver_b1.png","f","pattern_response","true","f","pattern_80","800.5","true","6","","","","","","","","","","","","","","","","","","",""
"","","","","","html-keyboard-response","35","152388","0.0-2.0-5.0-0.7","6100158db3080c7b157e85f1","B2","batch2","","null","<p class=block-text>Trial 8 out of 78</p>","null","pattern_show_trial_num","","","","","","","","","","","","","","","","","","","","","","","","",""
"","","","","","image-keyboard-response","36","155448","0.0-2.0-5.0-1.7","6100158db3080c7b157e85f1","B2","batch2","","3058.2999999821186","stim/yes_42_dia_w1_w.png","j","pattern_response","false","f","pattern_64","3058.2999999821186","false","6","","","","","","","","","","","","","","","","","","",""
"","","","","","html-keyboard-response","37","156765","0.0-2.0-5.0-0.8","6100158db3080c7b157e85f1","B2","batch2","","null","<p class=block-text>Trial 9 out of 78</p>","null","pattern_show_trial_num","","","","","","","","","","","","","","","","","","","","","","","","",""
"","","","","","image-keyboard-response","38","159881","0.0-2.0-5.0-1.8","6100158db3080c7b157e85f1","B2","batch2","","3113.9000000059605","stim/yes_63_dia_b1.png","f","pattern_response","true","f","pattern_78","3113.9000000059605","true","7","","","","","","","","","","","","","","","","","","",""
"","","","","","html-keyboard-response","39","161197","0.0-2.0-5.0-0.9","6100158db3080c7b157e85f1","B2","batch2","","null","<p class=block-text>Trial 10 out of 78</p>","null","pattern_show_trial_num","","","","","","","","","","","","","","","","","","","","","","","","",""
"","","","","","image-keyboard-response","40","162465","0.0-2.0-5.0-1.9","6100158db3080c7b157e85f1","B2","batch2","","1265.699999988079","stim/yes_46_ver_b1_b.png","f","pattern_response","true","f","pattern_68","1265.699999988079","true","8","","","","","","","","","","","","","","","","","","",""
"","","","","","html-keyboard-response","41","163780","0.0-2.0-5.0-0.10","6100158db3080c7b157e85f1","B2","batch2","","null","<p class=block-text>Trial 11 out of 78</p>","null","pattern_show_trial_num","","","","","","","","","","","","","","","","","","","","","","","","",""
"","","","","","image-keyboard-response","42","169764","0.0-2.0-5.0-1.10","6100158db3080c7b157e85f1","B2","batch2","","5982.0999999940395","stim/no_37_2_w.png","j","pattern_response","true","j","pattern_19","5982.0999999940395","true","9","","","","","","","","","","","","","","","","","","",""
"","","","","","html-keyboard-response","43","171084","0.0-2.0-5.0-0.11","6100158db3080c7b157e85f1","B2","batch2","","null","<p class=block-text>Trial 12 out of 78</p>","null","pattern_show_trial_num","","","","","","","","","","","","","","","","","","","","","","","","",""
"","","","","","image-keyboard-response","44","173184","0.0-2.0-5.0-1.11","6100158db3080c7b157e85f1","B2","batch2","","2097.300000011921","stim/no_30_1_b.png","j","pattern_response","true","j","pattern_13","2097.300000011921","true","10","","","","","","","","","","","","","","","","","","",""
"","","","","","html-keyboard-response","45","174501","0.0-2.0-5.0-0.12","6100158db3080c7b157e85f1","B2","batch2","","null","<p class=block-text>Trial 13 out of 78</p>","null","pattern_show_trial_num","","","","","","","","","","","","","","","","","","","","","","","","",""
"","","","","","image-keyboard-response","46","175490","0.0-2.0-5.0-1.12","6100158db3080c7b157e85f1","B2","batch2","","986.7000000178814","stim/yes_39_hor_w1_w.png","f","pattern_response","true","f","pattern_62","986.7000000178814","true","11","","","","","","","","","","","","","","","","","","",""
"","","","","","html-keyboard-response","47","176805","0.0-2.0-5.0-0.13","6100158db3080c7b157e85f1","B2","batch2","","null","<p class=block-text>Trial 14 out of 78</p>","null","pattern_show_trial_num","","","","","","","","","","","","","","","","","","","","","","","","",""
"","","","","","image-keyboard-response","48","177815","0.0-2.0-5.0-1.13","6100158db3080c7b157e85f1","B2","batch2","","1008.5999999940395","stim/yes_17_ver_b1_b.png","f","pattern_response","true","f","pattern_46","1008.5999999940395","true","12","","","","","","","","","","","","","","","","","","",""
"","","","","","html-keyboard-response","49","179133","0.0-2.0-5.0-0.14","6100158db3080c7b157e85f1","B2","batch2","","null","<p class=block-text>Trial 15 out of 78</p>","null","pattern_show_trial_num","","","","","","","","","","","","","","","","","","","","","","","","",""
"","","","","","image-keyboard-response","50","179832","0.0-2.0-5.0-1.14","6100158db3080c7b157e85f1","B2","batch2","","697","stim/yes_26_dia_w2_w.png","f","pattern_response","true","f","pattern_50","697","true","13","","","","","","","","","","","","","","","","","","",""
"","","","","","html-keyboard-response","51","181149","0.0-2.0-5.0-0.15","6100158db3080c7b157e85f1","B2","batch2","","null","<p class=block-text>Trial 16 out of 78</p>","null","pattern_show_trial_num","","","","","","","","","","","","","","","","","","","","","","","","",""
"","","","","","image-keyboard-response","52","182608","0.0-2.0-5.0-1.15","6100158db3080c7b157e85f1","B2","batch2","","1456.7999999821186","stim/yes_29_hor_b1_b.png","f","pattern_response","true","f","pattern_52","1456.7999999821186","true","14","","","","","","","","","","","","","","","","","","",""
"","","","","","html-keyboard-response","53","183925","0.0-2.0-5.0-0.16","6100158db3080c7b157e85f1","B2","batch2","","null","<p class=block-text>Trial 17 out of 78</p>","null","pattern_show_trial_num","","","","","","","","","","","","","","","","","","","","","","","","",""
"","","","","","image-keyboard-response","54","184609","0.0-2.0-5.0-1.16","6100158db3080c7b157e85f1","B2","batch2","","681.3000000119209","stim/yes_12_hor_w1_w.png","f","pattern_response","true","f","pattern_42","681.3000000119209","true","15","","","","","","","","","","","","","","","","","","",""
"","","","","","html-keyboard-response","55","185925","0.0-2.0-5.0-0.17","6100158db3080c7b157e85f1","B2","batch2","","null","<p class=block-text>Trial 18 out of 78</p>","null","pattern_show_trial_num","","","","","","","","","","","","","","","","","","","","","","","","",""
"","","","","","image-keyboard-response","56","186977","0.0-2.0-5.0-1.17","6100158db3080c7b157e85f1","B2","batch2","","1049","stim/no_12_1.png","j","pattern_response","true","j","pattern_01","1049","true","16","","","","","","","","","","","","","","","","","","",""
"","","","","","html-keyboard-response","57","188290","0.0-2.0-5.0-0.18","6100158db3080c7b157e85f1","B2","batch2","","null","<p class=block-text>Trial 19 out of 78</p>","null","pattern_show_trial_num","","","","","","","","","","","","","","","","","","","","","","","","",""
"","","","","","image-keyboard-response","58","189824","0.0-2.0-5.0-1.18","6100158db3080c7b157e85f1","B2","batch2","","1531.5","stim/yes_51_dia_b1.png","f","pattern_response","true","f","pattern_72","1531.5","true","17","","","","","","","","","","","","","","","","","","",""
"","","","","","html-keyboard-response","59","191142","0.0-2.0-5.0-0.19","6100158db3080c7b157e85f1","B2","batch2","","null","<p class=block-text>Trial 20 out of 78</p>","null","pattern_show_trial_num","","","","","","","","","","","","","","","","","","","","","","","","",""
"","","","","","image-keyboard-response","60","192939","0.0-2.0-5.0-1.19","6100158db3080c7b157e85f1","B2","batch2","","1795.3999999761581","stim/yes_49_hor_w1_b.png","f","pattern_response","true","f","pattern_70","1795.3999999761581","true","18","","","","","","","","","","","","","","","","","","",""
"","","","","","html-keyboard-response","61","194254","0.0-2.0-5.0-0.20","6100158db3080c7b157e85f1","B2","batch2","","null","<p class=block-text>Trial 21 out of 78</p>","null","pattern_show_trial_num","","","","","","","","","","","","","","","","","","","","","","","","",""
"","","","","","image-keyboard-response","62","195420","0.0-2.0-5.0-1.20","6100158db3080c7b157e85f1","B2","batch2","","1164.300000011921","stim/yes_33_dia_w1_w.png","f","pattern_response","true","f","pattern_56","1164.300000011921","true","19","","","","","","","","","","","","","","","","","","",""
"","","","","","html-keyboard-response","63","196730","0.0-2.0-5.0-0.21","6100158db3080c7b157e85f1","B2","batch2","","null","<p class=block-text>Trial 22 out of 78</p>","null","pattern_show_trial_num","","","","","","","","","","","","","","","","","","","","","","","","",""
"","","","","","image-keyboard-response","64","198757","0.0-2.0-5.0-1.21","6100158db3080c7b157e85f1","B2","batch2","","2025.699999988079","stim/no_18_1_b.png","j","pattern_response","true","j","pattern_05","2025.699999988079","true","20","","","","","","","","","","","","","","","","","","",""
"","","","","","html-keyboard-response","65","200078","0.0-2.0-5.0-0.22","6100158db3080c7b157e85f1","B2","batch2","","null","<p class=block-text>Trial 23 out of 78</p>","null","pattern_show_trial_num","","","","","","","","","","","","","","","","","","","","","","","","",""
"","","","","","image-keyboard-response","66","206979","0.0-2.0-5.0-1.22","6100158db3080c7b157e85f1","B2","batch2","","6899.0999999940395","stim/no_51_1.png","j","pattern_response","true","j","pattern_31","6899.0999999940395","true","21","","","","","","","","","","","","","","","","","","",""
"","","","","","html-keyboard-response","67","208294","0.0-2.0-5.0-0.23","6100158db3080c7b157e85f1","B2","batch2","","null","<p class=block-text>Trial 24 out of 78</p>","null","pattern_show_trial_num","","","","","","","","","","","","","","","","","","","","","","","","",""
"","","","","","image-keyboard-response","68","215638","0.0-2.0-5.0-1.23","6100158db3080c7b157e85f1","B2","batch2","","7340.9000000059605","stim/no_58_1_w.png","j","pattern_response","true","j","pattern_35","7340.9000000059605","true","22","","","","","","","","","","","","","","","","","","",""
"","","","","","html-keyboard-response","69","216958","0.0-2.0-5.0-0.24","6100158db3080c7b157e85f1","B2","batch2","","null","<p class=block-text>Trial 25 out of 78</p>","null","pattern_show_trial_num","","","","","","","","","","","","","","","","","","","","","","","","",""
"","","","","","image-keyboard-response","70","220479","0.0-2.0-5.0-1.24","6100158db3080c7b157e85f1","B2","batch2","","3518.2999999821186","stim/no_39_1_w.png","j","pattern_response","true","j","pattern_21","3518.2999999821186","true","23","","","","","","","","","","","","","","","","","","",""
"","","","","","html-keyboard-response","71","221794","0.0-2.0-5.0-0.25","6100158db3080c7b157e85f1","B2","batch2","","null","<p class=block-text>Trial 26 out of 78</p>","null","pattern_show_trial_num","","","","","","","","","","","","","","","","","","","","","","","","",""
"","","","","","image-keyboard-response","72","222777","0.0-2.0-5.0-1.25","6100158db3080c7b157e85f1","B2","batch2","","981.3999999761581","stim/yes_37_hor_w1_w.png","f","pattern_response","true","f","pattern_60","981.3999999761581","true","24","","","","","","","","","","","","","","","","","","",""
"","","","","","html-keyboard-response","73","224093","0.0-2.0-5.0-0.26","6100158db3080c7b157e85f1","B2","batch2","","null","<p class=block-text>Trial 27 out of 78</p>","null","pattern_show_trial_num","","","","","","","","","","","","","","","","","","","","","","","","",""
"","","","","","image-keyboard-response","74","226748","0.0-2.0-5.0-1.26","6100158db3080c7b157e85f1","B2","batch2","","2653.5","stim/no_45_1_w.png","j","pattern_response","true","j","pattern_25","2653.5","true","25","","","","","","","","","","","","","","","","","","",""
"","","","","","html-keyboard-response","75","228063","0.0-2.0-5.0-0.27","6100158db3080c7b157e85f1","B2","batch2","","null","<p class=block-text>Trial 28 out of 78</p>","null","pattern_show_trial_num","","","","","","","","","","","","","","","","","","","","","","","","",""
"","","","","","image-keyboard-response","76","232251","0.0-2.0-5.0-1.27","6100158db3080c7b157e85f1","B2","batch2","","4186.199999988079","stim/no_49_2_b.png","j","pattern_response","true","j","pattern_29","4186.199999988079","true","26","","","","","","","","","","","","","","","","","","",""
"","","","","","html-keyboard-response","77","233567","0.0-2.0-5.0-0.28","6100158db3080c7b157e85f1","B2","batch2","","null","<p class=block-text>Trial 29 out of 78</p>","null","pattern_show_trial_num","","","","","","","","","","","","","","","","","","","","","","","","",""
"","","","","","image-keyboard-response","78","234521","0.0-2.0-5.0-1.28","6100158db3080c7b157e85f1","B2","batch2","","951.5999999940395","stim/yes_15_dia_b1u_b.png","f","pattern_response","true","f","pattern_44","951.5999999940395","true","27","","","","","","","","","","","","","","","","","","",""
"","","","","","html-keyboard-response","79","235834","0.0-2.0-5.0-0.29","6100158db3080c7b157e85f1","B2","batch2","","null","<p class=block-text>Trial 30 out of 78</p>","null","pattern_show_trial_num","","","","","","","","","","","","","","","","","","","","","","","","",""
"","","","","","image-keyboard-response","80","238469","0.0-2.0-5.0-1.29","6100158db3080c7b157e85f1","B2","batch2","","2633.5999999940395","stim/yes_44_ver_w1_w.png","j","pattern_response","false","f","pattern_66","2633.5999999940395","false","27","","","","","","","","","","","","","","","","","","",""
"","","","","","html-keyboard-response","81","239783","0.0-2.0-5.0-0.30","6100158db3080c7b157e85f1","B2","batch2","","null","<p class=block-text>Trial 31 out of 78</p>","null","pattern_show_trial_num","","","","","","","","","","","","","","","","","","","","","","","","",""
"","","","","","image-keyboard-response","82","241116","0.0-2.0-5.0-1.30","6100158db3080c7b157e85f1","B2","batch2","","1330.8999999761581","stim/no_22_1_b.png","j","pattern_response","true","j","pattern_07","1330.8999999761581","true","28","","","","","","","","","","","","","","","","","","",""
"","","","","","html-keyboard-response","83","242431","0.0-2.0-5.0-0.31","6100158db3080c7b157e85f1","B2","batch2","","null","<p class=block-text>Trial 32 out of 78</p>","null","pattern_show_trial_num","","","","","","","","","","","","","","","","","","","","","","","","",""
"","","","","","image-keyboard-response","84","244694","0.0-2.0-5.0-1.31","6100158db3080c7b157e85f1","B2","batch2","","2259.5999999940395","stim/no_47_1_b.png","j","pattern_response","true","j","pattern_27","2259.5999999940395","true","29","","","","","","","","","","","","","","","","","","",""
"","","","","","html-keyboard-response","85","246007","0.0-2.0-5.0-0.32","6100158db3080c7b157e85f1","B2","batch2","","null","<p class=block-text>Trial 33 out of 78</p>","null","pattern_show_trial_num","","","","","","","","","","","","","","","","","","","","","","","","",""
"","","","","","image-keyboard-response","86","248898","0.0-2.0-5.0-1.32","6100158db3080c7b157e85f1","B2","batch2","","2889.5","stim/no_33_1_b.png","j","pattern_response","true","j","pattern_15","2889.5","true","30","","","","","","","","","","","","","","","","","","",""
"","","","","","html-keyboard-response","87","250215","0.0-2.0-5.0-0.33","6100158db3080c7b157e85f1","B2","batch2","","null","<p class=block-text>Trial 34 out of 78</p>","null","pattern_show_trial_num","","","","","","","","","","","","","","","","","","","","","","","","",""
"","","","","","image-keyboard-response","88","252182","0.0-2.0-5.0-1.33","6100158db3080c7b157e85f1","B2","batch2","","1964.5999999940395","stim/no_28_2.png","j","pattern_response","true","j","pattern_11","1964.5999999940395","true","31","","","","","","","","","","","","","","","","","","",""
"","","","","","html-keyboard-response","89","253496","0.0-2.0-5.0-0.34","6100158db3080c7b157e85f1","B2","batch2","","null","<p class=block-text>Trial 35 out of 78</p>","null","pattern_show_trial_num","","","","","","","","","","","","","","","","","","","","","","","","",""
"","","","","","image-keyboard-response","90","256136","0.0-2.0-5.0-1.34","6100158db3080c7b157e85f1","B2","batch2","","2637.7999999821186","stim/no_25_1_b.png","j","pattern_response","true","j","pattern_09","2637.7999999821186","true","32","","","","","","","","","","","","","","","","","","",""
"","","","","","html-keyboard-response","91","257456","0.0-2.0-5.0-0.35","6100158db3080c7b157e85f1","B2","batch2","","null","<p class=block-text>Trial 36 out of 78</p>","null","pattern_show_trial_num","","","","","","","","","","","","","","","","","","","","","","","","",""
"","","","","","image-keyboard-response","92","258206","0.0-2.0-5.0-1.35","6100158db3080c7b157e85f1","B2","batch2","","748","stim/yes_36_ver_w1_w.png","f","pattern_response","true","f","pattern_58","748","true","33","","","","","","","","","","","","","","","","","","",""
"","","","","","html-keyboard-response","93","259520","0.0-2.0-5.0-0.36","6100158db3080c7b157e85f1","B2","batch2","","null","<p class=block-text>Trial 37 out of 78</p>","null","pattern_show_trial_num","","","","","","","","","","","","","","","","","","","","","","","","",""
"","","","","","image-keyboard-response","94","260851","0.0-2.0-5.0-1.36","6100158db3080c7b157e85f1","B2","batch2","","1320.1000000238419","stim/no_15_1_w.png","j","pattern_response","true","j","pattern_03","1320.1000000238419","true","34","","","","","","","","","","","","","","","","","","",""
"","","","","","html-keyboard-response","95","262164","0.0-2.0-5.0-0.37","6100158db3080c7b157e85f1","B2","batch2","","null","<p class=block-text>Trial 38 out of 78</p>","null","pattern_show_trial_num","","","","","","","","","","","","","","","","","","","","","","","","",""
"","","","","","image-keyboard-response","96","265618","0.0-2.0-5.0-1.37","6100158db3080c7b157e85f1","B2","batch2","","3452.399999976158","stim/no_67_1.png","j","pattern_response","true","j","pattern_39","3452.399999976158","true","35","","","","","","","","","","","","","","","","","","",""
"","","","","","html-keyboard-response","97","266936","0.0-2.0-5.0-0.38","6100158db3080c7b157e85f1","B2","batch2","","null","<p class=block-text>Trial 39 out of 78</p>","null","pattern_show_trial_num","","","","","","","","","","","","","","","","","","","","","","","","",""
"","","","","","image-keyboard-response","98","272422","0.0-2.0-5.0-1.38","6100158db3080c7b157e85f1","B2","batch2","","5483.4000000059605","stim/no_53_1_b.png","j","pattern_response","true","j","pattern_33","5483.4000000059605","true","36","","","","","","","","","","","","","","","","","","",""
"","","","","","image-keyboard-response","99","274763","0.0-2.0-6.0","6100158db3080c7b157e85f1","B2","batch2","","1832.800000011921","stim/empty_board.png","j","attention_check","true","j","","","","","500","[""f"",""j""]","","","","","","","","","","","","","","","","",""
"","","","","","html-keyboard-response","100","275572","0.0-2.0-7.0-0.0","6100158db3080c7b157e85f1","B2","batch2","","null","<p class=block-text>Trial 40 out of 78</p>","null","pattern_show_trial_num","","","","","","","","","","","","","","","","","","","","","","","","",""
"","","","","","image-keyboard-response","101","279692","0.0-2.0-7.0-1.0","6100158db3080c7b157e85f1","B2","batch2","","4117.199999988079","stim/no_42_1_w.png","j","pattern_response","true","j","pattern_22","4117.199999988079","true","37","","","","","","","","","","","","","","","","","","",""
"","","","","","html-keyboard-response","102","281009","0.0-2.0-7.0-0.1","6100158db3080c7b157e85f1","B2","batch2","","null","<p class=block-text>Trial 41 out of 78</p>","null","pattern_show_trial_num","","","","","","","","","","","","","","","","","","","","","","","","",""
"","","","","","image-keyboard-response","103","283604","0.0-2.0-7.0-1.1","6100158db3080c7b157e85f1","B2","batch2","","2593.5999999940395","stim/yes_50_dia_w1.png","j","pattern_response","false","f","pattern_71","2593.5999999940395","false","37","","","","","","","","","","","","","","","","","","",""
"","","","","","html-keyboard-response","104","284918","0.0-2.0-7.0-0.2","6100158db3080c7b157e85f1","B2","batch2","","null","<p class=block-text>Trial 42 out of 78</p>","null","pattern_show_trial_num","","","","","","","","","","","","","","","","","","","","","","","","",""
"","","","","","image-keyboard-response","105","286216","0.0-2.0-7.0-1.2","6100158db3080c7b157e85f1","B2","batch2","","1295.800000011921","stim/yes_52_ver_w1.png","f","pattern_response","true","f","pattern_73","1295.800000011921","true","38","","","","","","","","","","","","","","","","","","",""
"","","","","","html-keyboard-response","106","287537","0.0-2.0-7.0-0.3","6100158db3080c7b157e85f1","B2","batch2","","null","<p class=block-text>Trial 43 out of 78</p>","null","pattern_show_trial_num","","","","","","","","","","","","","","","","","","","","","","","","",""
"","","","","","image-keyboard-response","107","290361","0.0-2.0-7.0-1.3","6100158db3080c7b157e85f1","B2","batch2","","2822.600000023842","stim/no_44_1.png","j","pattern_response","true","j","pattern_24","2822.600000023842","true","39","","","","","","","","","","","","","","","","","","",""
"","","","","","html-keyboard-response","108","291676","0.0-2.0-7.0-0.4","6100158db3080c7b157e85f1","B2","batch2","","null","<p class=block-text>Trial 44 out of 78</p>","null","pattern_show_trial_num","","","","","","","","","","","","","","","","","","","","","","","","",""
"","","","","","image-keyboard-response","109","293325","0.0-2.0-7.0-1.4","6100158db3080c7b157e85f1","B2","batch2","","1646.199999988079","stim/yes_55_hor_w1_w.png","f","pattern_response","true","f","pattern_75","1646.199999988079","true","40","","","","","","","","","","","","","","","","","","",""
"","","","","","html-keyboard-response","110","294641","0.0-2.0-7.0-0.5","6100158db3080c7b157e85f1","B2","batch2","","null","<p class=block-text>Trial 45 out of 78</p>","null","pattern_show_trial_num","","","","","","","","","","","","","","","","","","","","","","","","",""
"","","","","","image-keyboard-response","111","296184","0.0-2.0-7.0-1.5","6100158db3080c7b157e85f1","B2","batch2","","1540.6000000238419","stim/yes_29_ver_w1.png","j","pattern_response","false","f","pattern_53","1540.6000000238419","false","40","","","","","","","","","","","","","","","","","","",""
"","","","","","html-keyboard-response","112","297497","0.0-2.0-7.0-0.6","6100158db3080c7b157e85f1","B2","batch2","","null","<p class=block-text>Trial 46 out of 78</p>","null","pattern_show_trial_num","","","","","","","","","","","","","","","","","","","","","","","","",""
"","","","","","image-keyboard-response","113","301302","0.0-2.0-7.0-1.6","6100158db3080c7b157e85f1","B2","batch2","","3803.699999988079","stim/no_38_1_b.png","j","pattern_response","true","j","pattern_20","3803.699999988079","true","41","","","","","","","","","","","","","","","","","","",""
"","","","","","html-keyboard-response","114","302617","0.0-2.0-7.0-0.7","6100158db3080c7b157e85f1","B2","batch2","","null","<p class=block-text>Trial 47 out of 78</p>","null","pattern_show_trial_num","","","","","","","","","","","","","","","","","","","","","","","","",""
"","","","","","image-keyboard-response","115","303431","0.0-2.0-7.0-1.7","6100158db3080c7b157e85f1","B2","batch2","","811.6999999880791","stim/yes_22_ver_w1.png","f","pattern_response","true","f","pattern_47","811.6999999880791","true","42","","","","","","","","","","","","","","","","","","",""
"","","","","","html-keyboard-response","116","304745","0.0-2.0-7.0-0.8","6100158db3080c7b157e85f1","B2","batch2","","null","<p class=block-text>Trial 48 out of 78</p>","null","pattern_show_trial_num","","","","","","","","","","","","","","","","","","","","","","","","",""
"","","","","","image-keyboard-response","117","308596","0.0-2.0-7.0-1.8","6100158db3080c7b157e85f1","B2","batch2","","3848.5999999940395","stim/no_52_1.png","j","pattern_response","true","j","pattern_32","3848.5999999940395","true","43","","","","","","","","","","","","","","","","","","",""
"","","","","","html-keyboard-response","118","309913","0.0-2.0-7.0-0.9","6100158db3080c7b157e85f1","B2","batch2","","null","<p class=block-text>Trial 49 out of 78</p>","null","pattern_show_trial_num","","","","","","","","","","","","","","","","","","","","","","","","",""
"","","","","","image-keyboard-response","119","310752","0.0-2.0-7.0-1.9","6100158db3080c7b157e85f1","B2","batch2","","836.0999999940395","stim/yes_25_hor_b1_b.png","f","pattern_response","true","f","pattern_49","836.0999999940395","true","44","","","","","","","","","","","","","","","","","","",""
"","","","","","html-keyboard-response","120","312065","0.0-2.0-7.0-0.10","6100158db3080c7b157e85f1","B2","batch2","","null","<p class=block-text>Trial 50 out of 78</p>","null","pattern_show_trial_num","","","","","","","","","","","","","","","","","","","","","","","","",""
"","","","","","image-keyboard-response","121","314612","0.0-2.0-7.0-1.10","6100158db3080c7b157e85f1","B2","batch2","","2545.5","stim/yes_67_hor_b1.png","f","pattern_response","true","f","pattern_79","2545.5","true","45","","","","","","","","","","","","","","","","","","",""
"","","","","","html-keyboard-response","122","315929","0.0-2.0-7.0-0.11","6100158db3080c7b157e85f1","B2","batch2","","null","<p class=block-text>Trial 51 out of 78</p>","null","pattern_show_trial_num","","","","","","","","","","","","","","","","","","","","","","","","",""
"","","","","","image-keyboard-response","123","316630","0.0-2.0-7.0-1.11","6100158db3080c7b157e85f1","B2","batch2","","697.7000000178814","stim/yes_14_hor_b1_w.png","f","pattern_response","true","f","pattern_43","697.7000000178814","true","46","","","","","","","","","","","","","","","","","","",""
"","","","","","html-keyboard-response","124","317946","0.0-2.0-7.0-0.12","6100158db3080c7b157e85f1","B2","batch2","","null","<p class=block-text>Trial 52 out of 78</p>","null","pattern_show_trial_num","","","","","","","","","","","","","","","","","","","","","","","","",""
"","","","","","image-keyboard-response","125","319026","0.0-2.0-7.0-1.12","6100158db3080c7b157e85f1","B2","batch2","","1079.199999988079","stim/yes_35_dia_b1.png","f","pattern_response","true","f","pattern_57","1079.199999988079","true","47","","","","","","","","","","","","","","","","","","",""
"","","","","","html-keyboard-response","126","320346","0.0-2.0-7.0-0.13","6100158db3080c7b157e85f1","B2","batch2","","null","<p class=block-text>Trial 53 out of 78</p>","null","pattern_show_trial_num","","","","","","","","","","","","","","","","","","","","","","","","",""
"","","","","","image-keyboard-response","127","324111","0.0-2.0-7.0-1.13","6100158db3080c7b157e85f1","B2","batch2","","3763.7000000178814","stim/yes_40_dia_b1_b.png","f","pattern_response","true","f","pattern_63","3763.7000000178814","true","48","","","","","","","","","","","","","","","","","","",""
"","","","","","html-keyboard-response","128","325426","0.0-2.0-7.0-0.14","6100158db3080c7b157e85f1","B2","batch2","","null","<p class=block-text>Trial 54 out of 78</p>","null","pattern_show_trial_num","","","","","","","","","","","","","","","","","","","","","","","","",""
"","","","","","image-keyboard-response","129","328180","0.0-2.0-7.0-1.14","6100158db3080c7b157e85f1","B2","batch2","","2751.9000000059605","stim/no_65_1_b.png","f","pattern_response","false","j","pattern_38","2751.9000000059605","false","48","","","","","","","","","","","","","","","","","","",""
"","","","","","html-keyboard-response","130","329498","0.0-2.0-7.0-0.15","6100158db3080c7b157e85f1","B2","batch2","","null","<p class=block-text>Trial 55 out of 78</p>","null","pattern_show_trial_num","","","","","","","","","","","","","","","","","","","","","","","","",""
"","","","","","image-keyboard-response","131","331424","0.0-2.0-7.0-1.15","6100158db3080c7b157e85f1","B2","batch2","","1924.0999999940395","stim/no_26_1_w.png","j","pattern_response","true","j","pattern_10","1924.0999999940395","true","49","","","","","","","","","","","","","","","","","","",""
"","","","","","html-keyboard-response","132","332738","0.0-2.0-7.0-0.16","6100158db3080c7b157e85f1","B2","batch2","","null","<p class=block-text>Trial 56 out of 78</p>","null","pattern_show_trial_num","","","","","","","","","","","","","","","","","","","","","","","","",""
"","","","","","image-keyboard-response","133","333561","0.0-2.0-7.0-1.16","6100158db3080c7b157e85f1","B2","batch2","","821.1000000238419","stim/yes_45_hor_b2_b.png","f","pattern_response","true","f","pattern_67","821.1000000238419","true","50","","","","","","","","","","","","","","","","","","",""
"","","","","","html-keyboard-response","134","334882","0.0-2.0-7.0-0.17","6100158db3080c7b157e85f1","B2","batch2","","null","<p class=block-text>Trial 57 out of 78</p>","null","pattern_show_trial_num","","","","","","","","","","","","","","","","","","","","","","","","",""
"","","","","","image-keyboard-response","135","338151","0.0-2.0-7.0-1.17","6100158db3080c7b157e85f1","B2","batch2","","3267.2000000178814","stim/no_29_1_b.png","j","pattern_response","true","j","pattern_12","3267.2000000178814","true","51","","","","","","","","","","","","","","","","","","",""
"","","","","","html-keyboard-response","136","339461","0.0-2.0-7.0-0.18","6100158db3080c7b157e85f1","B2","batch2","","null","<p class=block-text>Trial 58 out of 78</p>","null","pattern_show_trial_num","","","","","","","","","","","","","","","","","","","","","","","","",""
"","","","","","image-keyboard-response","137","340279","0.0-2.0-7.0-1.18","6100158db3080c7b157e85f1","B2","batch2","","815.9000000059605","stim/no_13_2_b.png","j","pattern_response","true","j","pattern_02","815.9000000059605","true","52","","","","","","","","","","","","","","","","","","",""
"","","","","","html-keyboard-response","138","341594","0.0-2.0-7.0-0.19","6100158db3080c7b157e85f1","B2","batch2","","null","<p class=block-text>Trial 59 out of 78</p>","null","pattern_show_trial_num","","","","","","","","","","","","","","","","","","","","","","","","",""
"","","","","","image-keyboard-response","139","345066","0.0-2.0-7.0-1.19","6100158db3080c7b157e85f1","B2","batch2","","3470.399999976158","stim/yes_48_dia_w1_w.png","j","pattern_response","false","f","pattern_69","3470.399999976158","false","52","","","","","","","","","","","","","","","","","","",""
"","","","","","html-keyboard-response","140","346386","0.0-2.0-7.0-0.20","6100158db3080c7b157e85f1","B2","batch2","","null","<p class=block-text>Trial 60 out of 78</p>","null","pattern_show_trial_num","","","","","","","","","","","","","","","","","","","","","","","","",""
"","","","","","image-keyboard-response","141","348185","0.0-2.0-7.0-1.20","6100158db3080c7b157e85f1","B2","batch2","","1786.6000000238419","stim/no_20_1_w.png","j","pattern_response","true","j","pattern_06","1786.6000000238419","true","53","","","","","","","","","","","","","","","","","","",""
"","","","","","html-keyboard-response","142","349495","0.0-2.0-7.0-0.21","6100158db3080c7b157e85f1","B2","batch2","","null","<p class=block-text>Trial 61 out of 78</p>","null","pattern_show_trial_num","","","","","","","","","","","","","","","","","","","","","","","","",""
"","","","","","image-keyboard-response","143","353347","0.0-2.0-7.0-1.21","6100158db3080c7b157e85f1","B2","batch2","","3850","stim/no_36_2_w.png","j","pattern_response","true","j","pattern_18","3850","true","54","","","","","","","","","","","","","","","","","","",""
"","","","","","html-keyboard-response","144","354667","0.0-2.0-7.0-0.22","6100158db3080c7b157e85f1","B2","batch2","","null","<p class=block-text>Trial 62 out of 78</p>","null","pattern_show_trial_num","","","","","","","","","","","","","","","","","","","","","","","","",""
"","","","","","image-keyboard-response","145","357418","0.0-2.0-7.0-1.22","6100158db3080c7b157e85f1","B2","batch2","","2749.2000000178814","stim/no_48_1_w.png","j","pattern_response","true","j","pattern_28","2749.2000000178814","true","55","","","","","","","","","","","","","","","","","","",""
"","","","","","html-keyboard-response","146","358737","0.0-2.0-7.0-0.23","6100158db3080c7b157e85f1","B2","batch2","","null","<p class=block-text>Trial 63 out of 78</p>","null","pattern_show_trial_num","","","","","","","","","","","","","","","","","","","","","","","","",""
"","","","","","image-keyboard-response","147","360031","0.0-2.0-7.0-1.23","6100158db3080c7b157e85f1","B2","batch2","","1292.4000000059605","stim/no_32_1_w.png","j","pattern_response","true","j","pattern_14","1292.4000000059605","true","56","","","","","","","","","","","","","","","","","","",""
"","","","","","html-keyboard-response","148","361347","0.0-2.0-7.0-0.24","6100158db3080c7b157e85f1","B2","batch2","","null","<p class=block-text>Trial 64 out of 78</p>","null","pattern_show_trial_num","","","","","","","","","","","","","","","","","","","","","","","","",""
"","","","","","image-keyboard-response","149","362507","0.0-2.0-7.0-1.24","6100158db3080c7b157e85f1","B2","batch2","","1158.7999999821186","stim/no_23_1.png","j","pattern_response","true","j","pattern_08","1158.7999999821186","true","57","","","","","","","","","","","","","","","","","","",""
"","","","","","html-keyboard-response","150","363827","0.0-2.0-7.0-0.25","6100158db3080c7b157e85f1","B2","batch2","","null","<p class=block-text>Trial 65 out of 78</p>","null","pattern_show_trial_num","","","","","","","","","","","","","","","","","","","","","","","","",""
"","","","","","image-keyboard-response","151","364902","0.0-2.0-7.0-1.25","6100158db3080c7b157e85f1","B2","batch2","","1073.5","stim/yes_28_ver_b1.png","f","pattern_response","true","f","pattern_51","1073.5","true","58","","","","","","","","","","","","","","","","","","",""
"","","","","","html-keyboard-response","152","366219","0.0-2.0-7.0-0.26","6100158db3080c7b157e85f1","B2","batch2","","null","<p class=block-text>Trial 66 out of 78</p>","null","pattern_show_trial_num","","","","","","","","","","","","","","","","","","","","","","","","",""
"","","","","","image-keyboard-response","153","368770","0.0-2.0-7.0-1.26","6100158db3080c7b157e85f1","B2","batch2","","2548.899999976158","stim/no_50_1.png","j","pattern_response","true","j","pattern_30","2548.899999976158","true","59","","","","","","","","","","","","","","","","","","",""
"","","","","","html-keyboard-response","154","370081","0.0-2.0-7.0-0.27","6100158db3080c7b157e85f1","B2","batch2","","null","<p class=block-text>Trial 67 out of 78</p>","null","pattern_show_trial_num","","","","","","","","","","","","","","","","","","","","","","","","",""
"","","","","","image-keyboard-response","155","371046","0.0-2.0-7.0-1.27","6100158db3080c7b157e85f1","B2","batch2","","962.0999999940395","stim/yes_17_dia_w1.png","f","pattern_response","true","f","pattern_45","962.0999999940395","true","60","","","","","","","","","","","","","","","","","","",""
"","","","","","html-keyboard-response","156","372362","0.0-2.0-7.0-0.28","6100158db3080c7b157e85f1","B2","batch2","","null","<p class=block-text>Trial 68 out of 78</p>","null","pattern_show_trial_num","","","","","","","","","","","","","","","","","","","","","","","","",""
"","","","","","image-keyboard-response","157","374068","0.0-2.0-7.0-1.28","6100158db3080c7b157e85f1","B2","batch2","","1704.5","stim/yes_31_hor_b1.png","f","pattern_response","true","f","pattern_55","1704.5","true","61","","","","","","","","","","","","","","","","","","",""
"","","","","","html-keyboard-response","158","375387","0.0-2.0-7.0-0.29","6100158db3080c7b157e85f1","B2","batch2","","null","<p class=block-text>Trial 69 out of 78</p>","null","pattern_show_trial_num","","","","","","","","","","","","","","","","","","","","","","","","",""
"","","","","","image-keyboard-response","159","376815","0.0-2.0-7.0-1.29","6100158db3080c7b157e85f1","B2","batch2","","1425.2999999821186","stim/no_17_1_w.png","j","pattern_response","true","j","pattern_04","1425.2999999821186","true","62","","","","","","","","","","","","","","","","","","",""
"","","","","","html-keyboard-response","160","378131","0.0-2.0-7.0-0.30","6100158db3080c7b157e85f1","B2","batch2","","null","<p class=block-text>Trial 70 out of 78</p>","null","pattern_show_trial_num","","","","","","","","","","","","","","","","","","","","","","","","",""
"","","","","","image-keyboard-response","161","381614","0.0-2.0-7.0-1.30","6100158db3080c7b157e85f1","B2","batch2","","3481","stim/no_55_1_w.png","j","pattern_response","true","j","pattern_34","3481","true","63","","","","","","","","","","","","","","","","","","",""
"","","","","","html-keyboard-response","162","382928","0.0-2.0-7.0-0.31","6100158db3080c7b157e85f1","B2","batch2","","null","<p class=block-text>Trial 71 out of 78</p>","null","pattern_show_trial_num","","","","","","","","","","","","","","","","","","","","","","","","",""
"","","","","","image-keyboard-response","163","383719","0.0-2.0-7.0-1.31","6100158db3080c7b157e85f1","B2","batch2","","788.6999999880791","stim/yes_43_ver_w1_w.png","f","pattern_response","true","f","pattern_65","788.6999999880791","true","64","","","","","","","","","","","","","","","","","","",""
"","","","","","html-keyboard-response","164","385035","0.0-2.0-7.0-0.32","6100158db3080c7b157e85f1","B2","batch2","","null","<p class=block-text>Trial 72 out of 78</p>","null","pattern_show_trial_num","","","","","","","","","","","","","","","","","","","","","","","","",""
"","","","","","image-keyboard-response","165","386947","0.0-2.0-7.0-1.32","6100158db3080c7b157e85f1","B2","batch2","","1909.7000000178814","stim/yes_37_dia_w1.png","f","pattern_response","true","f","pattern_59","1909.7000000178814","true","65","","","","","","","","","","","","","","","","","","",""
"","","","","","html-keyboard-response","166","388268","0.0-2.0-7.0-0.33","6100158db3080c7b157e85f1","B2","batch2","","null","<p class=block-text>Trial 73 out of 78</p>","null","pattern_show_trial_num","","","","","","","","","","","","","","","","","","","","","","","","",""
"","","","","","image-keyboard-response","167","390937","0.0-2.0-7.0-1.33","6100158db3080c7b157e85f1","B2","batch2","","2667.899999976158","stim/no_34_1_b.png","j","pattern_response","true","j","pattern_16","2667.899999976158","true","66","","","","","","","","","","","","","","","","","","",""
"","","","","","html-keyboard-response","168","392252","0.0-2.0-7.0-0.34","6100158db3080c7b157e85f1","B2","batch2","","null","<p class=block-text>Trial 74 out of 78</p>","null","pattern_show_trial_num","","","","","","","","","","","","","","","","","","","","","","","","",""
"","","","","","image-keyboard-response","169","395729","0.0-2.0-7.0-1.34","6100158db3080c7b157e85f1","B2","batch2","","3475","stim/no_70_2.png","j","pattern_response","true","j","pattern_40","3475","true","67","","","","","","","","","","","","","","","","","","",""
"","","","","","html-keyboard-response","170","397044","0.0-2.0-7.0-0.35","6100158db3080c7b157e85f1","B2","batch2","","null","<p class=block-text>Trial 75 out of 78</p>","null","pattern_show_trial_num","","","","","","","","","","","","","","","","","","","","","","","","",""
"","","","","","image-keyboard-response","171","397976","0.0-2.0-7.0-1.35","6100158db3080c7b157e85f1","B2","batch2","","929.5999999940395","stim/yes_38_hor_b1_b.png","f","pattern_response","true","f","pattern_61","929.5999999940395","true","68","","","","","","","","","","","","","","","","","","",""
"","","","","","html-keyboard-response","172","399292","0.0-2.0-7.0-0.36","6100158db3080c7b157e85f1","B2","batch2","","null","<p class=block-text>Trial 76 out of 78</p>","null","pattern_show_trial_num","","","","","","","","","","","","","","","","","","","","","","","","",""
"","","","","","image-keyboard-response","173","403621","0.0-2.0-7.0-1.36","6100158db3080c7b157e85f1","B2","batch2","","4327.199999988079","stim/no_62_1_w.png","j","pattern_response","true","j","pattern_36","4327.199999988079","true","69","","","","","","","","","","","","","","","","","","",""
"","","","","","html-keyboard-response","174","404940","0.0-2.0-7.0-0.37","6100158db3080c7b157e85f1","B2","batch2","","null","<p class=block-text>Trial 77 out of 78</p>","null","pattern_show_trial_num","","","","","","","","","","","","","","","","","","","","","","","","",""
"","","","","","image-keyboard-response","175","405871","0.0-2.0-7.0-1.37","6100158db3080c7b157e85f1","B2","batch2","","929.1000000238419","stim/yes_60_ver_b1_b.png","f","pattern_response","true","f","pattern_77","929.1000000238419","true","70","","","","","","","","","","","","","","","","","","",""
"","","","","","html-keyboard-response","176","407188","0.0-2.0-7.0-0.38","6100158db3080c7b157e85f1","B2","batch2","","null","<p class=block-text>Trial 78 out of 78</p>","null","pattern_show_trial_num","","","","","","","","","","","","","","","","","","","","","","","","",""
"","","","","","image-keyboard-response","177","410073","0.0-2.0-7.0-1.38","6100158db3080c7b157e85f1","B2","batch2","","2882.7999999821186","stim/no_46_1_b.png","j","pattern_response","true","j","pattern_26","2882.7999999821186","true","71","","","","","","","","","","","","","","","","","","",""
"","","","","","html-button-response","178","415746","0.0-2.0-8.0","6100158db3080c7b157e85f1","B2","batch2","","5166.300000011921","<p class = block-text>This concludes the 4-in-a-row detection game.Thank you for your responses!<br>
            You responded correctly on 91% of the trials.<br>
            When you are ready, press ""Continue"" button to continue </p>","0","","","","","","","","","","","","","","","","","","","","","","","","","",""
"true","","","","","fullscreen","179","418773","0.0-3.0-0.0","6100158db3080c7b157e85f1","B2","batch2","","","","","spm_fullscreen","","","","","","","","","","","","","","","","","","","","","","","","",""
"","","","","","html-button-response","180","427347","0.0-3.0-1.0","6100158db3080c7b157e85f1","B2","batch2","","8572.600000023842","<p class = block-text><b>Instructions</b> <br>This is a widely used intelligence test in research. <br>In this test, a figure with a missing piece will be presented.<br>Below the figure are alternative pieces to complete the figure, only one of which is correct.<br> Different figures might involve different principles for obtaining the missing piece<br>Your job is to select the most logical piece to complete the figure.</p>","0","","","","","","","","","","","","","","","","","","","","","","","","","",""
"","","","","","html-keyboard-response","181","428153","0.0-3.0-2.0-0.0","6100158db3080c7b157e85f1","B2","batch2","","null","<p class=block-text>Trial 1 out of 60</p>","null","spm_show_trial_num","","","","","","","","","","","","","","","","","","","","","","","","",""
"","","","","","image-button-response","182","434574","0.0-3.0-2.0-1.0","6100158db3080c7b157e85f1","B2","batch2","","6417.5999999940395","img/question_1_1.jpeg","3","spm_respsonse","1","4","mat_01","","","","","","1","6417.5999999940395","","","","","","","","","","","","","","",""
"","","","","","html-keyboard-response","183","435641","0.0-3.0-2.0-0.1","6100158db3080c7b157e85f1","B2","batch2","","null","<p class=block-text>Trial 2 out of 60</p>","null","spm_show_trial_num","","","","","","","","","","","","","","","","","","","","","","","","",""
"","","","","","image-button-response","184","438989","0.0-3.0-2.0-1.1","6100158db3080c7b157e85f1","B2","batch2","","3345.2000000178814","img/question_1_2.jpeg","4","spm_respsonse","1","5","mat_02","","","","","","1","3345.2000000178814","","","","","","","","","","","","","","",""
"","","","","","html-keyboard-response","185","440053","0.0-3.0-2.0-0.2","6100158db3080c7b157e85f1","B2","batch2","","null","<p class=block-text>Trial 3 out of 60</p>","null","spm_show_trial_num","","","","","","","","","","","","","","","","","","","","","","","","",""
"","","","","","image-button-response","186","445525","0.0-3.0-2.0-1.2","6100158db3080c7b157e85f1","B2","batch2","","5468.5999999940395","img/question_1_3.jpeg","0","spm_respsonse","1","1","mat_03","","","","","","1","5468.5999999940395","","","","","","","","","","","","","","",""
"","","","","","html-keyboard-response","187","446589","0.0-3.0-2.0-0.3","6100158db3080c7b157e85f1","B2","batch2","","null","<p class=block-text>Trial 4 out of 60</p>","null","spm_show_trial_num","","","","","","","","","","","","","","","","","","","","","","","","",""
"","","","","","image-button-response","188","449789","0.0-3.0-2.0-1.3","6100158db3080c7b157e85f1","B2","batch2","","3196.2000000178814","img/question_1_4.jpeg","1","spm_respsonse","1","2","mat_04","","","","","","1","3196.2000000178814","","","","","","","","","","","","","","",""
"","","","","","html-keyboard-response","189","450854","0.0-3.0-2.0-0.4","6100158db3080c7b157e85f1","B2","batch2","","null","<p class=block-text>Trial 5 out of 60</p>","null","spm_show_trial_num","","","","","","","","","","","","","","","","","","","","","","","","",""
"","","","","","image-button-response","190","453161","0.0-3.0-2.0-1.4","6100158db3080c7b157e85f1","B2","batch2","","2295.600000023842","img/question_1_5.jpeg","5","spm_respsonse","1","6","mat_05","","","","","","1","2295.600000023842","","","","","","","","","","","","","","",""
"","","","","","html-keyboard-response","191","454225","0.0-3.0-2.0-0.5","6100158db3080c7b157e85f1","B2","batch2","","null","<p class=block-text>Trial 6 out of 60</p>","null","spm_show_trial_num","","","","","","","","","","","","","","","","","","","","","","","","",""
"","","","","","image-button-response","192","458890","0.0-3.0-2.0-1.5","6100158db3080c7b157e85f1","B2","batch2","","4662.199999988079","img/question_1_6.jpeg","2","spm_respsonse","1","3","mat_06","","","","","","1","4662.199999988079","","","","","","","","","","","","","","",""
"","","","","","html-keyboard-response","193","459958","0.0-3.0-2.0-0.6","6100158db3080c7b157e85f1","B2","batch2","","null","<p class=block-text>Trial 7 out of 60</p>","null","spm_show_trial_num","","","","","","","","","","","","","","","","","","","","","","","","",""
"","","","","","image-button-response","194","465936","0.0-3.0-2.0-1.6","6100158db3080c7b157e85f1","B2","batch2","","5975.200000017881","img/question_1_7.jpeg","5","spm_respsonse","1","6","mat_07","","","","","","1","5975.200000017881","","","","","","","","","","","","","","",""
"","","","","","html-keyboard-response","195","467006","0.0-3.0-2.0-0.7","6100158db3080c7b157e85f1","B2","batch2","","null","<p class=block-text>Trial 8 out of 60</p>","null","spm_show_trial_num","","","","","","","","","","","","","","","","","","","","","","","","",""
"","","","","","image-button-response","196","473965","0.0-3.0-2.0-1.7","6100158db3080c7b157e85f1","B2","batch2","","6956","img/question_1_8.jpeg","1","spm_respsonse","1","2","mat_08","","","","","","1","6956","","","","","","","","","","","","","","",""
"","","","","","html-keyboard-response","197","475030","0.0-3.0-2.0-0.8","6100158db3080c7b157e85f1","B2","batch2","","null","<p class=block-text>Trial 9 out of 60</p>","null","spm_show_trial_num","","","","","","","","","","","","","","","","","","","","","","","","",""
"","","","","","image-button-response","198","479101","0.0-3.0-2.0-1.8","6100158db3080c7b157e85f1","B2","batch2","","4068.0999999940395","img/question_1_9.jpeg","0","spm_respsonse","1","1","mat_09","","","","","","1","4068.0999999940395","","","","","","","","","","","","","","",""
"","","","","","html-keyboard-response","199","480166","0.0-3.0-2.0-0.9","6100158db3080c7b157e85f1","B2","batch2","","null","<p class=block-text>Trial 10 out of 60</p>","null","spm_show_trial_num","","","","","","","","","","","","","","","","","","","","","","","","",""
"","","","","","image-button-response","200","485404","0.0-3.0-2.0-1.9","6100158db3080c7b157e85f1","B2","batch2","","5235.800000011921","img/question_1_10.jpeg","2","spm_respsonse","1","3","mat_10","","","","","","1","5235.800000011921","","","","","","","","","","","","","","",""
"","","","","","html-keyboard-response","201","486470","0.0-3.0-2.0-0.10","6100158db3080c7b157e85f1","B2","batch2","","null","<p class=block-text>Trial 11 out of 60</p>","null","spm_show_trial_num","","","","","","","","","","","","","","","","","","","","","","","","",""
"","","","","","image-button-response","202","506124","0.0-3.0-2.0-1.10","6100158db3080c7b157e85f1","B2","batch2","","19650.59999999404","img/question_1_11.jpeg","3","spm_respsonse","1","4","mat_11","","","","","","1","19650.59999999404","","","","","","","","","","","","","","",""
"","","","","","html-keyboard-response","203","507187","0.0-3.0-2.0-0.11","6100158db3080c7b157e85f1","B2","batch2","","null","<p class=block-text>Trial 12 out of 60</p>","null","spm_show_trial_num","","","","","","","","","","","","","","","","","","","","","","","","",""
"","","","","","image-button-response","204","517170","0.0-3.0-2.0-1.11","6100158db3080c7b157e85f1","B2","batch2","","9979.59999999404","img/question_1_12.jpeg","5","spm_respsonse","0","5","mat_12","","","","","","0","9979.59999999404","","","","","","","","","","","","","","",""
"","","","","","html-keyboard-response","205","518239","0.0-3.0-2.0-0.12","6100158db3080c7b157e85f1","B2","batch2","","null","<p class=block-text>Trial 13 out of 60</p>","null","spm_show_trial_num","","","","","","","","","","","","","","","","","","","","","","","","",""
"","","","","","image-button-response","206","525405","0.0-3.0-2.0-1.12","6100158db3080c7b157e85f1","B2","batch2","","7162.5999999940395","img/question_2_1.jpeg","1","spm_respsonse","1","2","mat_13","","","","","","1","7162.5999999940395","","","","","","","","","","","","","","",""
"","","","","","html-keyboard-response","207","526468","0.0-3.0-2.0-0.13","6100158db3080c7b157e85f1","B2","batch2","","null","<p class=block-text>Trial 14 out of 60</p>","null","spm_show_trial_num","","","","","","","","","","","","","","","","","","","","","","","","",""
"","","","","","image-button-response","208","531802","0.0-3.0-2.0-1.13","6100158db3080c7b157e85f1","B2","batch2","","5331.4000000059605","img/question_2_2.jpeg","5","spm_respsonse","1","6","mat_14","","","","","","1","5331.4000000059605","","","","","","","","","","","","","","",""
"","","","","","html-keyboard-response","209","532868","0.0-3.0-2.0-0.14","6100158db3080c7b157e85f1","B2","batch2","","null","<p class=block-text>Trial 15 out of 60</p>","null","spm_show_trial_num","","","","","","","","","","","","","","","","","","","","","","","","",""
"","","","","","image-button-response","210","536767","0.0-3.0-2.0-1.14","6100158db3080c7b157e85f1","B2","batch2","","3896.2000000178814","img/question_2_3.jpeg","0","spm_respsonse","1","1","mat_15","","","","","","1","3896.2000000178814","","","","","","","","","","","","","","",""
"","","","","","html-keyboard-response","211","537827","0.0-3.0-2.0-0.15","6100158db3080c7b157e85f1","B2","batch2","","null","<p class=block-text>Trial 16 out of 60</p>","null","spm_show_trial_num","","","","","","","","","","","","","","","","","","","","","","","","",""
"","","","","","image-button-response","212","544605","0.0-3.0-2.0-1.15","6100158db3080c7b157e85f1","B2","batch2","","6774.800000011921","img/question_2_4.jpeg","1","spm_respsonse","1","2","mat_16","","","","","","1","6774.800000011921","","","","","","","","","","","","","","",""
"","","","","","html-keyboard-response","213","545667","0.0-3.0-2.0-0.16","6100158db3080c7b157e85f1","B2","batch2","","null","<p class=block-text>Trial 17 out of 60</p>","null","spm_show_trial_num","","","","","","","","","","","","","","","","","","","","","","","","",""
"","","","","","image-button-response","214","552495","0.0-3.0-2.0-1.16","6100158db3080c7b157e85f1","B2","batch2","","6824.9000000059605","img/question_2_5.jpeg","0","spm_respsonse","1","1","mat_17","","","","","","1","6824.9000000059605","","","","","","","","","","","","","","",""
"","","","","","html-keyboard-response","215","553561","0.0-3.0-2.0-0.17","6100158db3080c7b157e85f1","B2","batch2","","null","<p class=block-text>Trial 18 out of 60</p>","null","spm_show_trial_num","","","","","","","","","","","","","","","","","","","","","","","","",""
"","","","","","image-button-response","216","560134","0.0-3.0-2.0-1.17","6100158db3080c7b157e85f1","B2","batch2","","6570.300000011921","img/question_2_6.jpeg","2","spm_respsonse","1","3","mat_18","","","","","","1","6570.300000011921","","","","","","","","","","","","","","",""
"","","","","","html-keyboard-response","217","561201","0.0-3.0-2.0-0.18","6100158db3080c7b157e85f1","B2","batch2","","null","<p class=block-text>Trial 19 out of 60</p>","null","spm_show_trial_num","","","","","","","","","","","","","","","","","","","","","","","","",""
"","","","","","image-button-response","218","566967","0.0-3.0-2.0-1.18","6100158db3080c7b157e85f1","B2","batch2","","5762.800000011921","img/question_2_7.jpeg","4","spm_respsonse","1","5","mat_19","","","","","","1","5762.800000011921","","","","","","","","","","","","","","",""
"","","","","","html-keyboard-response","219","568033","0.0-3.0-2.0-0.19","6100158db3080c7b157e85f1","B2","batch2","","null","<p class=block-text>Trial 20 out of 60</p>","null","spm_show_trial_num","","","","","","","","","","","","","","","","","","","","","","","","",""
"","","","","","image-button-response","220","576586","0.0-3.0-2.0-1.19","6100158db3080c7b157e85f1","B2","batch2","","8550.200000017881","img/question_2_8.jpeg","5","spm_respsonse","1","6","mat_20","","","","","","1","8550.200000017881","","","","","","","","","","","","","","",""
"","","","","","html-keyboard-response","221","577657","0.0-3.0-2.0-0.20","6100158db3080c7b157e85f1","B2","batch2","","null","<p class=block-text>Trial 21 out of 60</p>","null","spm_show_trial_num","","","","","","","","","","","","","","","","","","","","","","","","",""
"","","","","","image-button-response","222","585125","0.0-3.0-2.0-1.20","6100158db3080c7b157e85f1","B2","batch2","","7464.4000000059605","img/question_2_9.jpeg","3","spm_respsonse","1","4","mat_21","","","","","","1","7464.4000000059605","","","","","","","","","","","","","","",""
"","","","","","html-keyboard-response","223","586190","0.0-3.0-2.0-0.21","6100158db3080c7b157e85f1","B2","batch2","","null","<p class=block-text>Trial 22 out of 60</p>","null","spm_show_trial_num","","","","","","","","","","","","","","","","","","","","","","","","",""
"","","","","","image-button-response","224","592578","0.0-3.0-2.0-1.21","6100158db3080c7b157e85f1","B2","batch2","","6385.5999999940395","img/question_2_10.jpeg","2","spm_respsonse","1","3","mat_22","","","","","","1","6385.5999999940395","","","","","","","","","","","","","","",""
"","","","","","html-keyboard-response","225","593638","0.0-3.0-2.0-0.22","6100158db3080c7b157e85f1","B2","batch2","","null","<p class=block-text>Trial 23 out of 60</p>","null","spm_show_trial_num","","","","","","","","","","","","","","","","","","","","","","","","",""
"","","","","","image-button-response","226","603568","0.0-3.0-2.0-1.22","6100158db3080c7b157e85f1","B2","batch2","","9926.799999982119","img/question_2_11.jpeg","3","spm_respsonse","1","4","mat_23","","","","","","1","9926.799999982119","","","","","","","","","","","","","","",""
"","","","","","html-keyboard-response","227","604631","0.0-3.0-2.0-0.23","6100158db3080c7b157e85f1","B2","batch2","","null","<p class=block-text>Trial 24 out of 60</p>","null","spm_show_trial_num","","","","","","","","","","","","","","","","","","","","","","","","",""
"","","","","","image-button-response","228","627963","0.0-3.0-2.0-1.23","6100158db3080c7b157e85f1","B2","batch2","","23329.100000023842","img/question_2_12.jpeg","4","spm_respsonse","1","5","mat_24","","","","","","1","23329.100000023842","","","","","","","","","","","","","","",""
"","","","","","html-button-response","229","630176","0.0-3.0-3.0","6100158db3080c7b157e85f1","B2","batch2","","1955.4000000059605","<p class = block-text>Attention check: Please choose 1<br></p>","0","attention_check","true","","","","","","","","","","","","","","","","","","","","","","","",""
"","","","","","html-keyboard-response","230","630979","0.0-3.0-4.0-0.0","6100158db3080c7b157e85f1","B2","batch2","","null","<p class=block-text>Trial 25 out of 60</p>","null","spm_show_trial_num","","","","","","","","","","","","","","","","","","","","","","","","",""
"","","","","","image-button-response","231","640916","0.0-3.0-4.0-1.0","6100158db3080c7b157e85f1","B2","batch2","","9934","img/question_3_1.jpeg","7","spm_respsonse","1","8","mat_25","","","","","","1","9934","","","","","","","","","","","","","","",""
"","","","","","html-keyboard-response","232","641982","0.0-3.0-4.0-0.1","6100158db3080c7b157e85f1","B2","batch2","","null","<p class=block-text>Trial 26 out of 60</p>","null","spm_show_trial_num","","","","","","","","","","","","","","","","","","","","","","","","",""
"","","","","","image-button-response","233","651784","0.0-3.0-4.0-1.1","6100158db3080c7b157e85f1","B2","batch2","","9799.09999999404","img/question_3_2.jpeg","1","spm_respsonse","1","2","mat_26","","","","","","1","9799.09999999404","","","","","","","","","","","","","","",""
"","","","","","html-keyboard-response","234","652848","0.0-3.0-4.0-0.2","6100158db3080c7b157e85f1","B2","batch2","","null","<p class=block-text>Trial 27 out of 60</p>","null","spm_show_trial_num","","","","","","","","","","","","","","","","","","","","","","","","",""
"","","","","","image-button-response","235","662300","0.0-3.0-4.0-1.2","6100158db3080c7b157e85f1","B2","batch2","","9448.799999982119","img/question_3_3.jpeg","2","spm_respsonse","1","3","mat_27","","","","","","1","9448.799999982119","","","","","","","","","","","","","","",""
"","","","","","html-keyboard-response","236","663360","0.0-3.0-4.0-0.3","6100158db3080c7b157e85f1","B2","batch2","","null","<p class=block-text>Trial 28 out of 60</p>","null","spm_show_trial_num","","","","","","","","","","","","","","","","","","","","","","","","",""
"","","","","","image-button-response","237","677460","0.0-3.0-4.0-1.3","6100158db3080c7b157e85f1","B2","batch2","","14096.40000000596","img/question_3_4.jpeg","2","spm_respsonse","0","8","mat_28","","","","","","0","14096.40000000596","","","","","","","","","","","","","","",""
"","","","","","html-keyboard-response","238","678524","0.0-3.0-4.0-0.4","6100158db3080c7b157e85f1","B2","batch2","","null","<p class=block-text>Trial 29 out of 60</p>","null","spm_show_trial_num","","","","","","","","","","","","","","","","","","","","","","","","",""
"","","","","","image-button-response","239","701634","0.0-3.0-4.0-1.4","6100158db3080c7b157e85f1","B2","batch2","","23105.90000000596","img/question_3_5.jpeg","6","spm_respsonse","1","7","mat_29","","","","","","1","23105.90000000596","","","","","","","","","","","","","","",""
"","","","","","html-keyboard-response","240","702701","0.0-3.0-4.0-0.5","6100158db3080c7b157e85f1","B2","batch2","","null","<p class=block-text>Trial 30 out of 60</p>","null","spm_show_trial_num","","","","","","","","","","","","","","","","","","","","","","","","",""
"","","","","","image-button-response","241","713607","0.0-3.0-4.0-1.5","6100158db3080c7b157e85f1","B2","batch2","","10902.800000011921","img/question_3_6.jpeg","3","spm_respsonse","1","4","mat_30","","","","","","1","10902.800000011921","","","","","","","","","","","","","","",""
"","","","","","html-keyboard-response","242","714677","0.0-3.0-4.0-0.6","6100158db3080c7b157e85f1","B2","batch2","","null","<p class=block-text>Trial 31 out of 60</p>","null","spm_show_trial_num","","","","","","","","","","","","","","","","","","","","","","","","",""
"","","","","","image-button-response","243","725701","0.0-3.0-4.0-1.6","6100158db3080c7b157e85f1","B2","batch2","","11020.300000011921","img/question_3_7.jpeg","4","spm_respsonse","1","5","mat_31","","","","","","1","11020.300000011921","","","","","","","","","","","","","","",""
"","","","","","html-keyboard-response","244","726766","0.0-3.0-4.0-0.7","6100158db3080c7b157e85f1","B2","batch2","","null","<p class=block-text>Trial 32 out of 60</p>","null","spm_show_trial_num","","","","","","","","","","","","","","","","","","","","","","","","",""
"","","","","","image-button-response","245","743369","0.0-3.0-4.0-1.7","6100158db3080c7b157e85f1","B2","batch2","","16599.29999998212","img/question_3_8.jpeg","0","spm_respsonse","1","1","mat_32","","","","","","1","16599.29999998212","","","","","","","","","","","","","","",""
"","","","","","html-keyboard-response","246","744431","0.0-3.0-4.0-0.8","6100158db3080c7b157e85f1","B2","batch2","","null","<p class=block-text>Trial 33 out of 60</p>","null","spm_show_trial_num","","","","","","","","","","","","","","","","","","","","","","","","",""
"","","","","","image-button-response","247","747409","0.0-3.0-4.0-1.8","6100158db3080c7b157e85f1","B2","batch2","","2974.800000011921","img/question_3_9.jpeg","4","spm_respsonse","0","7","mat_33","","","","","","0","2974.800000011921","","","","","","","","","","","","","","",""
"","","","","","html-keyboard-response","248","748478","0.0-3.0-4.0-0.9","6100158db3080c7b157e85f1","B2","batch2","","null","<p class=block-text>Trial 34 out of 60</p>","null","spm_show_trial_num","","","","","","","","","","","","","","","","","","","","","","","","",""
"","","","","","image-button-response","249","755840","0.0-3.0-4.0-1.9","6100158db3080c7b157e85f1","B2","batch2","","7358.799999982119","img/question_3_10.jpeg","7","spm_respsonse","0","6","mat_34","","","","","","0","7358.799999982119","","","","","","","","","","","","","","",""
"","","","","","html-keyboard-response","250","756911","0.0-3.0-4.0-0.10","6100158db3080c7b157e85f1","B2","batch2","","null","<p class=block-text>Trial 35 out of 60</p>","null","spm_show_trial_num","","","","","","","","","","","","","","","","","","","","","","","","",""
"","","","","","image-button-response","251","807288","0.0-3.0-4.0-1.10","6100158db3080c7b157e85f1","B2","batch2","","50372.19999998808","img/question_3_11.jpeg","7","spm_respsonse","0","1","mat_35","","","","","","0","50372.19999998808","","","","","","","","","","","","","","",""
"","","","","","html-keyboard-response","252","808356","0.0-3.0-4.0-0.11","6100158db3080c7b157e85f1","B2","batch2","","null","<p class=block-text>Trial 36 out of 60</p>","null","spm_show_trial_num","","","","","","","","","","","","","","","","","","","","","","","","",""
"","","","","","image-button-response","253","811741","0.0-3.0-4.0-1.11","6100158db3080c7b157e85f1","B2","batch2","","3381.2999999821186","img/question_3_12.jpeg","7","spm_respsonse","0","2","mat_36","","","","","","0","3381.2999999821186","","","","","","","","","","","","","","",""
"","","","","","html-keyboard-response","254","812807","0.0-3.0-4.0-0.12","6100158db3080c7b157e85f1","B2","batch2","","null","<p class=block-text>Trial 37 out of 60</p>","null","spm_show_trial_num","","","","","","","","","","","","","","","","","","","","","","","","",""
"","","","","","image-button-response","255","816237","0.0-3.0-4.0-1.12","6100158db3080c7b157e85f1","B2","batch2","","3427.2999999821186","img/question_4_1.jpeg","2","spm_respsonse","1","3","mat_37","","","","","","1","3427.2999999821186","","","","","","","","","","","","","","",""
"","","","","","html-keyboard-response","256","817304","0.0-3.0-4.0-0.13","6100158db3080c7b157e85f1","B2","batch2","","null","<p class=block-text>Trial 38 out of 60</p>","null","spm_show_trial_num","","","","","","","","","","","","","","","","","","","","","","","","",""
"","","","","","image-button-response","257","825050","0.0-3.0-4.0-1.13","6100158db3080c7b157e85f1","B2","batch2","","7742.199999988079","img/question_4_2.jpeg","3","spm_respsonse","1","4","mat_38","","","","","","1","7742.199999988079","","","","","","","","","","","","","","",""
"","","","","","html-keyboard-response","258","826121","0.0-3.0-4.0-0.14","6100158db3080c7b157e85f1","B2","batch2","","null","<p class=block-text>Trial 39 out of 60</p>","null","spm_show_trial_num","","","","","","","","","","","","","","","","","","","","","","","","",""
"","","","","","image-button-response","259","834090","0.0-3.0-4.0-1.14","6100158db3080c7b157e85f1","B2","batch2","","7965.699999988079","img/question_4_3.jpeg","2","spm_respsonse","1","3","mat_39","","","","","","1","7965.699999988079","","","","","","","","","","","","","","",""
"","","","","","html-keyboard-response","260","835161","0.0-3.0-4.0-0.15","6100158db3080c7b157e85f1","B2","batch2","","null","<p class=block-text>Trial 40 out of 60</p>","null","spm_show_trial_num","","","","","","","","","","","","","","","","","","","","","","","","",""
"","","","","","image-button-response","261","863673","0.0-3.0-4.0-1.15","6100158db3080c7b157e85f1","B2","batch2","","28507.80000001192","img/question_4_4.jpeg","6","spm_respsonse","1","7","mat_40","","","","","","1","28507.80000001192","","","","","","","","","","","","","","",""
"","","","","","html-keyboard-response","262","864738","0.0-3.0-4.0-0.16","6100158db3080c7b157e85f1","B2","batch2","","null","<p class=block-text>Trial 41 out of 60</p>","null","spm_show_trial_num","","","","","","","","","","","","","","","","","","","","","","","","",""
"","","","","","image-button-response","263","873491","0.0-3.0-4.0-1.16","6100158db3080c7b157e85f1","B2","batch2","","8750.59999999404","img/question_4_5.jpeg","7","spm_respsonse","1","8","mat_41","","","","","","1","8750.59999999404","","","","","","","","","","","","","","",""
"","","","","","html-keyboard-response","264","874562","0.0-3.0-4.0-0.17","6100158db3080c7b157e85f1","B2","batch2","","null","<p class=block-text>Trial 42 out of 60</p>","null","spm_show_trial_num","","","","","","","","","","","","","","","","","","","","","","","","",""
"","","","","","image-button-response","265","895979","0.0-3.0-4.0-1.17","6100158db3080c7b157e85f1","B2","batch2","","21413.09999999404","img/question_4_6.jpeg","5","spm_respsonse","1","6","mat_42","","","","","","1","21413.09999999404","","","","","","","","","","","","","","",""
"","","","","","html-keyboard-response","266","897042","0.0-3.0-4.0-0.18","6100158db3080c7b157e85f1","B2","batch2","","null","<p class=block-text>Trial 43 out of 60</p>","null","spm_show_trial_num","","","","","","","","","","","","","","","","","","","","","","","","",""
"","","","","","image-button-response","267","933233","0.0-3.0-4.0-1.18","6100158db3080c7b157e85f1","B2","batch2","","36186.90000000596","img/question_4_7.jpeg","7","spm_respsonse","0","5","mat_43","","","","","","0","36186.90000000596","","","","","","","","","","","","","","",""
"","","","","","html-keyboard-response","268","934295","0.0-3.0-4.0-0.19","6100158db3080c7b157e85f1","B2","batch2","","null","<p class=block-text>Trial 44 out of 60</p>","null","spm_show_trial_num","","","","","","","","","","","","","","","","","","","","","","","","",""
"","","","","","image-button-response","269","953591","0.0-3.0-4.0-1.19","6100158db3080c7b157e85f1","B2","batch2","","19291.899999976158","img/question_4_8.jpeg","3","spm_respsonse","1","4","mat_44","","","","","","1","19291.899999976158","","","","","","","","","","","","","","",""
"","","","","","html-keyboard-response","270","954661","0.0-3.0-4.0-0.20","6100158db3080c7b157e85f1","B2","batch2","","null","<p class=block-text>Trial 45 out of 60</p>","null","spm_show_trial_num","","","","","","","","","","","","","","","","","","","","","","","","",""
"","","","","","image-button-response","271","973753","0.0-3.0-4.0-1.20","6100158db3080c7b157e85f1","B2","batch2","","19088.59999999404","img/question_4_9.jpeg","2","spm_respsonse","0","1","mat_45","","","","","","0","19088.59999999404","","","","","","","","","","","","","","",""
"","","","","","html-keyboard-response","272","974820","0.0-3.0-4.0-0.21","6100158db3080c7b157e85f1","B2","batch2","","null","<p class=block-text>Trial 46 out of 60</p>","null","spm_show_trial_num","","","","","","","","","","","","","","","","","","","","","","","","",""
"","","","","","image-button-response","273","986067","0.0-3.0-4.0-1.21","6100158db3080c7b157e85f1","B2","batch2","","11243.800000011921","img/question_4_10.jpeg","7","spm_respsonse","0","2","mat_46","","","","","","0","11243.800000011921","","","","","","","","","","","","","","",""
"","","","","","html-keyboard-response","274","987131","0.0-3.0-4.0-0.22","6100158db3080c7b157e85f1","B2","batch2","","null","<p class=block-text>Trial 47 out of 60</p>","null","spm_show_trial_num","","","","","","","","","","","","","","","","","","","","","","","","",""
"","","","","","image-button-response","275","1018050","0.0-3.0-4.0-1.22","6100158db3080c7b157e85f1","B2","batch2","","30914.40000000596","img/question_4_11.jpeg","6","spm_respsonse","0","5","mat_47","","","","","","0","30914.40000000596","","","","","","","","","","","","","","",""
"","","","","","html-keyboard-response","276","1019118","0.0-3.0-4.0-0.23","6100158db3080c7b157e85f1","B2","batch2","","null","<p class=block-text>Trial 48 out of 60</p>","null","spm_show_trial_num","","","","","","","","","","","","","","","","","","","","","","","","",""
"","","","","","image-button-response","277","1047344","0.0-3.0-4.0-1.23","6100158db3080c7b157e85f1","B2","batch2","","28221.59999999404","img/question_4_12.jpeg","6","spm_respsonse","0","6","mat_48","","","","","","0","28221.59999999404","","","","","","","","","","","","","","",""
"","","","","","html-keyboard-response","278","1048411","0.0-3.0-4.0-0.24","6100158db3080c7b157e85f1","B2","batch2","","null","<p class=block-text>Trial 49 out of 60</p>","null","spm_show_trial_num","","","","","","","","","","","","","","","","","","","","","","","","",""
"","","","","","image-button-response","279","1061285","0.0-3.0-4.0-1.24","6100158db3080c7b157e85f1","B2","batch2","","12870.100000023842","img/question_5_1.jpeg","6","spm_respsonse","1","7","mat_49","","","","","","1","12870.100000023842","","","","","","","","","","","","","","",""
"","","","","","html-keyboard-response","280","1062352","0.0-3.0-4.0-0.25","6100158db3080c7b157e85f1","B2","batch2","","null","<p class=block-text>Trial 50 out of 60</p>","null","spm_show_trial_num","","","","","","","","","","","","","","","","","","","","","","","","",""
"","","","","","image-button-response","281","1073338","0.0-3.0-4.0-1.25","6100158db3080c7b157e85f1","B2","batch2","","10979.40000000596","img/question_5_2.jpeg","0","spm_respsonse","0","6","mat_50","","","","","","0","10979.40000000596","","","","","","","","","","","","","","",""
"","","","","","html-keyboard-response","282","1074400","0.0-3.0-4.0-0.26","6100158db3080c7b157e85f1","B2","batch2","","null","<p class=block-text>Trial 51 out of 60</p>","null","spm_show_trial_num","","","","","","","","","","","","","","","","","","","","","","","","",""
"","","","","","image-button-response","283","1079310","0.0-3.0-4.0-1.26","6100158db3080c7b157e85f1","B2","batch2","","4904.800000011921","img/question_5_3.jpeg","4","spm_respsonse","0","8","mat_51","","","","","","0","4904.800000011921","","","","","","","","","","","","","","",""
"","","","","","html-keyboard-response","284","1080374","0.0-3.0-4.0-0.27","6100158db3080c7b157e85f1","B2","batch2","","null","<p class=block-text>Trial 52 out of 60</p>","null","spm_show_trial_num","","","","","","","","","","","","","","","","","","","","","","","","",""
"","","","","","image-button-response","285","1083037","0.0-3.0-4.0-1.27","6100158db3080c7b157e85f1","B2","batch2","","2659.199999988079","img/question_5_4.jpeg","7","spm_respsonse","0","2","mat_52","","","","","","0","2659.199999988079","","","","","","","","","","","","","","",""
"","","","","","html-keyboard-response","286","1084103","0.0-3.0-4.0-0.28","6100158db3080c7b157e85f1","B2","batch2","","null","<p class=block-text>Trial 53 out of 60</p>","null","spm_show_trial_num","","","","","","","","","","","","","","","","","","","","","","","","",""
"","","","","","image-button-response","287","1091472","0.0-3.0-4.0-1.28","6100158db3080c7b157e85f1","B2","batch2","","7364.4000000059605","img/question_5_5.jpeg","4","spm_respsonse","0","1","mat_53","","","","","","0","7364.4000000059605","","","","","","","","","","","","","","",""
"","","","","","html-keyboard-response","288","1092537","0.0-3.0-4.0-0.29","6100158db3080c7b157e85f1","B2","batch2","","null","<p class=block-text>Trial 54 out of 60</p>","null","spm_show_trial_num","","","","","","","","","","","","","","","","","","","","","","","","",""
"","","","","","image-button-response","289","1094907","0.0-3.0-4.0-1.29","6100158db3080c7b157e85f1","B2","batch2","","2367","img/question_5_6.jpeg","2","spm_respsonse","0","5","mat_54","","","","","","0","2367","","","","","","","","","","","","","","",""
"","","","","","html-keyboard-response","290","1095978","0.0-3.0-4.0-0.30","6100158db3080c7b157e85f1","B2","batch2","","null","<p class=block-text>Trial 55 out of 60</p>","null","spm_show_trial_num","","","","","","","","","","","","","","","","","","","","","","","","",""
"","","","","","image-button-response","291","1105543","0.0-3.0-4.0-1.30","6100158db3080c7b157e85f1","B2","batch2","","9560.300000011921","img/question_5_7.jpeg","1","spm_respsonse","0","1","mat_55","","","","","","0","9560.300000011921","","","","","","","","","","","","","","",""
"","","","","","html-keyboard-response","292","1106611","0.0-3.0-4.0-0.31","6100158db3080c7b157e85f1","B2","batch2","","null","<p class=block-text>Trial 56 out of 60</p>","null","spm_show_trial_num","","","","","","","","","","","","","","","","","","","","","","","","",""
"","","","","","image-button-response","293","1120910","0.0-3.0-4.0-1.31","6100158db3080c7b157e85f1","B2","batch2","","14295.90000000596","img/question_5_8.jpeg","3","spm_respsonse","0","6","mat_56","","","","","","0","14295.90000000596","","","","","","","","","","","","","","",""
"","","","","","html-keyboard-response","294","1121976","0.0-3.0-4.0-0.32","6100158db3080c7b157e85f1","B2","batch2","","null","<p class=block-text>Trial 57 out of 60</p>","null","spm_show_trial_num","","","","","","","","","","","","","","","","","","","","","","","","",""
"","","","","","image-button-response","295","1123430","0.0-3.0-4.0-1.32","6100158db3080c7b157e85f1","B2","batch2","","1451.300000011921","img/question_5_9.jpeg","3","spm_respsonse","0","3","mat_57","","","","","","0","1451.300000011921","","","","","","","","","","","","","","",""
"","","","","","html-keyboard-response","296","1124500","0.0-3.0-4.0-0.33","6100158db3080c7b157e85f1","B2","batch2","","null","<p class=block-text>Trial 58 out of 60</p>","null","spm_show_trial_num","","","","","","","","","","","","","","","","","","","","","","","","",""
"","","","","","image-button-response","297","1126572","0.0-3.0-4.0-1.33","6100158db3080c7b157e85f1","B2","batch2","","2068.5999999940395","img/question_5_10.jpeg","5","spm_respsonse","0","2","mat_58","","","","","","0","2068.5999999940395","","","","","","","","","","","","","","",""
"","","","","","html-keyboard-response","298","1127636","0.0-3.0-4.0-0.34","6100158db3080c7b157e85f1","B2","batch2","","null","<p class=block-text>Trial 59 out of 60</p>","null","spm_show_trial_num","","","","","","","","","","","","","","","","","","","","","","","","",""
"","","","","","image-button-response","299","1133550","0.0-3.0-4.0-1.34","6100158db3080c7b157e85f1","B2","batch2","","5910.5999999940395","img/question_5_11.jpeg","4","spm_respsonse","0","4","mat_59","","","","","","0","5910.5999999940395","","","","","","","","","","","","","","",""
"","","","","","html-keyboard-response","300","1134620","0.0-3.0-4.0-0.35","6100158db3080c7b157e85f1","B2","batch2","","null","<p class=block-text>Trial 60 out of 60</p>","null","spm_show_trial_num","","","","","","","","","","","","","","","","","","","","","","","","",""
"","","","","","image-button-response","301","1136624","0.0-3.0-4.0-1.35","6100158db3080c7b157e85f1","B2","batch2","","2000.7999999821186","img/question_5_12.jpeg","7","spm_respsonse","0","5","mat_60","","","","","","0","2000.7999999821186","","","","","","","","","","","","","","",""
"","","","","","html-button-response","302","1139528","0.0-3.0-5.0","6100158db3080c7b157e85f1","B2","batch2","","2641.699999988079","<p class= block-text>This concludes the Standard Progressive Matrix game. Thank you for your responses!<br> When you are ready, click the button continue</p>","0","spm_goodbye","","","","","","","","","","","","","","","","","","","","","","","","",""
"true","","","","","fullscreen","303","1142197","0.0-4.0-0.0","6100158db3080c7b157e85f1","B2","batch2","","","","","","","","","","","","","","","","","","","","","","","","","","","","","",""
"","","","","","instructions","304","1181877","0.0-4.0-1.0-0.0-0.0","6100158db3080c7b157e85f1","B2","batch2","[{""page_index"":0,""viewing_time"":8367.299999982119},{""page_index"":1,""viewing_time"":5320.9000000059605},{""page_index"":2,""viewing_time"":3297.9000000059605},{""page_index"":3,""viewing_time"":7393},{""page_index"":4,""viewing_time"":4199.5999999940395},{""page_index"":5,""viewing_time"":8845.09999999404},{""page_index"":6,""viewing_time"":2254.100000023842}]","39678.29999998212","","","tol-instructions","","","","","","","","","","","","","","","","","","","","","","","","",""
"","","","","","html-button-response","305","1182758","0.0-4.0-1.0-1.0-0.0","6100158db3080c7b157e85f1","B2","batch2","","879.5999999940395","<p class=block-text> Let's answer a few questions <br>","0","tol_enter_quiz","","","","","","","","","","","","","","","","","","","","","","","","",""
"","","","","","html-button-response","306","1185097","0.0-4.0-1.0-1.0-1.0","6100158db3080c7b157e85f1","B2","batch2","","2336.4000000059605","<p class = block-text>True or False: You can only move the ball on top of a peg. <br></p>","0","tol_quiz","true","","","","","","","","","","","","","","","","","","","","","","","",""
"","","","","","html-button-response","307","1186286","0.0-4.0-1.0-1.0-2.0","6100158db3080c7b157e85f1","B2","batch2","","1186.7000000178814","<p class = block-text>Correct! You can only move the ball on top of a peg.</p>","0","tol_quiz_feedback","","","","","","","","","","","","","","","","","","","","","","","","",""
"","","","","","html-button-response","308","1189304","0.0-4.0-1.0-1.0-3.0","6100158db3080c7b157e85f1","B2","batch2","","3017.4000000059605","<p class = block-text>True or False: You should try to match your board with the target board with fewest moves possible. <br></p>","0","tol_quiz","true","","","","","","","","","","","","","","","","","","","","","","","",""
"","","","","","html-button-response","309","1189941","0.0-4.0-1.0-1.0-4.0","6100158db3080c7b157e85f1","B2","batch2","","634.9000000059605","<p class = block-text>Correct! </p>","0","tol_quiz_feedback","","","","","","","","","","","","","","","","","","","","","","","","",""
"","","","","","html-button-response","310","1191647","0.0-4.0-2.0","6100158db3080c7b157e85f1","B2","batch2","","1703.0999999940395","<p class=block-text> Now that you've understood the game, let's practice a few easier examples before we start!<br> <br>","0","","","","","","","","","","","","","","","","","","","","","","","","","",""
"","","","","","single-stim-button","311","1197912","0.0-4.0-3.0-0.0","6100158db3080c7b157e85f1","B2","batch2","","6262","","","tol_practice","","","","","","","","","","","tol_peg_2","6262","6262","0","[[1,2,0],[0,0],[0]]","1","[[1,2,0],[0,0],[3]]","practice","6262","","","","","",""
"","","","","","single-stim-button","312","1199695","0.0-4.0-3.0-1.0","6100158db3080c7b157e85f1","B2","batch2","","1781","","","tol_practice","","","","","","","","","","","tol_peg_3","1781","1781","0","[[1,2,0],[0,0],[3]]","1","[[1,2,0],[0,0],[3]]","practice","1781","","","","","",""
"","","","","","poldrack-single-stim","313","1200701","0.0-4.0-4.0","6100158db3080c7b157e85f1","B2","batch2","","-1","","","tol_feedback","true","","","","","","","","","","","1000","1000","500","","","","","","-1","none","true","","0",""
"","","","","","single-stim-button","314","1205953","0.0-4.0-5.0-0.0","6100158db3080c7b157e85f1","B2","batch2","","5250","","","tol_practice","","","","","","","","","","","tol_peg_1","5250","5250","0","[[1,0,0],[3,0],[0]]","2","[[0,0,0],[3,1],[2]]","practice","5250","","","","","",""
"","","","","","single-stim-button","315","1207450","0.0-4.0-5.0-1.0","6100158db3080c7b157e85f1","B2","batch2","","1496","","","tol_practice","","","","","","","","","","","tol_peg_3","1496","1496","0","[[1,0,0],[3,0],[2]]","2","[[0,0,0],[3,1],[2]]","practice","1496","","","","","",""
"","","","","","single-stim-button","316","1208363","0.0-4.0-5.1-0.1","6100158db3080c7b157e85f1","B2","batch2","","912","","","tol_practice","","","","","","","","","","","tol_peg_1","912","912","0","[[0,0,0],[3,0],[2]]","3","[[0,0,0],[3,1],[2]]","practice","912","","","","","",""
"","","","","","single-stim-button","317","1209320","0.0-4.0-5.1-1.1","6100158db3080c7b157e85f1","B2","batch2","","955","","","tol_practice","","","","","","","","","","","tol_peg_2","955","955","0","[[0,0,0],[3,1],[2]]","3","[[0,0,0],[3,1],[2]]","practice","955","","","","","",""
"","","","","","poldrack-single-stim","318","1210325","0.0-4.0-6.0","6100158db3080c7b157e85f1","B2","batch2","","-1","","","tol_feedback","true","","","","","","","","","","","1000","1000","500","","","","","","-1","none","true","","0",""
"","","","","","single-stim-button","319","1214985","0.0-4.0-7.0-0.0","6100158db3080c7b157e85f1","B2","batch2","","4659","","","tol_practice","","","","","","","","","","","tol_peg_2","4659","4659","0","[[1,2,0],[0,0],[0]]","4","[[1,0,0],[2,0],[3]]","practice","4659","","","","","",""
"","","","","","single-stim-button","320","1217407","0.0-4.0-7.0-1.0","6100158db3080c7b157e85f1","B2","batch2","","2421","","","tol_practice","","","","","","","","","","","tol_peg_3","2421","2421","0","[[1,2,0],[0,0],[3]]","4","[[1,0,0],[2,0],[3]]","practice","2421","","","","","",""
"","","","","","single-stim-button","321","1218392","0.0-4.0-7.1-0.1","6100158db3080c7b157e85f1","B2","batch2","","984","","","tol_practice","","","","","","","","","","","tol_peg_1","984","984","0","[[1,0,0],[0,0],[3]]","5","[[1,0,0],[2,0],[3]]","practice","984","","","","","",""
"","","","","","single-stim-button","322","1219633","0.0-4.0-7.1-1.1","6100158db3080c7b157e85f1","B2","batch2","","1240","","","tol_practice","","","","","","","","","","","tol_peg_2","1240","1240","0","[[1,0,0],[2,0],[3]]","5","[[1,0,0],[2,0],[3]]","practice","1240","","","","","",""
"","","","","","poldrack-single-stim","323","1220643","0.0-4.0-8.0","6100158db3080c7b157e85f1","B2","batch2","","-1","","","tol_feedback","true","","","","","","","","","","","1000","1000","500","","","","","","-1","none","true","","0",""
"","","","","","html-button-response","324","1221911","0.0-4.0-9.0","6100158db3080c7b157e85f1","B2","batch2","","1266.300000011921","<div class = centerbox><p class = center-block-text>Great job! You are done with practice trials<br>You are about to start official trials.<br> <br> Problem <strong>1</strong> out of 25 problems</p></div>","0","tol_instruction","","","","","","","","","","","","","","","","","","","","","","","","",""
"","","","","","single-stim-button","325","1227753","0.0-4.0-10.0-0.0","6100158db3080c7b157e85f1","B2","batch2","","4835","","","tol_tohand","","","","","","","","","","","tol_peg_2","4835","4835","0","[[1,2,0],[0,0],[0]]","1","[[1,3,0],[2,0],[0]]","0","0","","","","","","3"
"","","","","","single-stim-button","326","1229366","0.0-4.0-10.0-1.0","6100158db3080c7b157e85f1","B2","batch2","","1612","","","tol_toboard","","","","","","","","","","","tol_peg_3","1612","1612","0","[[1,2,0],[0,0],[3]]","1","[[1,3,0],[2,0],[0]]","0","0","","","","","","3"
"","","","","","single-stim-button","327","1230159","0.0-4.0-10.1-0.1","6100158db3080c7b157e85f1","B2","batch2","","791","","","tol_tohand","","","","","","","","","","","tol_peg_1","791","791","0","[[1,0,0],[0,0],[3]]","2","[[1,3,0],[2,0],[0]]","0","0","","","","","","3"
"","","","","","single-stim-button","328","1231360","0.0-4.0-10.1-1.1","6100158db3080c7b157e85f1","B2","batch2","","1200","","","tol_toboard","","","","","","","","","","","tol_peg_2","1200","1200","0","[[1,0,0],[2,0],[3]]","2","[[1,3,0],[2,0],[0]]","0","0","","","","","","3"
"","","","","","single-stim-button","329","1232128","0.0-4.0-10.2-0.2","6100158db3080c7b157e85f1","B2","batch2","","768","","","tol_tohand","","","","","","","","","","","tol_peg_3","768","768","0","[[1,0,0],[2,0],[0]]","3","[[1,3,0],[2,0],[0]]","0","0","","","","","","3"
"","","","","","single-stim-button","330","1233041","0.0-4.0-10.2-1.2","6100158db3080c7b157e85f1","B2","batch2","","912","","","tol_toboard","","","","","","","","","","","tol_peg_1","912","912","0","[[1,3,0],[2,0],[0]]","3","[[1,3,0],[2,0],[0]]","0","0","","","","","","3"
"","","","","","poldrack-single-stim","331","1234044","0.0-4.0-11.0","6100158db3080c7b157e85f1","B2","batch2","","-1","","","tol_feedback","true","","","","","","","","","","","1000","1000","500","","","","","","-1","none","true","4835","6394",""
"","","","","","html-button-response","332","1235007","0.0-4.0-12.0","6100158db3080c7b157e85f1","B2","batch2","","961.5999999940395","<div class = centerbox><p class = center-block-text>problem <strong>2</strong> out of 25 problems</p></div>","0","tol_trial_num","","","","","","","","","","","","","","","","","","","","","","","","",""
"","","","","","single-stim-button","333","1243305","0.0-4.0-13.0-0.0","6100158db3080c7b157e85f1","B2","batch2","","8297","","","tol_tohand","","","","","","","","","","","tol_peg_1","8297","8297","0","[[1,0,0],[3,0],[0]]","1","[[2,1,3],[0,0],[0]]","1","0","","","","","","5"
"","","","","","single-stim-button","334","1244706","0.0-4.0-13.0-1.0","6100158db3080c7b157e85f1","B2","batch2","","1400","","","tol_toboard","","","","","","","","","","","tol_peg_3","1400","1400","0","[[1,0,0],[3,0],[2]]","1","[[2,1,3],[0,0],[0]]","1","0","","","","","","5"
"","","","","","single-stim-button","335","1245427","0.0-4.0-13.1-0.1","6100158db3080c7b157e85f1","B2","batch2","","720","","","tol_tohand","","","","","","","","","","","tol_peg_1","720","720","0","[[0,0,0],[3,0],[2]]","2","[[2,1,3],[0,0],[0]]","1","0","","","","","","5"
"","","","","","single-stim-button","336","1250519","0.0-4.0-13.1-1.1","6100158db3080c7b157e85f1","B2","batch2","","5091","","","tol_toboard","","","","","","","","","","","tol_peg_2","5091","5091","0","[[0,0,0],[3,1],[2]]","2","[[2,1,3],[0,0],[0]]","1","0","","","","","","5"
"","","","","","single-stim-button","337","1251464","0.0-4.0-13.2-0.2","6100158db3080c7b157e85f1","B2","batch2","","944","","","tol_tohand","","","","","","","","","","","tol_peg_3","944","944","0","[[0,0,0],[3,1],[0]]","3","[[2,1,3],[0,0],[0]]","1","0","","","","","","5"
"","","","","","single-stim-button","338","1252465","0.0-4.0-13.2-1.2","6100158db3080c7b157e85f1","B2","batch2","","1000","","","tol_toboard","","","","","","","","","","","tol_peg_1","1000","1000","0","[[2,0,0],[3,1],[0]]","3","[[2,1,3],[0,0],[0]]","1","0","","","","","","5"
"","","","","","single-stim-button","339","1253250","0.0-4.0-13.3-0.3","6100158db3080c7b157e85f1","B2","batch2","","784","","","tol_tohand","","","","","","","","","","","tol_peg_2","784","784","0","[[2,0,0],[3,0],[0]]","4","[[2,1,3],[0,0],[0]]","1","0","","","","","","5"
"","","","","","single-stim-button","340","1254235","0.0-4.0-13.3-1.3","6100158db3080c7b157e85f1","B2","batch2","","984","","","tol_toboard","","","","","","","","","","","tol_peg_1","984","984","0","[[2,1,0],[3,0],[0]]","4","[[2,1,3],[0,0],[0]]","1","0","","","","","","5"
"","","","","","single-stim-button","341","1254848","0.0-4.0-13.4-0.4","6100158db3080c7b157e85f1","B2","batch2","","611","","","tol_tohand","","","","","","","","","","","tol_peg_2","611","611","0","[[2,1,0],[0,0],[0]]","5","[[2,1,3],[0,0],[0]]","1","0","","","","","","5"
"","","","","","single-stim-button","342","1255552","0.0-4.0-13.4-1.4","6100158db3080c7b157e85f1","B2","batch2","","704","","","tol_toboard","","","","","","","","","","","tol_peg_1","704","704","0","[[2,1,3],[0,0],[0]]","5","[[2,1,3],[0,0],[0]]","1","0","","","","","","5"
"","","","","","poldrack-single-stim","343","1256559","0.0-4.0-14.0","6100158db3080c7b157e85f1","B2","batch2","","-1","","","tol_feedback","true","","","","","","","","","","","1000","1000","500","","","","","","-1","none","true","8297","11356",""
"","","","","","html-button-response","344","1257209","0.0-4.0-15.0","6100158db3080c7b157e85f1","B2","batch2","","649","<div class = centerbox><p class = center-block-text>problem <strong>3</strong> out of 25 problems</p></div>","0","tol_trial_num","","","","","","","","","","","","","","","","","","","","","","","","",""
"","","","","","single-stim-button","345","1260513","0.0-4.0-16.0-0.0","6100158db3080c7b157e85f1","B2","batch2","","3303","","","tol_tohand","","","","","","","","","","","tol_peg_1","3303","3303","0","[[2,0,0],[0,0],[1]]","1","[[1,2,0],[3,0],[0]]","2","0","","","","","","4"
"","","","","","single-stim-button","346","1261442","0.0-4.0-16.0-1.0","6100158db3080c7b157e85f1","B2","batch2","","928","","","tol_toboard","","","","","","","","","","","tol_peg_2","928","928","0","[[2,0,0],[3,0],[1]]","1","[[1,2,0],[3,0],[0]]","2","0","","","","","","4"
