"success","timeout","failed_images","failed_audio","failed_video","trial_type","trial_index","time_elapsed","internal_node_id","subject_id","study_id","session_id","view_history","rt","stimulus","response","task","correct","answer","item","fiar_detect_rt","fiar_detect_correct","total_correct_fiar_detect","post_trial_gap","choices","mouse_click","stim_duration","block_duration","timing_post_trial","current_position","tol_num_moves_made","tol_target","tol_problem_id","tol_rt","key_press","possible_responses","tol_correct","preplanning","tol_rt_per_trial","tol_min_moves","spm_correct","spm_rt"
"true","false","[]","[]","[]","preload","0","18814","0.0-0.0","61006f43a84b82fb439d7cba","E1","batch5","","","","","","","","","","","","","","","","","","","","","","","","","","","","","",""
"true","","","","","fullscreen","1","24581","0.0-1.0-0.0","61006f43a84b82fb439d7cba","E1","batch5","","","","","","","","","","","","","","","","","","","","","","","","","","","","","",""
"true","","","","","fullscreen","2","27675","0.0-2.0-0.0","61006f43a84b82fb439d7cba","E1","batch5","","","","","","","","","","","","","","","","","","","","","","","","","","","","","",""
"","","","","","instructions","3","40146","0.0-2.0-1.0-0.0","61006f43a84b82fb439d7cba","E1","batch5","[{""page_index"":0,""viewing_time"":7450},{""page_index"":1,""viewing_time"":5019}]","12470","","","","","","","","","","","","","","","","","","","","","","","","","","","",""
"","","","","","html-button-response","4","41675","0.0-2.0-1.0-1.0-0.0","61006f43a84b82fb439d7cba","E1","batch5","","1527","<p class=block-text> Let's answer a few questions <br>","0","pattern_enter_quiz","","","","","","","","","","","","","","","","","","","","","","","","",""
"","","","","","html-button-response","5","43929","0.0-2.0-1.0-1.0-1.0","61006f43a84b82fb439d7cba","E1","batch5","","2252.9999999999927","<p class = block-text>True or False: You will have as much time as you want to make each choice. <br></p>","1","pattern_quiz","true","","","","","","","","","","","","","","","","","","","","","","","",""
"","","","","","html-button-response","6","45566","0.0-2.0-1.0-1.0-2.0","61006f43a84b82fb439d7cba","E1","batch5","","1634","<p class = block-text>Correct! You should make your choice <strong> as fast as you can</strong>.</p>","0","pattern_quiz_feedback","","","","","","","","","","","","","","","","","","","","","","","","",""
"","","","","","html-button-response","7","48428","0.0-2.0-1.0-1.0-3.0","61006f43a84b82fb439d7cba","E1","batch5","","2862","<p class = block-text>True or False: You will look for 4 pieces in black or white color connected in a row either horizontally, vertically or diagonally. <br></p>","0","pattern_quiz","true","","","","","","","","","","","","","","","","","","","","","","","",""
"","","","","","html-button-response","8","49258","0.0-2.0-1.0-1.0-4.0","61006f43a84b82fb439d7cba","E1","batch5","","828.9999999999927","<p class = block-text>Correct! </p>","0","pattern_quiz_feedback","","","","","","","","","","","","","","","","","","","","","","","","",""
"","","","","","html-button-response","9","50667","0.0-2.0-2.0","61006f43a84b82fb439d7cba","E1","batch5","","1407.0000000000073","<p class=block-text> Now that you've understood the game, let's do a few practice trials before we start!<br> <br>","0","pattern_enter_practice","","","","","","","","","","","","","","","","","","","","","","","","",""
"","","","","","image-keyboard-response","10","51929","0.0-2.0-3.0-0.0","61006f43a84b82fb439d7cba","E1","batch5","","1243.0000000000073","stim/prac_yes_20_dia_b1.png","j","pattern_practice","false","f","","","","","","","","","","","","","","","","","","","","","","",""
"","","","","","html-keyboard-response","11","52934","0.0-2.0-3.0-1.0","61006f43a84b82fb439d7cba","E1","batch5","","null","<p style=""font-size:30px;color:red;"">Wrong.</p>","null","pattern_feedback","","","","","","","","","","","","","","","","","","","","","","","","",""
"","","","","","image-keyboard-response","12","54549","0.0-2.0-3.0-0.1","61006f43a84b82fb439d7cba","E1","batch5","","1595","stim/prac_no_18_1.png","j","pattern_practice","true","j","","","","","","","","","","","","","","","","","","","","","","",""
"","","","","","html-keyboard-response","13","55553","0.0-2.0-3.0-1.1","61006f43a84b82fb439d7cba","E1","batch5","","null","<p style=""font-size:30px;color:green;"">Correct!</p>","null","pattern_feedback","","","","","","","","","","","","","","","","","","","","","","","","",""
"","","","","","image-keyboard-response","14","56299","0.0-2.0-3.0-0.2","61006f43a84b82fb439d7cba","E1","batch5","","725","stim/prac_yes_16_ver_w1.png","f","pattern_practice","true","f","","","","","","","","","","","","","","","","","","","","","","",""
"","","","","","html-keyboard-response","15","57302","0.0-2.0-3.0-1.2","61006f43a84b82fb439d7cba","E1","batch5","","null","<p style=""font-size:30px;color:green;"">Correct!</p>","null","pattern_feedback","","","","","","","","","","","","","","","","","","","","","","","","",""
"","","","","","image-keyboard-response","16","58077","0.0-2.0-3.0-0.3","61006f43a84b82fb439d7cba","E1","batch5","","753","stim/prac_yes_18_hor_w1.png","f","pattern_practice","true","f","","","","","","","","","","","","","","","","","","","","","","",""
"","","","","","html-keyboard-response","17","59079","0.0-2.0-3.0-1.3","61006f43a84b82fb439d7cba","E1","batch5","","null","<p style=""font-size:30px;color:green;"">Correct!</p>","null","pattern_feedback","","","","","","","","","","","","","","","","","","","","","","","","",""
"","","","","","image-keyboard-response","18","60762","0.0-2.0-3.0-0.4","61006f43a84b82fb439d7cba","E1","batch5","","1662","stim/prac_no_16_1.png","j","pattern_practice","true","j","","","","","","","","","","","","","","","","","","","","","","",""
"","","","","","html-keyboard-response","19","61764","0.0-2.0-3.0-1.4","61006f43a84b82fb439d7cba","E1","batch5","","null","<p style=""font-size:30px;color:green;"">Correct!</p>","null","pattern_feedback","","","","","","","","","","","","","","","","","","","","","","","","",""
"","","","","","html-button-response","20","64234","0.0-2.0-4.0","61006f43a84b82fb439d7cba","E1","batch5","","2466.9999999999854","<p class=block-text> Good job! You are done with practice trials!<br>
        You responded correctly on 80% of the trials.<br>
        Press the button below to start official trials. Now you won't see any feedback about your response</p>","0","pattern_enter_official_trials","","","","","","","","","","","","","","","","","","","","","","","","",""
"","","","","","html-keyboard-response","21","65036","0.0-2.0-5.0-0.0","61006f43a84b82fb439d7cba","E1","batch5","","null","<p class=block-text>Trial 1 out of 78</p>","null","pattern_show_trial_num","","","","","","","","","","","","","","","","","","","","","","","","",""
"","","","","","image-keyboard-response","22","67119","0.0-2.0-5.0-1.0","61006f43a84b82fb439d7cba","E1","batch5","","2063","stim/yes_51_dia_b1.png","f","pattern_response","true","f","pattern_72","2063","true","1","","","","","","","","","","","","","","","","","","",""
"","","","","","html-keyboard-response","23","68423","0.0-2.0-5.0-0.1","61006f43a84b82fb439d7cba","E1","batch5","","null","<p class=block-text>Trial 2 out of 78</p>","null","pattern_show_trial_num","","","","","","","","","","","","","","","","","","","","","","","","",""
"","","","","","image-keyboard-response","24","69516","0.0-2.0-5.0-1.1","61006f43a84b82fb439d7cba","E1","batch5","","1071","stim/yes_49_hor_w1_b.png","f","pattern_response","true","f","pattern_70","1071","true","2","","","","","","","","","","","","","","","","","","",""
"","","","","","html-keyboard-response","25","70819","0.0-2.0-5.0-0.2","61006f43a84b82fb439d7cba","E1","batch5","","null","<p class=block-text>Trial 3 out of 78</p>","null","pattern_show_trial_num","","","","","","","","","","","","","","","","","","","","","","","","",""
"","","","","","image-keyboard-response","26","71538","0.0-2.0-5.0-1.2","61006f43a84b82fb439d7cba","E1","batch5","","698","stim/yes_39_hor_w1_w.png","f","pattern_response","true","f","pattern_62","698","true","3","","","","","","","","","","","","","","","","","","",""
"","","","","","html-keyboard-response","27","72842","0.0-2.0-5.0-0.3","61006f43a84b82fb439d7cba","E1","batch5","","null","<p class=block-text>Trial 4 out of 78</p>","null","pattern_show_trial_num","","","","","","","","","","","","","","","","","","","","","","","","",""
"","","","","","image-keyboard-response","28","73576","0.0-2.0-5.0-1.3","61006f43a84b82fb439d7cba","E1","batch5","","713","stim/yes_36_ver_w1_w.png","f","pattern_response","true","f","pattern_58","713","true","4","","","","","","","","","","","","","","","","","","",""
"","","","","","html-keyboard-response","29","74879","0.0-2.0-5.0-0.4","61006f43a84b82fb439d7cba","E1","batch5","","null","<p class=block-text>Trial 5 out of 78</p>","null","pattern_show_trial_num","","","","","","","","","","","","","","","","","","","","","","","","",""
"","","","","","image-keyboard-response","30","75546","0.0-2.0-5.0-1.4","61006f43a84b82fb439d7cba","E1","batch5","","647","stim/yes_12_hor_w1_w.png","f","pattern_response","true","f","pattern_42","647","true","5","","","","","","","","","","","","","","","","","","",""
"","","","","","html-keyboard-response","31","76849","0.0-2.0-5.0-0.5","61006f43a84b82fb439d7cba","E1","batch5","","null","<p class=block-text>Trial 6 out of 78</p>","null","pattern_show_trial_num","","","","","","","","","","","","","","","","","","","","","","","","",""
"","","","","","image-keyboard-response","32","80030","0.0-2.0-5.0-1.5","61006f43a84b82fb439d7cba","E1","batch5","","3160","stim/no_43_2_b.png","j","pattern_response","true","j","pattern_23","3160","true","6","","","","","","","","","","","","","","","","","","",""
"","","","","","html-keyboard-response","33","81333","0.0-2.0-5.0-0.6","61006f43a84b82fb439d7cba","E1","batch5","","null","<p class=block-text>Trial 7 out of 78</p>","null","pattern_show_trial_num","","","","","","","","","","","","","","","","","","","","","","","","",""
"","","","","","image-keyboard-response","34","84864","0.0-2.0-5.0-1.6","61006f43a84b82fb439d7cba","E1","batch5","","3511","stim/yes_58_dia_w1_w.png","j","pattern_response","false","f","pattern_76","3511","false","6","","","","","","","","","","","","","","","","","","",""
"","","","","","html-keyboard-response","35","86167","0.0-2.0-5.0-0.7","61006f43a84b82fb439d7cba","E1","batch5","","null","<p class=block-text>Trial 8 out of 78</p>","null","pattern_show_trial_num","","","","","","","","","","","","","","","","","","","","","","","","",""
"","","","","","image-keyboard-response","36","91395","0.0-2.0-5.0-1.7","61006f43a84b82fb439d7cba","E1","batch5","","5207.000000000015","stim/no_58_1_w.png","j","pattern_response","true","j","pattern_35","5207.000000000015","true","7","","","","","","","","","","","","","","","","","","",""
"","","","","","html-keyboard-response","37","92698","0.0-2.0-5.0-0.8","61006f43a84b82fb439d7cba","E1","batch5","","null","<p class=block-text>Trial 9 out of 78</p>","null","pattern_show_trial_num","","","","","","","","","","","","","","","","","","","","","","","","",""
"","","","","","image-keyboard-response","38","99709","0.0-2.0-5.0-1.8","61006f43a84b82fb439d7cba","E1","batch5","","6990","stim/no_67_1.png","j","pattern_response","true","j","pattern_39","6990","true","8","","","","","","","","","","","","","","","","","","",""
"","","","","","html-keyboard-response","39","101012","0.0-2.0-5.0-0.9","61006f43a84b82fb439d7cba","E1","batch5","","null","<p class=block-text>Trial 10 out of 78</p>","null","pattern_show_trial_num","","","","","","","","","","","","","","","","","","","","","","","","",""
"","","","","","image-keyboard-response","40","104604","0.0-2.0-5.0-1.9","61006f43a84b82fb439d7cba","E1","batch5","","3569","stim/no_36_1_b.png","j","pattern_response","true","j","pattern_17","3569","true","9","","","","","","","","","","","","","","","","","","",""
"","","","","","html-keyboard-response","41","105907","0.0-2.0-5.0-0.10","61006f43a84b82fb439d7cba","E1","batch5","","null","<p class=block-text>Trial 11 out of 78</p>","null","pattern_show_trial_num","","","","","","","","","","","","","","","","","","","","","","","","",""
"","","","","","image-keyboard-response","42","109779","0.0-2.0-5.0-1.10","61006f43a84b82fb439d7cba","E1","batch5","","3851","stim/no_30_1_b.png","j","pattern_response","true","j","pattern_13","3851","true","10","","","","","","","","","","","","","","","","","","",""
"","","","","","html-keyboard-response","43","111082","0.0-2.0-5.0-0.11","61006f43a84b82fb439d7cba","E1","batch5","","null","<p class=block-text>Trial 12 out of 78</p>","null","pattern_show_trial_num","","","","","","","","","","","","","","","","","","","","","","","","",""
"","","","","","image-keyboard-response","44","111970","0.0-2.0-5.0-1.11","61006f43a84b82fb439d7cba","E1","batch5","","865","stim/yes_23_ver_b1.png","f","pattern_response","true","f","pattern_48","865","true","11","","","","","","","","","","","","","","","","","","",""
"","","","","","html-keyboard-response","45","113273","0.0-2.0-5.0-0.12","61006f43a84b82fb439d7cba","E1","batch5","","null","<p class=block-text>Trial 13 out of 78</p>","null","pattern_show_trial_num","","","","","","","","","","","","","","","","","","","","","","","","",""
"","","","","","image-keyboard-response","46","116556","0.0-2.0-5.0-1.12","61006f43a84b82fb439d7cba","E1","batch5","","3263","stim/no_33_1_b.png","j","pattern_response","true","j","pattern_15","3263","true","12","","","","","","","","","","","","","","","","","","",""
"","","","","","html-keyboard-response","47","117859","0.0-2.0-5.0-0.13","61006f43a84b82fb439d7cba","E1","batch5","","null","<p class=block-text>Trial 14 out of 78</p>","null","pattern_show_trial_num","","","","","","","","","","","","","","","","","","","","","","","","",""
"","","","","","image-keyboard-response","48","123095","0.0-2.0-5.0-1.13","61006f43a84b82fb439d7cba","E1","batch5","","5213.999999999985","stim/yes_63_dia_b1.png","f","pattern_response","true","f","pattern_78","5213.999999999985","true","13","","","","","","","","","","","","","","","","","","",""
"","","","","","html-keyboard-response","49","124397","0.0-2.0-5.0-0.14","61006f43a84b82fb439d7cba","E1","batch5","","null","<p class=block-text>Trial 15 out of 78</p>","null","pattern_show_trial_num","","","","","","","","","","","","","","","","","","","","","","","","",""
"","","","","","image-keyboard-response","50","126979","0.0-2.0-5.0-1.14","61006f43a84b82fb439d7cba","E1","batch5","","2562","stim/yes_26_dia_w2_w.png","f","pattern_response","true","f","pattern_50","2562","true","14","","","","","","","","","","","","","","","","","","",""
"","","","","","html-keyboard-response","51","128282","0.0-2.0-5.0-0.15","61006f43a84b82fb439d7cba","E1","batch5","","null","<p class=block-text>Trial 16 out of 78</p>","null","pattern_show_trial_num","","","","","","","","","","","","","","","","","","","","","","","","",""
"","","","","","image-keyboard-response","52","130660","0.0-2.0-5.0-1.15","61006f43a84b82fb439d7cba","E1","batch5","","2357","stim/yes_46_ver_b1_b.png","f","pattern_response","true","f","pattern_68","2357","true","15","","","","","","","","","","","","","","","","","","",""
"","","","","","html-keyboard-response","53","131963","0.0-2.0-5.0-0.16","61006f43a84b82fb439d7cba","E1","batch5","","null","<p class=block-text>Trial 17 out of 78</p>","null","pattern_show_trial_num","","","","","","","","","","","","","","","","","","","","","","","","",""
"","","","","","image-keyboard-response","54","133623","0.0-2.0-5.0-1.16","61006f43a84b82fb439d7cba","E1","batch5","","1638.999999999971","stim/no_22_1_b.png","j","pattern_response","true","j","pattern_07","1638.999999999971","true","16","","","","","","","","","","","","","","","","","","",""
"","","","","","html-keyboard-response","55","134926","0.0-2.0-5.0-0.17","61006f43a84b82fb439d7cba","E1","batch5","","null","<p class=block-text>Trial 18 out of 78</p>","null","pattern_show_trial_num","","","","","","","","","","","","","","","","","","","","","","","","",""
"","","","","","image-keyboard-response","56","138237","0.0-2.0-5.0-1.17","61006f43a84b82fb439d7cba","E1","batch5","","3290","stim/no_49_2_b.png","j","pattern_response","true","j","pattern_29","3290","true","17","","","","","","","","","","","","","","","","","","",""
"","","","","","html-keyboard-response","57","139540","0.0-2.0-5.0-0.18","61006f43a84b82fb439d7cba","E1","batch5","","null","<p class=block-text>Trial 19 out of 78</p>","null","pattern_show_trial_num","","","","","","","","","","","","","","","","","","","","","","","","",""
"","","","","","image-keyboard-response","58","142381","0.0-2.0-5.0-1.18","61006f43a84b82fb439d7cba","E1","batch5","","2819","stim/no_45_1_w.png","j","pattern_response","true","j","pattern_25","2819","true","18","","","","","","","","","","","","","","","","","","",""
"","","","","","html-keyboard-response","59","143683","0.0-2.0-5.0-0.19","61006f43a84b82fb439d7cba","E1","batch5","","null","<p class=block-text>Trial 20 out of 78</p>","null","pattern_show_trial_num","","","","","","","","","","","","","","","","","","","","","","","","",""
"","","","","","image-keyboard-response","60","144518","0.0-2.0-5.0-1.19","61006f43a84b82fb439d7cba","E1","batch5","","812","stim/yes_17_ver_b1_b.png","f","pattern_response","true","f","pattern_46","812","true","19","","","","","","","","","","","","","","","","","","",""
"","","","","","html-keyboard-response","61","145822","0.0-2.0-5.0-0.20","61006f43a84b82fb439d7cba","E1","batch5","","null","<p class=block-text>Trial 21 out of 78</p>","null","pattern_show_trial_num","","","","","","","","","","","","","","","","","","","","","","","","",""
"","","","","","image-keyboard-response","62","147094","0.0-2.0-5.0-1.20","61006f43a84b82fb439d7cba","E1","batch5","","1250","stim/no_15_1_w.png","j","pattern_response","true","j","pattern_03","1250","true","20","","","","","","","","","","","","","","","","","","",""
"","","","","","html-keyboard-response","63","148397","0.0-2.0-5.0-0.21","61006f43a84b82fb439d7cba","E1","batch5","","null","<p class=block-text>Trial 22 out of 78</p>","null","pattern_show_trial_num","","","","","","","","","","","","","","","","","","","","","","","","",""
"","","","","","image-keyboard-response","64","149912","0.0-2.0-5.0-1.21","61006f43a84b82fb439d7cba","E1","batch5","","1494","stim/no_28_2.png","j","pattern_response","true","j","pattern_11","1494","true","21","","","","","","","","","","","","","","","","","","",""
"","","","","","html-keyboard-response","65","151215","0.0-2.0-5.0-0.22","61006f43a84b82fb439d7cba","E1","batch5","","null","<p class=block-text>Trial 23 out of 78</p>","null","pattern_show_trial_num","","","","","","","","","","","","","","","","","","","","","","","","",""
"","","","","","image-keyboard-response","66","153725","0.0-2.0-5.0-1.22","61006f43a84b82fb439d7cba","E1","batch5","","2489","stim/no_25_1_b.png","j","pattern_response","true","j","pattern_09","2489","true","22","","","","","","","","","","","","","","","","","","",""
"","","","","","html-keyboard-response","67","155028","0.0-2.0-5.0-0.23","61006f43a84b82fb439d7cba","E1","batch5","","null","<p class=block-text>Trial 24 out of 78</p>","null","pattern_show_trial_num","","","","","","","","","","","","","","","","","","","","","","","","",""
"","","","","","image-keyboard-response","68","156269","0.0-2.0-5.0-1.23","61006f43a84b82fb439d7cba","E1","batch5","","1220","stim/no_18_1_b.png","j","pattern_response","true","j","pattern_05","1220","true","23","","","","","","","","","","","","","","","","","","",""
"","","","","","html-keyboard-response","69","157572","0.0-2.0-5.0-0.24","61006f43a84b82fb439d7cba","E1","batch5","","null","<p class=block-text>Trial 25 out of 78</p>","null","pattern_show_trial_num","","","","","","","","","","","","","","","","","","","","","","","","",""
"","","","","","image-keyboard-response","70","158926","0.0-2.0-5.0-1.24","61006f43a84b82fb439d7cba","E1","batch5","","1333","stim/yes_33_dia_w1_w.png","f","pattern_response","true","f","pattern_56","1333","true","24","","","","","","","","","","","","","","","","","","",""
"","","","","","html-keyboard-response","71","160229","0.0-2.0-5.0-0.25","61006f43a84b82fb439d7cba","E1","batch5","","null","<p class=block-text>Trial 26 out of 78</p>","null","pattern_show_trial_num","","","","","","","","","","","","","","","","","","","","","","","","",""
"","","","","","image-keyboard-response","72","163889","0.0-2.0-5.0-1.25","61006f43a84b82fb439d7cba","E1","batch5","","3639.000000000029","stim/no_39_1_w.png","j","pattern_response","true","j","pattern_21","3639.000000000029","true","25","","","","","","","","","","","","","","","","","","",""
"","","","","","html-keyboard-response","73","165193","0.0-2.0-5.0-0.26","61006f43a84b82fb439d7cba","E1","batch5","","null","<p class=block-text>Trial 27 out of 78</p>","null","pattern_show_trial_num","","","","","","","","","","","","","","","","","","","","","","","","",""
"","","","","","image-keyboard-response","74","165915","0.0-2.0-5.0-1.26","61006f43a84b82fb439d7cba","E1","batch5","","702","stim/yes_44_ver_w1_w.png","f","pattern_response","true","f","pattern_66","702","true","26","","","","","","","","","","","","","","","","","","",""
"","","","","","html-keyboard-response","75","167218","0.0-2.0-5.0-0.27","61006f43a84b82fb439d7cba","E1","batch5","","null","<p class=block-text>Trial 28 out of 78</p>","null","pattern_show_trial_num","","","","","","","","","","","","","","","","","","","","","","","","",""
"","","","","","image-keyboard-response","76","172229","0.0-2.0-5.0-1.27","61006f43a84b82fb439d7cba","E1","batch5","","4997.000000000029","stim/no_53_1_b.png","j","pattern_response","true","j","pattern_33","4997.000000000029","true","27","","","","","","","","","","","","","","","","","","",""
"","","","","","html-keyboard-response","77","173531","0.0-2.0-5.0-0.28","61006f43a84b82fb439d7cba","E1","batch5","","null","<p class=block-text>Trial 29 out of 78</p>","null","pattern_show_trial_num","","","","","","","","","","","","","","","","","","","","","","","","",""
"","","","","","image-keyboard-response","78","174183","0.0-2.0-5.0-1.28","61006f43a84b82fb439d7cba","E1","batch5","","629","stim/yes_15_dia_b1u_b.png","f","pattern_response","true","f","pattern_44","629","true","28","","","","","","","","","","","","","","","","","","",""
"","","","","","html-keyboard-response","79","175486","0.0-2.0-5.0-0.29","61006f43a84b82fb439d7cba","E1","batch5","","null","<p class=block-text>Trial 30 out of 78</p>","null","pattern_show_trial_num","","","","","","","","","","","","","","","","","","","","","","","","",""
"","","","","","image-keyboard-response","80","177526","0.0-2.0-5.0-1.29","61006f43a84b82fb439d7cba","E1","batch5","","2019","stim/yes_30_ver_b1_b.png","f","pattern_response","true","f","pattern_54","2019","true","29","","","","","","","","","","","","","","","","","","",""
"","","","","","html-keyboard-response","81","178829","0.0-2.0-5.0-0.30","61006f43a84b82fb439d7cba","E1","batch5","","null","<p class=block-text>Trial 31 out of 78</p>","null","pattern_show_trial_num","","","","","","","","","","","","","","","","","","","","","","","","",""
"","","","","","image-keyboard-response","82","180340","0.0-2.0-5.0-1.30","61006f43a84b82fb439d7cba","E1","batch5","","1489","stim/yes_70_ver_b1.png","f","pattern_response","true","f","pattern_80","1489","true","30","","","","","","","","","","","","","","","","","","",""
"","","","","","html-keyboard-response","83","181643","0.0-2.0-5.0-0.31","61006f43a84b82fb439d7cba","E1","batch5","","null","<p class=block-text>Trial 32 out of 78</p>","null","pattern_show_trial_num","","","","","","","","","","","","","","","","","","","","","","","","",""
"","","","","","image-keyboard-response","84","185163","0.0-2.0-5.0-1.31","61006f43a84b82fb439d7cba","E1","batch5","","3498","stim/yes_42_dia_w1_w.png","f","pattern_response","true","f","pattern_64","3498","true","31","","","","","","","","","","","","","","","","","","",""
"","","","","","html-keyboard-response","85","186466","0.0-2.0-5.0-0.32","61006f43a84b82fb439d7cba","E1","batch5","","null","<p class=block-text>Trial 33 out of 78</p>","null","pattern_show_trial_num","","","","","","","","","","","","","","","","","","","","","","","","",""
"","","","","","image-keyboard-response","86","189047","0.0-2.0-5.0-1.32","61006f43a84b82fb439d7cba","E1","batch5","","2561","stim/yes_29_hor_b1_b.png","j","pattern_response","false","f","pattern_52","2561","false","31","","","","","","","","","","","","","","","","","","",""
"","","","","","html-keyboard-response","87","190350","0.0-2.0-5.0-0.33","61006f43a84b82fb439d7cba","E1","batch5","","null","<p class=block-text>Trial 34 out of 78</p>","null","pattern_show_trial_num","","","","","","","","","","","","","","","","","","","","","","","","",""
"","","","","","image-keyboard-response","88","191213","0.0-2.0-5.0-1.33","61006f43a84b82fb439d7cba","E1","batch5","","840.9999999999709","stim/yes_37_hor_w1_w.png","f","pattern_response","true","f","pattern_60","840.9999999999709","true","32","","","","","","","","","","","","","","","","","","",""
"","","","","","html-keyboard-response","89","192516","0.0-2.0-5.0-0.34","61006f43a84b82fb439d7cba","E1","batch5","","null","<p class=block-text>Trial 35 out of 78</p>","null","pattern_show_trial_num","","","","","","","","","","","","","","","","","","","","","","","","",""
"","","","","","image-keyboard-response","90","194221","0.0-2.0-5.0-1.34","61006f43a84b82fb439d7cba","E1","batch5","","1683","stim/no_37_2_w.png","j","pattern_response","true","j","pattern_19","1683","true","33","","","","","","","","","","","","","","","","","","",""
"","","","","","html-keyboard-response","91","195523","0.0-2.0-5.0-0.35","61006f43a84b82fb439d7cba","E1","batch5","","null","<p class=block-text>Trial 36 out of 78</p>","null","pattern_show_trial_num","","","","","","","","","","","","","","","","","","","","","","","","",""
"","","","","","image-keyboard-response","92","196597","0.0-2.0-5.0-1.35","61006f43a84b82fb439d7cba","E1","batch5","","1053","stim/yes_53_ver_b1_b.png","f","pattern_response","true","f","pattern_74","1053","true","34","","","","","","","","","","","","","","","","","","",""
"","","","","","html-keyboard-response","93","197900","0.0-2.0-5.0-0.36","61006f43a84b82fb439d7cba","E1","batch5","","null","<p class=block-text>Trial 37 out of 78</p>","null","pattern_show_trial_num","","","","","","","","","","","","","","","","","","","","","","","","",""
"","","","","","image-keyboard-response","94","198730","0.0-2.0-5.0-1.36","61006f43a84b82fb439d7cba","E1","batch5","","810","stim/no_12_1.png","j","pattern_response","true","j","pattern_01","810","true","35","","","","","","","","","","","","","","","","","","",""
"","","","","","html-keyboard-response","95","200032","0.0-2.0-5.0-0.37","61006f43a84b82fb439d7cba","E1","batch5","","null","<p class=block-text>Trial 38 out of 78</p>","null","pattern_show_trial_num","","","","","","","","","","","","","","","","","","","","","","","","",""
"","","","","","image-keyboard-response","96","202935","0.0-2.0-5.0-1.37","61006f43a84b82fb439d7cba","E1","batch5","","2883","stim/no_47_1_b.png","j","pattern_response","true","j","pattern_27","2883","true","36","","","","","","","","","","","","","","","","","","",""
"","","","","","html-keyboard-response","97","204238","0.0-2.0-5.0-0.38","61006f43a84b82fb439d7cba","E1","batch5","","null","<p class=block-text>Trial 39 out of 78</p>","null","pattern_show_trial_num","","","","","","","","","","","","","","","","","","","","","","","","",""
"","","","","","image-keyboard-response","98","208121","0.0-2.0-5.0-1.38","61006f43a84b82fb439d7cba","E1","batch5","","3861.999999999971","stim/no_51_1.png","f","pattern_response","false","j","pattern_31","3861.999999999971","false","36","","","","","","","","","","","","","","","","","","",""
"","","","","","image-keyboard-response","99","210948","0.0-2.0-6.0","61006f43a84b82fb439d7cba","E1","batch5","","2305","stim/empty_board.png","j","attention_check","true","j","","","","","500","[""f"",""j""]","","","","","","","","","","","","","","","","",""
"","","","","","html-keyboard-response","100","211750","0.0-2.0-7.0-0.0","61006f43a84b82fb439d7cba","E1","batch5","","null","<p class=block-text>Trial 40 out of 78</p>","null","pattern_show_trial_num","","","","","","","","","","","","","","","","","","","","","","","","",""
"","","","","","image-keyboard-response","101","219010","0.0-2.0-7.0-1.0","61006f43a84b82fb439d7cba","E1","batch5","","7238.999999999971","stim/no_70_2.png","j","pattern_response","true","j","pattern_40","7238.999999999971","true","37","","","","","","","","","","","","","","","","","","",""
"","","","","","html-keyboard-response","102","220312","0.0-2.0-7.0-0.1","61006f43a84b82fb439d7cba","E1","batch5","","null","<p class=block-text>Trial 41 out of 78</p>","null","pattern_show_trial_num","","","","","","","","","","","","","","","","","","","","","","","","",""
"","","","","","image-keyboard-response","103","223857","0.0-2.0-7.0-1.1","61006f43a84b82fb439d7cba","E1","batch5","","3532.999999999971","stim/no_34_1_b.png","j","pattern_response","true","j","pattern_16","3532.999999999971","true","38","","","","","","","","","","","","","","","","","","",""
"","","","","","html-keyboard-response","104","225160","0.0-2.0-7.0-0.2","61006f43a84b82fb439d7cba","E1","batch5","","null","<p class=block-text>Trial 42 out of 78</p>","null","pattern_show_trial_num","","","","","","","","","","","","","","","","","","","","","","","","",""
"","","","","","image-keyboard-response","105","227298","0.0-2.0-7.0-1.2","61006f43a84b82fb439d7cba","E1","batch5","","2117","stim/yes_31_hor_b1.png","f","pattern_response","true","f","pattern_55","2117","true","39","","","","","","","","","","","","","","","","","","",""
"","","","","","html-keyboard-response","106","228601","0.0-2.0-7.0-0.3","61006f43a84b82fb439d7cba","E1","batch5","","null","<p class=block-text>Trial 43 out of 78</p>","null","pattern_show_trial_num","","","","","","","","","","","","","","","","","","","","","","","","",""
"","","","","","image-keyboard-response","107","229316","0.0-2.0-7.0-1.3","61006f43a84b82fb439d7cba","E1","batch5","","704","stim/yes_28_ver_b1.png","f","pattern_response","true","f","pattern_51","704","true","40","","","","","","","","","","","","","","","","","","",""
"","","","","","html-keyboard-response","108","230618","0.0-2.0-7.0-0.4","61006f43a84b82fb439d7cba","E1","batch5","","null","<p class=block-text>Trial 44 out of 78</p>","null","pattern_show_trial_num","","","","","","","","","","","","","","","","","","","","","","","","",""
"","","","","","image-keyboard-response","109","233339","0.0-2.0-7.0-1.4","61006f43a84b82fb439d7cba","E1","batch5","","2710","stim/no_32_1_w.png","j","pattern_response","true","j","pattern_14","2710","true","41","","","","","","","","","","","","","","","","","","",""
"","","","","","html-keyboard-response","110","234641","0.0-2.0-7.0-0.5","61006f43a84b82fb439d7cba","E1","batch5","","null","<p class=block-text>Trial 45 out of 78</p>","null","pattern_show_trial_num","","","","","","","","","","","","","","","","","","","","","","","","",""
"","","","","","image-keyboard-response","111","235876","0.0-2.0-7.0-1.5","61006f43a84b82fb439d7cba","E1","batch5","","1223.999999999971","stim/no_20_1_w.png","j","pattern_response","true","j","pattern_06","1223.999999999971","true","42","","","","","","","","","","","","","","","","","","",""
"","","","","","html-keyboard-response","112","237179","0.0-2.0-7.0-0.6","61006f43a84b82fb439d7cba","E1","batch5","","null","<p class=block-text>Trial 46 out of 78</p>","null","pattern_show_trial_num","","","","","","","","","","","","","","","","","","","","","","","","",""
"","","","","","image-keyboard-response","113","238399","0.0-2.0-7.0-1.6","61006f43a84b82fb439d7cba","E1","batch5","","1199","stim/no_23_1.png","j","pattern_response","true","j","pattern_08","1199","true","43","","","","","","","","","","","","","","","","","","",""
"","","","","","html-keyboard-response","114","239702","0.0-2.0-7.0-0.7","61006f43a84b82fb439d7cba","E1","batch5","","null","<p class=block-text>Trial 47 out of 78</p>","null","pattern_show_trial_num","","","","","","","","","","","","","","","","","","","","","","","","",""
"","","","","","image-keyboard-response","115","240730","0.0-2.0-7.0-1.7","61006f43a84b82fb439d7cba","E1","batch5","","1006","stim/no_36_2_w.png","f","pattern_response","false","j","pattern_18","1006","false","43","","","","","","","","","","","","","","","","","","",""
"","","","","","html-keyboard-response","116","242032","0.0-2.0-7.0-0.8","61006f43a84b82fb439d7cba","E1","batch5","","null","<p class=block-text>Trial 48 out of 78</p>","null","pattern_show_trial_num","","","","","","","","","","","","","","","","","","","","","","","","",""
"","","","","","image-keyboard-response","117","245125","0.0-2.0-7.0-1.8","61006f43a84b82fb439d7cba","E1","batch5","","3071","stim/yes_40_dia_b1_b.png","f","pattern_response","true","f","pattern_63","3071","true","44","","","","","","","","","","","","","","","","","","",""
"","","","","","html-keyboard-response","118","246429","0.0-2.0-7.0-0.9","61006f43a84b82fb439d7cba","E1","batch5","","null","<p class=block-text>Trial 49 out of 78</p>","null","pattern_show_trial_num","","","","","","","","","","","","","","","","","","","","","","","","",""
"","","","","","image-keyboard-response","119","252115","0.0-2.0-7.0-1.9","61006f43a84b82fb439d7cba","E1","batch5","","5665.999999999942","stim/no_50_1.png","j","pattern_response","true","j","pattern_30","5665.999999999942","true","45","","","","","","","","","","","","","","","","","","",""
"","","","","","html-keyboard-response","120","253419","0.0-2.0-7.0-0.10","61006f43a84b82fb439d7cba","E1","batch5","","null","<p class=block-text>Trial 50 out of 78</p>","null","pattern_show_trial_num","","","","","","","","","","","","","","","","","","","","","","","","",""
"","","","","","image-keyboard-response","121","254541","0.0-2.0-7.0-1.10","61006f43a84b82fb439d7cba","E1","batch5","","1101","stim/no_13_2_b.png","j","pattern_response","true","j","pattern_02","1101","true","46","","","","","","","","","","","","","","","","","","",""
"","","","","","html-keyboard-response","122","255844","0.0-2.0-7.0-0.11","61006f43a84b82fb439d7cba","E1","batch5","","null","<p class=block-text>Trial 51 out of 78</p>","null","pattern_show_trial_num","","","","","","","","","","","","","","","","","","","","","","","","",""
"","","","","","image-keyboard-response","123","259196","0.0-2.0-7.0-1.11","61006f43a84b82fb439d7cba","E1","batch5","","3331","stim/no_42_1_w.png","j","pattern_response","true","j","pattern_22","3331","true","47","","","","","","","","","","","","","","","","","","",""
"","","","","","html-keyboard-response","124","260499","0.0-2.0-7.0-0.12","61006f43a84b82fb439d7cba","E1","batch5","","null","<p class=block-text>Trial 52 out of 78</p>","null","pattern_show_trial_num","","","","","","","","","","","","","","","","","","","","","","","","",""
"","","","","","image-keyboard-response","125","262164","0.0-2.0-7.0-1.12","61006f43a84b82fb439d7cba","E1","batch5","","1645","stim/no_26_1_w.png","j","pattern_response","true","j","pattern_10","1645","true","48","","","","","","","","","","","","","","","","","","",""
"","","","","","html-keyboard-response","126","263468","0.0-2.0-7.0-0.13","61006f43a84b82fb439d7cba","E1","batch5","","null","<p class=block-text>Trial 53 out of 78</p>","null","pattern_show_trial_num","","","","","","","","","","","","","","","","","","","","","","","","",""
"","","","","","image-keyboard-response","127","264579","0.0-2.0-7.0-1.13","61006f43a84b82fb439d7cba","E1","batch5","","1087","stim/yes_29_ver_w1.png","f","pattern_response","true","f","pattern_53","1087","true","49","","","","","","","","","","","","","","","","","","",""
"","","","","","html-keyboard-response","128","265882","0.0-2.0-7.0-0.14","61006f43a84b82fb439d7cba","E1","batch5","","null","<p class=block-text>Trial 54 out of 78</p>","null","pattern_show_trial_num","","","","","","","","","","","","","","","","","","","","","","","","",""
"","","","","","image-keyboard-response","129","268332","0.0-2.0-7.0-1.14","61006f43a84b82fb439d7cba","E1","batch5","","2429","stim/no_46_1_b.png","j","pattern_response","true","j","pattern_26","2429","true","50","","","","","","","","","","","","","","","","","","",""
"","","","","","html-keyboard-response","130","269635","0.0-2.0-7.0-0.15","61006f43a84b82fb439d7cba","E1","batch5","","null","<p class=block-text>Trial 55 out of 78</p>","null","pattern_show_trial_num","","","","","","","","","","","","","","","","","","","","","","","","",""
"","","","","","image-keyboard-response","131","273148","0.0-2.0-7.0-1.15","61006f43a84b82fb439d7cba","E1","batch5","","3493","stim/no_52_1.png","j","pattern_response","true","j","pattern_32","3493","true","51","","","","","","","","","","","","","","","","","","",""
"","","","","","html-keyboard-response","132","274452","0.0-2.0-7.0-0.16","61006f43a84b82fb439d7cba","E1","batch5","","null","<p class=block-text>Trial 56 out of 78</p>","null","pattern_show_trial_num","","","","","","","","","","","","","","","","","","","","","","","","",""
"","","","","","image-keyboard-response","133","276968","0.0-2.0-7.0-1.16","61006f43a84b82fb439d7cba","E1","batch5","","2495","stim/yes_37_dia_w1.png","j","pattern_response","false","f","pattern_59","2495","false","51","","","","","","","","","","","","","","","","","","",""
"","","","","","html-keyboard-response","134","278271","0.0-2.0-7.0-0.17","61006f43a84b82fb439d7cba","E1","batch5","","null","<p class=block-text>Trial 57 out of 78</p>","null","pattern_show_trial_num","","","","","","","","","","","","","","","","","","","","","","","","",""
"","","","","","image-keyboard-response","135","281308","0.0-2.0-7.0-1.17","61006f43a84b82fb439d7cba","E1","batch5","","3015","stim/yes_50_dia_w1.png","f","pattern_response","true","f","pattern_71","3015","true","52","","","","","","","","","","","","","","","","","","",""
"","","","","","html-keyboard-response","136","282610","0.0-2.0-7.0-0.18","61006f43a84b82fb439d7cba","E1","batch5","","null","<p class=block-text>Trial 58 out of 78</p>","null","pattern_show_trial_num","","","","","","","","","","","","","","","","","","","","","","","","",""
"","","","","","image-keyboard-response","137","283388","0.0-2.0-7.0-1.18","61006f43a84b82fb439d7cba","E1","batch5","","756.0000000000582","stim/yes_25_hor_b1_b.png","f","pattern_response","true","f","pattern_49","756.0000000000582","true","53","","","","","","","","","","","","","","","","","","",""
"","","","","","html-keyboard-response","138","284691","0.0-2.0-7.0-0.19","61006f43a84b82fb439d7cba","E1","batch5","","null","<p class=block-text>Trial 59 out of 78</p>","null","pattern_show_trial_num","","","","","","","","","","","","","","","","","","","","","","","","",""
"","","","","","image-keyboard-response","139","285381","0.0-2.0-7.0-1.19","61006f43a84b82fb439d7cba","E1","batch5","","670","stim/yes_22_ver_w1.png","f","pattern_response","true","f","pattern_47","670","true","54","","","","","","","","","","","","","","","","","","",""
"","","","","","html-keyboard-response","140","286685","0.0-2.0-7.0-0.20","61006f43a84b82fb439d7cba","E1","batch5","","null","<p class=block-text>Trial 60 out of 78</p>","null","pattern_show_trial_num","","","","","","","","","","","","","","","","","","","","","","","","",""
"","","","","","image-keyboard-response","141","288453","0.0-2.0-7.0-1.20","61006f43a84b82fb439d7cba","E1","batch5","","1748","stim/yes_48_dia_w1_w.png","f","pattern_response","true","f","pattern_69","1748","true","55","","","","","","","","","","","","","","","","","","",""
"","","","","","html-keyboard-response","142","289759","0.0-2.0-7.0-0.21","61006f43a84b82fb439d7cba","E1","batch5","","null","<p class=block-text>Trial 61 out of 78</p>","null","pattern_show_trial_num","","","","","","","","","","","","","","","","","","","","","","","","",""
"","","","","","image-keyboard-response","143","291413","0.0-2.0-7.0-1.21","61006f43a84b82fb439d7cba","E1","batch5","","1632","stim/yes_35_dia_b1.png","j","pattern_response","false","f","pattern_57","1632","false","55","","","","","","","","","","","","","","","","","","",""
"","","","","","html-keyboard-response","144","292716","0.0-2.0-7.0-0.22","61006f43a84b82fb439d7cba","E1","batch5","","null","<p class=block-text>Trial 62 out of 78</p>","null","pattern_show_trial_num","","","","","","","","","","","","","","","","","","","","","","","","",""
"","","","","","image-keyboard-response","145","296478","0.0-2.0-7.0-1.22","61006f43a84b82fb439d7cba","E1","batch5","","3741","stim/no_48_1_w.png","j","pattern_response","true","j","pattern_28","3741","true","56","","","","","","","","","","","","","","","","","","",""
"","","","","","html-keyboard-response","146","297781","0.0-2.0-7.0-0.23","61006f43a84b82fb439d7cba","E1","batch5","","null","<p class=block-text>Trial 63 out of 78</p>","null","pattern_show_trial_num","","","","","","","","","","","","","","","","","","","","","","","","",""
"","","","","","image-keyboard-response","147","300514","0.0-2.0-7.0-1.23","61006f43a84b82fb439d7cba","E1","batch5","","2712","stim/no_62_1_w.png","j","pattern_response","true","j","pattern_36","2712","true","57","","","","","","","","","","","","","","","","","","",""
"","","","","","html-keyboard-response","148","301818","0.0-2.0-7.0-0.24","61006f43a84b82fb439d7cba","E1","batch5","","null","<p class=block-text>Trial 64 out of 78</p>","null","pattern_show_trial_num","","","","","","","","","","","","","","","","","","","","","","","","",""
"","","","","","image-keyboard-response","149","302852","0.0-2.0-7.0-1.24","61006f43a84b82fb439d7cba","E1","batch5","","1013.0000000000582","stim/yes_60_ver_b1_b.png","f","pattern_response","true","f","pattern_77","1013.0000000000582","true","58","","","","","","","","","","","","","","","","","","",""
"","","","","","html-keyboard-response","150","304155","0.0-2.0-7.0-0.25","61006f43a84b82fb439d7cba","E1","batch5","","null","<p class=block-text>Trial 65 out of 78</p>","null","pattern_show_trial_num","","","","","","","","","","","","","","","","","","","","","","","","",""
"","","","","","image-keyboard-response","151","305447","0.0-2.0-7.0-1.25","61006f43a84b82fb439d7cba","E1","batch5","","1269","stim/yes_55_hor_w1_w.png","f","pattern_response","true","f","pattern_75","1269","true","59","","","","","","","","","","","","","","","","","","",""
"","","","","","html-keyboard-response","152","306749","0.0-2.0-7.0-0.26","61006f43a84b82fb439d7cba","E1","batch5","","null","<p class=block-text>Trial 66 out of 78</p>","null","pattern_show_trial_num","","","","","","","","","","","","","","","","","","","","","","","","",""
"","","","","","image-keyboard-response","153","307818","0.0-2.0-7.0-1.26","61006f43a84b82fb439d7cba","E1","batch5","","1047","stim/yes_43_ver_w1_w.png","f","pattern_response","true","f","pattern_65","1047","true","60","","","","","","","","","","","","","","","","","","",""
"","","","","","html-keyboard-response","154","309121","0.0-2.0-7.0-0.27","61006f43a84b82fb439d7cba","E1","batch5","","null","<p class=block-text>Trial 67 out of 78</p>","null","pattern_show_trial_num","","","","","","","","","","","","","","","","","","","","","","","","",""
"","","","","","image-keyboard-response","155","313924","0.0-2.0-7.0-1.27","61006f43a84b82fb439d7cba","E1","batch5","","4782.000000000058","stim/no_44_1.png","j","pattern_response","true","j","pattern_24","4782.000000000058","true","61","","","","","","","","","","","","","","","","","","",""
"","","","","","html-keyboard-response","156","315227","0.0-2.0-7.0-0.28","61006f43a84b82fb439d7cba","E1","batch5","","null","<p class=block-text>Trial 68 out of 78</p>","null","pattern_show_trial_num","","","","","","","","","","","","","","","","","","","","","","","","",""
"","","","","","image-keyboard-response","157","317214","0.0-2.0-7.0-1.28","61006f43a84b82fb439d7cba","E1","batch5","","1965","stim/yes_67_hor_b1.png","f","pattern_response","true","f","pattern_79","1965","true","62","","","","","","","","","","","","","","","","","","",""
"","","","","","html-keyboard-response","158","318517","0.0-2.0-7.0-0.29","61006f43a84b82fb439d7cba","E1","batch5","","null","<p class=block-text>Trial 69 out of 78</p>","null","pattern_show_trial_num","","","","","","","","","","","","","","","","","","","","","","","","",""
"","","","","","image-keyboard-response","159","319229","0.0-2.0-7.0-1.29","61006f43a84b82fb439d7cba","E1","batch5","","690.9999999999418","stim/yes_17_dia_w1.png","f","pattern_response","true","f","pattern_45","690.9999999999418","true","63","","","","","","","","","","","","","","","","","","",""
"","","","","","html-keyboard-response","160","320531","0.0-2.0-7.0-0.30","61006f43a84b82fb439d7cba","E1","batch5","","null","<p class=block-text>Trial 70 out of 78</p>","null","pattern_show_trial_num","","","","","","","","","","","","","","","","","","","","","","","","",""
"","","","","","image-keyboard-response","161","321522","0.0-2.0-7.0-1.30","61006f43a84b82fb439d7cba","E1","batch5","","970","stim/yes_38_hor_b1_b.png","f","pattern_response","true","f","pattern_61","970","true","64","","","","","","","","","","","","","","","","","","",""
"","","","","","html-keyboard-response","162","322826","0.0-2.0-7.0-0.31","61006f43a84b82fb439d7cba","E1","batch5","","null","<p class=block-text>Trial 71 out of 78</p>","null","pattern_show_trial_num","","","","","","","","","","","","","","","","","","","","","","","","",""
"","","","","","image-keyboard-response","163","329561","0.0-2.0-7.0-1.31","61006f43a84b82fb439d7cba","E1","batch5","","6714","stim/no_65_1_b.png","j","pattern_response","true","j","pattern_38","6714","true","65","","","","","","","","","","","","","","","","","","",""
"","","","","","html-keyboard-response","164","330864","0.0-2.0-7.0-0.32","61006f43a84b82fb439d7cba","E1","batch5","","null","<p class=block-text>Trial 72 out of 78</p>","null","pattern_show_trial_num","","","","","","","","","","","","","","","","","","","","","","","","",""
"","","","","","image-keyboard-response","165","332187","0.0-2.0-7.0-1.32","61006f43a84b82fb439d7cba","E1","batch5","","1301.0000000000582","stim/yes_45_hor_b2_b.png","f","pattern_response","true","f","pattern_67","1301.0000000000582","true","66","","","","","","","","","","","","","","","","","","",""
"","","","","","html-keyboard-response","166","333489","0.0-2.0-7.0-0.33","61006f43a84b82fb439d7cba","E1","batch5","","null","<p class=block-text>Trial 73 out of 78</p>","null","pattern_show_trial_num","","","","","","","","","","","","","","","","","","","","","","","","",""
"","","","","","image-keyboard-response","167","336436","0.0-2.0-7.0-1.33","61006f43a84b82fb439d7cba","E1","batch5","","2926","stim/no_38_1_b.png","j","pattern_response","true","j","pattern_20","2926","true","67","","","","","","","","","","","","","","","","","","",""
"","","","","","html-keyboard-response","168","337739","0.0-2.0-7.0-0.34","61006f43a84b82fb439d7cba","E1","batch5","","null","<p class=block-text>Trial 74 out of 78</p>","null","pattern_show_trial_num","","","","","","","","","","","","","","","","","","","","","","","","",""
"","","","","","image-keyboard-response","169","340508","0.0-2.0-7.0-1.34","61006f43a84b82fb439d7cba","E1","batch5","","2747","stim/no_29_1_b.png","j","pattern_response","true","j","pattern_12","2747","true","68","","","","","","","","","","","","","","","","","","",""
"","","","","","html-keyboard-response","170","341811","0.0-2.0-7.0-0.35","61006f43a84b82fb439d7cba","E1","batch5","","null","<p class=block-text>Trial 75 out of 78</p>","null","pattern_show_trial_num","","","","","","","","","","","","","","","","","","","","","","","","",""
"","","","","","image-keyboard-response","171","343435","0.0-2.0-7.0-1.35","61006f43a84b82fb439d7cba","E1","batch5","","1603","stim/no_17_1_w.png","j","pattern_response","true","j","pattern_04","1603","true","69","","","","","","","","","","","","","","","","","","",""
"","","","","","html-keyboard-response","172","344739","0.0-2.0-7.0-0.36","61006f43a84b82fb439d7cba","E1","batch5","","null","<p class=block-text>Trial 76 out of 78</p>","null","pattern_show_trial_num","","","","","","","","","","","","","","","","","","","","","","","","",""
"","","","","","image-keyboard-response","173","349868","0.0-2.0-7.0-1.36","61006f43a84b82fb439d7cba","E1","batch5","","5106","stim/no_55_1_w.png","j","pattern_response","true","j","pattern_34","5106","true","70","","","","","","","","","","","","","","","","","","",""
"","","","","","html-keyboard-response","174","351171","0.0-2.0-7.0-0.37","61006f43a84b82fb439d7cba","E1","batch5","","null","<p class=block-text>Trial 77 out of 78</p>","null","pattern_show_trial_num","","","","","","","","","","","","","","","","","","","","","","","","",""
"","","","","","image-keyboard-response","175","352332","0.0-2.0-7.0-1.37","61006f43a84b82fb439d7cba","E1","batch5","","1139","stim/yes_52_ver_w1.png","f","pattern_response","true","f","pattern_73","1139","true","71","","","","","","","","","","","","","","","","","","",""
"","","","","","html-keyboard-response","176","353635","0.0-2.0-7.0-0.38","61006f43a84b82fb439d7cba","E1","batch5","","null","<p class=block-text>Trial 78 out of 78</p>","null","pattern_show_trial_num","","","","","","","","","","","","","","","","","","","","","","","","",""
"","","","","","image-keyboard-response","177","354303","0.0-2.0-7.0-1.38","61006f43a84b82fb439d7cba","E1","batch5","","644","stim/yes_14_hor_b1_w.png","f","pattern_response","true","f","pattern_43","644","true","72","","","","","","","","","","","","","","","","","","",""
"","","","","","html-button-response","178","366187","0.0-2.0-8.0","61006f43a84b82fb439d7cba","E1","batch5","","11381.000000000058","<p class = block-text>This concludes the 4-in-a-row detection game.Thank you for your responses!<br>
            You responded correctly on 92% of the trials.<br>
            When you are ready, press ""Continue"" button to continue </p>","0","","","","","","","","","","","","","","","","","","","","","","","","","",""
"true","","","","","fullscreen","179","369410","0.0-3.0-0.0","61006f43a84b82fb439d7cba","E1","batch5","","","","","","","","","","","","","","","","","","","","","","","","","","","","","",""
"","","","","","instructions","180","403199","0.0-3.0-1.0-0.0-0.0","61006f43a84b82fb439d7cba","E1","batch5","[{""page_index"":0,""viewing_time"":10379},{""page_index"":1,""viewing_time"":4183.000000000058},{""page_index"":2,""viewing_time"":2022.9999999999418},{""page_index"":3,""viewing_time"":2511},{""page_index"":4,""viewing_time"":1882.0000000000582},{""page_index"":5,""viewing_time"":10356.999999999942},{""page_index"":6,""viewing_time"":2452}]","33788.00000000006","","","tol-instructions","","","","","","","","","","","","","","","","","","","","","","","","",""
"","","","","","html-button-response","181","404291","0.0-3.0-1.0-1.0-0.0","61006f43a84b82fb439d7cba","E1","batch5","","1090","<p class=block-text> Let's answer a few questions <br>","0","tol_enter_quiz","","","","","","","","","","","","","","","","","","","","","","","","",""
"","","","","","html-button-response","182","408037","0.0-3.0-1.0-1.0-1.0","61006f43a84b82fb439d7cba","E1","batch5","","3745","<p class = block-text>True or False: You can only move the ball on top of a peg. <br></p>","1","tol_quiz","false","","","","","","","","","","","","","","","","","","","","","","","",""
"","","","","","html-button-response","183","411547","0.0-3.0-1.0-1.0-2.0","61006f43a84b82fb439d7cba","E1","batch5","","3508.999999999942","<p class = block-text>Incorrect. Remember, you can only move the ball on top of a peg.</p>","0","tol_quiz_feedback","","","","","","","","","","","","","","","","","","","","","","","","",""
"","","","","","html-button-response","184","414975","0.0-3.0-1.0-1.0-3.0","61006f43a84b82fb439d7cba","E1","batch5","","3427","<p class = block-text>True or False: You should try to match your board with the target board with fewest moves possible. <br></p>","0","tol_quiz","true","","","","","","","","","","","","","","","","","","","","","","","",""
"","","","","","html-button-response","185","415931","0.0-3.0-1.0-1.0-4.0","61006f43a84b82fb439d7cba","E1","batch5","","954","<p class = block-text>Correct! </p>","0","tol_quiz_feedback","","","","","","","","","","","","","","","","","","","","","","","","",""
"","","","","","html-button-response","186","417967","0.0-3.0-1.0-2.0-0.0","61006f43a84b82fb439d7cba","E1","batch5","","2035.0000000000582","<p class = block-text>You made too many incorrect choices.</p><p class = block-text>You will now repeat the instructions and quiz</p>","0","","","","","","","","","","","","","","","","","","","","","","","","","",""
"","","","","","instructions","187","429974","0.0-3.0-1.1-0.1-0.1","61006f43a84b82fb439d7cba","E1","batch5","[{""page_index"":0,""viewing_time"":2898},{""page_index"":1,""viewing_time"":1007},{""page_index"":2,""viewing_time"":889},{""page_index"":3,""viewing_time"":1752.0000000000582},{""page_index"":4,""viewing_time"":1792.9999999999418},{""page_index"":5,""viewing_time"":1421.0000000000582},{""page_index"":6,""viewing_time"":2245}]","12006","","","tol-instructions","","","","","","","","","","","","","","","","","","","","","","","","",""
"","","","","","html-button-response","188","430796","0.0-3.0-1.1-1.1-0.1","61006f43a84b82fb439d7cba","E1","batch5","","821.0000000000582","<p class=block-text> Let's answer a few questions <br>","0","tol_enter_quiz","","","","","","","","","","","","","","","","","","","","","","","","",""
"","","","","","html-button-response","189","432280","0.0-3.0-1.1-1.1-1.1","61006f43a84b82fb439d7cba","E1","batch5","","1481","<p class = block-text>True or False: You can only move the ball on top of a peg. <br></p>","0","tol_quiz","true","","","","","","","","","","","","","","","","","","","","","","","",""
"","","","","","html-button-response","190","433186","0.0-3.0-1.1-1.1-2.1","61006f43a84b82fb439d7cba","E1","batch5","","905","<p class = block-text>Correct! You can only move the ball on top of a peg.</p>","0","tol_quiz_feedback","","","","","","","","","","","","","","","","","","","","","","","","",""
"","","","","","html-button-response","191","435197","0.0-3.0-1.1-1.1-3.1","61006f43a84b82fb439d7cba","E1","batch5","","2010","<p class = block-text>True or False: You should try to match your board with the target board with fewest moves possible. <br></p>","0","tol_quiz","true","","","","","","","","","","","","","","","","","","","","","","","",""
"","","","","","html-button-response","192","435875","0.0-3.0-1.1-1.1-4.1","61006f43a84b82fb439d7cba","E1","batch5","","677","<p class = block-text>Correct! </p>","0","tol_quiz_feedback","","","","","","","","","","","","","","","","","","","","","","","","",""
"","","","","","html-button-response","193","436639","0.0-3.0-2.0","61006f43a84b82fb439d7cba","E1","batch5","","762","<p class=block-text> Now that you've understood the game, let's practice a few easier examples before we start!<br> <br>","0","","","","","","","","","","","","","","","","","","","","","","","","","",""
"","","","","","single-stim-button","194","439158","0.0-3.0-3.0-0.0","61006f43a84b82fb439d7cba","E1","batch5","","2516","","","tol_practice","","","","","","","","","tol_peg_2","2516","2516","0","[[1,2,0],[0,0],[0]]","1","[[1,2,0],[0,0],[3]]","practice","2516","","","","","","","",""
"","","","","","single-stim-button","195","439892","0.0-3.0-3.0-1.0","61006f43a84b82fb439d7cba","E1","batch5","","731","","","tol_practice","","","","","","","","","tol_peg_3","731","731","0","[[1,2,0],[0,0],[3]]","1","[[1,2,0],[0,0],[3]]","practice","731","","","","","","","",""
"","","","","","poldrack-single-stim","196","440897","0.0-3.0-4.0","61006f43a84b82fb439d7cba","E1","batch5","","-1","","","tol_feedback","true","","","","","","","","","1000","1000","500","","","","","","-1","none","true","","0","","",""
"","","","","","single-stim-button","197","443721","0.0-3.0-5.0-0.0","61006f43a84b82fb439d7cba","E1","batch5","","2823","","","tol_practice","","","","","","","","","tol_peg_1","2823","2823","0","[[1,0,0],[3,0],[0]]","2","[[0,0,0],[3,1],[2]]","practice","2823","","","","","","","",""
"","","","","","single-stim-button","198","444613","0.0-3.0-5.0-1.0","61006f43a84b82fb439d7cba","E1","batch5","","890","","","tol_practice","","","","","","","","","tol_peg_3","890","890","0","[[1,0,0],[3,0],[2]]","2","[[0,0,0],[3,1],[2]]","practice","890","","","","","","","",""
"","","","","","single-stim-button","199","445768","0.0-3.0-5.1-0.1","61006f43a84b82fb439d7cba","E1","batch5","","1154","","","tol_practice","","","","","","","","","tol_peg_1","1154","1154","0","[[0,0,0],[3,0],[2]]","3","[[0,0,0],[3,1],[2]]","practice","1154","","","","","","","",""
"","","","","","single-stim-button","200","446667","0.0-3.0-5.1-1.1","61006f43a84b82fb439d7cba","E1","batch5","","897","","","tol_practice","","","","","","","","","tol_peg_2","897","897","0","[[0,0,0],[3,1],[2]]","3","[[0,0,0],[3,1],[2]]","practice","897","","","","","","","",""
"","","","","","poldrack-single-stim","201","447671","0.0-3.0-6.0","61006f43a84b82fb439d7cba","E1","batch5","","-1","","","tol_feedback","true","","","","","","","","","1000","1000","500","","","","","","-1","none","true","","0","","",""
"","","","","","single-stim-button","202","450498","0.0-3.0-7.0-0.0","61006f43a84b82fb439d7cba","E1","batch5","","2826","","","tol_practice","","","","","","","","","tol_peg_2","2826","2826","0","[[1,2,0],[0,0],[0]]","4","[[1,0,0],[2,0],[3]]","practice","2826","","","","","","","",""
"","","","","","single-stim-button","203","451087","0.0-3.0-7.0-1.0","61006f43a84b82fb439d7cba","E1","batch5","","587","","","tol_practice","","","","","","","","","tol_peg_3","587","587","0","[[1,2,0],[0,0],[3]]","4","[[1,0,0],[2,0],[3]]","practice","587","","","","","","","",""
"","","","","","single-stim-button","204","451807","0.0-3.0-7.1-0.1","61006f43a84b82fb439d7cba","E1","batch5","","718","","","tol_practice","","","","","","","","","tol_peg_1","718","718","0","[[1,0,0],[0,0],[3]]","5","[[1,0,0],[2,0],[3]]","practice","718","","","","","","","",""
"","","","","","single-stim-button","205","452578","0.0-3.0-7.1-1.1","61006f43a84b82fb439d7cba","E1","batch5","","770","","","tol_practice","","","","","","","","","tol_peg_2","770","770","0","[[1,0,0],[2,0],[3]]","5","[[1,0,0],[2,0],[3]]","practice","770","","","","","","","",""
"","","","","","poldrack-single-stim","206","453582","0.0-3.0-8.0","61006f43a84b82fb439d7cba","E1","batch5","","-1","","","tol_feedback","true","","","","","","","","","1000","1000","500","","","","","","-1","none","true","","0","","",""
"","","","","","html-button-response","207","455830","0.0-3.0-9.0","61006f43a84b82fb439d7cba","E1","batch5","","2247","<div class = centerbox><p class = center-block-text>Great job! You are done with practice trials<br>You are about to start official trials.<br> <br> Problem <strong>1</strong> out of 25 problems</p></div>","0","tol_instruction","","","","","","","","","","","","","","","","","","","","","","","","",""
"","","","","","single-stim-button","208","462811","0.0-3.0-10.0-0.0","61006f43a84b82fb439d7cba","E1","batch5","","5979","","","tol_tohand","","","","","","","","","tol_peg_2","5979","5979","0","[[1,2,0],[0,0],[0]]","1","[[1,3,0],[2,0],[0]]","0","0","","","","","","3","",""
"","","","","","single-stim-button","209","464935","0.0-3.0-10.0-1.0","61006f43a84b82fb439d7cba","E1","batch5","","2121","","","tol_toboard","","","","","","","","","tol_peg_3","2121","2121","0","[[1,2,0],[0,0],[3]]","1","[[1,3,0],[2,0],[0]]","0","0","","","","","","3","",""
"","","","","","single-stim-button","210","465512","0.0-3.0-10.1-0.1","61006f43a84b82fb439d7cba","E1","batch5","","575","","","tol_tohand","","","","","","","","","tol_peg_1","575","575","0","[[1,0,0],[0,0],[3]]","2","[[1,3,0],[2,0],[0]]","0","0","","","","","","3","",""
"","","","","","single-stim-button","211","466115","0.0-3.0-10.1-1.1","61006f43a84b82fb439d7cba","E1","batch5","","602","","","tol_toboard","","","","","","","","","tol_peg_2","602","602","0","[[1,0,0],[2,0],[3]]","2","[[1,3,0],[2,0],[0]]","0","0","","","","","","3","",""
"","","","","","single-stim-button","212","466671","0.0-3.0-10.2-0.2","61006f43a84b82fb439d7cba","E1","batch5","","554","","","tol_tohand","","","","","","","","","tol_peg_3","554","554","0","[[1,0,0],[2,0],[0]]","3","[[1,3,0],[2,0],[0]]","0","0","","","","","","3","",""
"","","","","","single-stim-button","213","467148","0.0-3.0-10.2-1.2","61006f43a84b82fb439d7cba","E1","batch5","","476","","","tol_toboard","","","","","","","","","tol_peg_1","476","476","0","[[1,3,0],[2,0],[0]]","3","[[1,3,0],[2,0],[0]]","0","0","","","","","","3","",""
"","","","","","poldrack-single-stim","214","468152","0.0-3.0-11.0","61006f43a84b82fb439d7cba","E1","batch5","","-1","","","tol_feedback","true","","","","","","","","","1000","1000","500","","","","","","-1","none","true","5979","7108","","",""
"","","","","","html-button-response","215","469168","0.0-3.0-12.0","61006f43a84b82fb439d7cba","E1","batch5","","1014","<div class = centerbox><p class = center-block-text>problem <strong>2</strong> out of 25 problems</p></div>","0","tol_trial_num","","","","","","","","","","","","","","","","","","","","","","","","",""
"","","","","","single-stim-button","216","473118","0.0-3.0-13.0-0.0","61006f43a84b82fb439d7cba","E1","batch5","","3948","","","tol_tohand","","","","","","","","","tol_peg_1","3948","3948","0","[[1,0,0],[3,0],[0]]","1","[[2,1,3],[0,0],[0]]","1","0","","","","","","5","",""
"","","","","","single-stim-button","217","473723","0.0-3.0-13.0-1.0","61006f43a84b82fb439d7cba","E1","batch5","","604","","","tol_toboard","","","","","","","","","tol_peg_2","604","604","0","[[1,0,0],[3,2],[0]]","1","[[2,1,3],[0,0],[0]]","1","0","","","","","","5","",""
"","","","","","single-stim-button","218","474310","0.0-3.0-13.1-0.1","61006f43a84b82fb439d7cba","E1","batch5","","584","","","tol_tohand","","","","","","","","","tol_peg_1","584","584","0","[[0,0,0],[3,2],[0]]","2","[[2,1,3],[0,0],[0]]","1","0","","","","","","5","",""
"","","","","","single-stim-button","219","475266","0.0-3.0-13.1-1.1","61006f43a84b82fb439d7cba","E1","batch5","","954","","","tol_toboard","","","","","","","","","tol_peg_3","954","954","0","[[0,0,0],[3,2],[1]]","2","[[2,1,3],[0,0],[0]]","1","0","","","","","","5","",""
"","","","","","single-stim-button","220","475905","0.0-3.0-13.2-0.2","61006f43a84b82fb439d7cba","E1","batch5","","637","","","tol_tohand","","","","","","","","","tol_peg_2","637","637","0","[[0,0,0],[3,0],[1]]","3","[[2,1,3],[0,0],[0]]","1","0","","","","","","5","",""
"","","","","","single-stim-button","221","476544","0.0-3.0-13.2-1.2","61006f43a84b82fb439d7cba","E1","batch5","","637","","","tol_toboard","","","","","","","","","tol_peg_1","637","637","0","[[2,0,0],[3,0],[1]]","3","[[2,1,3],[0,0],[0]]","1","0","","","","","","5","",""
"","","","","","single-stim-button","222","477458","0.0-3.0-13.3-0.3","61006f43a84b82fb439d7cba","E1","batch5","","913","","","tol_tohand","","","","","","","","","tol_peg_3","913","913","0","[[2,0,0],[3,0],[0]]","4","[[2,1,3],[0,0],[0]]","1","0","","","","","","5","",""
"","","","","","single-stim-button","223","477994","0.0-3.0-13.3-1.3","61006f43a84b82fb439d7cba","E1","batch5","","529","","","tol_toboard","","","","","","","","","tol_peg_1","529","529","0","[[2,1,0],[3,0],[0]]","4","[[2,1,3],[0,0],[0]]","1","0","","","","","","5","",""
"","","","","","single-stim-button","224","478651","0.0-3.0-13.4-0.4","61006f43a84b82fb439d7cba","E1","batch5","","655","","","tol_tohand","","","","","","","","","tol_peg_2","655","655","0","[[2,1,0],[0,0],[0]]","5","[[2,1,3],[0,0],[0]]","1","0","","","","","","5","",""
"","","","","","single-stim-button","225","479061","0.0-3.0-13.4-1.4","61006f43a84b82fb439d7cba","E1","batch5","","408","","","tol_toboard","","","","","","","","","tol_peg_1","408","408","0","[[2,1,3],[0,0],[0]]","5","[[2,1,3],[0,0],[0]]","1","0","","","","","","5","",""
"","","","","","poldrack-single-stim","226","480065","0.0-3.0-14.0","61006f43a84b82fb439d7cba","E1","batch5","","-1","","","tol_feedback","true","","","","","","","","","1000","1000","500","","","","","","-1","none","true","3948","6737","","",""
"","","","","","html-button-response","227","481097","0.0-3.0-15.0","61006f43a84b82fb439d7cba","E1","batch5","","1031","<div class = centerbox><p class = center-block-text>problem <strong>3</strong> out of 25 problems</p></div>","0","tol_trial_num","","","","","","","","","","","","","","","","","","","","","","","","",""
"","","","","","single-stim-button","228","484101","0.0-3.0-16.0-0.0","61006f43a84b82fb439d7cba","E1","batch5","","3004","","","tol_tohand","","","","","","","","","tol_peg_1","3004","3004","0","[[2,0,0],[0,0],[1]]","1","[[1,2,0],[3,0],[0]]","2","0","","","","","","4","",""
"","","","","","single-stim-button","229","485241","0.0-3.0-16.0-1.0","61006f43a84b82fb439d7cba","E1","batch5","","1139","","","tol_toboard","","","","","","","","","tol_peg_2","1139","1139","0","[[2,0,0],[3,0],[1]]","1","[[1,2,0],[3,0],[0]]","2","0","","","","","","4","",""
"","","","","","single-stim-button","230","486244","0.0-3.0-16.1-0.1","61006f43a84b82fb439d7cba","E1","batch5","","1000","","","tol_tohand","","","","","","","","","tol_peg_1","1000","1000","0","[[0,0,0],[3,0],[1]]","2","[[1,2,0],[3,0],[0]]","2","0","","","","","","4","",""
"","","","","","single-stim-button","231","486836","0.0-3.0-16.1-1.1","61006f43a84b82fb439d7cba","E1","batch5","","589","","","tol_toboard","","","","","","","","","tol_peg_2","589","589","0","[[0,0,0],[3,2],[1]]","2","[[1,2,0],[3,0],[0]]","2","0","","","","","","4","",""
"","","","","","single-stim-button","232","487529","0.0-3.0-16.2-0.2","61006f43a84b82fb439d7cba","E1","batch5","","691","","","tol_tohand","","","","","","","","","tol_peg_3","691","691","0","[[0,0,0],[3,2],[0]]","3","[[1,2,0],[3,0],[0]]","2","0","","","","","","4","",""
"","","","","","single-stim-button","233","488217","0.0-3.0-16.2-1.2","61006f43a84b82fb439d7cba","E1","batch5","","687","","","tol_toboard","","","","","","","","","tol_peg_1","687","687","0","[[1,0,0],[3,2],[0]]","3","[[1,2,0],[3,0],[0]]","2","0","","","","","","4","",""
"","","","","","single-stim-button","234","488875","0.0-3.0-16.3-0.3","61006f43a84b82fb439d7cba","E1","batch5","","655","","","tol_tohand","","","","","","","","","tol_peg_2","655","655","0","[[1,0,0],[3,0],[0]]","4","[[1,2,0],[3,0],[0]]","2","0","","","","","","4","",""
"","","","","","single-stim-button","235","489314","0.0-3.0-16.3-1.3","61006f43a84b82fb439d7cba","E1","batch5","","436","","","tol_toboard","","","","","","","","","tol_peg_1","436","436","0","[[1,2,0],[3,0],[0]]","4","[[1,2,0],[3,0],[0]]","2","0","","","","","","4","",""
"","","","","","poldrack-single-stim","236","490317","0.0-3.0-17.0","61006f43a84b82fb439d7cba","E1","batch5","","-1","","","tol_feedback","true","","","","","","","","","1000","1000","500","","","","","","-1","none","true","3004","5350","","",""
"","","","","","html-button-response","237","491173","0.0-3.0-18.0","61006f43a84b82fb439d7cba","E1","batch5","","856","<div class = centerbox><p class = center-block-text>problem <strong>4</strong> out of 25 problems</p></div>","0","tol_trial_num","","","","","","","","","","","","","","","","","","","","","","","","",""
"","","","","","single-stim-button","238","494794","0.0-3.0-19.0-0.0","61006f43a84b82fb439d7cba","E1","batch5","","3619","","","tol_tohand","","","","","","","","","tol_peg_2","3619","3619","0","[[3,0,0],[2,0],[0]]","1","[[3,0,0],[1,0],[2]]","3","0","","","","","","3","",""
"","","","","","single-stim-button","239","495467","0.0-3.0-19.0-1.0","61006f43a84b82fb439d7cba","E1","batch5","","671","","","tol_toboard","","","","","","","","","tol_peg_1","671","671","0","[[3,1,0],[2,0],[0]]","1","[[3,0,0],[1,0],[2]]","3","0","","","","","","3","",""
"","","","","","single-stim-button","240","495965","0.0-3.0-19.1-0.1","61006f43a84b82fb439d7cba","E1","batch5","","497","","","tol_tohand","","","","","","","","","tol_peg_2","497","497","0","[[3,1,0],[0,0],[0]]","2","[[3,0,0],[1,0],[2]]","3","0","","","","","","3","",""
"","","","","","single-stim-button","241","496453","0.0-3.0-19.1-1.1","61006f43a84b82fb439d7cba","E1","batch5","","484","","","tol_toboard","","","","","","","","","tol_peg_3","484","484","0","[[3,1,0],[0,0],[2]]","2","[[3,0,0],[1,0],[2]]","3","0","","","","","","3","",""
"","","","","","single-stim-button","242","497142","0.0-3.0-19.2-0.2","61006f43a84b82fb439d7cba","E1","batch5","","687","","","tol_tohand","","","","","","","","","tol_peg_1","687","687","0","[[3,0,0],[0,0],[2]]","3","[[3,0,0],[1,0],[2]]","3","0","","","","","","3","",""
"","","","","","single-stim-button","243","497834","0.0-3.0-19.2-1.2","61006f43a84b82fb439d7cba","E1","batch5","","689","","","tol_toboard","","","","","","","","","tol_peg_2","689","689","0","[[3,0,0],[1,0],[2]]","3","[[3,0,0],[1,0],[2]]","3","0","","","","","","3","",""
"","","","","","poldrack-single-stim","244","498837","0.0-3.0-20.0","61006f43a84b82fb439d7cba","E1","batch5","","-1","","","tol_feedback","true","","","","","","","","","1000","1000","500","","","","","","-1","none","true","3619","4803","","",""
"","","","","","html-button-response","245","499781","0.0-3.0-21.0","61006f43a84b82fb439d7cba","E1","batch5","","942","<div class = centerbox><p class = center-block-text>problem <strong>5</strong> out of 25 problems</p></div>","0","tol_trial_num","","","","","","","","","","","","","","","","","","","","","","","","",""
"","","","","","single-stim-button","246","506412","0.0-3.0-22.0-0.0","61006f43a84b82fb439d7cba","E1","batch5","","6630","","","tol_tohand","","","","","","","","","tol_peg_1","6630","6630","0","[[0,0,0],[2,0],[3]]","1","[[0,0,0],[1,2],[3]]","4","0","","","","","","7","",""
"","","","","","single-stim-button","247","522971","0.0-3.0-22.0-1.0","61006f43a84b82fb439d7cba","E1","batch5","","16556","","","tol_toboard","","","","","","","","","tol_peg_1","16556","16556","0","[[1,0,0],[2,0],[3]]","1","[[0,0,0],[1,2],[3]]","4","0","","","","","","7","",""
"","","","","","single-stim-button","248","524042","0.0-3.0-22.1-0.1","61006f43a84b82fb439d7cba","E1","batch5","","1068","","","tol_tohand","","","","","","","","","tol_peg_3","1068","1068","0","[[1,0,0],[2,0],[0]]","2","[[0,0,0],[1,2],[3]]","4","0","","","","","","7","",""
"","","","","","single-stim-button","249","524448","0.0-3.0-22.1-1.1","61006f43a84b82fb439d7cba","E1","batch5","","405","","","tol_toboard","","","","","","","","","tol_peg_2","405","405","0","[[1,0,0],[2,3],[0]]","2","[[0,0,0],[1,2],[3]]","4","0","","","","","","7","",""
"","","","","","single-stim-button","250","525121","0.0-3.0-22.2-0.2","61006f43a84b82fb439d7cba","E1","batch5","","672","","","tol_tohand","","","","","","","","","tol_peg_1","672","672","0","[[0,0,0],[2,3],[0]]","3","[[0,0,0],[1,2],[3]]","4","0","","","","","","7","",""
"","","","","","single-stim-button","251","526000","0.0-3.0-22.2-1.2","61006f43a84b82fb439d7cba","E1","batch5","","876","","","tol_toboard","","","","","","","","","tol_peg_3","876","876","0","[[0,0,0],[2,3],[1]]","3","[[0,0,0],[1,2],[3]]","4","0","","","","","","7","",""
"","","","","","single-stim-button","252","526672","0.0-3.0-22.3-0.3","61006f43a84b82fb439d7cba","E1","batch5","","671","","","tol_tohand","","","","","","","","","tol_peg_2","671","671","0","[[0,0,0],[2,0],[1]]","4","[[0,0,0],[1,2],[3]]","4","0","","","","","","7","",""
"","","","","","single-stim-button","253","527511","0.0-3.0-22.3-1.3","61006f43a84b82fb439d7cba","E1","batch5","","836","","","tol_toboard","","","","","","","","","tol_peg_1","836","836","0","[[3,0,0],[2,0],[1]]","4","[[0,0,0],[1,2],[3]]","4","0","","","","","","7","",""
"","","","","","single-stim-button","254","528250","0.0-3.0-22.4-0.4","61006f43a84b82fb439d7cba","E1","batch5","","738","","","tol_tohand","","","","","","","","","tol_peg_2","738","738","0","[[3,0,0],[0,0],[1]]","5","[[0,0,0],[1,2],[3]]","4","0","","","","","","7","",""
"","","","","","single-stim-button","255","528875","0.0-3.0-22.4-1.4","61006f43a84b82fb439d7cba","E1","batch5","","623","","","tol_toboard","","","","","","","","","tol_peg_1","623","623","0","[[3,2,0],[0,0],[1]]","5","[[0,0,0],[1,2],[3]]","4","0","","","","","","7","",""
"","","","","","single-stim-button","256","529533","0.0-3.0-22.5-0.5","61006f43a84b82fb439d7cba","E1","batch5","","655","","","tol_tohand","","","","","","","","","tol_peg_3","655","655","0","[[3,2,0],[0,0],[0]]","6","[[0,0,0],[1,2],[3]]","4","0","","","","","","7","",""
"","","","","","single-stim-button","257","530006","0.0-3.0-22.5-1.5","61006f43a84b82fb439d7cba","E1","batch5","","470","","","tol_toboard","","","","","","","","","tol_peg_2","470","470","0","[[3,2,0],[1,0],[0]]","6","[[0,0,0],[1,2],[3]]","4","0","","","","","","7","",""
"","","","","","single-stim-button","258","530594","0.0-3.0-22.6-0.6","61006f43a84b82fb439d7cba","E1","batch5","","586","","","tol_tohand","","","","","","","","","tol_peg_1","586","586","0","[[3,0,0],[1,0],[0]]","7","[[0,0,0],[1,2],[3]]","4","0","","","","","","7","",""
"","","","","","single-stim-button","259","531202","0.0-3.0-22.6-1.6","61006f43a84b82fb439d7cba","E1","batch5","","606","","","tol_toboard","","","","","","","","","tol_peg_2","606","606","0","[[3,0,0],[1,2],[0]]","7","[[0,0,0],[1,2],[3]]","4","0","","","","","","7","",""
"","","","","","single-stim-button","260","531776","0.0-3.0-22.7-0.7","61006f43a84b82fb439d7cba","E1","batch5","","572","","","tol_tohand","","","","","","","","","tol_peg_1","572","572","0","[[0,0,0],[1,2],[0]]","8","[[0,0,0],[1,2],[3]]","4","0","","","","","","7","",""
"","","","","","single-stim-button","261","532447","0.0-3.0-22.7-1.7","61006f43a84b82fb439d7cba","E1","batch5","","670","","","tol_toboard","","","","","","","","","tol_peg_3","670","670","0","[[0,0,0],[1,2],[3]]","8","[[0,0,0],[1,2],[3]]","4","0","","","","","","7","",""
"","","","","","poldrack-single-stim","262","533451","0.0-3.0-23.0","61006f43a84b82fb439d7cba","E1","batch5","","-1","","","tol_feedback","true","","","","","","","","","1000","1000","500","","","","","","-1","none","true","6630","11592","","",""
"","","","","","html-button-response","263","534290","0.0-3.0-24.0","61006f43a84b82fb439d7cba","E1","batch5","","839","<div class = centerbox><p class = center-block-text>problem <strong>6</strong> out of 25 problems</p></div>","0","tol_trial_num","","","","","","","","","","","","","","","","","","","","","","","","",""
"","","","","","single-stim-button","264","541163","0.0-3.0-25.0-0.0","61006f43a84b82fb439d7cba","E1","batch5","","6873","","","tol_tohand","","","","","","","","","tol_peg_3","6873","6873","0","[[0,0,0],[1,2],[0]]","1","[[1,0,0],[2,3],[0]]","5","0","","","","","","6","",""
"","","","","","single-stim-button","265","542030","0.0-3.0-25.0-1.0","61006f43a84b82fb439d7cba","E1","batch5","","864","","","tol_toboard","","","","","","","","","tol_peg_1","864","864","0","[[3,0,0],[1,2],[0]]","1","[[1,0,0],[2,3],[0]]","5","0","","","","","","6","",""
"","","","","","single-stim-button","266","543650","0.0-3.0-25.1-0.1","61006f43a84b82fb439d7cba","E1","batch5","","1619","","","tol_tohand","","","","","","","","","tol_peg_2","1619","1619","0","[[3,0,0],[1,0],[0]]","2","[[1,0,0],[2,3],[0]]","5","0","","","","","","6","",""
"","","","","","single-stim-button","267","544191","0.0-3.0-25.1-1.1","61006f43a84b82fb439d7cba","E1","batch5","","539","","","tol_toboard","","","","","","","","","tol_peg_1","539","539","0","[[3,2,0],[1,0],[0]]","2","[[1,0,0],[2,3],[0]]","5","0","","","","","","6","",""
"","","","","","single-stim-button","268","544932","0.0-3.0-25.2-0.2","61006f43a84b82fb439d7cba","E1","batch5","","739","","","tol_tohand","","","","","","","","","tol_peg_2","739","739","0","[[3,2,0],[0,0],[0]]","3","[[1,0,0],[2,3],[0]]","5","0","","","","","","6","",""
"","","","","","single-stim-button","269","545588","0.0-3.0-25.2-1.2","61006f43a84b82fb439d7cba","E1","batch5","","654","","","tol_toboard","","","","","","","","","tol_peg_3","654","654","0","[[3,2,0],[0,0],[1]]","3","[[1,0,0],[2,3],[0]]","5","0","","","","","","6","",""
"","","","","","single-stim-button","270","546240","0.0-3.0-25.3-0.3","61006f43a84b82fb439d7cba","E1","batch5","","649","","","tol_tohand","","","","","","","","","tol_peg_1","649","649","0","[[3,0,0],[0,0],[1]]","4","[[1,0,0],[2,3],[0]]","5","0","","","","","","6","",""
"","","","","","single-stim-button","271","546776","0.0-3.0-25.3-1.3","61006f43a84b82fb439d7cba","E1","batch5","","535","","","tol_toboard","","","","","","","","","tol_peg_2","535","535","0","[[3,0,0],[2,0],[1]]","4","[[1,0,0],[2,3],[0]]","5","0","","","","","","6","",""
"","","","","","single-stim-button","272","547312","0.0-3.0-25.4-0.4","61006f43a84b82fb439d7cba","E1","batch5","","535","","","tol_tohand","","","","","","","","","tol_peg_1","535","535","0","[[0,0,0],[2,0],[1]]","5","[[1,0,0],[2,3],[0]]","5","0","","","","","","6","",""
"","","","","","single-stim-button","273","547782","0.0-3.0-25.4-1.4","61006f43a84b82fb439d7cba","E1","batch5","","467","","","tol_toboard","","","","","","","","","tol_peg_2","467","467","0","[[0,0,0],[2,3],[1]]","5","[[1,0,0],[2,3],[0]]","5","0","","","","","","6","",""
"","","","","","single-stim-button","274","548318","0.0-3.0-25.5-0.5","61006f43a84b82fb439d7cba","E1","batch5","","535","","","tol_tohand","","","","","","","","","tol_peg_3","535","535","0","[[0,0,0],[2,3],[0]]","6","[[1,0,0],[2,3],[0]]","5","0","","","","","","6","",""
"","","","","","single-stim-button","275","548925","0.0-3.0-25.5-1.5","61006f43a84b82fb439d7cba","E1","batch5","","604","","","tol_toboard","","","","","","","","","tol_peg_1","604","604","0","[[1,0,0],[2,3],[0]]","6","[[1,0,0],[2,3],[0]]","5","0","","","","","","6","",""
"","","","","","poldrack-single-stim","276","549927","0.0-3.0-26.0","61006f43a84b82fb439d7cba","E1","batch5","","-1","","","tol_feedback","true","","","","","","","","","1000","1000","500","","","","","","-1","none","true","6873","10950","","",""
"","","","","","html-button-response","277","550759","0.0-3.0-27.0","61006f43a84b82fb439d7cba","E1","batch5","","830","<div class = centerbox><p class = center-block-text>problem <strong>7</strong> out of 25 problems</p></div>","0","tol_trial_num","","","","","","","","","","","","","","","","","","","","","","","","",""
"","","","","","single-stim-button","278","555160","0.0-3.0-28.0-0.0","61006f43a84b82fb439d7cba","E1","batch5","","4401","","","tol_tohand","","","","","","","","","tol_peg_3","4401","4401","0","[[2,1,0],[0,0],[0]]","1","[[1,2,0],[3,0],[0]]","6","0","","","","","","5","",""
"","","","","","single-stim-button","279","556255","0.0-3.0-28.0-1.0","61006f43a84b82fb439d7cba","E1","batch5","","1092","","","tol_toboard","","","","","","","","","tol_peg_2","1092","1092","0","[[2,1,0],[3,0],[0]]","1","[[1,2,0],[3,0],[0]]","6","0","","","","","","5","",""
"","","","","","single-stim-button","280","556979","0.0-3.0-28.1-0.1","61006f43a84b82fb439d7cba","E1","batch5","","721","","","tol_tohand","","","","","","","","","tol_peg_1","721","721","0","[[2,0,0],[3,0],[0]]","2","[[1,2,0],[3,0],[0]]","6","0","","","","","","5","",""
"","","","","","single-stim-button","281","558599","0.0-3.0-28.1-1.1","61006f43a84b82fb439d7cba","E1","batch5","","1617","","","tol_toboard","","","","","","","","","tol_peg_3","1617","1617","0","[[2,0,0],[3,0],[1]]","2","[[1,2,0],[3,0],[0]]","6","0","","","","","","5","",""
"","","","","","single-stim-button","282","559307","0.0-3.0-28.2-0.2","61006f43a84b82fb439d7cba","E1","batch5","","707","","","tol_tohand","","","","","","","","","tol_peg_1","707","707","0","[[0,0,0],[3,0],[1]]","3","[[1,2,0],[3,0],[0]]","6","0","","","","","","5","",""
"","","","","","single-stim-button","283","559765","0.0-3.0-28.2-1.2","61006f43a84b82fb439d7cba","E1","batch5","","455","","","tol_toboard","","","","","","","","","tol_peg_2","455","455","0","[[0,0,0],[3,2],[1]]","3","[[1,2,0],[3,0],[0]]","6","0","","","","","","5","",""
"","","","","","single-stim-button","284","560221","0.0-3.0-28.3-0.3","61006f43a84b82fb439d7cba","E1","batch5","","453","","","tol_tohand","","","","","","","","","tol_peg_3","453","453","0","[[0,0,0],[3,2],[0]]","4","[[1,2,0],[3,0],[0]]","6","0","","","","","","5","",""
"","","","","","single-stim-button","285","561043","0.0-3.0-28.3-1.3","61006f43a84b82fb439d7cba","E1","batch5","","820","","","tol_toboard","","","","","","","","","tol_peg_1","820","820","0","[[1,0,0],[3,2],[0]]","4","[[1,2,0],[3,0],[0]]","6","0","","","","","","5","",""
"","","","","","single-stim-button","286","561549","0.0-3.0-28.4-0.4","61006f43a84b82fb439d7cba","E1","batch5","","504","","","tol_tohand","","","","","","","","","tol_peg_2","504","504","0","[[1,0,0],[3,0],[0]]","5","[[1,2,0],[3,0],[0]]","6","0","","","","","","5","",""
"","","","","","single-stim-button","287","561959","0.0-3.0-28.4-1.4","61006f43a84b82fb439d7cba","E1","batch5","","408","","","tol_toboard","","","","","","","","","tol_peg_1","408","408","0","[[1,2,0],[3,0],[0]]","5","[[1,2,0],[3,0],[0]]","6","0","","","","","","5","",""
"","","","","","poldrack-single-stim","288","562964","0.0-3.0-29.0","61006f43a84b82fb439d7cba","E1","batch5","","-1","","","tol_feedback","true","","","","","","","","","1000","1000","500","","","","","","-1","none","true","4401","6786","","",""
"","","","","","html-button-response","289","563815","0.0-3.0-30.0","61006f43a84b82fb439d7cba","E1","batch5","","849.9999999998836","<div class = centerbox><p class = center-block-text>problem <strong>8</strong> out of 25 problems</p></div>","0","tol_trial_num","","","","","","","","","","","","","","","","","","","","","","","","",""
"","","","","","single-stim-button","290","566821","0.0-3.0-31.0-0.0","61006f43a84b82fb439d7cba","E1","batch5","","3005","","","tol_tohand","","","","","","","","","tol_peg_3","3005","3005","0","[[0,0,0],[2,3],[0]]","1","[[1,2,0],[3,0],[0]]","7","0","","","","","","4","",""
"","","","","","single-stim-button","291","567695","0.0-3.0-31.0-1.0","61006f43a84b82fb439d7cba","E1","batch5","","872","","","tol_toboard","","","","","","","","","tol_peg_1","872","872","0","[[1,0,0],[2,3],[0]]","1","[[1,2,0],[3,0],[0]]","7","0","","","","","","4","",""
"","","","","","single-stim-button","292","568186","0.0-3.0-31.1-0.1","61006f43a84b82fb439d7cba","E1","batch5","","489","","","tol_tohand","","","","","","","","","tol_peg_2","489","489","0","[[1,0,0],[2,0],[0]]","2","[[1,2,0],[3,0],[0]]","7","0","","","","","","4","",""
"","","","","","single-stim-button","293","568844","0.0-3.0-31.1-1.1","61006f43a84b82fb439d7cba","E1","batch5","","655","","","tol_toboard","","","","","","","","","tol_peg_3","655","655","0","[[1,0,0],[2,0],[3]]","2","[[1,2,0],[3,0],[0]]","7","0","","","","","","4","",""
"","","","","","single-stim-button","294","569302","0.0-3.0-31.2-0.2","61006f43a84b82fb439d7cba","E1","batch5","","456","","","tol_tohand","","","","","","","","","tol_peg_2","456","456","0","[[1,0,0],[0,0],[3]]","3","[[1,2,0],[3,0],[0]]","7","0","","","","","","4","",""
"","","","","","single-stim-button","295","569781","0.0-3.0-31.2-1.2","61006f43a84b82fb439d7cba","E1","batch5","","477","","","tol_toboard","","","","","","","","","tol_peg_1","477","477","0","[[1,2,0],[0,0],[3]]","3","[[1,2,0],[3,0],[0]]","7","0","","","","","","4","",""
"","","","","","single-stim-button","296","570603","0.0-3.0-31.3-0.3","61006f43a84b82fb439d7cba","E1","batch5","","809","","","tol_tohand","","","","","","","","","tol_peg_3","809","809","0","[[1,2,0],[0,0],[0]]","4","[[1,2,0],[3,0],[0]]","7","0","","","","","","4","",""
"","","","","","single-stim-button","297","571061","0.0-3.0-31.3-1.3","61006f43a84b82fb439d7cba","E1","batch5","","457","","","tol_toboard","","","","","","","","","tol_peg_2","457","457","0","[[1,2,0],[3,0],[0]]","4","[[1,2,0],[3,0],[0]]","7","0","","","","","","4","",""
"","","","","","poldrack-single-stim","298","572065","0.0-3.0-32.0","61006f43a84b82fb439d7cba","E1","batch5","","-1","","","tol_feedback","true","","","","","","","","","1000","1000","500","","","","","","-1","none","true","3005","4759","","",""
"","","","","","html-button-response","299","572871","0.0-3.0-33.0","61006f43a84b82fb439d7cba","E1","batch5","","804.9999999998836","<div class = centerbox><p class = center-block-text>problem <strong>9</strong> out of 25 problems</p></div>","0","tol_trial_num","","","","","","","","","","","","","","","","","","","","","","","","",""
"","","","","","single-stim-button","300","581197","0.0-3.0-34.0-0.0","61006f43a84b82fb439d7cba","E1","batch5","","8324","","","tol_tohand","","","","","","","","","tol_peg_3","8324","8324","0","[[3,2,0],[0,0],[0]]","1","[[2,1,0],[3,0],[0]]","8","0","","","","","","6","",""
"","","","","","single-stim-button","301","581653","0.0-3.0-34.0-1.0","61006f43a84b82fb439d7cba","E1","batch5","","453","","","tol_toboard","","","","","","","","","tol_peg_2","453","453","0","[[3,2,0],[1,0],[0]]","1","[[2,1,0],[3,0],[0]]","8","0","","","","","","6","",""
"","","","","","single-stim-button","302","583001","0.0-3.0-34.1-0.1","61006f43a84b82fb439d7cba","E1","batch5","","1345","","","tol_tohand","","","","","","","","","tol_peg_1","1345","1345","0","[[3,0,0],[1,0],[0]]","2","[[2,1,0],[3,0],[0]]","8","0","","","","","","6","",""
"","","","","","single-stim-button","303","584124","0.0-3.0-34.1-1.1","61006f43a84b82fb439d7cba","E1","batch5","","1113","","","tol_toboard","","","","","","","","","tol_peg_3","1113","1113","0","[[3,0,0],[1,0],[2]]","2","[[2,1,0],[3,0],[0]]","8","0","","","","","","6","",""
"","","","","","single-stim-button","304","587348","0.0-3.0-34.2-0.2","61006f43a84b82fb439d7cba","E1","batch5","","3222","","","tol_tohand","","","","","","","","","tol_peg_3","3222","3222","0","[[3,0,0],[1,0],[0]]","3","[[2,1,0],[3,0],[0]]","8","0","","","","","","6","",""
"","","","","","single-stim-button","305","587776","0.0-3.0-34.2-1.2","61006f43a84b82fb439d7cba","E1","batch5","","425","","","tol_toboard","","","","","","","","","tol_peg_2","425","425","0","[[3,0,0],[1,2],[0]]","3","[[2,1,0],[3,0],[0]]","8","0","","","","","","6","",""
"","","","","","single-stim-button","306","588315","0.0-3.0-34.3-0.3","61006f43a84b82fb439d7cba","E1","batch5","","537","","","tol_tohand","","","","","","","","","tol_peg_1","537","537","0","[[0,0,0],[1,2],[0]]","4","[[2,1,0],[3,0],[0]]","8","0","","","","","","6","",""
"","","","","","single-stim-button","307","589103","0.0-3.0-34.3-1.3","61006f43a84b82fb439d7cba","E1","batch5","","787","","","tol_toboard","","","","","","","","","tol_peg_3","787","787","0","[[0,0,0],[1,2],[3]]","4","[[2,1,0],[3,0],[0]]","8","0","","","","","","6","",""
"","","","","","single-stim-button","308","591906","0.0-3.0-34.4-0.4","61006f43a84b82fb439d7cba","E1","batch5","","2801","","","tol_tohand","","","","","","","","","tol_peg_2","2801","2801","0","[[0,0,0],[1,0],[3]]","5","[[2,1,0],[3,0],[0]]","8","0","","","","","","6","",""
"","","","","","single-stim-button","309","593180","0.0-3.0-34.4-1.4","61006f43a84b82fb439d7cba","E1","batch5","","1271","","","tol_toboard","","","","","","","","","tol_peg_1","1271","1271","0","[[2,0,0],[1,0],[3]]","5","[[2,1,0],[3,0],[0]]","8","0","","","","","","6","",""
"","","","","","single-stim-button","310","595550","0.0-3.0-34.5-0.5","61006f43a84b82fb439d7cba","E1","batch5","","2368","","","tol_tohand","","","","","","","","","tol_peg_2","2368","2368","0","[[2,0,0],[0,0],[3]]","6","[[2,1,0],[3,0],[0]]","8","0","","","","","","6","",""
"","","","","","single-stim-button","311","596122","0.0-3.0-34.5-1.5","61006f43a84b82fb439d7cba","E1","batch5","","571","","","tol_toboard","","","","","","","","","tol_peg_1","571","571","0","[[2,1,0],[0,0],[3]]","6","[[2,1,0],[3,0],[0]]","8","0","","","","","","6","",""
"","","","","","single-stim-button","312","596693","0.0-3.0-34.6-0.6","61006f43a84b82fb439d7cba","E1","batch5","","568","","","tol_tohand","","","","","","","","","tol_peg_3","568","568","0","[[2,1,0],[0,0],[0]]","7","[[2,1,0],[3,0],[0]]","8","0","","","","","","6","",""
"","","","","","single-stim-button","313","597143","0.0-3.0-34.6-1.6","61006f43a84b82fb439d7cba","E1","batch5","","448","","","tol_toboard","","","","","","","","","tol_peg_2","448","448","0","[[2,1,0],[3,0],[0]]","7","[[2,1,0],[3,0],[0]]","8","0","","","","","","6","",""
"","","","","","poldrack-single-stim","314","598146","0.0-3.0-35.0","61006f43a84b82fb439d7cba","E1","batch5","","-1","","","tol_feedback","true","","","","","","","","","1000","1000","500","","","","","","-1","none","true","8324","19165","","",""
"","","","","","html-button-response","315","599296","0.0-3.0-36.0","61006f43a84b82fb439d7cba","E1","batch5","","1148","<div class = centerbox><p class = center-block-text>problem <strong>10</strong> out of 25 problems</p></div>","0","tol_trial_num","","","","","","","","","","","","","","","","","","","","","","","","",""
"","","","","","single-stim-button","316","601980","0.0-3.0-37.0-0.0","61006f43a84b82fb439d7cba","E1","batch5","","2678","","","tol_tohand","","","","","","","","","tol_peg_2","2678","2678","0","[[3,0,0],[0,0],[2]]","1","[[3,0,0],[2,1],[0]]","9","0","","","","","","3","",""
"","","","","","single-stim-button","317","602396","0.0-3.0-37.0-1.0","61006f43a84b82fb439d7cba","E1","batch5","","414","","","tol_toboard","","","","","","","","","tol_peg_1","414","414","0","[[3,1,0],[0,0],[2]]","1","[[3,0,0],[2,1],[0]]","9","0","","","","","","3","",""
"","","","","","single-stim-button","318","602915","0.0-3.0-37.1-0.1","61006f43a84b82fb439d7cba","E1","batch5","","516","","","tol_tohand","","","","","","","","","tol_peg_3","516","516","0","[[3,1,0],[0,0],[0]]","2","[[3,0,0],[2,1],[0]]","9","0","","","","","","3","",""
"","","","","","single-stim-button","319","603357","0.0-3.0-37.1-1.1","61006f43a84b82fb439d7cba","E1","batch5","","439","","","tol_toboard","","","","","","","","","tol_peg_2","439","439","0","[[3,1,0],[2,0],[0]]","2","[[3,0,0],[2,1],[0]]","9","0","","","","","","3","",""
"","","","","","single-stim-button","320","603960","0.0-3.0-37.2-0.2","61006f43a84b82fb439d7cba","E1","batch5","","601","","","tol_tohand","","","","","","","","","tol_peg_1","601","601","0","[[3,0,0],[2,0],[0]]","3","[[3,0,0],[2,1],[0]]","9","0","","","","","","3","",""
"","","","","","single-stim-button","321","604399","0.0-3.0-37.2-1.2","61006f43a84b82fb439d7cba","E1","batch5","","437","","","tol_toboard","","","","","","","","","tol_peg_2","437","437","0","[[3,0,0],[2,1],[0]]","3","[[3,0,0],[2,1],[0]]","9","0","","","","","","3","",""
"","","","","","poldrack-single-stim","322","605402","0.0-3.0-38.0","61006f43a84b82fb439d7cba","E1","batch5","","-1","","","tol_feedback","true","","","","","","","","","1000","1000","500","","","","","","-1","none","true","2678","3795","","",""
"","","","","","html-button-response","323","606308","0.0-3.0-39.0","61006f43a84b82fb439d7cba","E1","batch5","","904","<div class = centerbox><p class = center-block-text>problem <strong>11</strong> out of 25 problems</p></div>","0","tol_trial_num","","","","","","","","","","","","","","","","","","","","","","","","",""
"","","","","","single-stim-button","324","609964","0.0-3.0-40.0-0.0","61006f43a84b82fb439d7cba","E1","batch5","","3655","","","tol_tohand","","","","","","","","","tol_peg_1","3655","3655","0","[[1,0,0],[3,0],[0]]","1","[[2,0,0],[1,3],[0]]","10","0","","","","","","6","",""
"","","","","","single-stim-button","325","617172","0.0-3.0-40.0-1.0","61006f43a84b82fb439d7cba","E1","batch5","","7206","","","tol_toboard","","","","","","","","","tol_peg_1","7206","7206","0","[[1,2,0],[3,0],[0]]","1","[[2,0,0],[1,3],[0]]","10","0","","","","","","6","",""
"","","","","","single-stim-button","326","618004","0.0-3.0-40.1-0.1","61006f43a84b82fb439d7cba","E1","batch5","","831","","","tol_tohand","","","","","","","","","tol_peg_2","831","831","0","[[1,2,0],[0,0],[0]]","2","[[2,0,0],[1,3],[0]]","10","0","","","","","","6","",""
"","","","","","single-stim-button","327","618525","0.0-3.0-40.1-1.1","61006f43a84b82fb439d7cba","E1","batch5","","518","","","tol_toboard","","","","","","","","","tol_peg_3","518","518","0","[[1,2,0],[0,0],[3]]","2","[[2,0,0],[1,3],[0]]","10","0","","","","","","6","",""
"","","","","","single-stim-button","328","619278","0.0-3.0-40.2-0.2","61006f43a84b82fb439d7cba","E1","batch5","","750","","","tol_tohand","","","","","","","","","tol_peg_1","750","750","0","[[1,0,0],[0,0],[3]]","3","[[2,0,0],[1,3],[0]]","10","0","","","","","","6","",""
"","","","","","single-stim-button","329","627871","0.0-3.0-40.2-1.2","61006f43a84b82fb439d7cba","E1","batch5","","8588","","","tol_toboard","","","","","","","","","tol_peg_1","8588","8588","0","[[1,2,0],[0,0],[3]]","3","[[2,0,0],[1,3],[0]]","10","0","","","","","","6","",""
"","","","","","single-stim-button","330","631526","0.0-3.0-40.3-0.3","61006f43a84b82fb439d7cba","E1","batch5","","3652","","","tol_tohand","","","","","","","","","tol_peg_3","3652","3652","0","[[1,2,0],[0,0],[0]]","4","[[2,0,0],[1,3],[0]]","10","0","","","","","","6","",""
"","","","","","single-stim-button","331","632196","0.0-3.0-40.3-1.3","61006f43a84b82fb439d7cba","E1","batch5","","667","","","tol_toboard","","","","","","","","","tol_peg_2","667","667","0","[[1,2,0],[3,0],[0]]","4","[[2,0,0],[1,3],[0]]","10","0","","","","","","6","",""
"","","","","","single-stim-button","332","632868","0.0-3.0-40.4-0.4","61006f43a84b82fb439d7cba","E1","batch5","","670","","","tol_tohand","","","","","","","","","tol_peg_1","670","670","0","[[1,0,0],[3,0],[0]]","5","[[2,0,0],[1,3],[0]]","10","0","","","","","","6","",""
"","","","","","single-stim-button","333","633372","0.0-3.0-40.4-1.4","61006f43a84b82fb439d7cba","E1","batch5","","501","","","tol_toboard","","","","","","","","","tol_peg_2","501","501","0","[[1,0,0],[3,2],[0]]","5","[[2,0,0],[1,3],[0]]","10","0","","","","","","6","",""
"","","","","","single-stim-button","334","633896","0.0-3.0-40.5-0.5","61006f43a84b82fb439d7cba","E1","batch5","","522","","","tol_tohand","","","","","","","","","tol_peg_1","522","522","0","[[0,0,0],[3,2],[0]]","6","[[2,0,0],[1,3],[0]]","10","0","","","","","","6","",""
"","","","","","single-stim-button","335","634803","0.0-3.0-40.5-1.5","61006f43a84b82fb439d7cba","E1","batch5","","903","","","tol_toboard","","","","","","","","","tol_peg_3","903","903","0","[[0,0,0],[3,2],[1]]","6","[[2,0,0],[1,3],[0]]","10","0","","","","","","6","",""
"","","","","","single-stim-button","336","635379","0.0-3.0-40.6-0.6","61006f43a84b82fb439d7cba","E1","batch5","","574","","","tol_tohand","","","","","","","","","tol_peg_2","574","574","0","[[0,0,0],[3,0],[1]]","7","[[2,0,0],[1,3],[0]]","10","0","","","","","","6","",""
"","","","","","single-stim-button","337","635932","0.0-3.0-40.6-1.6","61006f43a84b82fb439d7cba","E1","batch5","","551","","","tol_toboard","","","","","","","","","tol_peg_1","551","551","0","[[2,0,0],[3,0],[1]]","7","[[2,0,0],[1,3],[0]]","10","0","","","","","","6","",""
"","","","","","single-stim-button","338","636837","0.0-3.0-40.7-0.7","61006f43a84b82fb439d7cba","E1","batch5","","904","","","tol_tohand","","","","","","","","","tol_peg_2","904","904","0","[[2,0,0],[0,0],[1]]","8","[[2,0,0],[1,3],[0]]","10","0","","","","","","6","",""
"","","","","","single-stim-button","339","637278","0.0-3.0-40.7-1.7","61006f43a84b82fb439d7cba","E1","batch5","","438","","","tol_toboard","","","","","","","","","tol_peg_1","438","438","0","[[2,3,0],[0,0],[1]]","8","[[2,0,0],[1,3],[0]]","10","0","","","","","","6","",""
"","","","","","single-stim-button","340","638020","0.0-3.0-40.8-0.8","61006f43a84b82fb439d7cba","E1","batch5","","740","","","tol_tohand","","","","","","","","","tol_peg_3","740","740","0","[[2,3,0],[0,0],[0]]","9","[[2,0,0],[1,3],[0]]","10","0","","","","","","6","",""
"","","","","","single-stim-button","341","638594","0.0-3.0-40.8-1.8","61006f43a84b82fb439d7cba","E1","batch5","","572","","","tol_toboard","","","","","","","","","tol_peg_2","572","572","0","[[2,3,0],[1,0],[0]]","9","[[2,0,0],[1,3],[0]]","10","0","","","","","","6","",""
"","","","","","single-stim-button","342","639302","0.0-3.0-40.9-0.9","61006f43a84b82fb439d7cba","E1","batch5","","706","","","tol_tohand","","","","","","","","","tol_peg_1","706","706","0","[[2,0,0],[1,0],[0]]","10","[[2,0,0],[1,3],[0]]","10","0","","","","","","6","",""
"","","","","","single-stim-button","343","639860","0.0-3.0-40.9-1.9","61006f43a84b82fb439d7cba","E1","batch5","","556","","","tol_toboard","","","","","","","","","tol_peg_2","556","556","0","[[2,0,0],[1,3],[0]]","10","[[2,0,0],[1,3],[0]]","10","0","","","","","","6","",""
"","","","","","poldrack-single-stim","344","640864","0.0-3.0-41.0","61006f43a84b82fb439d7cba","E1","batch5","","-1","","","tol_feedback","true","","","","","","","","","1000","1000","500","","","","","","-1","none","true","3655","13004","","",""
"","","","","","html-button-response","345","641485","0.0-3.0-42.0","61006f43a84b82fb439d7cba","E1","batch5","","619.9999999998836","<div class = centerbox><p class = center-block-text>problem <strong>12</strong> out of 25 problems</p></div>","0","tol_trial_num","","","","","","","","","","","","","","","","","","","","","","","","",""
"","","","","","single-stim-button","346","644256","0.0-3.0-43.0-0.0","61006f43a84b82fb439d7cba","E1","batch5","","2771","","","tol_tohand","","","","","","","","","tol_peg_1","2771","2771","0","[[1,0,0],[3,0],[0]]","1","[[2,3,0],[0,0],[1]]","11","0","","","","","","4","",""
"","","","","","single-stim-button","347","644762","0.0-3.0-43.0-1.0","61006f43a84b82fb439d7cba","E1","batch5","","503","","","tol_toboard","","","","","","","","","tol_peg_2","503","503","0","[[1,0,0],[3,2],[0]]","1","[[2,3,0],[0,0],[1]]","11","0","","","","","","4","",""
"","","","","","single-stim-button","348","645418","0.0-3.0-43.1-0.1","61006f43a84b82fb439d7cba","E1","batch5","","653","","","tol_tohand","","","","","","","","","tol_peg_1","653","653","0","[[0,0,0],[3,2],[0]]","2","[[2,3,0],[0,0],[1]]","11","0","","","","","","4","",""
"","","","","","single-stim-button","349","645940","0.0-3.0-43.1-1.1","61006f43a84b82fb439d7cba","E1","batch5","","520","","","tol_toboard","","","","","","","","","tol_peg_3","520","520","0","[[0,0,0],[3,2],[1]]","2","[[2,3,0],[0,0],[1]]","11","0","","","","","","4","",""
"","","","","","single-stim-button","350","646485","0.0-3.0-43.2-0.2","61006f43a84b82fb439d7cba","E1","batch5","","543","","","tol_tohand","","","","","","","","","tol_peg_2","543","543","0","[[0,0,0],[3,0],[1]]","3","[[2,3,0],[0,0],[1]]","11","0","","","","","","4","",""
"","","","","","single-stim-button","351","647157","0.0-3.0-43.2-1.2","61006f43a84b82fb439d7cba","E1","batch5","","669","","","tol_toboard","","","","","","","","","tol_peg_1","669","669","0","[[2,0,0],[3,0],[1]]","3","[[2,3,0],[0,0],[1]]","11","0","","","","","","4","",""
"","","","","","single-stim-button","352","647612","0.0-3.0-43.3-0.3","61006f43a84b82fb439d7cba","E1","batch5","","454","","","tol_tohand","","","","","","","","","tol_peg_2","454","454","0","[[2,0,0],[0,0],[1]]","4","[[2,3,0],[0,0],[1]]","11","0","","","","","","4","",""
"","","","","","single-stim-button","353","648055","0.0-3.0-43.3-1.3","61006f43a84b82fb439d7cba","E1","batch5","","441","","","tol_toboard","","","","","","","","","tol_peg_1","441","441","0","[[2,3,0],[0,0],[1]]","4","[[2,3,0],[0,0],[1]]","11","0","","","","","","4","",""
