"success","timeout","failed_images","failed_audio","failed_video","trial_type","trial_index","time_elapsed","internal_node_id","subject_id","study_id","session_id","task","rt","stimulus","response","item","answer","correct","spm_correct","spm_rt","view_history","fiar_detect_rt","fiar_detect_correct","total_correct_fiar_detect","post_trial_gap","choices","mouse_click","stim_duration","block_duration","timing_post_trial","current_position","tol_num_moves_made","tol_target","tol_problem_id","tol_rt","key_press","possible_responses","tol_correct","preplanning","tol_rt_per_trial","tol_min_moves"
"true","false","[]","[]","[]","preload","0","4517","0.0-0.0","61005a9bfd2f14f18ef7ec7d","F1","batch6","","","","","","","","","","","","","","","","","","","","","","","","","","","","","",""
"true","","","","","fullscreen","1","6677","0.0-1.0-0.0","61005a9bfd2f14f18ef7ec7d","F1","batch6","","","","","","","","","","","","","","","","","","","","","","","","","","","","","",""
"true","","","","","fullscreen","2","8678","0.0-2.0-0.0","61005a9bfd2f14f18ef7ec7d","F1","batch6","spm_fullscreen","","","","","","","","","","","","","","","","","","","","","","","","","","","","",""
"","","","","","html-button-response","3","9786","0.0-2.0-1.0","61005a9bfd2f14f18ef7ec7d","F1","batch6","","1106.199999988079","<p class = block-text><b>Instructions</b> <br>This is a widely used intelligence test in research. <br>In this test, a figure with a missing piece will be presented.<br>Below the figure are alternative pieces to complete the figure, only one of which is correct.<br> Different figures might involve different principles for obtaining the missing piece<br>Your job is to select the most logical piece to complete the figure.</p>","0","","","","","","","","","","","","","","","","","","","","","","","","","",""
"","","","","","html-keyboard-response","4","10603","0.0-2.0-2.0-0.0","61005a9bfd2f14f18ef7ec7d","F1","batch6","spm_show_trial_num","null","<p class=block-text>Trial 1 out of 60</p>","null","","","","","","","","","","","","","","","","","","","","","","","","","",""
"","","","","","image-button-response","5","14068","0.0-2.0-2.0-1.0","61005a9bfd2f14f18ef7ec7d","F1","batch6","spm_respsonse","3443.300000011921","img/question_1_1.jpeg","3","mat_01","4","1","1","3443.300000011921","","","","","","","","","","","","","","","","","","","","",""
"","","","","","html-keyboard-response","6","15145","0.0-2.0-2.0-0.1","61005a9bfd2f14f18ef7ec7d","F1","batch6","spm_show_trial_num","null","<p class=block-text>Trial 2 out of 60</p>","null","","","","","","","","","","","","","","","","","","","","","","","","","",""
"","","","","","image-button-response","7","16986","0.0-2.0-2.0-1.1","61005a9bfd2f14f18ef7ec7d","F1","batch6","spm_respsonse","1839","img/question_1_2.jpeg","4","mat_02","5","1","1","1839","","","","","","","","","","","","","","","","","","","","",""
"","","","","","html-keyboard-response","8","18067","0.0-2.0-2.0-0.2","61005a9bfd2f14f18ef7ec7d","F1","batch6","spm_show_trial_num","null","<p class=block-text>Trial 3 out of 60</p>","null","","","","","","","","","","","","","","","","","","","","","","","","","",""
"","","","","","image-button-response","9","20724","0.0-2.0-2.0-1.2","61005a9bfd2f14f18ef7ec7d","F1","batch6","spm_respsonse","2654.300000011921","img/question_1_3.jpeg","0","mat_03","1","1","1","2654.300000011921","","","","","","","","","","","","","","","","","","","","",""
"","","","","","html-keyboard-response","10","21793","0.0-2.0-2.0-0.3","61005a9bfd2f14f18ef7ec7d","F1","batch6","spm_show_trial_num","null","<p class=block-text>Trial 4 out of 60</p>","null","","","","","","","","","","","","","","","","","","","","","","","","","",""
"","","","","","image-button-response","11","26859","0.0-2.0-2.0-1.3","61005a9bfd2f14f18ef7ec7d","F1","batch6","spm_respsonse","5064","img/question_1_4.jpeg","1","mat_04","2","1","1","5064","","","","","","","","","","","","","","","","","","","","",""
"","","","","","html-keyboard-response","12","27935","0.0-2.0-2.0-0.4","61005a9bfd2f14f18ef7ec7d","F1","batch6","spm_show_trial_num","null","<p class=block-text>Trial 5 out of 60</p>","null","","","","","","","","","","","","","","","","","","","","","","","","","",""
"","","","","","image-button-response","13","31995","0.0-2.0-2.0-1.4","61005a9bfd2f14f18ef7ec7d","F1","batch6","spm_respsonse","4057","img/question_1_5.jpeg","5","mat_05","6","1","1","4057","","","","","","","","","","","","","","","","","","","","",""
"","","","","","html-keyboard-response","14","33063","0.0-2.0-2.0-0.5","61005a9bfd2f14f18ef7ec7d","F1","batch6","spm_show_trial_num","null","<p class=block-text>Trial 6 out of 60</p>","null","","","","","","","","","","","","","","","","","","","","","","","","","",""
"","","","","","image-button-response","15","37210","0.0-2.0-2.0-1.5","61005a9bfd2f14f18ef7ec7d","F1","batch6","spm_respsonse","4145.100000023842","img/question_1_6.jpeg","2","mat_06","3","1","1","4145.100000023842","","","","","","","","","","","","","","","","","","","","",""
"","","","","","html-keyboard-response","16","38274","0.0-2.0-2.0-0.6","61005a9bfd2f14f18ef7ec7d","F1","batch6","spm_show_trial_num","null","<p class=block-text>Trial 7 out of 60</p>","null","","","","","","","","","","","","","","","","","","","","","","","","","",""
"","","","","","image-button-response","17","41570","0.0-2.0-2.0-1.6","61005a9bfd2f14f18ef7ec7d","F1","batch6","spm_respsonse","3293.599999964237","img/question_1_7.jpeg","5","mat_07","6","1","1","3293.599999964237","","","","","","","","","","","","","","","","","","","","",""
"","","","","","html-keyboard-response","18","42663","0.0-2.0-2.0-0.7","61005a9bfd2f14f18ef7ec7d","F1","batch6","spm_show_trial_num","null","<p class=block-text>Trial 8 out of 60</p>","null","","","","","","","","","","","","","","","","","","","","","","","","","",""
"","","","","","image-button-response","19","50676","0.0-2.0-2.0-1.7","61005a9bfd2f14f18ef7ec7d","F1","batch6","spm_respsonse","8010.599999964237","img/question_1_8.jpeg","0","mat_08","2","0","0","8010.599999964237","","","","","","","","","","","","","","","","","","","","",""
"","","","","","html-keyboard-response","20","51752","0.0-2.0-2.0-0.8","61005a9bfd2f14f18ef7ec7d","F1","batch6","spm_show_trial_num","null","<p class=block-text>Trial 9 out of 60</p>","null","","","","","","","","","","","","","","","","","","","","","","","","","",""
"","","","","","image-button-response","21","54738","0.0-2.0-2.0-1.8","61005a9bfd2f14f18ef7ec7d","F1","batch6","spm_respsonse","2984.399999976158","img/question_1_9.jpeg","0","mat_09","1","1","1","2984.399999976158","","","","","","","","","","","","","","","","","","","","",""
"","","","","","html-keyboard-response","22","55806","0.0-2.0-2.0-0.9","61005a9bfd2f14f18ef7ec7d","F1","batch6","spm_show_trial_num","null","<p class=block-text>Trial 10 out of 60</p>","null","","","","","","","","","","","","","","","","","","","","","","","","","",""
"","","","","","image-button-response","23","61005","0.0-2.0-2.0-1.9","61005a9bfd2f14f18ef7ec7d","F1","batch6","spm_respsonse","5196.699999988079","img/question_1_10.jpeg","2","mat_10","3","1","1","5196.699999988079","","","","","","","","","","","","","","","","","","","","",""
"","","","","","html-keyboard-response","24","62079","0.0-2.0-2.0-0.10","61005a9bfd2f14f18ef7ec7d","F1","batch6","spm_show_trial_num","null","<p class=block-text>Trial 11 out of 60</p>","null","","","","","","","","","","","","","","","","","","","","","","","","","",""
"","","","","","image-button-response","25","76853","0.0-2.0-2.0-1.10","61005a9bfd2f14f18ef7ec7d","F1","batch6","spm_respsonse","14770.699999988079","img/question_1_11.jpeg","3","mat_11","4","1","1","14770.699999988079","","","","","","","","","","","","","","","","","","","","",""
"","","","","","html-keyboard-response","26","77916","0.0-2.0-2.0-0.11","61005a9bfd2f14f18ef7ec7d","F1","batch6","spm_show_trial_num","null","<p class=block-text>Trial 12 out of 60</p>","null","","","","","","","","","","","","","","","","","","","","","","","","","",""
"","","","","","image-button-response","27","88855","0.0-2.0-2.0-1.11","61005a9bfd2f14f18ef7ec7d","F1","batch6","spm_respsonse","10936.300000011921","img/question_1_12.jpeg","4","mat_12","5","1","1","10936.300000011921","","","","","","","","","","","","","","","","","","","","",""
"","","","","","html-keyboard-response","28","89928","0.0-2.0-2.0-0.12","61005a9bfd2f14f18ef7ec7d","F1","batch6","spm_show_trial_num","null","<p class=block-text>Trial 13 out of 60</p>","null","","","","","","","","","","","","","","","","","","","","","","","","","",""
"","","","","","image-button-response","29","94245","0.0-2.0-2.0-1.12","61005a9bfd2f14f18ef7ec7d","F1","batch6","spm_respsonse","4314.300000011921","img/question_2_1.jpeg","1","mat_13","2","1","1","4314.300000011921","","","","","","","","","","","","","","","","","","","","",""
"","","","","","html-keyboard-response","30","95326","0.0-2.0-2.0-0.13","61005a9bfd2f14f18ef7ec7d","F1","batch6","spm_show_trial_num","null","<p class=block-text>Trial 14 out of 60</p>","null","","","","","","","","","","","","","","","","","","","","","","","","","",""
"","","","","","image-button-response","31","100713","0.0-2.0-2.0-1.13","61005a9bfd2f14f18ef7ec7d","F1","batch6","spm_respsonse","5383.799999952316","img/question_2_2.jpeg","5","mat_14","6","1","1","5383.799999952316","","","","","","","","","","","","","","","","","","","","",""
"","","","","","html-keyboard-response","32","101787","0.0-2.0-2.0-0.14","61005a9bfd2f14f18ef7ec7d","F1","batch6","spm_show_trial_num","null","<p class=block-text>Trial 15 out of 60</p>","null","","","","","","","","","","","","","","","","","","","","","","","","","",""
"","","","","","image-button-response","33","104008","0.0-2.0-2.0-1.14","61005a9bfd2f14f18ef7ec7d","F1","batch6","spm_respsonse","2218.600000023842","img/question_2_3.jpeg","0","mat_15","1","1","1","2218.600000023842","","","","","","","","","","","","","","","","","","","","",""
"","","","","","html-keyboard-response","34","105071","0.0-2.0-2.0-0.15","61005a9bfd2f14f18ef7ec7d","F1","batch6","spm_show_trial_num","null","<p class=block-text>Trial 16 out of 60</p>","null","","","","","","","","","","","","","","","","","","","","","","","","","",""
"","","","","","image-button-response","35","109398","0.0-2.0-2.0-1.15","61005a9bfd2f14f18ef7ec7d","F1","batch6","spm_respsonse","4324.900000035763","img/question_2_4.jpeg","1","mat_16","2","1","1","4324.900000035763","","","","","","","","","","","","","","","","","","","","",""
"","","","","","html-keyboard-response","36","110456","0.0-2.0-2.0-0.16","61005a9bfd2f14f18ef7ec7d","F1","batch6","spm_show_trial_num","null","<p class=block-text>Trial 17 out of 60</p>","null","","","","","","","","","","","","","","","","","","","","","","","","","",""
"","","","","","image-button-response","37","115215","0.0-2.0-2.0-1.16","61005a9bfd2f14f18ef7ec7d","F1","batch6","spm_respsonse","4756.800000011921","img/question_2_5.jpeg","0","mat_17","1","1","1","4756.800000011921","","","","","","","","","","","","","","","","","","","","",""
"","","","","","html-keyboard-response","38","116275","0.0-2.0-2.0-0.17","61005a9bfd2f14f18ef7ec7d","F1","batch6","spm_show_trial_num","null","<p class=block-text>Trial 18 out of 60</p>","null","","","","","","","","","","","","","","","","","","","","","","","","","",""
"","","","","","image-button-response","39","119227","0.0-2.0-2.0-1.17","61005a9bfd2f14f18ef7ec7d","F1","batch6","spm_respsonse","2949.600000023842","img/question_2_6.jpeg","2","mat_18","3","1","1","2949.600000023842","","","","","","","","","","","","","","","","","","","","",""
"","","","","","html-keyboard-response","40","120306","0.0-2.0-2.0-0.18","61005a9bfd2f14f18ef7ec7d","F1","batch6","spm_show_trial_num","null","<p class=block-text>Trial 19 out of 60</p>","null","","","","","","","","","","","","","","","","","","","","","","","","","",""
"","","","","","image-button-response","41","124993","0.0-2.0-2.0-1.18","61005a9bfd2f14f18ef7ec7d","F1","batch6","spm_respsonse","4684.5","img/question_2_7.jpeg","4","mat_19","5","1","1","4684.5","","","","","","","","","","","","","","","","","","","","",""
"","","","","","html-keyboard-response","42","126058","0.0-2.0-2.0-0.19","61005a9bfd2f14f18ef7ec7d","F1","batch6","spm_show_trial_num","null","<p class=block-text>Trial 20 out of 60</p>","null","","","","","","","","","","","","","","","","","","","","","","","","","",""
"","","","","","image-button-response","43","131026","0.0-2.0-2.0-1.19","61005a9bfd2f14f18ef7ec7d","F1","batch6","spm_respsonse","4965.699999988079","img/question_2_8.jpeg","5","mat_20","6","1","1","4965.699999988079","","","","","","","","","","","","","","","","","","","","",""
"","","","","","html-keyboard-response","44","132098","0.0-2.0-2.0-0.20","61005a9bfd2f14f18ef7ec7d","F1","batch6","spm_show_trial_num","null","<p class=block-text>Trial 21 out of 60</p>","null","","","","","","","","","","","","","","","","","","","","","","","","","",""
"","","","","","image-button-response","45","139140","0.0-2.0-2.0-1.20","61005a9bfd2f14f18ef7ec7d","F1","batch6","spm_respsonse","7038.800000011921","img/question_2_9.jpeg","3","mat_21","4","1","1","7038.800000011921","","","","","","","","","","","","","","","","","","","","",""
"","","","","","html-keyboard-response","46","140210","0.0-2.0-2.0-0.21","61005a9bfd2f14f18ef7ec7d","F1","batch6","spm_show_trial_num","null","<p class=block-text>Trial 22 out of 60</p>","null","","","","","","","","","","","","","","","","","","","","","","","","","",""
"","","","","","image-button-response","47","143906","0.0-2.0-2.0-1.21","61005a9bfd2f14f18ef7ec7d","F1","batch6","spm_respsonse","3693.800000011921","img/question_2_10.jpeg","2","mat_22","3","1","1","3693.800000011921","","","","","","","","","","","","","","","","","","","","",""
"","","","","","html-keyboard-response","48","145030","0.0-2.0-2.0-0.22","61005a9bfd2f14f18ef7ec7d","F1","batch6","spm_show_trial_num","null","<p class=block-text>Trial 23 out of 60</p>","null","","","","","","","","","","","","","","","","","","","","","","","","","",""
"","","","","","image-button-response","49","150338","0.0-2.0-2.0-1.22","61005a9bfd2f14f18ef7ec7d","F1","batch6","spm_respsonse","5305.199999988079","img/question_2_11.jpeg","3","mat_23","4","1","1","5305.199999988079","","","","","","","","","","","","","","","","","","","","",""
"","","","","","html-keyboard-response","50","151400","0.0-2.0-2.0-0.23","61005a9bfd2f14f18ef7ec7d","F1","batch6","spm_show_trial_num","null","<p class=block-text>Trial 24 out of 60</p>","null","","","","","","","","","","","","","","","","","","","","","","","","","",""
"","","","","","image-button-response","51","159502","0.0-2.0-2.0-1.23","61005a9bfd2f14f18ef7ec7d","F1","batch6","spm_respsonse","8099.300000011921","img/question_2_12.jpeg","4","mat_24","5","1","1","8099.300000011921","","","","","","","","","","","","","","","","","","","","",""
"","","","","","html-button-response","52","161682","0.0-2.0-3.0","61005a9bfd2f14f18ef7ec7d","F1","batch6","attention_check","1926","<p class = block-text>Attention check: Please choose 1<br></p>","0","","","true","","","","","","","","","","","","","","","","","","","","","","",""
"","","","","","html-keyboard-response","53","162494","0.0-2.0-4.0-0.0","61005a9bfd2f14f18ef7ec7d","F1","batch6","spm_show_trial_num","null","<p class=block-text>Trial 25 out of 60</p>","null","","","","","","","","","","","","","","","","","","","","","","","","","",""
"","","","","","image-button-response","54","176872","0.0-2.0-4.0-1.0","61005a9bfd2f14f18ef7ec7d","F1","batch6","spm_respsonse","14375.699999988079","img/question_3_1.jpeg","7","mat_25","8","1","1","14375.699999988079","","","","","","","","","","","","","","","","","","","","",""
"","","","","","html-keyboard-response","55","177943","0.0-2.0-4.0-0.1","61005a9bfd2f14f18ef7ec7d","F1","batch6","spm_show_trial_num","null","<p class=block-text>Trial 26 out of 60</p>","null","","","","","","","","","","","","","","","","","","","","","","","","","",""
"","","","","","image-button-response","56","182421","0.0-2.0-4.0-1.1","61005a9bfd2f14f18ef7ec7d","F1","batch6","spm_respsonse","4475.5","img/question_3_2.jpeg","1","mat_26","2","1","1","4475.5","","","","","","","","","","","","","","","","","","","","",""
"","","","","","html-keyboard-response","57","183490","0.0-2.0-4.0-0.2","61005a9bfd2f14f18ef7ec7d","F1","batch6","spm_show_trial_num","null","<p class=block-text>Trial 27 out of 60</p>","null","","","","","","","","","","","","","","","","","","","","","","","","","",""
"","","","","","image-button-response","58","187557","0.0-2.0-4.0-1.2","61005a9bfd2f14f18ef7ec7d","F1","batch6","spm_respsonse","4063.599999964237","img/question_3_3.jpeg","2","mat_27","3","1","1","4063.599999964237","","","","","","","","","","","","","","","","","","","","",""
"","","","","","html-keyboard-response","59","188626","0.0-2.0-4.0-0.3","61005a9bfd2f14f18ef7ec7d","F1","batch6","spm_show_trial_num","null","<p class=block-text>Trial 28 out of 60</p>","null","","","","","","","","","","","","","","","","","","","","","","","","","",""
"","","","","","image-button-response","60","194578","0.0-2.0-4.0-1.3","61005a9bfd2f14f18ef7ec7d","F1","batch6","spm_respsonse","5948.199999988079","img/question_3_4.jpeg","7","mat_28","8","1","1","5948.199999988079","","","","","","","","","","","","","","","","","","","","",""
"","","","","","html-keyboard-response","61","195643","0.0-2.0-4.0-0.4","61005a9bfd2f14f18ef7ec7d","F1","batch6","spm_show_trial_num","null","<p class=block-text>Trial 29 out of 60</p>","null","","","","","","","","","","","","","","","","","","","","","","","","","",""
"","","","","","image-button-response","62","206852","0.0-2.0-4.0-1.4","61005a9bfd2f14f18ef7ec7d","F1","batch6","spm_respsonse","11206.199999988079","img/question_3_5.jpeg","6","mat_29","7","1","1","11206.199999988079","","","","","","","","","","","","","","","","","","","","",""
"","","","","","html-keyboard-response","63","207925","0.0-2.0-4.0-0.5","61005a9bfd2f14f18ef7ec7d","F1","batch6","spm_show_trial_num","null","<p class=block-text>Trial 30 out of 60</p>","null","","","","","","","","","","","","","","","","","","","","","","","","","",""
"","","","","","image-button-response","64","213292","0.0-2.0-4.0-1.5","61005a9bfd2f14f18ef7ec7d","F1","batch6","spm_respsonse","5364.300000011921","img/question_3_6.jpeg","3","mat_30","4","1","1","5364.300000011921","","","","","","","","","","","","","","","","","","","","",""
"","","","","","html-keyboard-response","65","214361","0.0-2.0-4.0-0.6","61005a9bfd2f14f18ef7ec7d","F1","batch6","spm_show_trial_num","null","<p class=block-text>Trial 31 out of 60</p>","null","","","","","","","","","","","","","","","","","","","","","","","","","",""
"","","","","","image-button-response","66","222810","0.0-2.0-4.0-1.6","61005a9bfd2f14f18ef7ec7d","F1","batch6","spm_respsonse","8446.199999988079","img/question_3_7.jpeg","4","mat_31","5","1","1","8446.199999988079","","","","","","","","","","","","","","","","","","","","",""
"","","","","","html-keyboard-response","67","223877","0.0-2.0-4.0-0.7","61005a9bfd2f14f18ef7ec7d","F1","batch6","spm_show_trial_num","null","<p class=block-text>Trial 32 out of 60</p>","null","","","","","","","","","","","","","","","","","","","","","","","","","",""
"","","","","","image-button-response","68","260261","0.0-2.0-4.0-1.7","61005a9bfd2f14f18ef7ec7d","F1","batch6","spm_respsonse","36381.69999998808","img/question_3_8.jpeg","0","mat_32","1","1","1","36381.69999998808","","","","","","","","","","","","","","","","","","","","",""
"","","","","","html-keyboard-response","69","261335","0.0-2.0-4.0-0.8","61005a9bfd2f14f18ef7ec7d","F1","batch6","spm_show_trial_num","null","<p class=block-text>Trial 33 out of 60</p>","null","","","","","","","","","","","","","","","","","","","","","","","","","",""
"","","","","","image-button-response","70","267795","0.0-2.0-4.0-1.8","61005a9bfd2f14f18ef7ec7d","F1","batch6","spm_respsonse","6457.100000023842","img/question_3_9.jpeg","6","mat_33","7","1","1","6457.100000023842","","","","","","","","","","","","","","","","","","","","",""
"","","","","","html-keyboard-response","71","268852","0.0-2.0-4.0-0.9","61005a9bfd2f14f18ef7ec7d","F1","batch6","spm_show_trial_num","null","<p class=block-text>Trial 34 out of 60</p>","null","","","","","","","","","","","","","","","","","","","","","","","","","",""
"","","","","","image-button-response","72","288223","0.0-2.0-4.0-1.9","61005a9bfd2f14f18ef7ec7d","F1","batch6","spm_respsonse","19368.599999964237","img/question_3_10.jpeg","5","mat_34","6","1","1","19368.599999964237","","","","","","","","","","","","","","","","","","","","",""
"","","","","","html-keyboard-response","73","289287","0.0-2.0-4.0-0.10","61005a9bfd2f14f18ef7ec7d","F1","batch6","spm_show_trial_num","null","<p class=block-text>Trial 35 out of 60</p>","null","","","","","","","","","","","","","","","","","","","","","","","","","",""
"","","","","","image-button-response","74","306494","0.0-2.0-4.0-1.10","61005a9bfd2f14f18ef7ec7d","F1","batch6","spm_respsonse","17204","img/question_3_11.jpeg","0","mat_35","1","1","1","17204","","","","","","","","","","","","","","","","","","","","",""
"","","","","","html-keyboard-response","75","307559","0.0-2.0-4.0-0.11","61005a9bfd2f14f18ef7ec7d","F1","batch6","spm_show_trial_num","null","<p class=block-text>Trial 36 out of 60</p>","null","","","","","","","","","","","","","","","","","","","","","","","","","",""
"","","","","","image-button-response","76","319032","0.0-2.0-4.0-1.11","61005a9bfd2f14f18ef7ec7d","F1","batch6","spm_respsonse","11469.400000035763","img/question_3_12.jpeg","1","mat_36","2","1","1","11469.400000035763","","","","","","","","","","","","","","","","","","","","",""
"","","","","","html-keyboard-response","77","320104","0.0-2.0-4.0-0.12","61005a9bfd2f14f18ef7ec7d","F1","batch6","spm_show_trial_num","null","<p class=block-text>Trial 37 out of 60</p>","null","","","","","","","","","","","","","","","","","","","","","","","","","",""
"","","","","","image-button-response","78","323499","0.0-2.0-4.0-1.12","61005a9bfd2f14f18ef7ec7d","F1","batch6","spm_respsonse","3389.7999999523163","img/question_4_1.jpeg","2","mat_37","3","1","1","3389.7999999523163","","","","","","","","","","","","","","","","","","","","",""
"","","","","","html-keyboard-response","79","324584","0.0-2.0-4.0-0.13","61005a9bfd2f14f18ef7ec7d","F1","batch6","spm_show_trial_num","null","<p class=block-text>Trial 38 out of 60</p>","null","","","","","","","","","","","","","","","","","","","","","","","","","",""
"","","","","","image-button-response","80","329124","0.0-2.0-4.0-1.13","61005a9bfd2f14f18ef7ec7d","F1","batch6","spm_respsonse","4534.800000011921","img/question_4_2.jpeg","3","mat_38","4","1","1","4534.800000011921","","","","","","","","","","","","","","","","","","","","",""
"","","","","","html-keyboard-response","81","330202","0.0-2.0-4.0-0.14","61005a9bfd2f14f18ef7ec7d","F1","batch6","spm_show_trial_num","null","<p class=block-text>Trial 39 out of 60</p>","null","","","","","","","","","","","","","","","","","","","","","","","","","",""
"","","","","","image-button-response","82","335105","0.0-2.0-4.0-1.14","61005a9bfd2f14f18ef7ec7d","F1","batch6","spm_respsonse","4897","img/question_4_3.jpeg","2","mat_39","3","1","1","4897","","","","","","","","","","","","","","","","","","","","",""
"","","","","","html-keyboard-response","83","336175","0.0-2.0-4.0-0.15","61005a9bfd2f14f18ef7ec7d","F1","batch6","spm_show_trial_num","null","<p class=block-text>Trial 40 out of 60</p>","null","","","","","","","","","","","","","","","","","","","","","","","","","",""
"","","","","","image-button-response","84","342515","0.0-2.0-4.0-1.15","61005a9bfd2f14f18ef7ec7d","F1","batch6","spm_respsonse","6336.399999976158","img/question_4_4.jpeg","6","mat_40","7","1","1","6336.399999976158","","","","","","","","","","","","","","","","","","","","",""
"","","","","","html-keyboard-response","85","343590","0.0-2.0-4.0-0.16","61005a9bfd2f14f18ef7ec7d","F1","batch6","spm_show_trial_num","null","<p class=block-text>Trial 41 out of 60</p>","null","","","","","","","","","","","","","","","","","","","","","","","","","",""
"","","","","","image-button-response","86","349172","0.0-2.0-4.0-1.16","61005a9bfd2f14f18ef7ec7d","F1","batch6","spm_respsonse","5575.699999988079","img/question_4_5.jpeg","7","mat_41","8","1","1","5575.699999988079","","","","","","","","","","","","","","","","","","","","",""
"","","","","","html-keyboard-response","87","350233","0.0-2.0-4.0-0.17","61005a9bfd2f14f18ef7ec7d","F1","batch6","spm_show_trial_num","null","<p class=block-text>Trial 42 out of 60</p>","null","","","","","","","","","","","","","","","","","","","","","","","","","",""
"","","","","","image-button-response","88","360906","0.0-2.0-4.0-1.17","61005a9bfd2f14f18ef7ec7d","F1","batch6","spm_respsonse","10667.300000011921","img/question_4_6.jpeg","5","mat_42","6","1","1","10667.300000011921","","","","","","","","","","","","","","","","","","","","",""
"","","","","","html-keyboard-response","89","361973","0.0-2.0-4.0-0.18","61005a9bfd2f14f18ef7ec7d","F1","batch6","spm_show_trial_num","null","<p class=block-text>Trial 43 out of 60</p>","null","","","","","","","","","","","","","","","","","","","","","","","","","",""
"","","","","","image-button-response","90","385831","0.0-2.0-4.0-1.18","61005a9bfd2f14f18ef7ec7d","F1","batch6","spm_respsonse","23852.600000023842","img/question_4_7.jpeg","4","mat_43","5","1","1","23852.600000023842","","","","","","","","","","","","","","","","","","","","",""
"","","","","","html-keyboard-response","91","386894","0.0-2.0-4.0-0.19","61005a9bfd2f14f18ef7ec7d","F1","batch6","spm_show_trial_num","null","<p class=block-text>Trial 44 out of 60</p>","null","","","","","","","","","","","","","","","","","","","","","","","","","",""
"","","","","","image-button-response","92","396155","0.0-2.0-4.0-1.19","61005a9bfd2f14f18ef7ec7d","F1","batch6","spm_respsonse","9255.099999964237","img/question_4_8.jpeg","3","mat_44","4","1","1","9255.099999964237","","","","","","","","","","","","","","","","","","","","",""
"","","","","","html-keyboard-response","93","397230","0.0-2.0-4.0-0.20","61005a9bfd2f14f18ef7ec7d","F1","batch6","spm_show_trial_num","null","<p class=block-text>Trial 45 out of 60</p>","null","","","","","","","","","","","","","","","","","","","","","","","","","",""
"","","","","","image-button-response","94","407378","0.0-2.0-4.0-1.20","61005a9bfd2f14f18ef7ec7d","F1","batch6","spm_respsonse","10143.199999988079","img/question_4_9.jpeg","0","mat_45","1","1","1","10143.199999988079","","","","","","","","","","","","","","","","","","","","",""
"","","","","","html-keyboard-response","95","408445","0.0-2.0-4.0-0.21","61005a9bfd2f14f18ef7ec7d","F1","batch6","spm_show_trial_num","null","<p class=block-text>Trial 46 out of 60</p>","null","","","","","","","","","","","","","","","","","","","","","","","","","",""
"","","","","","image-button-response","96","419270","0.0-2.0-4.0-1.21","61005a9bfd2f14f18ef7ec7d","F1","batch6","spm_respsonse","10819.200000047684","img/question_4_10.jpeg","1","mat_46","2","1","1","10819.200000047684","","","","","","","","","","","","","","","","","","","","",""
"","","","","","html-keyboard-response","97","420345","0.0-2.0-4.0-0.22","61005a9bfd2f14f18ef7ec7d","F1","batch6","spm_show_trial_num","null","<p class=block-text>Trial 47 out of 60</p>","null","","","","","","","","","","","","","","","","","","","","","","","","","",""
"","","","","","image-button-response","98","461923","0.0-2.0-4.0-1.22","61005a9bfd2f14f18ef7ec7d","F1","batch6","spm_respsonse","41572.40000003576","img/question_4_11.jpeg","4","mat_47","5","1","1","41572.40000003576","","","","","","","","","","","","","","","","","","","","",""
"","","","","","html-keyboard-response","99","463003","0.0-2.0-4.0-0.23","61005a9bfd2f14f18ef7ec7d","F1","batch6","spm_show_trial_num","null","<p class=block-text>Trial 48 out of 60</p>","null","","","","","","","","","","","","","","","","","","","","","","","","","",""
"","","","","","image-button-response","100","504763","0.0-2.0-4.0-1.23","61005a9bfd2f14f18ef7ec7d","F1","batch6","spm_respsonse","41754.60000002384","img/question_4_12.jpeg","5","mat_48","6","1","1","41754.60000002384","","","","","","","","","","","","","","","","","","","","",""
"","","","","","html-keyboard-response","101","505840","0.0-2.0-4.0-0.24","61005a9bfd2f14f18ef7ec7d","F1","batch6","spm_show_trial_num","null","<p class=block-text>Trial 49 out of 60</p>","null","","","","","","","","","","","","","","","","","","","","","","","","","",""
"","","","","","image-button-response","102","516955","0.0-2.0-4.0-1.24","61005a9bfd2f14f18ef7ec7d","F1","batch6","spm_respsonse","11108.399999976158","img/question_5_1.jpeg","6","mat_49","7","1","1","11108.399999976158","","","","","","","","","","","","","","","","","","","","",""
"","","","","","html-keyboard-response","103","518024","0.0-2.0-4.0-0.25","61005a9bfd2f14f18ef7ec7d","F1","batch6","spm_show_trial_num","null","<p class=block-text>Trial 50 out of 60</p>","null","","","","","","","","","","","","","","","","","","","","","","","","","",""
"","","","","","image-button-response","104","524987","0.0-2.0-4.0-1.25","61005a9bfd2f14f18ef7ec7d","F1","batch6","spm_respsonse","6958.5","img/question_5_2.jpeg","5","mat_50","6","1","1","6958.5","","","","","","","","","","","","","","","","","","","","",""
"","","","","","html-keyboard-response","105","526050","0.0-2.0-4.0-0.26","61005a9bfd2f14f18ef7ec7d","F1","batch6","spm_show_trial_num","null","<p class=block-text>Trial 51 out of 60</p>","null","","","","","","","","","","","","","","","","","","","","","","","","","",""
"","","","","","image-button-response","106","540298","0.0-2.0-4.0-1.26","61005a9bfd2f14f18ef7ec7d","F1","batch6","spm_respsonse","14242.099999964237","img/question_5_3.jpeg","7","mat_51","8","1","1","14242.099999964237","","","","","","","","","","","","","","","","","","","","",""
"","","","","","html-keyboard-response","107","541353","0.0-2.0-4.0-0.27","61005a9bfd2f14f18ef7ec7d","F1","batch6","spm_show_trial_num","null","<p class=block-text>Trial 52 out of 60</p>","null","","","","","","","","","","","","","","","","","","","","","","","","","",""
"","","","","","image-button-response","108","548077","0.0-2.0-4.0-1.27","61005a9bfd2f14f18ef7ec7d","F1","batch6","spm_respsonse","6717.699999988079","img/question_5_4.jpeg","1","mat_52","2","1","1","6717.699999988079","","","","","","","","","","","","","","","","","","","","",""
"","","","","","html-keyboard-response","109","549144","0.0-2.0-4.0-0.28","61005a9bfd2f14f18ef7ec7d","F1","batch6","spm_show_trial_num","null","<p class=block-text>Trial 53 out of 60</p>","null","","","","","","","","","","","","","","","","","","","","","","","","","",""
"","","","","","image-button-response","110","558341","0.0-2.0-4.0-1.28","61005a9bfd2f14f18ef7ec7d","F1","batch6","spm_respsonse","9190.600000023842","img/question_5_5.jpeg","0","mat_53","1","1","1","9190.600000023842","","","","","","","","","","","","","","","","","","","","",""
"","","","","","html-keyboard-response","111","559416","0.0-2.0-4.0-0.29","61005a9bfd2f14f18ef7ec7d","F1","batch6","spm_show_trial_num","null","<p class=block-text>Trial 54 out of 60</p>","null","","","","","","","","","","","","","","","","","","","","","","","","","",""
"","","","","","image-button-response","112","579500","0.0-2.0-4.0-1.29","61005a9bfd2f14f18ef7ec7d","F1","batch6","spm_respsonse","20078.900000035763","img/question_5_6.jpeg","4","mat_54","5","1","1","20078.900000035763","","","","","","","","","","","","","","","","","","","","",""
"","","","","","html-keyboard-response","113","580570","0.0-2.0-4.0-0.30","61005a9bfd2f14f18ef7ec7d","F1","batch6","spm_show_trial_num","null","<p class=block-text>Trial 55 out of 60</p>","null","","","","","","","","","","","","","","","","","","","","","","","","","",""
"","","","","","image-button-response","114","598941","0.0-2.0-4.0-1.30","61005a9bfd2f14f18ef7ec7d","F1","batch6","spm_respsonse","18366","img/question_5_7.jpeg","0","mat_55","1","1","1","18366","","","","","","","","","","","","","","","","","","","","",""
"","","","","","html-keyboard-response","115","599996","0.0-2.0-4.0-0.31","61005a9bfd2f14f18ef7ec7d","F1","batch6","spm_show_trial_num","null","<p class=block-text>Trial 56 out of 60</p>","null","","","","","","","","","","","","","","","","","","","","","","","","","",""
"","","","","","image-button-response","116","609617","0.0-2.0-4.0-1.31","61005a9bfd2f14f18ef7ec7d","F1","batch6","spm_respsonse","9615.5","img/question_5_8.jpeg","5","mat_56","6","1","1","9615.5","","","","","","","","","","","","","","","","","","","","",""
"","","","","","html-keyboard-response","117","610684","0.0-2.0-4.0-0.32","61005a9bfd2f14f18ef7ec7d","F1","batch6","spm_show_trial_num","null","<p class=block-text>Trial 57 out of 60</p>","null","","","","","","","","","","","","","","","","","","","","","","","","","",""
"","","","","","image-button-response","118","642832","0.0-2.0-4.0-1.32","61005a9bfd2f14f18ef7ec7d","F1","batch6","spm_respsonse","32143.5","img/question_5_9.jpeg","2","mat_57","3","1","1","32143.5","","","","","","","","","","","","","","","","","","","","",""
"","","","","","html-keyboard-response","119","643894","0.0-2.0-4.0-0.33","61005a9bfd2f14f18ef7ec7d","F1","batch6","spm_show_trial_num","null","<p class=block-text>Trial 58 out of 60</p>","null","","","","","","","","","","","","","","","","","","","","","","","","","",""
"","","","","","image-button-response","120","656774","0.0-2.0-4.0-1.33","61005a9bfd2f14f18ef7ec7d","F1","batch6","spm_respsonse","12874.799999952316","img/question_5_10.jpeg","1","mat_58","2","1","1","12874.799999952316","","","","","","","","","","","","","","","","","","","","",""
"","","","","","html-keyboard-response","121","657834","0.0-2.0-4.0-0.34","61005a9bfd2f14f18ef7ec7d","F1","batch6","spm_show_trial_num","null","<p class=block-text>Trial 59 out of 60</p>","null","","","","","","","","","","","","","","","","","","","","","","","","","",""
"","","","","","image-button-response","122","709402","0.0-2.0-4.0-1.34","61005a9bfd2f14f18ef7ec7d","F1","batch6","spm_respsonse","51561.89999997616","img/question_5_11.jpeg","6","mat_59","4","0","0","51561.89999997616","","","","","","","","","","","","","","","","","","","","",""
"","","","","","html-keyboard-response","123","710480","0.0-2.0-4.0-0.35","61005a9bfd2f14f18ef7ec7d","F1","batch6","spm_show_trial_num","null","<p class=block-text>Trial 60 out of 60</p>","null","","","","","","","","","","","","","","","","","","","","","","","","","",""
"","","","","","image-button-response","124","739938","0.0-2.0-4.0-1.35","61005a9bfd2f14f18ef7ec7d","F1","batch6","spm_respsonse","29451.80000001192","img/question_5_12.jpeg","4","mat_60","5","1","1","29451.80000001192","","","","","","","","","","","","","","","","","","","","",""
"","","","","","html-button-response","125","742168","0.0-2.0-5.0","61005a9bfd2f14f18ef7ec7d","F1","batch6","spm_goodbye","1972.300000011921","<p class= block-text>This concludes the Standard Progressive Matrix game. Thank you for your responses!<br> When you are ready, click the button continue</p>","0","","","","","","","","","","","","","","","","","","","","","","","","","",""
"true","","","","","fullscreen","126","745115","0.0-3.0-0.0","61005a9bfd2f14f18ef7ec7d","F1","batch6","","","","","","","","","","","","","","","","","","","","","","","","","","","","","",""
"","","","","","instructions","127","764499","0.0-3.0-1.0-0.0","61005a9bfd2f14f18ef7ec7d","F1","batch6","","19382.30000001192","","","","","","","","[{""page_index"":0,""viewing_time"":15296.800000011921},{""page_index"":1,""viewing_time"":4084.699999988079}]","","","","","","","","","","","","","","","","","","","",""
"","","","","","html-button-response","128","767120","0.0-3.0-1.0-1.0-0.0","61005a9bfd2f14f18ef7ec7d","F1","batch6","pattern_enter_quiz","2619.100000023842","<p class=block-text> Let's answer a few questions <br>","0","","","","","","","","","","","","","","","","","","","","","","","","","",""
"","","","","","html-button-response","129","769394","0.0-3.0-1.0-1.0-1.0","61005a9bfd2f14f18ef7ec7d","F1","batch6","pattern_quiz","2271.199999988079","<p class = block-text>True or False: You will have as much time as you want to make each choice. <br></p>","1","","","true","","","","","","","","","","","","","","","","","","","","","","",""
"","","","","","html-button-response","130","770561","0.0-3.0-1.0-1.0-2.0","61005a9bfd2f14f18ef7ec7d","F1","batch6","pattern_quiz_feedback","1162.800000011921","<p class = block-text>Correct! You should make your choice <strong> as fast as you can</strong>.</p>","0","","","","","","","","","","","","","","","","","","","","","","","","","",""
"","","","","","html-button-response","131","772219","0.0-3.0-1.0-1.0-3.0","61005a9bfd2f14f18ef7ec7d","F1","batch6","pattern_quiz","1655.5","<p class = block-text>True or False: You will look for 4 pieces in black or white color connected in a row either horizontally, vertically or diagonally. <br></p>","0","","","true","","","","","","","","","","","","","","","","","","","","","","",""
"","","","","","html-button-response","132","773024","0.0-3.0-1.0-1.0-4.0","61005a9bfd2f14f18ef7ec7d","F1","batch6","pattern_quiz_feedback","802","<p class = block-text>Correct! </p>","0","","","","","","","","","","","","","","","","","","","","","","","","","",""
"","","","","","html-button-response","133","774062","0.0-3.0-2.0","61005a9bfd2f14f18ef7ec7d","F1","batch6","pattern_enter_practice","1034.300000011921","<p class=block-text> Now that you've understood the game, let's do a few practice trials before we start!<br> <br>","0","","","","","","","","","","","","","","","","","","","","","","","","","",""
"","","","","","image-keyboard-response","134","775825","0.0-3.0-3.0-0.0","61005a9bfd2f14f18ef7ec7d","F1","batch6","pattern_practice","1758.6000000238419","stim/prac_no_16_1.png","j","","j","true","","","","","","","","","","","","","","","","","","","","","","",""
"","","","","","html-keyboard-response","135","776835","0.0-3.0-3.0-1.0","61005a9bfd2f14f18ef7ec7d","F1","batch6","pattern_feedback","null","<p style=""font-size:30px;color:green;"">Correct!</p>","null","","","","","","","","","","","","","","","","","","","","","","","","","",""
"","","","","","image-keyboard-response","136","777584","0.0-3.0-3.0-0.1","61005a9bfd2f14f18ef7ec7d","F1","batch6","pattern_practice","746.2000000476837","stim/prac_yes_16_ver_w1.png","f","","f","true","","","","","","","","","","","","","","","","","","","","","","",""
"","","","","","html-keyboard-response","137","778600","0.0-3.0-3.0-1.1","61005a9bfd2f14f18ef7ec7d","F1","batch6","pattern_feedback","null","<p style=""font-size:30px;color:green;"">Correct!</p>","null","","","","","","","","","","","","","","","","","","","","","","","","","",""
"","","","","","image-keyboard-response","138","779312","0.0-3.0-3.0-0.2","61005a9bfd2f14f18ef7ec7d","F1","batch6","pattern_practice","709.2999999523163","stim/prac_yes_18_hor_w1.png","f","","f","true","","","","","","","","","","","","","","","","","","","","","","",""
"","","","","","html-keyboard-response","139","780319","0.0-3.0-3.0-1.2","61005a9bfd2f14f18ef7ec7d","F1","batch6","pattern_feedback","null","<p style=""font-size:30px;color:green;"">Correct!</p>","null","","","","","","","","","","","","","","","","","","","","","","","","","",""
"","","","","","image-keyboard-response","140","780917","0.0-3.0-3.0-0.3","61005a9bfd2f14f18ef7ec7d","F1","batch6","pattern_practice","595.4000000357628","stim/prac_no_18_1.png","j","","j","true","","","","","","","","","","","","","","","","","","","","","","",""
"","","","","","html-keyboard-response","141","781931","0.0-3.0-3.0-1.3","61005a9bfd2f14f18ef7ec7d","F1","batch6","pattern_feedback","null","<p style=""font-size:30px;color:green;"">Correct!</p>","null","","","","","","","","","","","","","","","","","","","","","","","","","",""
"","","","","","image-keyboard-response","142","782861","0.0-3.0-3.0-0.4","61005a9bfd2f14f18ef7ec7d","F1","batch6","pattern_practice","927.1999999880791","stim/prac_yes_20_dia_b1.png","j","","f","false","","","","","","","","","","","","","","","","","","","","","","",""
"","","","","","html-keyboard-response","143","783882","0.0-3.0-3.0-1.4","61005a9bfd2f14f18ef7ec7d","F1","batch6","pattern_feedback","null","<p style=""font-size:30px;color:red;"">Wrong.</p>","null","","","","","","","","","","","","","","","","","","","","","","","","","",""
"","","","","","html-button-response","144","786495","0.0-3.0-4.0","61005a9bfd2f14f18ef7ec7d","F1","batch6","pattern_enter_official_trials","2609","<p class=block-text> Good job! You are done with practice trials!<br>
        You responded correctly on 80% of the trials.<br>
        Press the button below to start official trials. Now you won't see any feedback about your response</p>","0","","","","","","","","","","","","","","","","","","","","","","","","","",""
"","","","","","html-keyboard-response","145","787311","0.0-3.0-5.0-0.0","61005a9bfd2f14f18ef7ec7d","F1","batch6","pattern_show_trial_num","null","<p class=block-text>Trial 1 out of 78</p>","null","","","","","","","","","","","","","","","","","","","","","","","","","",""
"","","","","","image-keyboard-response","146","788076","0.0-3.0-5.0-1.0","61005a9bfd2f14f18ef7ec7d","F1","batch6","pattern_response","760.6000000238419","stim/yes_39_hor_w1_w.png","j","pattern_62","f","false","","","","760.6000000238419","false","0","","","","","","","","","","","","","","","","",""
"","","","","","html-keyboard-response","147","789395","0.0-3.0-5.0-0.1","61005a9bfd2f14f18ef7ec7d","F1","batch6","pattern_show_trial_num","null","<p class=block-text>Trial 2 out of 78</p>","null","","","","","","","","","","","","","","","","","","","","","","","","","",""
"","","","","","image-keyboard-response","148","790459","0.0-3.0-5.0-1.1","61005a9bfd2f14f18ef7ec7d","F1","batch6","pattern_response","1061.4000000357628","stim/yes_44_ver_w1_w.png","j","pattern_66","f","false","","","","1061.4000000357628","false","0","","","","","","","","","","","","","","","","",""
"","","","","","html-keyboard-response","149","791780","0.0-3.0-5.0-0.2","61005a9bfd2f14f18ef7ec7d","F1","batch6","pattern_show_trial_num","null","<p class=block-text>Trial 3 out of 78</p>","null","","","","","","","","","","","","","","","","","","","","","","","","","",""
"","","","","","image-keyboard-response","150","792692","0.0-3.0-5.0-1.2","61005a9bfd2f14f18ef7ec7d","F1","batch6","pattern_response","909.6999999880791","stim/yes_37_hor_w1_w.png","f","pattern_60","f","true","","","","909.6999999880791","true","1","","","","","","","","","","","","","","","","",""
"","","","","","html-keyboard-response","151","794044","0.0-3.0-5.0-0.3","61005a9bfd2f14f18ef7ec7d","F1","batch6","pattern_show_trial_num","null","<p class=block-text>Trial 4 out of 78</p>","null","","","","","","","","","","","","","","","","","","","","","","","","","",""
"","","","","","image-keyboard-response","152","795412","0.0-3.0-5.0-1.3","61005a9bfd2f14f18ef7ec7d","F1","batch6","pattern_response","1365.8999999761581","stim/yes_53_ver_b1_b.png","f","pattern_74","f","true","","","","1365.8999999761581","true","2","","","","","","","","","","","","","","","","",""
"","","","","","html-keyboard-response","153","796729","0.0-3.0-5.0-0.4","61005a9bfd2f14f18ef7ec7d","F1","batch6","pattern_show_trial_num","null","<p class=block-text>Trial 5 out of 78</p>","null","","","","","","","","","","","","","","","","","","","","","","","","","",""
"","","","","","image-keyboard-response","154","797899","0.0-3.0-5.0-1.4","61005a9bfd2f14f18ef7ec7d","F1","batch6","pattern_response","1168.699999988079","stim/no_33_1_b.png","j","pattern_15","j","true","","","","1168.699999988079","true","3","","","","","","","","","","","","","","","","",""
"","","","","","html-keyboard-response","155","799209","0.0-3.0-5.0-0.5","61005a9bfd2f14f18ef7ec7d","F1","batch6","pattern_show_trial_num","null","<p class=block-text>Trial 6 out of 78</p>","null","","","","","","","","","","","","","","","","","","","","","","","","","",""
"","","","","","image-keyboard-response","156","800172","0.0-3.0-5.0-1.5","61005a9bfd2f14f18ef7ec7d","F1","batch6","pattern_response","960.1000000238419","stim/no_25_1_b.png","j","pattern_09","j","true","","","","960.1000000238419","true","4","","","","","","","","","","","","","","","","",""
"","","","","","html-keyboard-response","157","801546","0.0-3.0-5.0-0.6","61005a9bfd2f14f18ef7ec7d","F1","batch6","pattern_show_trial_num","null","<p class=block-text>Trial 7 out of 78</p>","null","","","","","","","","","","","","","","","","","","","","","","","","","",""
"","","","","","image-keyboard-response","158","802746","0.0-3.0-5.0-1.6","61005a9bfd2f14f18ef7ec7d","F1","batch6","pattern_response","1195.8999999761581","stim/no_30_1_b.png","j","pattern_13","j","true","","","","1195.8999999761581","true","5","","","","","","","","","","","","","","","","",""
"","","","","","html-keyboard-response","159","804056","0.0-3.0-5.0-0.7","61005a9bfd2f14f18ef7ec7d","F1","batch6","pattern_show_trial_num","null","<p class=block-text>Trial 8 out of 78</p>","null","","","","","","","","","","","","","","","","","","","","","","","","","",""
"","","","","","image-keyboard-response","160","805802","0.0-3.0-5.0-1.7","61005a9bfd2f14f18ef7ec7d","F1","batch6","pattern_response","1743.4000000357628","stim/yes_51_dia_b1.png","j","pattern_72","f","false","","","","1743.4000000357628","false","5","","","","","","","","","","","","","","","","",""
"","","","","","html-keyboard-response","161","807122","0.0-3.0-5.0-0.8","61005a9bfd2f14f18ef7ec7d","F1","batch6","pattern_show_trial_num","null","<p class=block-text>Trial 9 out of 78</p>","null","","","","","","","","","","","","","","","","","","","","","","","","","",""
"","","","","","image-keyboard-response","162","807815","0.0-3.0-5.0-1.8","61005a9bfd2f14f18ef7ec7d","F1","batch6","pattern_response","690.5","stim/yes_15_dia_b1u_b.png","f","pattern_44","f","true","","","","690.5","true","6","","","","","","","","","","","","","","","","",""
"","","","","","html-keyboard-response","163","809124","0.0-3.0-5.0-0.9","61005a9bfd2f14f18ef7ec7d","F1","batch6","pattern_show_trial_num","null","<p class=block-text>Trial 10 out of 78</p>","null","","","","","","","","","","","","","","","","","","","","","","","","","",""
"","","","","","image-keyboard-response","164","811290","0.0-3.0-5.0-1.9","61005a9bfd2f14f18ef7ec7d","F1","batch6","pattern_response","2163.399999976158","stim/no_39_1_w.png","f","pattern_21","j","false","","","","2163.399999976158","false","6","","","","","","","","","","","","","","","","",""
"","","","","","html-keyboard-response","165","812598","0.0-3.0-5.0-0.10","61005a9bfd2f14f18ef7ec7d","F1","batch6","pattern_show_trial_num","null","<p class=block-text>Trial 11 out of 78</p>","null","","","","","","","","","","","","","","","","","","","","","","","","","",""
"","","","","","image-keyboard-response","166","813209","0.0-3.0-5.0-1.10","61005a9bfd2f14f18ef7ec7d","F1","batch6","pattern_response","607.5","stim/yes_12_hor_w1_w.png","f","pattern_42","f","true","","","","607.5","true","7","","","","","","","","","","","","","","","","",""
"","","","","","html-keyboard-response","167","814525","0.0-3.0-5.0-0.11","61005a9bfd2f14f18ef7ec7d","F1","batch6","pattern_show_trial_num","null","<p class=block-text>Trial 12 out of 78</p>","null","","","","","","","","","","","","","","","","","","","","","","","","","",""
"","","","","","image-keyboard-response","168","815755","0.0-3.0-5.0-1.11","61005a9bfd2f14f18ef7ec7d","F1","batch6","pattern_response","1228.4000000357628","stim/no_43_2_b.png","j","pattern_23","j","true","","","","1228.4000000357628","true","8","","","","","","","","","","","","","","","","",""
"","","","","","html-keyboard-response","169","817074","0.0-3.0-5.0-0.12","61005a9bfd2f14f18ef7ec7d","F1","batch6","pattern_show_trial_num","null","<p class=block-text>Trial 13 out of 78</p>","null","","","","","","","","","","","","","","","","","","","","","","","","","",""
"","","","","","image-keyboard-response","170","818985","0.0-3.0-5.0-1.12","61005a9bfd2f14f18ef7ec7d","F1","batch6","pattern_response","1908.3999999761581","stim/no_58_1_w.png","j","pattern_35","j","true","","","","1908.3999999761581","true","9","","","","","","","","","","","","","","","","",""
"","","","","","html-keyboard-response","171","820298","0.0-3.0-5.0-0.13","61005a9bfd2f14f18ef7ec7d","F1","batch6","pattern_show_trial_num","null","<p class=block-text>Trial 14 out of 78</p>","null","","","","","","","","","","","","","","","","","","","","","","","","","",""
"","","","","","image-keyboard-response","172","822758","0.0-3.0-5.0-1.13","61005a9bfd2f14f18ef7ec7d","F1","batch6","pattern_response","2455.899999976158","stim/yes_58_dia_w1_w.png","j","pattern_76","f","false","","","","2455.899999976158","false","9","","","","","","","","","","","","","","","","",""
"","","","","","html-keyboard-response","173","824105","0.0-3.0-5.0-0.14","61005a9bfd2f14f18ef7ec7d","F1","batch6","pattern_show_trial_num","null","<p class=block-text>Trial 15 out of 78</p>","null","","","","","","","","","","","","","","","","","","","","","","","","","",""
"","","","","","image-keyboard-response","174","827838","0.0-3.0-5.0-1.14","61005a9bfd2f14f18ef7ec7d","F1","batch6","pattern_response","3729.2000000476837","stim/yes_63_dia_b1.png","j","pattern_78","f","false","","","","3729.2000000476837","false","9","","","","","","","","","","","","","","","","",""
"","","","","","html-keyboard-response","175","829149","0.0-3.0-5.0-0.15","61005a9bfd2f14f18ef7ec7d","F1","batch6","pattern_show_trial_num","null","<p class=block-text>Trial 16 out of 78</p>","null","","","","","","","","","","","","","","","","","","","","","","","","","",""
"","","","","","image-keyboard-response","176","829943","0.0-3.0-5.0-1.15","61005a9bfd2f14f18ef7ec7d","F1","batch6","pattern_response","789.8000000119209","stim/no_12_1.png","j","pattern_01","j","true","","","","789.8000000119209","true","10","","","","","","","","","","","","","","","","",""
"","","","","","html-keyboard-response","177","831262","0.0-3.0-5.0-0.16","61005a9bfd2f14f18ef7ec7d","F1","batch6","pattern_show_trial_num","null","<p class=block-text>Trial 17 out of 78</p>","null","","","","","","","","","","","","","","","","","","","","","","","","","",""
"","","","","","image-keyboard-response","178","832195","0.0-3.0-5.0-1.16","61005a9bfd2f14f18ef7ec7d","F1","batch6","pattern_response","930.6999999880791","stim/yes_49_hor_w1_b.png","f","pattern_70","f","true","","","","930.6999999880791","true","11","","","","","","","","","","","","","","","","",""
"","","","","","html-keyboard-response","179","833533","0.0-3.0-5.0-0.17","61005a9bfd2f14f18ef7ec7d","F1","batch6","pattern_show_trial_num","null","<p class=block-text>Trial 18 out of 78</p>","null","","","","","","","","","","","","","","","","","","","","","","","","","",""
"","","","","","image-keyboard-response","180","834987","0.0-3.0-5.0-1.17","61005a9bfd2f14f18ef7ec7d","F1","batch6","pattern_response","1452","stim/yes_23_ver_b1.png","f","pattern_48","f","true","","","","1452","true","12","","","","","","","","","","","","","","","","",""
"","","","","","html-keyboard-response","181","836306","0.0-3.0-5.0-0.18","61005a9bfd2f14f18ef7ec7d","F1","batch6","pattern_show_trial_num","null","<p class=block-text>Trial 19 out of 78</p>","null","","","","","","","","","","","","","","","","","","","","","","","","","",""
"","","","","","image-keyboard-response","182","837553","0.0-3.0-5.0-1.18","61005a9bfd2f14f18ef7ec7d","F1","batch6","pattern_response","1228.699999988079","stim/yes_70_ver_b1.png","f","pattern_80","f","true","","","","1228.699999988079","true","13","","","","","","","","","","","","","","","","",""
"","","","","","html-keyboard-response","183","838860","0.0-3.0-5.0-0.19","61005a9bfd2f14f18ef7ec7d","F1","batch6","pattern_show_trial_num","null","<p class=block-text>Trial 20 out of 78</p>","null","","","","","","","","","","","","","","","","","","","","","","","","","",""
"","","","","","image-keyboard-response","184","839625","0.0-3.0-5.0-1.19","61005a9bfd2f14f18ef7ec7d","F1","batch6","pattern_response","762.1000000238419","stim/no_15_1_w.png","j","pattern_03","j","true","","","","762.1000000238419","true","14","","","","","","","","","","","","","","","","",""
"","","","","","html-keyboard-response","185","840968","0.0-3.0-5.0-0.20","61005a9bfd2f14f18ef7ec7d","F1","batch6","pattern_show_trial_num","null","<p class=block-text>Trial 21 out of 78</p>","null","","","","","","","","","","","","","","","","","","","","","","","","","",""
"","","","","","image-keyboard-response","186","842099","0.0-3.0-5.0-1.20","61005a9bfd2f14f18ef7ec7d","F1","batch6","pattern_response","1128.5999999642372","stim/yes_46_ver_b1_b.png","f","pattern_68","f","true","","","","1128.5999999642372","true","15","","","","","","","","","","","","","","","","",""
"","","","","","html-keyboard-response","187","843419","0.0-3.0-5.0-0.21","61005a9bfd2f14f18ef7ec7d","F1","batch6","pattern_show_trial_num","null","<p class=block-text>Trial 22 out of 78</p>","null","","","","","","","","","","","","","","","","","","","","","","","","","",""
"","","","","","image-keyboard-response","188","845145","0.0-3.0-5.0-1.21","61005a9bfd2f14f18ef7ec7d","F1","batch6","pattern_response","1723.199999988079","stim/yes_33_dia_w1_w.png","f","pattern_56","f","true","","","","1723.199999988079","true","16","","","","","","","","","","","","","","","","",""
"","","","","","html-keyboard-response","189","846450","0.0-3.0-5.0-0.22","61005a9bfd2f14f18ef7ec7d","F1","batch6","pattern_show_trial_num","null","<p class=block-text>Trial 23 out of 78</p>","null","","","","","","","","","","","","","","","","","","","","","","","","","",""
"","","","","","image-keyboard-response","190","848492","0.0-3.0-5.0-1.22","61005a9bfd2f14f18ef7ec7d","F1","batch6","pattern_response","2040.7000000476837","stim/no_22_1_b.png","j","pattern_07","j","true","","","","2040.7000000476837","true","17","","","","","","","","","","","","","","","","",""
"","","","","","html-keyboard-response","191","849812","0.0-3.0-5.0-0.23","61005a9bfd2f14f18ef7ec7d","F1","batch6","pattern_show_trial_num","null","<p class=block-text>Trial 24 out of 78</p>","null","","","","","","","","","","","","","","","","","","","","","","","","","",""
"","","","","","image-keyboard-response","192","851469","0.0-3.0-5.0-1.23","61005a9bfd2f14f18ef7ec7d","F1","batch6","pattern_response","1652.0999999642372","stim/no_47_1_b.png","j","pattern_27","j","true","","","","1652.0999999642372","true","18","","","","","","","","","","","","","","","","",""
"","","","","","html-keyboard-response","193","852780","0.0-3.0-5.0-0.24","61005a9bfd2f14f18ef7ec7d","F1","batch6","pattern_show_trial_num","null","<p class=block-text>Trial 25 out of 78</p>","null","","","","","","","","","","","","","","","","","","","","","","","","","",""
"","","","","","image-keyboard-response","194","854624","0.0-3.0-5.0-1.24","61005a9bfd2f14f18ef7ec7d","F1","batch6","pattern_response","1841.699999988079","stim/no_28_2.png","j","pattern_11","j","true","","","","1841.699999988079","true","19","","","","","","","","","","","","","","","","",""
"","","","","","html-keyboard-response","195","855940","0.0-3.0-5.0-0.25","61005a9bfd2f14f18ef7ec7d","F1","batch6","pattern_show_trial_num","null","<p class=block-text>Trial 26 out of 78</p>","null","","","","","","","","","","","","","","","","","","","","","","","","","",""
"","","","","","image-keyboard-response","196","856689","0.0-3.0-5.0-1.25","61005a9bfd2f14f18ef7ec7d","F1","batch6","pattern_response","745.5","stim/yes_17_ver_b1_b.png","j","pattern_46","f","false","","","","745.5","false","19","","","","","","","","","","","","","","","","",""
"","","","","","html-keyboard-response","197","858006","0.0-3.0-5.0-0.26","61005a9bfd2f14f18ef7ec7d","F1","batch6","pattern_show_trial_num","null","<p class=block-text>Trial 27 out of 78</p>","null","","","","","","","","","","","","","","","","","","","","","","","","","",""
"","","","","","image-keyboard-response","198","859979","0.0-3.0-5.0-1.26","61005a9bfd2f14f18ef7ec7d","F1","batch6","pattern_response","1970.699999988079","stim/no_45_1_w.png","j","pattern_25","j","true","","","","1970.699999988079","true","20","","","","","","","","","","","","","","","","",""
"","","","","","html-keyboard-response","199","861291","0.0-3.0-5.0-0.27","61005a9bfd2f14f18ef7ec7d","F1","batch6","pattern_show_trial_num","null","<p class=block-text>Trial 28 out of 78</p>","null","","","","","","","","","","","","","","","","","","","","","","","","","",""
"","","","","","image-keyboard-response","200","864397","0.0-3.0-5.0-1.27","61005a9bfd2f14f18ef7ec7d","F1","batch6","pattern_response","3103.600000023842","stim/no_67_1.png","j","pattern_39","j","true","","","","3103.600000023842","true","21","","","","","","","","","","","","","","","","",""
"","","","","","html-keyboard-response","201","865715","0.0-3.0-5.0-0.28","61005a9bfd2f14f18ef7ec7d","F1","batch6","pattern_show_trial_num","null","<p class=block-text>Trial 29 out of 78</p>","null","","","","","","","","","","","","","","","","","","","","","","","","","",""
"","","","","","image-keyboard-response","202","868058","0.0-3.0-5.0-1.28","61005a9bfd2f14f18ef7ec7d","F1","batch6","pattern_response","2340","stim/yes_42_dia_w1_w.png","j","pattern_64","f","false","","","","2340","false","21","","","","","","","","","","","","","","","","",""
"","","","","","html-keyboard-response","203","869363","0.0-3.0-5.0-0.29","61005a9bfd2f14f18ef7ec7d","F1","batch6","pattern_show_trial_num","null","<p class=block-text>Trial 30 out of 78</p>","null","","","","","","","","","","","","","","","","","","","","","","","","","",""
"","","","","","image-keyboard-response","204","870314","0.0-3.0-5.0-1.29","61005a9bfd2f14f18ef7ec7d","F1","batch6","pattern_response","948.3000000119209","stim/yes_29_hor_b1_b.png","f","pattern_52","f","true","","","","948.3000000119209","true","22","","","","","","","","","","","","","","","","",""
"","","","","","html-keyboard-response","205","871626","0.0-3.0-5.0-0.30","61005a9bfd2f14f18ef7ec7d","F1","batch6","pattern_show_trial_num","null","<p class=block-text>Trial 31 out of 78</p>","null","","","","","","","","","","","","","","","","","","","","","","","","","",""
"","","","","","image-keyboard-response","206","872331","0.0-3.0-5.0-1.30","61005a9bfd2f14f18ef7ec7d","F1","batch6","pattern_response","701.1999999880791","stim/no_18_1_b.png","j","pattern_05","j","true","","","","701.1999999880791","true","23","","","","","","","","","","","","","","","","",""
"","","","","","html-keyboard-response","207","873661","0.0-3.0-5.0-0.31","61005a9bfd2f14f18ef7ec7d","F1","batch6","pattern_show_trial_num","null","<p class=block-text>Trial 32 out of 78</p>","null","","","","","","","","","","","","","","","","","","","","","","","","","",""
"","","","","","image-keyboard-response","208","876071","0.0-3.0-5.0-1.31","61005a9bfd2f14f18ef7ec7d","F1","batch6","pattern_response","2406.800000011921","stim/no_53_1_b.png","j","pattern_33","j","true","","","","2406.800000011921","true","24","","","","","","","","","","","","","","","","",""
"","","","","","html-keyboard-response","209","877387","0.0-3.0-5.0-0.32","61005a9bfd2f14f18ef7ec7d","F1","batch6","pattern_show_trial_num","null","<p class=block-text>Trial 33 out of 78</p>","null","","","","","","","","","","","","","","","","","","","","","","","","","",""
"","","","","","image-keyboard-response","210","878012","0.0-3.0-5.0-1.32","61005a9bfd2f14f18ef7ec7d","F1","batch6","pattern_response","622.6999999880791","stim/yes_36_ver_w1_w.png","f","pattern_58","f","true","","","","622.6999999880791","true","25","","","","","","","","","","","","","","","","",""
"","","","","","html-keyboard-response","211","879328","0.0-3.0-5.0-0.33","61005a9bfd2f14f18ef7ec7d","F1","batch6","pattern_show_trial_num","null","<p class=block-text>Trial 34 out of 78</p>","null","","","","","","","","","","","","","","","","","","","","","","","","","",""
"","","","","","image-keyboard-response","212","881166","0.0-3.0-5.0-1.33","61005a9bfd2f14f18ef7ec7d","F1","batch6","pattern_response","1835.6000000238419","stim/no_36_1_b.png","j","pattern_17","j","true","","","","1835.6000000238419","true","26","","","","","","","","","","","","","","","","",""
"","","","","","html-keyboard-response","213","882486","0.0-3.0-5.0-0.34","61005a9bfd2f14f18ef7ec7d","F1","batch6","pattern_show_trial_num","null","<p class=block-text>Trial 35 out of 78</p>","null","","","","","","","","","","","","","","","","","","","","","","","","","",""
"","","","","","image-keyboard-response","214","884691","0.0-3.0-5.0-1.34","61005a9bfd2f14f18ef7ec7d","F1","batch6","pattern_response","2201.600000023842","stim/no_49_2_b.png","j","pattern_29","j","true","","","","2201.600000023842","true","27","","","","","","","","","","","","","","","","",""
"","","","","","html-keyboard-response","215","886009","0.0-3.0-5.0-0.35","61005a9bfd2f14f18ef7ec7d","F1","batch6","pattern_show_trial_num","null","<p class=block-text>Trial 36 out of 78</p>","null","","","","","","","","","","","","","","","","","","","","","","","","","",""
"","","","","","image-keyboard-response","216","886833","0.0-3.0-5.0-1.35","61005a9bfd2f14f18ef7ec7d","F1","batch6","pattern_response","822","stim/yes_26_dia_w2_w.png","f","pattern_50","f","true","","","","822","true","28","","","","","","","","","","","","","","","","",""
"","","","","","html-keyboard-response","217","888153","0.0-3.0-5.0-0.36","61005a9bfd2f14f18ef7ec7d","F1","batch6","pattern_show_trial_num","null","<p class=block-text>Trial 37 out of 78</p>","null","","","","","","","","","","","","","","","","","","","","","","","","","",""
"","","","","","image-keyboard-response","218","890002","0.0-3.0-5.0-1.36","61005a9bfd2f14f18ef7ec7d","F1","batch6","pattern_response","1847.3999999761581","stim/no_51_1.png","j","pattern_31","j","true","","","","1847.3999999761581","true","29","","","","","","","","","","","","","","","","",""
"","","","","","html-keyboard-response","219","891314","0.0-3.0-5.0-0.37","61005a9bfd2f14f18ef7ec7d","F1","batch6","pattern_show_trial_num","null","<p class=block-text>Trial 38 out of 78</p>","null","","","","","","","","","","","","","","","","","","","","","","","","","",""
"","","","","","image-keyboard-response","220","892350","0.0-3.0-5.0-1.37","61005a9bfd2f14f18ef7ec7d","F1","batch6","pattern_response","1034.5999999642372","stim/yes_30_ver_b1_b.png","j","pattern_54","f","false","","","","1034.5999999642372","false","29","","","","","","","","","","","","","","","","",""
"","","","","","html-keyboard-response","221","893658","0.0-3.0-5.0-0.38","61005a9bfd2f14f18ef7ec7d","F1","batch6","pattern_show_trial_num","null","<p class=block-text>Trial 39 out of 78</p>","null","","","","","","","","","","","","","","","","","","","","","","","","","",""
"","","","","","image-keyboard-response","222","895493","0.0-3.0-5.0-1.38","61005a9bfd2f14f18ef7ec7d","F1","batch6","pattern_response","1832.199999988079","stim/no_37_2_w.png","j","pattern_19","j","true","","","","1832.199999988079","true","30","","","","","","","","","","","","","","","","",""
"","","","","","image-keyboard-response","223","897298","0.0-3.0-6.0","61005a9bfd2f14f18ef7ec7d","F1","batch6","attention_check","1288.1000000238419","stim/empty_board.png","j","","j","true","","","","","","","500","[""f"",""j""]","","","","","","","","","","","","","","",""
"","","","","","html-keyboard-response","224","898102","0.0-3.0-7.0-0.0","61005a9bfd2f14f18ef7ec7d","F1","batch6","pattern_show_trial_num","null","<p class=block-text>Trial 40 out of 78</p>","null","","","","","","","","","","","","","","","","","","","","","","","","","",""
"","","","","","image-keyboard-response","225","898896","0.0-3.0-7.0-1.0","61005a9bfd2f14f18ef7ec7d","F1","batch6","pattern_response","790.5","stim/yes_14_hor_b1_w.png","f","pattern_43","f","true","","","","790.5","true","31","","","","","","","","","","","","","","","","",""
"","","","","","html-keyboard-response","226","900227","0.0-3.0-7.0-0.1","61005a9bfd2f14f18ef7ec7d","F1","batch6","pattern_show_trial_num","null","<p class=block-text>Trial 41 out of 78</p>","null","","","","","","","","","","","","","","","","","","","","","","","","","",""
"","","","","","image-keyboard-response","227","901251","0.0-3.0-7.0-1.1","61005a9bfd2f14f18ef7ec7d","F1","batch6","pattern_response","1021.3999999761581","stim/yes_43_ver_w1_w.png","f","pattern_65","f","true","","","","1021.3999999761581","true","32","","","","","","","","","","","","","","","","",""
"","","","","","html-keyboard-response","228","902588","0.0-3.0-7.0-0.2","61005a9bfd2f14f18ef7ec7d","F1","batch6","pattern_show_trial_num","null","<p class=block-text>Trial 42 out of 78</p>","null","","","","","","","","","","","","","","","","","","","","","","","","","",""
"","","","","","image-keyboard-response","229","905362","0.0-3.0-7.0-1.2","61005a9bfd2f14f18ef7ec7d","F1","batch6","pattern_response","2772.199999988079","stim/no_65_1_b.png","j","pattern_38","j","true","","","","2772.199999988079","true","33","","","","","","","","","","","","","","","","",""
"","","","","","html-keyboard-response","230","906667","0.0-3.0-7.0-0.3","61005a9bfd2f14f18ef7ec7d","F1","batch6","pattern_show_trial_num","null","<p class=block-text>Trial 43 out of 78</p>","null","","","","","","","","","","","","","","","","","","","","","","","","","",""
"","","","","","image-keyboard-response","231","907542","0.0-3.0-7.0-1.3","61005a9bfd2f14f18ef7ec7d","F1","batch6","pattern_response","871.6000000238419","stim/yes_17_dia_w1.png","j","pattern_45","f","false","","","","871.6000000238419","false","33","","","","","","","","","","","","","","","","",""
"","","","","","html-keyboard-response","232","908853","0.0-3.0-7.0-0.4","61005a9bfd2f14f18ef7ec7d","F1","batch6","pattern_show_trial_num","null","<p class=block-text>Trial 44 out of 78</p>","null","","","","","","","","","","","","","","","","","","","","","","","","","",""
"","","","","","image-keyboard-response","233","909599","0.0-3.0-7.0-1.4","61005a9bfd2f14f18ef7ec7d","F1","batch6","pattern_response","744","stim/yes_22_ver_w1.png","f","pattern_47","f","true","","","","744","true","34","","","","","","","","","","","","","","","","",""
"","","","","","html-keyboard-response","234","910930","0.0-3.0-7.0-0.5","61005a9bfd2f14f18ef7ec7d","F1","batch6","pattern_show_trial_num","null","<p class=block-text>Trial 45 out of 78</p>","null","","","","","","","","","","","","","","","","","","","","","","","","","",""
"","","","","","image-keyboard-response","235","911790","0.0-3.0-7.0-1.5","61005a9bfd2f14f18ef7ec7d","F1","batch6","pattern_response","858.1999999880791","stim/yes_45_hor_b2_b.png","f","pattern_67","f","true","","","","858.1999999880791","true","35","","","","","","","","","","","","","","","","",""
"","","","","","html-keyboard-response","236","913103","0.0-3.0-7.0-0.6","61005a9bfd2f14f18ef7ec7d","F1","batch6","pattern_show_trial_num","null","<p class=block-text>Trial 46 out of 78</p>","null","","","","","","","","","","","","","","","","","","","","","","","","","",""
"","","","","","image-keyboard-response","237","915868","0.0-3.0-7.0-1.6","61005a9bfd2f14f18ef7ec7d","F1","batch6","pattern_response","2761.899999976158","stim/no_36_2_w.png","j","pattern_18","j","true","","","","2761.899999976158","true","36","","","","","","","","","","","","","","","","",""
"","","","","","html-keyboard-response","238","917189","0.0-3.0-7.0-0.7","61005a9bfd2f14f18ef7ec7d","F1","batch6","pattern_show_trial_num","null","<p class=block-text>Trial 47 out of 78</p>","null","","","","","","","","","","","","","","","","","","","","","","","","","",""
"","","","","","image-keyboard-response","239","917993","0.0-3.0-7.0-1.7","61005a9bfd2f14f18ef7ec7d","F1","batch6","pattern_response","800.8000000119209","stim/no_23_1.png","j","pattern_08","j","true","","","","800.8000000119209","true","37","","","","","","","","","","","","","","","","",""
"","","","","","html-keyboard-response","240","919305","0.0-3.0-7.0-0.8","61005a9bfd2f14f18ef7ec7d","F1","batch6","pattern_show_trial_num","null","<p class=block-text>Trial 48 out of 78</p>","null","","","","","","","","","","","","","","","","","","","","","","","","","",""
"","","","","","image-keyboard-response","241","920609","0.0-3.0-7.0-1.8","61005a9bfd2f14f18ef7ec7d","F1","batch6","pattern_response","1302.5999999642372","stim/yes_37_dia_w1.png","j","pattern_59","f","false","","","","1302.5999999642372","false","37","","","","","","","","","","","","","","","","",""
"","","","","","html-keyboard-response","242","921927","0.0-3.0-7.0-0.9","61005a9bfd2f14f18ef7ec7d","F1","batch6","pattern_show_trial_num","null","<p class=block-text>Trial 49 out of 78</p>","null","","","","","","","","","","","","","","","","","","","","","","","","","",""
"","","","","","image-keyboard-response","243","923586","0.0-3.0-7.0-1.9","61005a9bfd2f14f18ef7ec7d","F1","batch6","pattern_response","1655.5","stim/no_50_1.png","j","pattern_30","j","true","","","","1655.5","true","38","","","","","","","","","","","","","","","","",""
"","","","","","html-keyboard-response","244","924895","0.0-3.0-7.0-0.10","61005a9bfd2f14f18ef7ec7d","F1","batch6","pattern_show_trial_num","null","<p class=block-text>Trial 50 out of 78</p>","null","","","","","","","","","","","","","","","","","","","","","","","","","",""
"","","","","","image-keyboard-response","245","926010","0.0-3.0-7.0-1.10","61005a9bfd2f14f18ef7ec7d","F1","batch6","pattern_response","1112.5","stim/no_26_1_w.png","j","pattern_10","j","true","","","","1112.5","true","39","","","","","","","","","","","","","","","","",""
"","","","","","html-keyboard-response","246","927317","0.0-3.0-7.0-0.11","61005a9bfd2f14f18ef7ec7d","F1","batch6","pattern_show_trial_num","null","<p class=block-text>Trial 51 out of 78</p>","null","","","","","","","","","","","","","","","","","","","","","","","","","",""
"","","","","","image-keyboard-response","247","929003","0.0-3.0-7.0-1.11","61005a9bfd2f14f18ef7ec7d","F1","batch6","pattern_response","1683.6000000238419","stim/no_42_1_w.png","j","pattern_22","j","true","","","","1683.6000000238419","true","40","","","","","","","","","","","","","","","","",""
"","","","","","html-keyboard-response","248","930320","0.0-3.0-7.0-0.12","61005a9bfd2f14f18ef7ec7d","F1","batch6","pattern_show_trial_num","null","<p class=block-text>Trial 52 out of 78</p>","null","","","","","","","","","","","","","","","","","","","","","","","","","",""
"","","","","","image-keyboard-response","249","931409","0.0-3.0-7.0-1.12","61005a9bfd2f14f18ef7ec7d","F1","batch6","pattern_response","1085.9000000357628","stim/no_32_1_w.png","j","pattern_14","j","true","","","","1085.9000000357628","true","41","","","","","","","","","","","","","","","","",""
"","","","","","html-keyboard-response","250","932722","0.0-3.0-7.0-0.13","61005a9bfd2f14f18ef7ec7d","F1","batch6","pattern_show_trial_num","null","<p class=block-text>Trial 53 out of 78</p>","null","","","","","","","","","","","","","","","","","","","","","","","","","",""
"","","","","","image-keyboard-response","251","934686","0.0-3.0-7.0-1.13","61005a9bfd2f14f18ef7ec7d","F1","batch6","pattern_response","1961.8999999761581","stim/yes_48_dia_w1_w.png","f","pattern_69","f","true","","","","1961.8999999761581","true","42","","","","","","","","","","","","","","","","",""
"","","","","","html-keyboard-response","252","936007","0.0-3.0-7.0-0.14","61005a9bfd2f14f18ef7ec7d","F1","batch6","pattern_show_trial_num","null","<p class=block-text>Trial 54 out of 78</p>","null","","","","","","","","","","","","","","","","","","","","","","","","","",""
"","","","","","image-keyboard-response","253","936731","0.0-3.0-7.0-1.14","61005a9bfd2f14f18ef7ec7d","F1","batch6","pattern_response","721.0999999642372","stim/yes_25_hor_b1_b.png","f","pattern_49","f","true","","","","721.0999999642372","true","43","","","","","","","","","","","","","","","","",""
"","","","","","html-keyboard-response","254","938041","0.0-3.0-7.0-0.15","61005a9bfd2f14f18ef7ec7d","F1","batch6","pattern_show_trial_num","null","<p class=block-text>Trial 55 out of 78</p>","null","","","","","","","","","","","","","","","","","","","","","","","","","",""
"","","","","","image-keyboard-response","255","940110","0.0-3.0-7.0-1.15","61005a9bfd2f14f18ef7ec7d","F1","batch6","pattern_response","2065.800000011921","stim/no_38_1_b.png","j","pattern_20","j","true","","","","2065.800000011921","true","44","","","","","","","","","","","","","","","","",""
"","","","","","html-keyboard-response","256","941432","0.0-3.0-7.0-0.16","61005a9bfd2f14f18ef7ec7d","F1","batch6","pattern_show_trial_num","null","<p class=block-text>Trial 56 out of 78</p>","null","","","","","","","","","","","","","","","","","","","","","","","","","",""
"","","","","","image-keyboard-response","257","942243","0.0-3.0-7.0-1.16","61005a9bfd2f14f18ef7ec7d","F1","batch6","pattern_response","808.8999999761581","stim/yes_28_ver_b1.png","f","pattern_51","f","true","","","","808.8999999761581","true","45","","","","","","","","","","","","","","","","",""
"","","","","","html-keyboard-response","258","943550","0.0-3.0-7.0-0.17","61005a9bfd2f14f18ef7ec7d","F1","batch6","pattern_show_trial_num","null","<p class=block-text>Trial 57 out of 78</p>","null","","","","","","","","","","","","","","","","","","","","","","","","","",""
"","","","","","image-keyboard-response","259","945180","0.0-3.0-7.0-1.17","61005a9bfd2f14f18ef7ec7d","F1","batch6","pattern_response","1627.800000011921","stim/yes_40_dia_b1_b.png","j","pattern_63","f","false","","","","1627.800000011921","false","45","","","","","","","","","","","","","","","","",""
"","","","","","html-keyboard-response","260","946489","0.0-3.0-7.0-0.18","61005a9bfd2f14f18ef7ec7d","F1","batch6","pattern_show_trial_num","null","<p class=block-text>Trial 58 out of 78</p>","null","","","","","","","","","","","","","","","","","","","","","","","","","",""
"","","","","","image-keyboard-response","261","948056","0.0-3.0-7.0-1.18","61005a9bfd2f14f18ef7ec7d","F1","batch6","pattern_response","1563.4000000357628","stim/no_29_1_b.png","j","pattern_12","j","true","","","","1563.4000000357628","true","46","","","","","","","","","","","","","","","","",""
"","","","","","html-keyboard-response","262","949372","0.0-3.0-7.0-0.19","61005a9bfd2f14f18ef7ec7d","F1","batch6","pattern_show_trial_num","null","<p class=block-text>Trial 59 out of 78</p>","null","","","","","","","","","","","","","","","","","","","","","","","","","",""
"","","","","","image-keyboard-response","263","951210","0.0-3.0-7.0-1.19","61005a9bfd2f14f18ef7ec7d","F1","batch6","pattern_response","1835.699999988079","stim/yes_31_hor_b1.png","f","pattern_55","f","true","","","","1835.699999988079","true","47","","","","","","","","","","","","","","","","",""
"","","","","","html-keyboard-response","264","952523","0.0-3.0-7.0-0.20","61005a9bfd2f14f18ef7ec7d","F1","batch6","pattern_show_trial_num","null","<p class=block-text>Trial 60 out of 78</p>","null","","","","","","","","","","","","","","","","","","","","","","","","","",""
"","","","","","image-keyboard-response","265","954007","0.0-3.0-7.0-1.20","61005a9bfd2f14f18ef7ec7d","F1","batch6","pattern_response","1479","stim/yes_67_hor_b1.png","f","pattern_79","f","true","","","","1479","true","48","","","","","","","","","","","","","","","","",""
"","","","","","html-keyboard-response","266","955322","0.0-3.0-7.0-0.21","61005a9bfd2f14f18ef7ec7d","F1","batch6","pattern_show_trial_num","null","<p class=block-text>Trial 61 out of 78</p>","null","","","","","","","","","","","","","","","","","","","","","","","","","",""
"","","","","","image-keyboard-response","267","957996","0.0-3.0-7.0-1.21","61005a9bfd2f14f18ef7ec7d","F1","batch6","pattern_response","2671.7000000476837","stim/no_44_1.png","j","pattern_24","j","true","","","","2671.7000000476837","true","49","","","","","","","","","","","","","","","","",""
"","","","","","html-keyboard-response","268","959328","0.0-3.0-7.0-0.22","61005a9bfd2f14f18ef7ec7d","F1","batch6","pattern_show_trial_num","null","<p class=block-text>Trial 62 out of 78</p>","null","","","","","","","","","","","","","","","","","","","","","","","","","",""
"","","","","","image-keyboard-response","269","960386","0.0-3.0-7.0-1.22","61005a9bfd2f14f18ef7ec7d","F1","batch6","pattern_response","1054.3999999761581","stim/yes_35_dia_b1.png","f","pattern_57","f","true","","","","1054.3999999761581","true","50","","","","","","","","","","","","","","","","",""
"","","","","","html-keyboard-response","270","961694","0.0-3.0-7.0-0.23","61005a9bfd2f14f18ef7ec7d","F1","batch6","pattern_show_trial_num","null","<p class=block-text>Trial 63 out of 78</p>","null","","","","","","","","","","","","","","","","","","","","","","","","","",""
"","","","","","image-keyboard-response","271","963962","0.0-3.0-7.0-1.23","61005a9bfd2f14f18ef7ec7d","F1","batch6","pattern_response","2265.2000000476837","stim/no_46_1_b.png","j","pattern_26","j","true","","","","2265.2000000476837","true","51","","","","","","","","","","","","","","","","",""
"","","","","","html-keyboard-response","272","965269","0.0-3.0-7.0-0.24","61005a9bfd2f14f18ef7ec7d","F1","batch6","pattern_show_trial_num","null","<p class=block-text>Trial 64 out of 78</p>","null","","","","","","","","","","","","","","","","","","","","","","","","","",""
"","","","","","image-keyboard-response","273","966118","0.0-3.0-7.0-1.24","61005a9bfd2f14f18ef7ec7d","F1","batch6","pattern_response","845.6999999880791","stim/no_13_2_b.png","j","pattern_02","j","true","","","","845.6999999880791","true","52","","","","","","","","","","","","","","","","",""
"","","","","","html-keyboard-response","274","967439","0.0-3.0-7.0-0.25","61005a9bfd2f14f18ef7ec7d","F1","batch6","pattern_show_trial_num","null","<p class=block-text>Trial 65 out of 78</p>","null","","","","","","","","","","","","","","","","","","","","","","","","","",""
"","","","","","image-keyboard-response","275","969224","0.0-3.0-7.0-1.25","61005a9bfd2f14f18ef7ec7d","F1","batch6","pattern_response","1782.7000000476837","stim/no_48_1_w.png","j","pattern_28","j","true","","","","1782.7000000476837","true","53","","","","","","","","","","","","","","","","",""
"","","","","","html-keyboard-response","276","970536","0.0-3.0-7.0-0.26","61005a9bfd2f14f18ef7ec7d","F1","batch6","pattern_show_trial_num","null","<p class=block-text>Trial 66 out of 78</p>","null","","","","","","","","","","","","","","","","","","","","","","","","","",""
"","","","","","image-keyboard-response","277","972709","0.0-3.0-7.0-1.26","61005a9bfd2f14f18ef7ec7d","F1","batch6","pattern_response","2168.699999988079","stim/no_62_1_w.png","j","pattern_36","j","true","","","","2168.699999988079","true","54","","","","","","","","","","","","","","","","",""
"","","","","","html-keyboard-response","278","974034","0.0-3.0-7.0-0.27","61005a9bfd2f14f18ef7ec7d","F1","batch6","pattern_show_trial_num","null","<p class=block-text>Trial 67 out of 78</p>","null","","","","","","","","","","","","","","","","","","","","","","","","","",""
"","","","","","image-keyboard-response","279","975816","0.0-3.0-7.0-1.27","61005a9bfd2f14f18ef7ec7d","F1","batch6","pattern_response","1779.1000000238419","stim/no_55_1_w.png","j","pattern_34","j","true","","","","1779.1000000238419","true","55","","","","","","","","","","","","","","","","",""
"","","","","","html-keyboard-response","280","977135","0.0-3.0-7.0-0.28","61005a9bfd2f14f18ef7ec7d","F1","batch6","pattern_show_trial_num","null","<p class=block-text>Trial 68 out of 78</p>","null","","","","","","","","","","","","","","","","","","","","","","","","","",""
"","","","","","image-keyboard-response","281","978735","0.0-3.0-7.0-1.28","61005a9bfd2f14f18ef7ec7d","F1","batch6","pattern_response","1597.7000000476837","stim/no_34_1_b.png","j","pattern_16","j","true","","","","1597.7000000476837","true","56","","","","","","","","","","","","","","","","",""
"","","","","","html-keyboard-response","282","980043","0.0-3.0-7.0-0.29","61005a9bfd2f14f18ef7ec7d","F1","batch6","pattern_show_trial_num","null","<p class=block-text>Trial 69 out of 78</p>","null","","","","","","","","","","","","","","","","","","","","","","","","","",""
"","","","","","image-keyboard-response","283","981895","0.0-3.0-7.0-1.29","61005a9bfd2f14f18ef7ec7d","F1","batch6","pattern_response","1847.8999999761581","stim/yes_60_ver_b1_b.png","f","pattern_77","f","true","","","","1847.8999999761581","true","57","","","","","","","","","","","","","","","","",""
"","","","","","html-keyboard-response","284","983227","0.0-3.0-7.0-0.30","61005a9bfd2f14f18ef7ec7d","F1","batch6","pattern_show_trial_num","null","<p class=block-text>Trial 70 out of 78</p>","null","","","","","","","","","","","","","","","","","","","","","","","","","",""
"","","","","","image-keyboard-response","285","984717","0.0-3.0-7.0-1.30","61005a9bfd2f14f18ef7ec7d","F1","batch6","pattern_response","1487.800000011921","stim/no_20_1_w.png","j","pattern_06","j","true","","","","1487.800000011921","true","58","","","","","","","","","","","","","","","","",""
"","","","","","html-keyboard-response","286","986024","0.0-3.0-7.0-0.31","61005a9bfd2f14f18ef7ec7d","F1","batch6","pattern_show_trial_num","null","<p class=block-text>Trial 71 out of 78</p>","null","","","","","","","","","","","","","","","","","","","","","","","","","",""
"","","","","","image-keyboard-response","287","988149","0.0-3.0-7.0-1.31","61005a9bfd2f14f18ef7ec7d","F1","batch6","pattern_response","2106.400000035763","stim/yes_52_ver_w1.png","j","pattern_73","f","false","","","","2106.400000035763","false","58","","","","","","","","","","","","","","","","",""
"","","","","","html-keyboard-response","288","989476","0.0-3.0-7.0-0.32","61005a9bfd2f14f18ef7ec7d","F1","batch6","pattern_show_trial_num","null","<p class=block-text>Trial 72 out of 78</p>","null","","","","","","","","","","","","","","","","","","","","","","","","","",""
"","","","","","image-keyboard-response","289","992413","0.0-3.0-7.0-1.32","61005a9bfd2f14f18ef7ec7d","F1","batch6","pattern_response","2934.399999976158","stim/no_70_2.png","j","pattern_40","j","true","","","","2934.399999976158","true","59","","","","","","","","","","","","","","","","",""
"","","","","","html-keyboard-response","290","993727","0.0-3.0-7.0-0.33","61005a9bfd2f14f18ef7ec7d","F1","batch6","pattern_show_trial_num","null","<p class=block-text>Trial 73 out of 78</p>","null","","","","","","","","","","","","","","","","","","","","","","","","","",""
"","","","","","image-keyboard-response","291","994994","0.0-3.0-7.0-1.33","61005a9bfd2f14f18ef7ec7d","F1","batch6","pattern_response","1263","stim/yes_38_hor_b1_b.png","f","pattern_61","f","true","","","","1263","true","60","","","","","","","","","","","","","","","","",""
"","","","","","html-keyboard-response","292","996306","0.0-3.0-7.0-0.34","61005a9bfd2f14f18ef7ec7d","F1","batch6","pattern_show_trial_num","null","<p class=block-text>Trial 74 out of 78</p>","null","","","","","","","","","","","","","","","","","","","","","","","","","",""
"","","","","","image-keyboard-response","293","997547","0.0-3.0-7.0-1.34","61005a9bfd2f14f18ef7ec7d","F1","batch6","pattern_response","1236.2999999523163","stim/yes_55_hor_w1_w.png","f","pattern_75","f","true","","","","1236.2999999523163","true","61","","","","","","","","","","","","","","","","",""
"","","","","","html-keyboard-response","294","998869","0.0-3.0-7.0-0.35","61005a9bfd2f14f18ef7ec7d","F1","batch6","pattern_show_trial_num","null","<p class=block-text>Trial 75 out of 78</p>","null","","","","","","","","","","","","","","","","","","","","","","","","","",""
"","","","","","image-keyboard-response","295","999769","0.0-3.0-7.0-1.35","61005a9bfd2f14f18ef7ec7d","F1","batch6","pattern_response","897.3000000119209","stim/no_17_1_w.png","j","pattern_04","j","true","","","","897.3000000119209","true","62","","","","","","","","","","","","","","","","",""
"","","","","","html-keyboard-response","296","1001138","0.0-3.0-7.0-0.36","61005a9bfd2f14f18ef7ec7d","F1","batch6","pattern_show_trial_num","null","<p class=block-text>Trial 76 out of 78</p>","null","","","","","","","","","","","","","","","","","","","","","","","","","",""
"","","","","","image-keyboard-response","297","1002523","0.0-3.0-7.0-1.36","61005a9bfd2f14f18ef7ec7d","F1","batch6","pattern_response","1382.5","stim/yes_50_dia_w1.png","j","pattern_71","f","false","","","","1382.5","false","62","","","","","","","","","","","","","","","","",""
"","","","","","html-keyboard-response","298","1003833","0.0-3.0-7.0-0.37","61005a9bfd2f14f18ef7ec7d","F1","batch6","pattern_show_trial_num","null","<p class=block-text>Trial 77 out of 78</p>","null","","","","","","","","","","","","","","","","","","","","","","","","","",""
"","","","","","image-keyboard-response","299","1005087","0.0-3.0-7.0-1.37","61005a9bfd2f14f18ef7ec7d","F1","batch6","pattern_response","1252.5","stim/yes_29_ver_w1.png","f","pattern_53","f","true","","","","1252.5","true","63","","","","","","","","","","","","","","","","",""
"","","","","","html-keyboard-response","300","1006398","0.0-3.0-7.0-0.38","61005a9bfd2f14f18ef7ec7d","F1","batch6","pattern_show_trial_num","null","<p class=block-text>Trial 78 out of 78</p>","null","","","","","","","","","","","","","","","","","","","","","","","","","",""
"","","","","","image-keyboard-response","301","1008434","0.0-3.0-7.0-1.38","61005a9bfd2f14f18ef7ec7d","F1","batch6","pattern_response","2032.2999999523163","stim/no_52_1.png","j","pattern_32","j","true","","","","2032.2999999523163","true","64","","","","","","","","","","","","","","","","",""
"","","","","","html-button-response","302","1011901","0.0-3.0-8.0","61005a9bfd2f14f18ef7ec7d","F1","batch6","","2950","<p class = block-text>This concludes the 4-in-a-row detection game.Thank you for your responses!<br>
            You responded correctly on 82% of the trials.<br>
            When you are ready, press ""Continue"" button to continue </p>","0","","","","","","","","","","","","","","","","","","","","","","","","","",""
"true","","","","","fullscreen","303","1016756","0.0-4.0-0.0","61005a9bfd2f14f18ef7ec7d","F1","batch6","","","","","","","","","","","","","","","","","","","","","","","","","","","","","",""
"","","","","","instructions","304","1060131","0.0-4.0-1.0-0.0-0.0","61005a9bfd2f14f18ef7ec7d","F1","batch6","tol-instructions","43374.30000001192","","","","","","","","[{""page_index"":0,""viewing_time"":9328.300000011921},{""page_index"":1,""viewing_time"":5346.800000011921},{""page_index"":2,""viewing_time"":1532.0999999642372},{""page_index"":3,""viewing_time"":4631.900000035763},{""page_index"":4,""viewing_time"":649.1999999880791},{""page_index"":5,""viewing_time"":815},{""page_index"":6,""viewing_time"":1329.5},{""page_index"":5,""viewing_time"":846.5999999642372},{""page_index"":4,""viewing_time"":1252},{""page_index"":3,""viewing_time"":10765.100000023842},{""page_index"":4,""viewing_time"":4212.899999976158},{""page_index"":5,""viewing_time"":1384.4000000357628},{""page_index"":6,""viewing_time"":1279.8999999761581}]","","","","","","","","","","","","","","","","","","","",""
"","","","","","html-button-response","305","1060964","0.0-4.0-1.0-1.0-0.0","61005a9bfd2f14f18ef7ec7d","F1","batch6","tol_enter_quiz","830.9000000357628","<p class=block-text> Let's answer a few questions <br>","0","","","","","","","","","","","","","","","","","","","","","","","","","",""
"","","","","","html-button-response","306","1066532","0.0-4.0-1.0-1.0-1.0","61005a9bfd2f14f18ef7ec7d","F1","batch6","tol_quiz","5566.300000011921","<p class = block-text>True or False: You can only move the ball on top of a peg. <br></p>","0","","","true","","","","","","","","","","","","","","","","","","","","","","",""
"","","","","","html-button-response","307","1067442","0.0-4.0-1.0-1.0-2.0","61005a9bfd2f14f18ef7ec7d","F1","batch6","tol_quiz_feedback","907.3999999761581","<p class = block-text>Correct! You can only move the ball on top of a peg.</p>","0","","","","","","","","","","","","","","","","","","","","","","","","","",""
"","","","","","html-button-response","308","1069592","0.0-4.0-1.0-1.0-3.0","61005a9bfd2f14f18ef7ec7d","F1","batch6","tol_quiz","2147.2999999523163","<p class = block-text>True or False: You should try to match your board with the target board with fewest moves possible. <br></p>","0","","","true","","","","","","","","","","","","","","","","","","","","","","",""
"","","","","","html-button-response","309","1070228","0.0-4.0-1.0-1.0-4.0","61005a9bfd2f14f18ef7ec7d","F1","batch6","tol_quiz_feedback","633.6000000238419","<p class = block-text>Correct! </p>","0","","","","","","","","","","","","","","","","","","","","","","","","","",""
"","","","","","html-button-response","310","1071626","0.0-4.0-2.0","61005a9bfd2f14f18ef7ec7d","F1","batch6","","1394.699999988079","<p class=block-text> Now that you've understood the game, let's practice a few easier examples before we start!<br> <br>","0","","","","","","","","","","","","","","","","","","","","","","","","","",""
"","","","","","single-stim-button","311","1074265","0.0-4.0-3.0-0.0","61005a9bfd2f14f18ef7ec7d","F1","batch6","tol_practice","2635","","","","","","","","","","","","","","tol_peg_2","2635","2635","0","[[1,2,0],[0,0],[0]]","1","[[1,2,0],[0,0],[3]]","practice","2635","","","","","",""
"","","","","","single-stim-button","312","1075472","0.0-4.0-3.0-1.0","61005a9bfd2f14f18ef7ec7d","F1","batch6","tol_practice","1204","","","","","","","","","","","","","","tol_peg_3","1204","1204","0","[[1,2,0],[0,0],[3]]","1","[[1,2,0],[0,0],[3]]","practice","1204","","","","","",""
"","","","","","poldrack-single-stim","313","1076487","0.0-4.0-4.0","61005a9bfd2f14f18ef7ec7d","F1","batch6","tol_feedback","-1","","","","","true","","","","","","","","","","1000","1000","500","","","","","","-1","none","true","","0",""
"","","","","","single-stim-button","314","1081658","0.0-4.0-5.0-0.0","61005a9bfd2f14f18ef7ec7d","F1","batch6","tol_practice","5169","","","","","","","","","","","","","","tol_peg_1","5169","5169","0","[[1,0,0],[3,0],[0]]","2","[[0,0,0],[3,1],[2]]","practice","5169","","","","","",""
"","","","","","single-stim-button","315","1082886","0.0-4.0-5.0-1.0","61005a9bfd2f14f18ef7ec7d","F1","batch6","tol_practice","1227","","","","","","","","","","","","","","tol_peg_3","1227","1227","0","[[1,0,0],[3,0],[2]]","2","[[0,0,0],[3,1],[2]]","practice","1227","","","","","",""
"","","","","","single-stim-button","316","1083953","0.0-4.0-5.1-0.1","61005a9bfd2f14f18ef7ec7d","F1","batch6","tol_practice","1064","","","","","","","","","","","","","","tol_peg_1","1064","1064","0","[[0,0,0],[3,0],[2]]","3","[[0,0,0],[3,1],[2]]","practice","1064","","","","","",""
"","","","","","single-stim-button","317","1084863","0.0-4.0-5.1-1.1","61005a9bfd2f14f18ef7ec7d","F1","batch6","tol_practice","909","","","","","","","","","","","","","","tol_peg_2","909","909","0","[[0,0,0],[3,1],[2]]","3","[[0,0,0],[3,1],[2]]","practice","909","","","","","",""
"","","","","","poldrack-single-stim","318","1085880","0.0-4.0-6.0","61005a9bfd2f14f18ef7ec7d","F1","batch6","tol_feedback","-1","","","","","true","","","","","","","","","","1000","1000","500","","","","","","-1","none","true","","0",""
"","","","","","single-stim-button","319","1088059","0.0-4.0-7.0-0.0","61005a9bfd2f14f18ef7ec7d","F1","batch6","tol_practice","2177","","","","","","","","","","","","","","tol_peg_2","2177","2177","0","[[1,2,0],[0,0],[0]]","4","[[1,0,0],[2,0],[3]]","practice","2177","","","","","",""
"","","","","","single-stim-button","320","1088788","0.0-4.0-7.0-1.0","61005a9bfd2f14f18ef7ec7d","F1","batch6","tol_practice","727","","","","","","","","","","","","","","tol_peg_3","727","727","0","[[1,2,0],[0,0],[3]]","4","[[1,0,0],[2,0],[3]]","practice","727","","","","","",""
"","","","","","single-stim-button","321","1089644","0.0-4.0-7.1-0.1","61005a9bfd2f14f18ef7ec7d","F1","batch6","tol_practice","855","","","","","","","","","","","","","","tol_peg_1","855","855","0","[[1,0,0],[0,0],[3]]","5","[[1,0,0],[2,0],[3]]","practice","855","","","","","",""
"","","","","","single-stim-button","322","1090473","0.0-4.0-7.1-1.1","61005a9bfd2f14f18ef7ec7d","F1","batch6","tol_practice","827","","","","","","","","","","","","","","tol_peg_2","827","827","0","[[1,0,0],[2,0],[3]]","5","[[1,0,0],[2,0],[3]]","practice","827","","","","","",""
"","","","","","poldrack-single-stim","323","1091488","0.0-4.0-8.0","61005a9bfd2f14f18ef7ec7d","F1","batch6","tol_feedback","-1","","","","","true","","","","","","","","","","1000","1000","500","","","","","","-1","none","true","","0",""
"","","","","","html-button-response","324","1092672","0.0-4.0-9.0","61005a9bfd2f14f18ef7ec7d","F1","batch6","tol_instruction","1181.7999999523163","<div class = centerbox><p class = center-block-text>Great job! You are done with practice trials<br>You are about to start official trials.<br> <br> Problem <strong>1</strong> out of 25 problems</p></div>","0","","","","","","","","","","","","","","","","","","","","","","","","","",""
"","","","","","single-stim-button","325","1098647","0.0-4.0-10.0-0.0","61005a9bfd2f14f18ef7ec7d","F1","batch6","tol_tohand","4968","","","","","","","","","","","","","","tol_peg_2","4968","4968","0","[[1,2,0],[0,0],[0]]","1","[[1,3,0],[2,0],[0]]","0","0","","","","","","3"
"","","","","","single-stim-button","326","1100110","0.0-4.0-10.0-1.0","61005a9bfd2f14f18ef7ec7d","F1","batch6","tol_toboard","1460","","","","","","","","","","","","","","tol_peg_3","1460","1460","0","[[1,2,0],[0,0],[3]]","1","[[1,3,0],[2,0],[0]]","0","0","","","","","","3"
"","","","","","single-stim-button","327","1101145","0.0-4.0-10.1-0.1","61005a9bfd2f14f18ef7ec7d","F1","batch6","tol_tohand","1033","","","","","","","","","","","","","","tol_peg_1","1033","1033","0","[[1,0,0],[0,0],[3]]","2","[[1,3,0],[2,0],[0]]","0","0","","","","","","3"
"","","","","","single-stim-button","328","1102101","0.0-4.0-10.1-1.1","61005a9bfd2f14f18ef7ec7d","F1","batch6","tol_toboard","955","","","","","","","","","","","","","","tol_peg_2","955","955","0","[[1,0,0],[2,0],[3]]","2","[[1,3,0],[2,0],[0]]","0","0","","","","","","3"
"","","","","","single-stim-button","329","1102796","0.0-4.0-10.2-0.2","61005a9bfd2f14f18ef7ec7d","F1","batch6","tol_tohand","693","","","","","","","","","","","","","","tol_peg_3","693","693","0","[[1,0,0],[2,0],[0]]","3","[[1,3,0],[2,0],[0]]","0","0","","","","","","3"
"","","","","","single-stim-button","330","1103743","0.0-4.0-10.2-1.2","61005a9bfd2f14f18ef7ec7d","F1","batch6","tol_toboard","945","","","","","","","","","","","","","","tol_peg_1","945","945","0","[[1,3,0],[2,0],[0]]","3","[[1,3,0],[2,0],[0]]","0","0","","","","","","3"
"","","","","","poldrack-single-stim","331","1104747","0.0-4.0-11.0","61005a9bfd2f14f18ef7ec7d","F1","batch6","tol_feedback","-1","","","","","true","","","","","","","","","","1000","1000","500","","","","","","-1","none","true","4968","6694",""
"","","","","","html-button-response","332","1107256","0.0-4.0-12.0","61005a9bfd2f14f18ef7ec7d","F1","batch6","tol_trial_num","2507.599999964237","<div class = centerbox><p class = center-block-text>problem <strong>2</strong> out of 25 problems</p></div>","0","","","","","","","","","","","","","","","","","","","","","","","","","",""
"","","","","","single-stim-button","333","1120041","0.0-4.0-13.0-0.0","61005a9bfd2f14f18ef7ec7d","F1","batch6","tol_tohand","12783","","","","","","","","","","","","","","tol_peg_1","12783","12783","0","[[1,0,0],[3,0],[0]]","1","[[2,1,3],[0,0],[0]]","1","0","","","","","","5"
"","","","","","single-stim-button","334","1121020","0.0-4.0-13.0-1.0","61005a9bfd2f14f18ef7ec7d","F1","batch6","tol_toboard","976","","","","","","","","","","","","","","tol_peg_2","976","976","0","[[1,0,0],[3,2],[0]]","1","[[2,1,3],[0,0],[0]]","1","0","","","","","","5"
"","","","","","single-stim-button","335","1123394","0.0-4.0-13.1-0.1","61005a9bfd2f14f18ef7ec7d","F1","batch6","tol_tohand","2372","","","","","","","","","","","","","","tol_peg_1","2372","2372","0","[[0,0,0],[3,2],[0]]","2","[[2,1,3],[0,0],[0]]","1","0","","","","","","5"
"","","","","","single-stim-button","336","1124691","0.0-4.0-13.1-1.1","61005a9bfd2f14f18ef7ec7d","F1","batch6","tol_toboard","1295","","","","","","","","","","","","","","tol_peg_3","1295","1295","0","[[0,0,0],[3,2],[1]]","2","[[2,1,3],[0,0],[0]]","1","0","","","","","","5"
"","","","","","single-stim-button","337","1125538","0.0-4.0-13.2-0.2","61005a9bfd2f14f18ef7ec7d","F1","batch6","tol_tohand","846","","","","","","","","","","","","","","tol_peg_2","846","846","0","[[0,0,0],[3,0],[1]]","3","[[2,1,3],[0,0],[0]]","1","0","","","","","","5"
"","","","","","single-stim-button","338","1126906","0.0-4.0-13.2-1.2","61005a9bfd2f14f18ef7ec7d","F1","batch6","tol_toboard","1366","","","","","","","","","","","","","","tol_peg_1","1366","1366","0","[[2,0,0],[3,0],[1]]","3","[[2,1,3],[0,0],[0]]","1","0","","","","","","5"
"","","","","","single-stim-button","339","1127710","0.0-4.0-13.3-0.3","61005a9bfd2f14f18ef7ec7d","F1","batch6","tol_tohand","801","","","","","","","","","","","","","","tol_peg_3","801","801","0","[[2,0,0],[3,0],[0]]","4","[[2,1,3],[0,0],[0]]","1","0","","","","","","5"
"","","","","","single-stim-button","340","1128616","0.0-4.0-13.3-1.3","61005a9bfd2f14f18ef7ec7d","F1","batch6","tol_toboard","904","","","","","","","","","","","","","","tol_peg_1","904","904","0","[[2,1,0],[3,0],[0]]","4","[[2,1,3],[0,0],[0]]","1","0","","","","","","5"
"","","","","","single-stim-button","341","1129310","0.0-4.0-13.4-0.4","61005a9bfd2f14f18ef7ec7d","F1","batch6","tol_tohand","692","","","","","","","","","","","","","","tol_peg_2","692","692","0","[[2,1,0],[0,0],[0]]","5","[[2,1,3],[0,0],[0]]","1","0","","","","","","5"
"","","","","","single-stim-button","342","1130071","0.0-4.0-13.4-1.4","61005a9bfd2f14f18ef7ec7d","F1","batch6","tol_toboard","759","","","","","","","","","","","","","","tol_peg_1","759","759","0","[[2,1,3],[0,0],[0]]","5","[[2,1,3],[0,0],[0]]","1","0","","","","","","5"
"","","","","","poldrack-single-stim","343","1131101","0.0-4.0-14.0","61005a9bfd2f14f18ef7ec7d","F1","batch6","tol_feedback","-1","","","","","true","","","","","","","","","","1000","1000","500","","","","","","-1","none","true","12783","17494",""
"","","","","","html-button-response","344","1132143","0.0-4.0-15.0","61005a9bfd2f14f18ef7ec7d","F1","batch6","tol_trial_num","1039.8999999761581","<div class = centerbox><p class = center-block-text>problem <strong>3</strong> out of 25 problems</p></div>","0","","","","","","","","","","","","","","","","","","","","","","","","","",""
"","","","","","single-stim-button","345","1134930","0.0-4.0-16.0-0.0","61005a9bfd2f14f18ef7ec7d","F1","batch6","tol_tohand","2786","","","","","","","","","","","","","","tol_peg_1","2786","2786","0","[[2,0,0],[0,0],[1]]","1","[[1,2,0],[3,0],[0]]","2","0","","","","","","4"
"","","","","","single-stim-button","346","1140530","0.0-4.0-16.0-1.0","61005a9bfd2f14f18ef7ec7d","F1","batch6","tol_toboard","5598","","","","","","","","","","","","","","tol_peg_2","5598","5598","0","[[2,0,0],[3,0],[1]]","1","[[1,2,0],[3,0],[0]]","2","0","","","","","","4"
