"success","timeout","failed_images","failed_audio","failed_video","trial_type","trial_index","time_elapsed","internal_node_id","subject_id","study_id","session_id","view_history","rt","task","stimulus","response","correct","mouse_click","stim_duration","block_duration","timing_post_trial","current_position","tol_num_moves_made","tol_target","tol_problem_id","tol_rt","key_press","possible_responses","tol_correct","preplanning","tol_rt_per_trial","tol_min_moves","item","answer","spm_correct","spm_rt","fiar_detect_rt","fiar_detect_correct","total_correct_fiar_detect","post_trial_gap","choices"
"true","false","[]","[]","[]","preload","0","4455","0.0-0.0","6101f78a3f9b44e8c17e8593","A3","batch1","","","","","","","","","","","","","","","","","","","","","","","","","","","","","",""
"true","","","","","fullscreen","1","13701","0.0-1.0-0.0","6101f78a3f9b44e8c17e8593","A3","batch1","","","","","","","","","","","","","","","","","","","","","","","","","","","","","",""
"true","","","","","fullscreen","2","17230","0.0-2.0-0.0","6101f78a3f9b44e8c17e8593","A3","batch1","","","","","","","","","","","","","","","","","","","","","","","","","","","","","",""
"","","","","","instructions","3","87931","0.0-2.0-1.0-0.0-0.0","6101f78a3f9b44e8c17e8593","A3","batch1","[{""page_index"":0,""viewing_time"":25531.099999964237},{""page_index"":1,""viewing_time"":7630},{""page_index"":2,""viewing_time"":4486.100000023842},{""page_index"":3,""viewing_time"":8024.800000011921},{""page_index"":4,""viewing_time"":9818.800000011921},{""page_index"":5,""viewing_time"":11097.899999976158},{""page_index"":6,""viewing_time"":4107.899999976158}]","70697","tol-instructions","","","","","","","","","","","","","","","","","","","","","","","","","","",""
"","","","","","html-button-response","4","89493","0.0-2.0-1.0-1.0-0.0","6101f78a3f9b44e8c17e8593","A3","batch1","","1560.6000000238419","tol_enter_quiz","<p class=block-text> Let's answer a few questions <br>","0","","","","","","","","","","","","","","","","","","","","","","","","",""
"","","","","","html-button-response","5","103167","0.0-2.0-1.0-1.0-1.0","6101f78a3f9b44e8c17e8593","A3","batch1","","13648.299999952316","tol_quiz","<p class = block-text>True or False: You can only move the ball on top of a peg. <br></p>","0","true","","","","","","","","","","","","","","","","","","","","","","","",""
"","","","","","html-button-response","6","104705","0.0-2.0-1.0-1.0-2.0","6101f78a3f9b44e8c17e8593","A3","batch1","","1536.199999988079","tol_quiz_feedback","<p class = block-text>Correct! You can only move the ball on top of a peg.</p>","0","","","","","","","","","","","","","","","","","","","","","","","","",""
"","","","","","html-button-response","7","107652","0.0-2.0-1.0-1.0-3.0","6101f78a3f9b44e8c17e8593","A3","batch1","","2944.800000011921","tol_quiz","<p class = block-text>True or False: You should try to match your board with the target board with fewest moves possible. <br></p>","0","true","","","","","","","","","","","","","","","","","","","","","","","",""
"","","","","","html-button-response","8","113701","0.0-2.0-1.0-1.0-4.0","6101f78a3f9b44e8c17e8593","A3","batch1","","6047.600000023842","tol_quiz_feedback","<p class = block-text>Correct! </p>","0","","","","","","","","","","","","","","","","","","","","","","","","",""
"","","","","","html-button-response","9","115541","0.0-2.0-2.0","6101f78a3f9b44e8c17e8593","A3","batch1","","1837.699999988079","","<p class=block-text> Now that you've understood the game, let's practice a few easier examples before we start!<br> <br>","0","","","","","","","","","","","","","","","","","","","","","","","","",""
"","","","","","single-stim-button","10","117949","0.0-2.0-3.0-0.0","6101f78a3f9b44e8c17e8593","A3","batch1","","2406","tol_practice","","","","tol_peg_2","2406","2406","0","[[1,2,0],[0,0],[0]]","1","[[1,2,0],[0,0],[3]]","practice","2406","","","","","","","","","","","","","","",""
"","","","","","single-stim-button","11","118783","0.0-2.0-3.0-1.0","6101f78a3f9b44e8c17e8593","A3","batch1","","833","tol_practice","","","","tol_peg_3","833","833","0","[[1,2,0],[0,0],[3]]","1","[[1,2,0],[0,0],[3]]","practice","833","","","","","","","","","","","","","","",""
"","","","","","poldrack-single-stim","12","119796","0.0-2.0-4.0","6101f78a3f9b44e8c17e8593","A3","batch1","","-1","tol_feedback","","","true","","1000","1000","500","","","","","","-1","none","true","","0","","","","","","","","","",""
"","","","","","single-stim-button","13","122529","0.0-2.0-5.0-0.0","6101f78a3f9b44e8c17e8593","A3","batch1","","2732","tol_practice","","","","tol_peg_1","2732","2732","0","[[1,0,0],[3,0],[0]]","2","[[0,0,0],[3,1],[2]]","practice","2732","","","","","","","","","","","","","","",""
"","","","","","single-stim-button","14","123557","0.0-2.0-5.0-1.0","6101f78a3f9b44e8c17e8593","A3","batch1","","1027","tol_practice","","","","tol_peg_3","1027","1027","0","[[1,0,0],[3,0],[2]]","2","[[0,0,0],[3,1],[2]]","practice","1027","","","","","","","","","","","","","","",""
"","","","","","single-stim-button","15","124263","0.0-2.0-5.1-0.1","6101f78a3f9b44e8c17e8593","A3","batch1","","704","tol_practice","","","","tol_peg_1","704","704","0","[[0,0,0],[3,0],[2]]","3","[[0,0,0],[3,1],[2]]","practice","704","","","","","","","","","","","","","","",""
"","","","","","single-stim-button","16","125067","0.0-2.0-5.1-1.1","6101f78a3f9b44e8c17e8593","A3","batch1","","803","tol_practice","","","","tol_peg_2","803","803","0","[[0,0,0],[3,1],[2]]","3","[[0,0,0],[3,1],[2]]","practice","803","","","","","","","","","","","","","","",""
"","","","","","poldrack-single-stim","17","126076","0.0-2.0-6.0","6101f78a3f9b44e8c17e8593","A3","batch1","","-1","tol_feedback","","","true","","1000","1000","500","","","","","","-1","none","true","","0","","","","","","","","","",""
"","","","","","single-stim-button","18","152066","0.0-2.0-7.0-0.0","6101f78a3f9b44e8c17e8593","A3","batch1","","25990","tol_practice","","","","tol_peg_2","25990","25990","0","[[1,2,0],[0,0],[0]]","4","[[1,0,0],[2,0],[3]]","practice","25990","","","","","","","","","","","","","","",""
"","","","","","single-stim-button","19","152869","0.0-2.0-7.0-1.0","6101f78a3f9b44e8c17e8593","A3","batch1","","801","tol_practice","","","","tol_peg_3","801","801","0","[[1,2,0],[0,0],[3]]","4","[[1,0,0],[2,0],[3]]","practice","801","","","","","","","","","","","","","","",""
"","","","","","single-stim-button","20","153700","0.0-2.0-7.1-0.1","6101f78a3f9b44e8c17e8593","A3","batch1","","831","tol_practice","","","","tol_peg_1","831","831","0","[[1,0,0],[0,0],[3]]","5","[[1,0,0],[2,0],[3]]","practice","831","","","","","","","","","","","","","","",""
"","","","","","single-stim-button","21","154765","0.0-2.0-7.1-1.1","6101f78a3f9b44e8c17e8593","A3","batch1","","1063","tol_practice","","","","tol_peg_2","1063","1063","0","[[1,0,0],[2,0],[3]]","5","[[1,0,0],[2,0],[3]]","practice","1063","","","","","","","","","","","","","","",""
"","","","","","poldrack-single-stim","22","155771","0.0-2.0-8.0","6101f78a3f9b44e8c17e8593","A3","batch1","","-1","tol_feedback","","","true","","1000","1000","500","","","","","","-1","none","true","","0","","","","","","","","","",""
"","","","","","html-button-response","23","168531","0.0-2.0-9.0","6101f78a3f9b44e8c17e8593","A3","batch1","","12758.799999952316","tol_instruction","<div class = centerbox><p class = center-block-text>Great job! You are done with practice trials<br>You are about to start official trials.<br> <br> Problem <strong>1</strong> out of 25 problems</p></div>","0","","","","","","","","","","","","","","","","","","","","","","","","",""
"","","","","","single-stim-button","24","174604","0.0-2.0-10.0-0.0","6101f78a3f9b44e8c17e8593","A3","batch1","","5060","tol_tohand","","","","tol_peg_1","5060","5060","0","[[1,0,0],[3,0],[0]]","1","[[1,3,0],[2,0],[0]]","0","0","","","","","","3","","","","","","","","",""
"","","","","","single-stim-button","25","175428","0.0-2.0-10.0-1.0","6101f78a3f9b44e8c17e8593","A3","batch1","","822","tol_toboard","","","","tol_peg_3","822","822","0","[[1,0,0],[3,0],[2]]","1","[[1,3,0],[2,0],[0]]","0","0","","","","","","3","","","","","","","","",""
"","","","","","single-stim-button","26","175980","0.0-2.0-10.1-0.1","6101f78a3f9b44e8c17e8593","A3","batch1","","550","tol_tohand","","","","tol_peg_2","550","550","0","[[1,0,0],[0,0],[2]]","2","[[1,3,0],[2,0],[0]]","0","0","","","","","","3","","","","","","","","",""
"","","","","","single-stim-button","27","176677","0.0-2.0-10.1-1.1","6101f78a3f9b44e8c17e8593","A3","batch1","","697","tol_toboard","","","","tol_peg_1","697","697","0","[[1,3,0],[0,0],[2]]","2","[[1,3,0],[2,0],[0]]","0","0","","","","","","3","","","","","","","","",""
"","","","","","single-stim-button","28","177246","0.0-2.0-10.2-0.2","6101f78a3f9b44e8c17e8593","A3","batch1","","568","tol_tohand","","","","tol_peg_3","568","568","0","[[1,3,0],[0,0],[0]]","3","[[1,3,0],[2,0],[0]]","0","0","","","","","","3","","","","","","","","",""
"","","","","","single-stim-button","29","177919","0.0-2.0-10.2-1.2","6101f78a3f9b44e8c17e8593","A3","batch1","","673","tol_toboard","","","","tol_peg_2","673","673","0","[[1,3,0],[2,0],[0]]","3","[[1,3,0],[2,0],[0]]","0","0","","","","","","3","","","","","","","","",""
"","","","","","poldrack-single-stim","30","178927","0.0-2.0-11.0","6101f78a3f9b44e8c17e8593","A3","batch1","","-1","tol_feedback","","","true","","1000","1000","500","","","","","","-1","none","true","5060","6178","","","","","","","","","",""
"","","","","","html-button-response","31","179862","0.0-2.0-12.0","6101f78a3f9b44e8c17e8593","A3","batch1","","932.5999999642372","tol_trial_num","<div class = centerbox><p class = center-block-text>problem <strong>2</strong> out of 25 problems</p></div>","0","","","","","","","","","","","","","","","","","","","","","","","","",""
"","","","","","single-stim-button","32","185818","0.0-2.0-13.0-0.0","6101f78a3f9b44e8c17e8593","A3","batch1","","5956","tol_tohand","","","","tol_peg_1","5956","5956","0","[[1,0,0],[3,0],[0]]","1","[[2,1,3],[0,0],[0]]","1","0","","","","","","5","","","","","","","","",""
"","","","","","single-stim-button","33","186554","0.0-2.0-13.0-1.0","6101f78a3f9b44e8c17e8593","A3","batch1","","735","tol_toboard","","","","tol_peg_2","735","735","0","[[1,0,0],[3,2],[0]]","1","[[2,1,3],[0,0],[0]]","1","0","","","","","","5","","","","","","","","",""
"","","","","","single-stim-button","34","187942","0.0-2.0-13.1-0.1","6101f78a3f9b44e8c17e8593","A3","batch1","","1386","tol_tohand","","","","tol_peg_1","1386","1386","0","[[0,0,0],[3,2],[0]]","2","[[2,1,3],[0,0],[0]]","1","0","","","","","","5","","","","","","","","",""
"","","","","","single-stim-button","35","188917","0.0-2.0-13.1-1.1","6101f78a3f9b44e8c17e8593","A3","batch1","","975","tol_toboard","","","","tol_peg_3","975","975","0","[[0,0,0],[3,2],[1]]","2","[[2,1,3],[0,0],[0]]","1","0","","","","","","5","","","","","","","","",""
"","","","","","single-stim-button","36","189654","0.0-2.0-13.2-0.2","6101f78a3f9b44e8c17e8593","A3","batch1","","736","tol_tohand","","","","tol_peg_2","736","736","0","[[0,0,0],[3,0],[1]]","3","[[2,1,3],[0,0],[0]]","1","0","","","","","","5","","","","","","","","",""
"","","","","","single-stim-button","37","190606","0.0-2.0-13.2-1.2","6101f78a3f9b44e8c17e8593","A3","batch1","","951","tol_toboard","","","","tol_peg_1","951","951","0","[[2,0,0],[3,0],[1]]","3","[[2,1,3],[0,0],[0]]","1","0","","","","","","5","","","","","","","","",""
"","","","","","single-stim-button","38","191304","0.0-2.0-13.3-0.3","6101f78a3f9b44e8c17e8593","A3","batch1","","697","tol_tohand","","","","tol_peg_3","697","697","0","[[2,0,0],[3,0],[0]]","4","[[2,1,3],[0,0],[0]]","1","0","","","","","","5","","","","","","","","",""
"","","","","","single-stim-button","39","192080","0.0-2.0-13.3-1.3","6101f78a3f9b44e8c17e8593","A3","batch1","","775","tol_toboard","","","","tol_peg_1","775","775","0","[[2,1,0],[3,0],[0]]","4","[[2,1,3],[0,0],[0]]","1","0","","","","","","5","","","","","","","","",""
"","","","","","single-stim-button","40","192761","0.0-2.0-13.4-0.4","6101f78a3f9b44e8c17e8593","A3","batch1","","679","tol_tohand","","","","tol_peg_2","679","679","0","[[2,1,0],[0,0],[0]]","5","[[2,1,3],[0,0],[0]]","1","0","","","","","","5","","","","","","","","",""
"","","","","","single-stim-button","41","193618","0.0-2.0-13.4-1.4","6101f78a3f9b44e8c17e8593","A3","batch1","","857","tol_toboard","","","","tol_peg_1","857","857","0","[[2,1,3],[0,0],[0]]","5","[[2,1,3],[0,0],[0]]","1","0","","","","","","5","","","","","","","","",""
"","","","","","poldrack-single-stim","42","194623","0.0-2.0-14.0","6101f78a3f9b44e8c17e8593","A3","batch1","","-1","tol_feedback","","","true","","1000","1000","500","","","","","","-1","none","true","5956","9454","","","","","","","","","",""
"","","","","","html-button-response","43","195540","0.0-2.0-15.0","6101f78a3f9b44e8c17e8593","A3","batch1","","916.1999999880791","tol_trial_num","<div class = centerbox><p class = center-block-text>problem <strong>3</strong> out of 25 problems</p></div>","0","","","","","","","","","","","","","","","","","","","","","","","","",""
"","","","","","single-stim-button","44","200445","0.0-2.0-16.0-0.0","6101f78a3f9b44e8c17e8593","A3","batch1","","4903","tol_tohand","","","","tol_peg_1","4903","4903","0","[[2,0,0],[0,0],[1]]","1","[[1,2,0],[3,0],[0]]","2","0","","","","","","4","","","","","","","","",""
"","","","","","single-stim-button","45","201255","0.0-2.0-16.0-1.0","6101f78a3f9b44e8c17e8593","A3","batch1","","809","tol_toboard","","","","tol_peg_2","809","809","0","[[2,0,0],[3,0],[1]]","1","[[1,2,0],[3,0],[0]]","2","0","","","","","","4","","","","","","","","",""
"","","","","","single-stim-button","46","201969","0.0-2.0-16.1-0.1","6101f78a3f9b44e8c17e8593","A3","batch1","","713","tol_tohand","","","","tol_peg_1","713","713","0","[[0,0,0],[3,0],[1]]","2","[[1,2,0],[3,0],[0]]","2","0","","","","","","4","","","","","","","","",""
"","","","","","single-stim-button","47","202979","0.0-2.0-16.1-1.1","6101f78a3f9b44e8c17e8593","A3","batch1","","1009","tol_toboard","","","","tol_peg_2","1009","1009","0","[[0,0,0],[3,2],[1]]","2","[[1,2,0],[3,0],[0]]","2","0","","","","","","4","","","","","","","","",""
"","","","","","single-stim-button","48","203541","0.0-2.0-16.2-0.2","6101f78a3f9b44e8c17e8593","A3","batch1","","561","tol_tohand","","","","tol_peg_3","561","561","0","[[0,0,0],[3,2],[0]]","3","[[1,2,0],[3,0],[0]]","2","0","","","","","","4","","","","","","","","",""
"","","","","","single-stim-button","49","204271","0.0-2.0-16.2-1.2","6101f78a3f9b44e8c17e8593","A3","batch1","","729","tol_toboard","","","","tol_peg_1","729","729","0","[[1,0,0],[3,2],[0]]","3","[[1,2,0],[3,0],[0]]","2","0","","","","","","4","","","","","","","","",""
"","","","","","single-stim-button","50","204809","0.0-2.0-16.3-0.3","6101f78a3f9b44e8c17e8593","A3","batch1","","537","tol_tohand","","","","tol_peg_2","537","537","0","[[1,0,0],[3,0],[0]]","4","[[1,2,0],[3,0],[0]]","2","0","","","","","","4","","","","","","","","",""
"","","","","","single-stim-button","51","205611","0.0-2.0-16.3-1.3","6101f78a3f9b44e8c17e8593","A3","batch1","","801","tol_toboard","","","","tol_peg_1","801","801","0","[[1,2,0],[3,0],[0]]","4","[[1,2,0],[3,0],[0]]","2","0","","","","","","4","","","","","","","","",""
"","","","","","poldrack-single-stim","52","206621","0.0-2.0-17.0","6101f78a3f9b44e8c17e8593","A3","batch1","","-1","tol_feedback","","","true","","1000","1000","500","","","","","","-1","none","true","4903","6714","","","","","","","","","",""
"","","","","","html-button-response","53","207809","0.0-2.0-18.0","6101f78a3f9b44e8c17e8593","A3","batch1","","1186.800000011921","tol_trial_num","<div class = centerbox><p class = center-block-text>problem <strong>4</strong> out of 25 problems</p></div>","0","","","","","","","","","","","","","","","","","","","","","","","","",""
"","","","","","single-stim-button","54","214229","0.0-2.0-19.0-0.0","6101f78a3f9b44e8c17e8593","A3","batch1","","6420","tol_tohand","","","","tol_peg_2","6420","6420","0","[[3,0,0],[2,0],[0]]","1","[[3,0,0],[1,0],[2]]","3","0","","","","","","3","","","","","","","","",""
"","","","","","single-stim-button","55","215113","0.0-2.0-19.0-1.0","6101f78a3f9b44e8c17e8593","A3","batch1","","883","tol_toboard","","","","tol_peg_1","883","883","0","[[3,1,0],[2,0],[0]]","1","[[3,0,0],[1,0],[2]]","3","0","","","","","","3","","","","","","","","",""
"","","","","","single-stim-button","56","215633","0.0-2.0-19.1-0.1","6101f78a3f9b44e8c17e8593","A3","batch1","","519","tol_tohand","","","","tol_peg_2","519","519","0","[[3,1,0],[0,0],[0]]","2","[[3,0,0],[1,0],[2]]","3","0","","","","","","3","","","","","","","","",""
"","","","","","single-stim-button","57","216547","0.0-2.0-19.1-1.1","6101f78a3f9b44e8c17e8593","A3","batch1","","913","tol_toboard","","","","tol_peg_3","913","913","0","[[3,1,0],[0,0],[2]]","2","[[3,0,0],[1,0],[2]]","3","0","","","","","","3","","","","","","","","",""
"","","","","","single-stim-button","58","217223","0.0-2.0-19.2-0.2","6101f78a3f9b44e8c17e8593","A3","batch1","","674","tol_tohand","","","","tol_peg_1","674","674","0","[[3,0,0],[0,0],[2]]","3","[[3,0,0],[1,0],[2]]","3","0","","","","","","3","","","","","","","","",""
"","","","","","single-stim-button","59","217879","0.0-2.0-19.2-1.2","6101f78a3f9b44e8c17e8593","A3","batch1","","655","tol_toboard","","","","tol_peg_2","655","655","0","[[3,0,0],[1,0],[2]]","3","[[3,0,0],[1,0],[2]]","3","0","","","","","","3","","","","","","","","",""
"","","","","","poldrack-single-stim","60","218887","0.0-2.0-20.0","6101f78a3f9b44e8c17e8593","A3","batch1","","-1","tol_feedback","","","true","","1000","1000","500","","","","","","-1","none","true","6420","7613","","","","","","","","","",""
"","","","","","html-button-response","61","220235","0.0-2.0-21.0","6101f78a3f9b44e8c17e8593","A3","batch1","","1346.8999999761581","tol_trial_num","<div class = centerbox><p class = center-block-text>problem <strong>5</strong> out of 25 problems</p></div>","0","","","","","","","","","","","","","","","","","","","","","","","","",""
"","","","","","single-stim-button","62","223483","0.0-2.0-22.0-0.0","6101f78a3f9b44e8c17e8593","A3","batch1","","3247","tol_tohand","","","","tol_peg_2","3247","3247","0","[[1,0,0],[0,0],[3]]","1","[[0,0,0],[1,2],[3]]","4","0","","","","","","7","","","","","","","","",""
"","","","","","single-stim-button","63","229337","0.0-2.0-22.0-1.0","6101f78a3f9b44e8c17e8593","A3","batch1","","5853","tol_toboard","","","","tol_peg_1","5853","5853","0","[[1,2,0],[0,0],[3]]","1","[[0,0,0],[1,2],[3]]","4","0","","","","","","7","","","","","","","","",""
"","","","","","single-stim-button","64","238669","0.0-2.0-22.1-0.1","6101f78a3f9b44e8c17e8593","A3","batch1","","9331","tol_tohand","","","","tol_peg_1","9331","9331","0","[[1,0,0],[0,0],[3]]","2","[[0,0,0],[1,2],[3]]","4","0","","","","","","7","","","","","","","","",""
"","","","","","single-stim-button","65","239423","0.0-2.0-22.1-1.1","6101f78a3f9b44e8c17e8593","A3","batch1","","753","tol_toboard","","","","tol_peg_2","753","753","0","[[1,0,0],[2,0],[3]]","2","[[0,0,0],[1,2],[3]]","4","0","","","","","","7","","","","","","","","",""
"","","","","","single-stim-button","66","240820","0.0-2.0-22.2-0.2","6101f78a3f9b44e8c17e8593","A3","batch1","","1395","tol_tohand","","","","tol_peg_3","1395","1395","0","[[1,0,0],[2,0],[0]]","3","[[0,0,0],[1,2],[3]]","4","0","","","","","","7","","","","","","","","",""
"","","","","","single-stim-button","67","241550","0.0-2.0-22.2-1.2","6101f78a3f9b44e8c17e8593","A3","batch1","","729","tol_toboard","","","","tol_peg_1","729","729","0","[[1,3,0],[2,0],[0]]","3","[[0,0,0],[1,2],[3]]","4","0","","","","","","7","","","","","","","","",""
"","","","","","single-stim-button","68","242158","0.0-2.0-22.3-0.3","6101f78a3f9b44e8c17e8593","A3","batch1","","607","tol_tohand","","","","tol_peg_2","607","607","0","[[1,3,0],[0,0],[0]]","4","[[0,0,0],[1,2],[3]]","4","0","","","","","","7","","","","","","","","",""
"","","","","","single-stim-button","69","242872","0.0-2.0-22.3-1.3","6101f78a3f9b44e8c17e8593","A3","batch1","","713","tol_toboard","","","","tol_peg_3","713","713","0","[[1,3,0],[0,0],[2]]","4","[[0,0,0],[1,2],[3]]","4","0","","","","","","7","","","","","","","","",""
"","","","","","single-stim-button","70","243978","0.0-2.0-22.4-0.4","6101f78a3f9b44e8c17e8593","A3","batch1","","1105","tol_tohand","","","","tol_peg_1","1105","1105","0","[[1,0,0],[0,0],[2]]","5","[[0,0,0],[1,2],[3]]","4","0","","","","","","7","","","","","","","","",""
"","","","","","single-stim-button","71","244588","0.0-2.0-22.4-1.4","6101f78a3f9b44e8c17e8593","A3","batch1","","609","tol_toboard","","","","tol_peg_2","609","609","0","[[1,0,0],[3,0],[2]]","5","[[0,0,0],[1,2],[3]]","4","0","","","","","","7","","","","","","","","",""
"","","","","","single-stim-button","72","245510","0.0-2.0-22.5-0.5","6101f78a3f9b44e8c17e8593","A3","batch1","","921","tol_tohand","","","","tol_peg_1","921","921","0","[[0,0,0],[3,0],[2]]","6","[[0,0,0],[1,2],[3]]","4","0","","","","","","7","","","","","","","","",""
"","","","","","single-stim-button","73","246378","0.0-2.0-22.5-1.5","6101f78a3f9b44e8c17e8593","A3","batch1","","868","tol_toboard","","","","tol_peg_2","868","868","0","[[0,0,0],[3,1],[2]]","6","[[0,0,0],[1,2],[3]]","4","0","","","","","","7","","","","","","","","",""
"","","","","","single-stim-button","74","247172","0.0-2.0-22.6-0.6","6101f78a3f9b44e8c17e8593","A3","batch1","","793","tol_tohand","","","","tol_peg_3","793","793","0","[[0,0,0],[3,1],[0]]","7","[[0,0,0],[1,2],[3]]","4","0","","","","","","7","","","","","","","","",""
"","","","","","single-stim-button","75","248126","0.0-2.0-22.6-1.6","6101f78a3f9b44e8c17e8593","A3","batch1","","954","tol_toboard","","","","tol_peg_1","954","954","0","[[2,0,0],[3,1],[0]]","7","[[0,0,0],[1,2],[3]]","4","0","","","","","","7","","","","","","","","",""
"","","","","","single-stim-button","76","248664","0.0-2.0-22.7-0.7","6101f78a3f9b44e8c17e8593","A3","batch1","","537","tol_tohand","","","","tol_peg_2","537","537","0","[[2,0,0],[3,0],[0]]","8","[[0,0,0],[1,2],[3]]","4","0","","","","","","7","","","","","","","","",""
"","","","","","single-stim-button","77","249330","0.0-2.0-22.7-1.7","6101f78a3f9b44e8c17e8593","A3","batch1","","666","tol_toboard","","","","tol_peg_1","666","666","0","[[2,1,0],[3,0],[0]]","8","[[0,0,0],[1,2],[3]]","4","0","","","","","","7","","","","","","","","",""
"","","","","","single-stim-button","78","250220","0.0-2.0-22.8-0.8","6101f78a3f9b44e8c17e8593","A3","batch1","","889","tol_tohand","","","","tol_peg_2","889","889","0","[[2,1,0],[0,0],[0]]","9","[[0,0,0],[1,2],[3]]","4","0","","","","","","7","","","","","","","","",""
"","","","","","single-stim-button","79","250934","0.0-2.0-22.8-1.8","6101f78a3f9b44e8c17e8593","A3","batch1","","713","tol_toboard","","","","tol_peg_3","713","713","0","[[2,1,0],[0,0],[3]]","9","[[0,0,0],[1,2],[3]]","4","0","","","","","","7","","","","","","","","",""
"","","","","","single-stim-button","80","251762","0.0-2.0-22.9-0.9","6101f78a3f9b44e8c17e8593","A3","batch1","","827","tol_tohand","","","","tol_peg_1","827","827","0","[[2,0,0],[0,0],[3]]","10","[[0,0,0],[1,2],[3]]","4","0","","","","","","7","","","","","","","","",""
"","","","","","single-stim-button","81","252522","0.0-2.0-22.9-1.9","6101f78a3f9b44e8c17e8593","A3","batch1","","760","tol_toboard","","","","tol_peg_2","760","760","0","[[2,0,0],[1,0],[3]]","10","[[0,0,0],[1,2],[3]]","4","0","","","","","","7","","","","","","","","",""
"","","","","","single-stim-button","82","253012","0.0-2.0-22.10-0.10","6101f78a3f9b44e8c17e8593","A3","batch1","","488","tol_tohand","","","","tol_peg_1","488","488","0","[[0,0,0],[1,0],[3]]","11","[[0,0,0],[1,2],[3]]","4","0","","","","","","7","","","","","","","","",""
"","","","","","single-stim-button","83","253728","0.0-2.0-22.10-1.10","6101f78a3f9b44e8c17e8593","A3","batch1","","716","tol_toboard","","","","tol_peg_2","716","716","0","[[0,0,0],[1,2],[3]]","11","[[0,0,0],[1,2],[3]]","4","0","","","","","","7","","","","","","","","",""
"","","","","","poldrack-single-stim","84","254730","0.0-2.0-23.0","6101f78a3f9b44e8c17e8593","A3","batch1","","-1","tol_feedback","","","true","","1000","1000","500","","","","","","-1","none","true","3247","20140","","","","","","","","","",""
"","","","","","html-button-response","85","255726","0.0-2.0-24.0","6101f78a3f9b44e8c17e8593","A3","batch1","","995.1000000238419","tol_trial_num","<div class = centerbox><p class = center-block-text>problem <strong>6</strong> out of 25 problems</p></div>","0","","","","","","","","","","","","","","","","","","","","","","","","",""
"","","","","","single-stim-button","86","295236","0.0-2.0-25.0-0.0","6101f78a3f9b44e8c17e8593","A3","batch1","","39509","tol_tohand","","","","tol_peg_3","39509","39509","0","[[0,0,0],[1,2],[0]]","1","[[1,0,0],[2,3],[0]]","5","0","","","","","","6","","","","","","","","",""
"","","","","","single-stim-button","87","299562","0.0-2.0-25.0-1.0","6101f78a3f9b44e8c17e8593","A3","batch1","","4325","tol_toboard","","","","tol_peg_1","4325","4325","0","[[3,0,0],[1,2],[0]]","1","[[1,0,0],[2,3],[0]]","5","0","","","","","","6","","","","","","","","",""
"","","","","","single-stim-button","88","300346","0.0-2.0-25.1-0.1","6101f78a3f9b44e8c17e8593","A3","batch1","","783","tol_tohand","","","","tol_peg_2","783","783","0","[[3,0,0],[1,0],[0]]","2","[[1,0,0],[2,3],[0]]","5","0","","","","","","6","","","","","","","","",""
"","","","","","single-stim-button","89","301338","0.0-2.0-25.1-1.1","6101f78a3f9b44e8c17e8593","A3","batch1","","991","tol_toboard","","","","tol_peg_3","991","991","0","[[3,0,0],[1,0],[2]]","2","[[1,0,0],[2,3],[0]]","5","0","","","","","","6","","","","","","","","",""
"","","","","","single-stim-button","90","301922","0.0-2.0-25.2-0.2","6101f78a3f9b44e8c17e8593","A3","batch1","","583","tol_tohand","","","","tol_peg_2","583","583","0","[[3,0,0],[0,0],[2]]","3","[[1,0,0],[2,3],[0]]","5","0","","","","","","6","","","","","","","","",""
"","","","","","single-stim-button","91","303444","0.0-2.0-25.2-1.2","6101f78a3f9b44e8c17e8593","A3","batch1","","1521","tol_toboard","","","","tol_peg_1","1521","1521","0","[[3,1,0],[0,0],[2]]","3","[[1,0,0],[2,3],[0]]","5","0","","","","","","6","","","","","","","","",""
"","","","","","single-stim-button","92","304038","0.0-2.0-25.3-0.3","6101f78a3f9b44e8c17e8593","A3","batch1","","593","tol_tohand","","","","tol_peg_3","593","593","0","[[3,1,0],[0,0],[0]]","4","[[1,0,0],[2,3],[0]]","5","0","","","","","","6","","","","","","","","",""
"","","","","","single-stim-button","93","305014","0.0-2.0-25.3-1.3","6101f78a3f9b44e8c17e8593","A3","batch1","","975","tol_toboard","","","","tol_peg_2","975","975","0","[[3,1,0],[2,0],[0]]","4","[[1,0,0],[2,3],[0]]","5","0","","","","","","6","","","","","","","","",""
"","","","","","single-stim-button","94","305694","0.0-2.0-25.4-0.4","6101f78a3f9b44e8c17e8593","A3","batch1","","679","tol_tohand","","","","tol_peg_1","679","679","0","[[3,0,0],[2,0],[0]]","5","[[1,0,0],[2,3],[0]]","5","0","","","","","","6","","","","","","","","",""
"","","","","","single-stim-button","95","306616","0.0-2.0-25.4-1.4","6101f78a3f9b44e8c17e8593","A3","batch1","","921","tol_toboard","","","","tol_peg_3","921","921","0","[[3,0,0],[2,0],[1]]","5","[[1,0,0],[2,3],[0]]","5","0","","","","","","6","","","","","","","","",""
"","","","","","single-stim-button","96","307504","0.0-2.0-25.5-0.5","6101f78a3f9b44e8c17e8593","A3","batch1","","887","tol_tohand","","","","tol_peg_1","887","887","0","[[0,0,0],[2,0],[1]]","6","[[1,0,0],[2,3],[0]]","5","0","","","","","","6","","","","","","","","",""
"","","","","","single-stim-button","97","308290","0.0-2.0-25.5-1.5","6101f78a3f9b44e8c17e8593","A3","batch1","","785","tol_toboard","","","","tol_peg_2","785","785","0","[[0,0,0],[2,3],[1]]","6","[[1,0,0],[2,3],[0]]","5","0","","","","","","6","","","","","","","","",""
"","","","","","single-stim-button","98","308874","0.0-2.0-25.6-0.6","6101f78a3f9b44e8c17e8593","A3","batch1","","583","tol_tohand","","","","tol_peg_3","583","583","0","[[0,0,0],[2,3],[0]]","7","[[1,0,0],[2,3],[0]]","5","0","","","","","","6","","","","","","","","",""
"","","","","","single-stim-button","99","309658","0.0-2.0-25.6-1.6","6101f78a3f9b44e8c17e8593","A3","batch1","","783","tol_toboard","","","","tol_peg_1","783","783","0","[[1,0,0],[2,3],[0]]","7","[[1,0,0],[2,3],[0]]","5","0","","","","","","6","","","","","","","","",""
"","","","","","poldrack-single-stim","100","310667","0.0-2.0-26.0","6101f78a3f9b44e8c17e8593","A3","batch1","","-1","tol_feedback","","","true","","1000","1000","500","","","","","","-1","none","true","39509","43617","","","","","","","","","",""
"","","","","","html-button-response","101","311554","0.0-2.0-27.0","6101f78a3f9b44e8c17e8593","A3","batch1","","886.3999999761581","tol_trial_num","<div class = centerbox><p class = center-block-text>problem <strong>7</strong> out of 25 problems</p></div>","0","","","","","","","","","","","","","","","","","","","","","","","","",""
"","","","","","single-stim-button","102","313907","0.0-2.0-28.0-0.0","6101f78a3f9b44e8c17e8593","A3","batch1","","2351","tol_tohand","","","","tol_peg_3","2351","2351","0","[[2,1,0],[0,0],[0]]","1","[[1,2,0],[3,0],[0]]","6","0","","","","","","5","","","","","","","","",""
"","","","","","single-stim-button","103","314629","0.0-2.0-28.0-1.0","6101f78a3f9b44e8c17e8593","A3","batch1","","721","tol_toboard","","","","tol_peg_2","721","721","0","[[2,1,0],[3,0],[0]]","1","[[1,2,0],[3,0],[0]]","6","0","","","","","","5","","","","","","","","",""
"","","","","","single-stim-button","104","316301","0.0-2.0-28.1-0.1","6101f78a3f9b44e8c17e8593","A3","batch1","","1671","tol_tohand","","","","tol_peg_1","1671","1671","0","[[2,0,0],[3,0],[0]]","2","[[1,2,0],[3,0],[0]]","6","0","","","","","","5","","","","","","","","",""
"","","","","","single-stim-button","105","317045","0.0-2.0-28.1-1.1","6101f78a3f9b44e8c17e8593","A3","batch1","","743","tol_toboard","","","","tol_peg_3","743","743","0","[[2,0,0],[3,0],[1]]","2","[[1,2,0],[3,0],[0]]","6","0","","","","","","5","","","","","","","","",""
"","","","","","single-stim-button","106","318028","0.0-2.0-28.2-0.2","6101f78a3f9b44e8c17e8593","A3","batch1","","983","tol_tohand","","","","tol_peg_1","983","983","0","[[0,0,0],[3,0],[1]]","3","[[1,2,0],[3,0],[0]]","6","0","","","","","","5","","","","","","","","",""
"","","","","","single-stim-button","107","318597","0.0-2.0-28.2-1.2","6101f78a3f9b44e8c17e8593","A3","batch1","","567","tol_toboard","","","","tol_peg_2","567","567","0","[[0,0,0],[3,2],[1]]","3","[[1,2,0],[3,0],[0]]","6","0","","","","","","5","","","","","","","","",""
"","","","","","single-stim-button","108","319053","0.0-2.0-28.3-0.3","6101f78a3f9b44e8c17e8593","A3","batch1","","455","tol_tohand","","","","tol_peg_3","455","455","0","[[0,0,0],[3,2],[0]]","4","[[1,2,0],[3,0],[0]]","6","0","","","","","","5","","","","","","","","",""
"","","","","","single-stim-button","109","319726","0.0-2.0-28.3-1.3","6101f78a3f9b44e8c17e8593","A3","batch1","","673","tol_toboard","","","","tol_peg_1","673","673","0","[[1,0,0],[3,2],[0]]","4","[[1,2,0],[3,0],[0]]","6","0","","","","","","5","","","","","","","","",""
"","","","","","single-stim-button","110","320215","0.0-2.0-28.4-0.4","6101f78a3f9b44e8c17e8593","A3","batch1","","487","tol_tohand","","","","tol_peg_2","487","487","0","[[1,0,0],[3,0],[0]]","5","[[1,2,0],[3,0],[0]]","6","0","","","","","","5","","","","","","","","",""
"","","","","","single-stim-button","111","320935","0.0-2.0-28.4-1.4","6101f78a3f9b44e8c17e8593","A3","batch1","","719","tol_toboard","","","","tol_peg_1","719","719","0","[[1,2,0],[3,0],[0]]","5","[[1,2,0],[3,0],[0]]","6","0","","","","","","5","","","","","","","","",""
"","","","","","poldrack-single-stim","112","321943","0.0-2.0-29.0","6101f78a3f9b44e8c17e8593","A3","batch1","","-1","tol_feedback","","","true","","1000","1000","500","","","","","","-1","none","true","2351","5947","","","","","","","","","",""
"","","","","","html-button-response","113","322879","0.0-2.0-30.0","6101f78a3f9b44e8c17e8593","A3","batch1","","934.5","tol_trial_num","<div class = centerbox><p class = center-block-text>problem <strong>8</strong> out of 25 problems</p></div>","0","","","","","","","","","","","","","","","","","","","","","","","","",""
"","","","","","single-stim-button","114","325823","0.0-2.0-31.0-0.0","6101f78a3f9b44e8c17e8593","A3","batch1","","2943","tol_tohand","","","","tol_peg_3","2943","2943","0","[[0,0,0],[2,3],[0]]","1","[[1,2,0],[3,0],[0]]","7","0","","","","","","4","","","","","","","","",""
"","","","","","single-stim-button","115","327247","0.0-2.0-31.0-1.0","6101f78a3f9b44e8c17e8593","A3","batch1","","1423","tol_toboard","","","","tol_peg_1","1423","1423","0","[[1,0,0],[2,3],[0]]","1","[[1,2,0],[3,0],[0]]","7","0","","","","","","4","","","","","","","","",""
"","","","","","single-stim-button","116","327791","0.0-2.0-31.1-0.1","6101f78a3f9b44e8c17e8593","A3","batch1","","543","tol_tohand","","","","tol_peg_2","543","543","0","[[1,0,0],[2,0],[0]]","2","[[1,2,0],[3,0],[0]]","7","0","","","","","","4","","","","","","","","",""
"","","","","","single-stim-button","117","328567","0.0-2.0-31.1-1.1","6101f78a3f9b44e8c17e8593","A3","batch1","","776","tol_toboard","","","","tol_peg_3","776","776","0","[[1,0,0],[2,0],[3]]","2","[[1,2,0],[3,0],[0]]","7","0","","","","","","4","","","","","","","","",""
"","","","","","single-stim-button","118","329063","0.0-2.0-31.2-0.2","6101f78a3f9b44e8c17e8593","A3","batch1","","495","tol_tohand","","","","tol_peg_2","495","495","0","[[1,0,0],[0,0],[3]]","3","[[1,2,0],[3,0],[0]]","7","0","","","","","","4","","","","","","","","",""
"","","","","","single-stim-button","119","329943","0.0-2.0-31.2-1.2","6101f78a3f9b44e8c17e8593","A3","batch1","","879","tol_toboard","","","","tol_peg_1","879","879","0","[[1,2,0],[0,0],[3]]","3","[[1,2,0],[3,0],[0]]","7","0","","","","","","4","","","","","","","","",""
"","","","","","single-stim-button","120","330559","0.0-2.0-31.3-0.3","6101f78a3f9b44e8c17e8593","A3","batch1","","615","tol_tohand","","","","tol_peg_3","615","615","0","[[1,2,0],[0,0],[0]]","4","[[1,2,0],[3,0],[0]]","7","0","","","","","","4","","","","","","","","",""
"","","","","","single-stim-button","121","331421","0.0-2.0-31.3-1.3","6101f78a3f9b44e8c17e8593","A3","batch1","","861","tol_toboard","","","","tol_peg_2","861","861","0","[[1,2,0],[3,0],[0]]","4","[[1,2,0],[3,0],[0]]","7","0","","","","","","4","","","","","","","","",""
"","","","","","poldrack-single-stim","122","332424","0.0-2.0-32.0","6101f78a3f9b44e8c17e8593","A3","batch1","","-1","tol_feedback","","","true","","1000","1000","500","","","","","","-1","none","true","2943","4596","","","","","","","","","",""
"","","","","","html-button-response","123","412392","0.0-2.0-33.0","6101f78a3f9b44e8c17e8593","A3","batch1","","79965.10000002384","tol_trial_num","<div class = centerbox><p class = center-block-text>problem <strong>9</strong> out of 25 problems</p></div>","0","","","","","","","","","","","","","","","","","","","","","","","","",""
"","","","","","single-stim-button","124","428370","0.0-2.0-34.0-0.0","6101f78a3f9b44e8c17e8593","A3","batch1","","15976","tol_tohand","","","","tol_peg_3","15976","15976","0","[[3,2,0],[0,0],[0]]","1","[[2,1,0],[3,0],[0]]","8","0","","","","","","6","","","","","","","","",""
"","","","","","single-stim-button","125","431532","0.0-2.0-34.0-1.0","6101f78a3f9b44e8c17e8593","A3","batch1","","3160","tol_toboard","","","","tol_peg_2","3160","3160","0","[[3,2,0],[1,0],[0]]","1","[[2,1,0],[3,0],[0]]","8","0","","","","","","6","","","","","","","","",""
"","","","","","single-stim-button","126","433684","0.0-2.0-34.1-0.1","6101f78a3f9b44e8c17e8593","A3","batch1","","2151","tol_tohand","","","","tol_peg_1","2151","2151","0","[[3,0,0],[1,0],[0]]","2","[[2,1,0],[3,0],[0]]","8","0","","","","","","6","","","","","","","","",""
"","","","","","single-stim-button","127","437410","0.0-2.0-34.1-1.1","6101f78a3f9b44e8c17e8593","A3","batch1","","3726","tol_toboard","","","","tol_peg_2","3726","3726","0","[[3,0,0],[1,2],[0]]","2","[[2,1,0],[3,0],[0]]","8","0","","","","","","6","","","","","","","","",""
"","","","","","single-stim-button","128","437940","0.0-2.0-34.2-0.2","6101f78a3f9b44e8c17e8593","A3","batch1","","529","tol_tohand","","","","tol_peg_1","529","529","0","[[0,0,0],[1,2],[0]]","3","[[2,1,0],[3,0],[0]]","8","0","","","","","","6","","","","","","","","",""
"","","","","","single-stim-button","129","438822","0.0-2.0-34.2-1.2","6101f78a3f9b44e8c17e8593","A3","batch1","","881","tol_toboard","","","","tol_peg_3","881","881","0","[[0,0,0],[1,2],[3]]","3","[[2,1,0],[3,0],[0]]","8","0","","","","","","6","","","","","","","","",""
"","","","","","single-stim-button","130","439392","0.0-2.0-34.3-0.3","6101f78a3f9b44e8c17e8593","A3","batch1","","569","tol_tohand","","","","tol_peg_2","569","569","0","[[0,0,0],[1,0],[3]]","4","[[2,1,0],[3,0],[0]]","8","0","","","","","","6","","","","","","","","",""
"","","","","","single-stim-button","131","440202","0.0-2.0-34.3-1.3","6101f78a3f9b44e8c17e8593","A3","batch1","","810","tol_toboard","","","","tol_peg_1","810","810","0","[[2,0,0],[1,0],[3]]","4","[[2,1,0],[3,0],[0]]","8","0","","","","","","6","","","","","","","","",""
"","","","","","single-stim-button","132","440692","0.0-2.0-34.4-0.4","6101f78a3f9b44e8c17e8593","A3","batch1","","489","tol_tohand","","","","tol_peg_2","489","489","0","[[2,0,0],[0,0],[3]]","5","[[2,1,0],[3,0],[0]]","8","0","","","","","","6","","","","","","","","",""
"","","","","","single-stim-button","133","441422","0.0-2.0-34.4-1.4","6101f78a3f9b44e8c17e8593","A3","batch1","","729","tol_toboard","","","","tol_peg_1","729","729","0","[[2,1,0],[0,0],[3]]","5","[[2,1,0],[3,0],[0]]","8","0","","","","","","6","","","","","","","","",""
"","","","","","single-stim-button","134","442216","0.0-2.0-34.5-0.5","6101f78a3f9b44e8c17e8593","A3","batch1","","793","tol_tohand","","","","tol_peg_3","793","793","0","[[2,1,0],[0,0],[0]]","6","[[2,1,0],[3,0],[0]]","8","0","","","","","","6","","","","","","","","",""
"","","","","","single-stim-button","135","442970","0.0-2.0-34.5-1.5","6101f78a3f9b44e8c17e8593","A3","batch1","","754","tol_toboard","","","","tol_peg_2","754","754","0","[[2,1,0],[3,0],[0]]","6","[[2,1,0],[3,0],[0]]","8","0","","","","","","6","","","","","","","","",""
"","","","","","poldrack-single-stim","136","443978","0.0-2.0-35.0","6101f78a3f9b44e8c17e8593","A3","batch1","","-1","tol_feedback","","","true","","1000","1000","500","","","","","","-1","none","true","15976","20507","","","","","","","","","",""
"","","","","","html-button-response","137","445968","0.0-2.0-36.0","6101f78a3f9b44e8c17e8593","A3","batch1","","1988.699999988079","tol_trial_num","<div class = centerbox><p class = center-block-text>problem <strong>10</strong> out of 25 problems</p></div>","0","","","","","","","","","","","","","","","","","","","","","","","","",""
"","","","","","single-stim-button","138","449704","0.0-2.0-37.0-0.0","6101f78a3f9b44e8c17e8593","A3","batch1","","3735","tol_tohand","","","","tol_peg_2","3735","3735","0","[[3,0,0],[0,0],[2]]","1","[[3,0,0],[2,1],[0]]","9","0","","","","","","3","","","","","","","","",""
"","","","","","single-stim-button","139","450694","0.0-2.0-37.0-1.0","6101f78a3f9b44e8c17e8593","A3","batch1","","989","tol_toboard","","","","tol_peg_1","989","989","0","[[3,1,0],[0,0],[2]]","1","[[3,0,0],[2,1],[0]]","9","0","","","","","","3","","","","","","","","",""
"","","","","","single-stim-button","140","451272","0.0-2.0-37.1-0.1","6101f78a3f9b44e8c17e8593","A3","batch1","","577","tol_tohand","","","","tol_peg_3","577","577","0","[[3,1,0],[0,0],[0]]","2","[[3,0,0],[2,1],[0]]","9","0","","","","","","3","","","","","","","","",""
"","","","","","single-stim-button","141","451924","0.0-2.0-37.1-1.1","6101f78a3f9b44e8c17e8593","A3","batch1","","651","tol_toboard","","","","tol_peg_2","651","651","0","[[3,1,0],[2,0],[0]]","2","[[3,0,0],[2,1],[0]]","9","0","","","","","","3","","","","","","","","",""
"","","","","","single-stim-button","142","452504","0.0-2.0-37.2-0.2","6101f78a3f9b44e8c17e8593","A3","batch1","","579","tol_tohand","","","","tol_peg_1","579","579","0","[[3,0,0],[2,0],[0]]","3","[[3,0,0],[2,1],[0]]","9","0","","","","","","3","","","","","","","","",""
"","","","","","single-stim-button","143","453722","0.0-2.0-37.2-1.2","6101f78a3f9b44e8c17e8593","A3","batch1","","1217","tol_toboard","","","","tol_peg_2","1217","1217","0","[[3,0,0],[2,1],[0]]","3","[[3,0,0],[2,1],[0]]","9","0","","","","","","3","","","","","","","","",""
"","","","","","poldrack-single-stim","144","454733","0.0-2.0-38.0","6101f78a3f9b44e8c17e8593","A3","batch1","","-1","tol_feedback","","","true","","1000","1000","500","","","","","","-1","none","true","3735","4891","","","","","","","","","",""
"","","","","","html-button-response","145","527295","0.0-2.0-39.0","6101f78a3f9b44e8c17e8593","A3","batch1","","72558.60000002384","tol_trial_num","<div class = centerbox><p class = center-block-text>problem <strong>11</strong> out of 25 problems</p></div>","0","","","","","","","","","","","","","","","","","","","","","","","","",""
"","","","","","single-stim-button","146","534755","0.0-2.0-40.0-0.0","6101f78a3f9b44e8c17e8593","A3","batch1","","7459","tol_tohand","","","","tol_peg_2","7459","7459","0","[[1,2,0],[0,0],[0]]","1","[[2,0,0],[1,3],[0]]","10","0","","","","","","6","","","","","","","","",""
"","","","","","single-stim-button","147","535613","0.0-2.0-40.0-1.0","6101f78a3f9b44e8c17e8593","A3","batch1","","856","tol_toboard","","","","tol_peg_3","856","856","0","[[1,2,0],[0,0],[3]]","1","[[2,0,0],[1,3],[0]]","10","0","","","","","","6","","","","","","","","",""
"","","","","","single-stim-button","148","536407","0.0-2.0-40.1-0.1","6101f78a3f9b44e8c17e8593","A3","batch1","","794","tol_tohand","","","","tol_peg_1","794","794","0","[[1,0,0],[0,0],[3]]","2","[[2,0,0],[1,3],[0]]","10","0","","","","","","6","","","","","","","","",""
"","","","","","single-stim-button","149","537131","0.0-2.0-40.1-1.1","6101f78a3f9b44e8c17e8593","A3","batch1","","723","tol_toboard","","","","tol_peg_2","723","723","0","[[1,0,0],[2,0],[3]]","2","[[2,0,0],[1,3],[0]]","10","0","","","","","","6","","","","","","","","",""
"","","","","","single-stim-button","150","540141","0.0-2.0-40.2-0.2","6101f78a3f9b44e8c17e8593","A3","batch1","","3009","tol_tohand","","","","tol_peg_1","3009","3009","0","[[0,0,0],[2,0],[3]]","3","[[2,0,0],[1,3],[0]]","10","0","","","","","","6","","","","","","","","",""
"","","","","","single-stim-button","151","540977","0.0-2.0-40.2-1.2","6101f78a3f9b44e8c17e8593","A3","batch1","","835","tol_toboard","","","","tol_peg_2","835","835","0","[[0,0,0],[2,1],[3]]","3","[[2,0,0],[1,3],[0]]","10","0","","","","","","6","","","","","","","","",""
"","","","","","single-stim-button","152","541755","0.0-2.0-40.3-0.3","6101f78a3f9b44e8c17e8593","A3","batch1","","777","tol_tohand","","","","tol_peg_3","777","777","0","[[0,0,0],[2,1],[0]]","4","[[2,0,0],[1,3],[0]]","10","0","","","","","","6","","","","","","","","",""
"","","","","","single-stim-button","153","542629","0.0-2.0-40.3-1.3","6101f78a3f9b44e8c17e8593","A3","batch1","","873","tol_toboard","","","","tol_peg_1","873","873","0","[[3,0,0],[2,1],[0]]","4","[[2,0,0],[1,3],[0]]","10","0","","","","","","6","","","","","","","","",""
"","","","","","single-stim-button","154","543367","0.0-2.0-40.4-0.4","6101f78a3f9b44e8c17e8593","A3","batch1","","736","tol_tohand","","","","tol_peg_2","736","736","0","[[3,0,0],[2,0],[0]]","5","[[2,0,0],[1,3],[0]]","10","0","","","","","","6","","","","","","","","",""
"","","","","","single-stim-button","155","544193","0.0-2.0-40.4-1.4","6101f78a3f9b44e8c17e8593","A3","batch1","","826","tol_toboard","","","","tol_peg_3","826","826","0","[[3,0,0],[2,0],[1]]","5","[[2,0,0],[1,3],[0]]","10","0","","","","","","6","","","","","","","","",""
"","","","","","single-stim-button","156","544909","0.0-2.0-40.5-0.5","6101f78a3f9b44e8c17e8593","A3","batch1","","715","tol_tohand","","","","tol_peg_2","715","715","0","[[3,0,0],[0,0],[1]]","6","[[2,0,0],[1,3],[0]]","10","0","","","","","","6","","","","","","","","",""
"","","","","","single-stim-button","157","545554","0.0-2.0-40.5-1.5","6101f78a3f9b44e8c17e8593","A3","batch1","","643","tol_toboard","","","","tol_peg_1","643","643","0","[[3,2,0],[0,0],[1]]","6","[[2,0,0],[1,3],[0]]","10","0","","","","","","6","","","","","","","","",""
"","","","","","single-stim-button","158","546538","0.0-2.0-40.6-0.6","6101f78a3f9b44e8c17e8593","A3","batch1","","983","tol_tohand","","","","tol_peg_3","983","983","0","[[3,2,0],[0,0],[0]]","7","[[2,0,0],[1,3],[0]]","10","0","","","","","","6","","","","","","","","",""
"","","","","","single-stim-button","159","547462","0.0-2.0-40.6-1.6","6101f78a3f9b44e8c17e8593","A3","batch1","","923","tol_toboard","","","","tol_peg_2","923","923","0","[[3,2,0],[1,0],[0]]","7","[[2,0,0],[1,3],[0]]","10","0","","","","","","6","","","","","","","","",""
"","","","","","single-stim-button","160","548040","0.0-2.0-40.7-0.7","6101f78a3f9b44e8c17e8593","A3","batch1","","577","tol_tohand","","","","tol_peg_1","577","577","0","[[3,0,0],[1,0],[0]]","8","[[2,0,0],[1,3],[0]]","10","0","","","","","","6","","","","","","","","",""
"","","","","","single-stim-button","161","548803","0.0-2.0-40.7-1.7","6101f78a3f9b44e8c17e8593","A3","batch1","","763","tol_toboard","","","","tol_peg_3","763","763","0","[[3,0,0],[1,0],[2]]","8","[[2,0,0],[1,3],[0]]","10","0","","","","","","6","","","","","","","","",""
"","","","","","single-stim-button","162","549374","0.0-2.0-40.8-0.8","6101f78a3f9b44e8c17e8593","A3","batch1","","569","tol_tohand","","","","tol_peg_1","569","569","0","[[0,0,0],[1,0],[2]]","9","[[2,0,0],[1,3],[0]]","10","0","","","","","","6","","","","","","","","",""
"","","","","","single-stim-button","163","550410","0.0-2.0-40.8-1.8","6101f78a3f9b44e8c17e8593","A3","batch1","","1035","tol_toboard","","","","tol_peg_2","1035","1035","0","[[0,0,0],[1,3],[2]]","9","[[2,0,0],[1,3],[0]]","10","0","","","","","","6","","","","","","","","",""
"","","","","","single-stim-button","164","551212","0.0-2.0-40.9-0.9","6101f78a3f9b44e8c17e8593","A3","batch1","","800","tol_tohand","","","","tol_peg_3","800","800","0","[[0,0,0],[1,3],[0]]","10","[[2,0,0],[1,3],[0]]","10","0","","","","","","6","","","","","","","","",""
"","","","","","single-stim-button","165","551942","0.0-2.0-40.9-1.9","6101f78a3f9b44e8c17e8593","A3","batch1","","729","tol_toboard","","","","tol_peg_1","729","729","0","[[2,0,0],[1,3],[0]]","10","[[2,0,0],[1,3],[0]]","10","0","","","","","","6","","","","","","","","",""
"","","","","","poldrack-single-stim","166","552952","0.0-2.0-41.0","6101f78a3f9b44e8c17e8593","A3","batch1","","-1","tol_feedback","","","true","","1000","1000","500","","","","","","-1","none","true","7459","16419","","","","","","","","","",""
"","","","","","html-button-response","167","613355","0.0-2.0-42.0","6101f78a3f9b44e8c17e8593","A3","batch1","","60400.10000002384","tol_trial_num","<div class = centerbox><p class = center-block-text>problem <strong>12</strong> out of 25 problems</p></div>","0","","","","","","","","","","","","","","","","","","","","","","","","",""
"","","","","","single-stim-button","168","619897","0.0-2.0-43.0-0.0","6101f78a3f9b44e8c17e8593","A3","batch1","","6541","tol_tohand","","","","tol_peg_1","6541","6541","0","[[1,0,0],[3,0],[0]]","1","[[2,3,0],[0,0],[1]]","11","0","","","","","","4","","","","","","","","",""
"","","","","","single-stim-button","169","620925","0.0-2.0-43.0-1.0","6101f78a3f9b44e8c17e8593","A3","batch1","","1027","tol_toboard","","","","tol_peg_2","1027","1027","0","[[1,0,0],[3,2],[0]]","1","[[2,3,0],[0,0],[1]]","11","0","","","","","","4","","","","","","","","",""
"","","","","","single-stim-button","170","621481","0.0-2.0-43.1-0.1","6101f78a3f9b44e8c17e8593","A3","batch1","","555","tol_tohand","","","","tol_peg_1","555","555","0","[[0,0,0],[3,2],[0]]","2","[[2,3,0],[0,0],[1]]","11","0","","","","","","4","","","","","","","","",""
"","","","","","single-stim-button","171","622195","0.0-2.0-43.1-1.1","6101f78a3f9b44e8c17e8593","A3","batch1","","713","tol_toboard","","","","tol_peg_3","713","713","0","[[0,0,0],[3,2],[1]]","2","[[2,3,0],[0,0],[1]]","11","0","","","","","","4","","","","","","","","",""
"","","","","","single-stim-button","172","622749","0.0-2.0-43.2-0.2","6101f78a3f9b44e8c17e8593","A3","batch1","","553","tol_tohand","","","","tol_peg_2","553","553","0","[[0,0,0],[3,0],[1]]","3","[[2,3,0],[0,0],[1]]","11","0","","","","","","4","","","","","","","","",""
"","","","","","single-stim-button","173","623491","0.0-2.0-43.2-1.2","6101f78a3f9b44e8c17e8593","A3","batch1","","740","tol_toboard","","","","tol_peg_1","740","740","0","[[2,0,0],[3,0],[1]]","3","[[2,3,0],[0,0],[1]]","11","0","","","","","","4","","","","","","","","",""
"","","","","","single-stim-button","174","624023","0.0-2.0-43.3-0.3","6101f78a3f9b44e8c17e8593","A3","batch1","","532","tol_tohand","","","","tol_peg_2","532","532","0","[[2,0,0],[0,0],[1]]","4","[[2,3,0],[0,0],[1]]","11","0","","","","","","4","","","","","","","","",""
"","","","","","single-stim-button","175","624735","0.0-2.0-43.3-1.3","6101f78a3f9b44e8c17e8593","A3","batch1","","711","tol_toboard","","","","tol_peg_1","711","711","0","[[2,3,0],[0,0],[1]]","4","[[2,3,0],[0,0],[1]]","11","0","","","","","","4","","","","","","","","",""
"","","","","","poldrack-single-stim","176","625749","0.0-2.0-44.0","6101f78a3f9b44e8c17e8593","A3","batch1","","-1","tol_feedback","","","true","","1000","1000","500","","","","","","-1","none","true","6541","8181","","","","","","","","","",""
"","","","","","html-button-response","177","628576","0.0-2.0-45.0","6101f78a3f9b44e8c17e8593","A3","batch1","","2825.600000023842","tol_trial_num","<div class = centerbox><p class = center-block-text>problem <strong>13</strong> out of 25 problems</p></div>","0","","","","","","","","","","","","","","","","","","","","","","","","",""
"","","","","","single-stim-button","178","636028","0.0-2.0-46.0-0.0","6101f78a3f9b44e8c17e8593","A3","batch1","","7451","tol_tohand","","","","tol_peg_2","7451","7451","0","[[1,2,0],[0,0],[0]]","1","[[0,0,0],[2,3],[1]]","12","0","","","","","","4","","","","","","","","",""
"","","","","","single-stim-button","179","636702","0.0-2.0-46.0-1.0","6101f78a3f9b44e8c17e8593","A3","batch1","","673","tol_toboard","","","","tol_peg_3","673","673","0","[[1,2,0],[0,0],[3]]","1","[[0,0,0],[2,3],[1]]","12","0","","","","","","4","","","","","","","","",""
"","","","","","single-stim-button","180","637298","0.0-2.0-46.1-0.1","6101f78a3f9b44e8c17e8593","A3","batch1","","595","tol_tohand","","","","tol_peg_1","595","595","0","[[1,0,0],[0,0],[3]]","2","[[0,0,0],[2,3],[1]]","12","0","","","","","","4","","","","","","","","",""
"","","","","","single-stim-button","181","637850","0.0-2.0-46.1-1.1","6101f78a3f9b44e8c17e8593","A3","batch1","","550","tol_toboard","","","","tol_peg_2","550","550","0","[[1,0,0],[2,0],[3]]","2","[[0,0,0],[2,3],[1]]","12","0","","","","","","4","","","","","","","","",""
"","","","","","single-stim-button","182","638346","0.0-2.0-46.2-0.2","6101f78a3f9b44e8c17e8593","A3","batch1","","495","tol_tohand","","","","tol_peg_3","495","495","0","[[1,0,0],[2,0],[0]]","3","[[0,0,0],[2,3],[1]]","12","0","","","","","","4","","","","","","","","",""
"","","","","","single-stim-button","183","639158","0.0-2.0-46.2-1.2","6101f78a3f9b44e8c17e8593","A3","batch1","","811","tol_toboard","","","","tol_peg_2","811","811","0","[[1,0,0],[2,3],[0]]","3","[[0,0,0],[2,3],[1]]","12","0","","","","","","4","","","","","","","","",""
"","","","","","single-stim-button","184","639654","0.0-2.0-46.3-0.3","6101f78a3f9b44e8c17e8593","A3","batch1","","495","tol_tohand","","","","tol_peg_1","495","495","0","[[0,0,0],[2,3],[0]]","4","[[0,0,0],[2,3],[1]]","12","0","","","","","","4","","","","","","","","",""
"","","","","","single-stim-button","185","640322","0.0-2.0-46.3-1.3","6101f78a3f9b44e8c17e8593","A3","batch1","","667","tol_toboard","","","","tol_peg_3","667","667","0","[[0,0,0],[2,3],[1]]","4","[[0,0,0],[2,3],[1]]","12","0","","","","","","4","","","","","","","","",""
"","","","","","poldrack-single-stim","186","641329","0.0-2.0-47.0","6101f78a3f9b44e8c17e8593","A3","batch1","","-1","tol_feedback","","","true","","1000","1000","500","","","","","","-1","none","true","7451","9036","","","","","","","","","",""
"","","","","","html-button-response","187","643722","0.0-2.0-48.0","6101f78a3f9b44e8c17e8593","A3","batch1","","2391.399999976158","attention_check","<p class = block-text>How many balls are in your board<br></p>","1","true","","","","","","","","","","","","","","","","","","","","","","","",""
"","","","","","html-button-response","188","644628","0.0-2.0-49.0","6101f78a3f9b44e8c17e8593","A3","batch1","","904.6000000238419","tol_trial_num","<div class = centerbox><p class = center-block-text>problem <strong>14</strong> out of 25 problems</p></div>","0","","","","","","","","","","","","","","","","","","","","","","","","",""
"","","","","","single-stim-button","189","649550","0.0-2.0-50.0-0.0","6101f78a3f9b44e8c17e8593","A3","batch1","","4921","tol_tohand","","","","tol_peg_1","4921","4921","0","[[2,0,0],[3,0],[0]]","1","[[1,2,0],[3,0],[0]]","13","0","","","","","","4","","","","","","","","",""
"","","","","","single-stim-button","190","650248","0.0-2.0-50.0-1.0","6101f78a3f9b44e8c17e8593","A3","batch1","","697","tol_toboard","","","","tol_peg_2","697","697","0","[[2,0,0],[3,1],[0]]","1","[[1,2,0],[3,0],[0]]","13","0","","","","","","4","","","","","","","","",""
"","","","","","single-stim-button","191","650802","0.0-2.0-50.1-0.1","6101f78a3f9b44e8c17e8593","A3","batch1","","553","tol_tohand","","","","tol_peg_1","553","553","0","[[0,0,0],[3,1],[0]]","2","[[1,2,0],[3,0],[0]]","13","0","","","","","","4","","","","","","","","",""
"","","","","","single-stim-button","192","651452","0.0-2.0-50.1-1.1","6101f78a3f9b44e8c17e8593","A3","batch1","","649","tol_toboard","","","","tol_peg_3","649","649","0","[[0,0,0],[3,1],[2]]","2","[[1,2,0],[3,0],[0]]","13","0","","","","","","4","","","","","","","","",""
"","","","","","single-stim-button","193","652046","0.0-2.0-50.2-0.2","6101f78a3f9b44e8c17e8593","A3","batch1","","593","tol_tohand","","","","tol_peg_2","593","593","0","[[0,0,0],[3,0],[2]]","3","[[1,2,0],[3,0],[0]]","13","0","","","","","","4","","","","","","","","",""
"","","","","","single-stim-button","194","652726","0.0-2.0-50.2-1.2","6101f78a3f9b44e8c17e8593","A3","batch1","","679","tol_toboard","","","","tol_peg_1","679","679","0","[[1,0,0],[3,0],[2]]","3","[[1,2,0],[3,0],[0]]","13","0","","","","","","4","","","","","","","","",""
"","","","","","single-stim-button","195","653288","0.0-2.0-50.3-0.3","6101f78a3f9b44e8c17e8593","A3","batch1","","561","tol_tohand","","","","tol_peg_3","561","561","0","[[1,0,0],[3,0],[0]]","4","[[1,2,0],[3,0],[0]]","13","0","","","","","","4","","","","","","","","",""
"","","","","","single-stim-button","196","654058","0.0-2.0-50.3-1.3","6101f78a3f9b44e8c17e8593","A3","batch1","","769","tol_toboard","","","","tol_peg_1","769","769","0","[[1,2,0],[3,0],[0]]","4","[[1,2,0],[3,0],[0]]","13","0","","","","","","4","","","","","","","","",""
"","","","","","poldrack-single-stim","197","655066","0.0-2.0-51.0","6101f78a3f9b44e8c17e8593","A3","batch1","","-1","tol_feedback","","","true","","1000","1000","500","","","","","","-1","none","true","4921","6628","","","","","","","","","",""
"","","","","","html-button-response","198","656370","0.0-2.0-52.0","6101f78a3f9b44e8c17e8593","A3","batch1","","1303.0999999642372","tol_trial_num","<div class = centerbox><p class = center-block-text>problem <strong>15</strong> out of 25 problems</p></div>","0","","","","","","","","","","","","","","","","","","","","","","","","",""
"","","","","","single-stim-button","199","661358","0.0-2.0-53.0-0.0","6101f78a3f9b44e8c17e8593","A3","batch1","","4987","tol_tohand","","","","tol_peg_1","4987","4987","0","[[1,0,0],[3,0],[0]]","1","[[2,0,0],[3,0],[1]]","14","0","","","","","","3","","","","","","","","",""
"","","","","","single-stim-button","200","662011","0.0-2.0-53.0-1.0","6101f78a3f9b44e8c17e8593","A3","batch1","","651","tol_toboard","","","","tol_peg_2","651","651","0","[[1,0,0],[3,2],[0]]","1","[[2,0,0],[3,0],[1]]","14","0","","","","","","3","","","","","","","","",""
"","","","","","single-stim-button","201","662596","0.0-2.0-53.1-0.1","6101f78a3f9b44e8c17e8593","A3","batch1","","585","tol_tohand","","","","tol_peg_1","585","585","0","[[0,0,0],[3,2],[0]]","2","[[2,0,0],[3,0],[1]]","14","0","","","","","","3","","","","","","","","",""
"","","","","","single-stim-button","202","663358","0.0-2.0-53.1-1.1","6101f78a3f9b44e8c17e8593","A3","batch1","","761","tol_toboard","","","","tol_peg_3","761","761","0","[[0,0,0],[3,2],[1]]","2","[[2,0,0],[3,0],[1]]","14","0","","","","","","3","","","","","","","","",""
"","","","","","single-stim-button","203","663832","0.0-2.0-53.2-0.2","6101f78a3f9b44e8c17e8593","A3","batch1","","473","tol_tohand","","","","tol_peg_2","473","473","0","[[0,0,0],[3,0],[1]]","3","[[2,0,0],[3,0],[1]]","14","0","","","","","","3","","","","","","","","",""
"","","","","","single-stim-button","204","664544","0.0-2.0-53.2-1.2","6101f78a3f9b44e8c17e8593","A3","batch1","","711","tol_toboard","","","","tol_peg_1","711","711","0","[[2,0,0],[3,0],[1]]","3","[[2,0,0],[3,0],[1]]","14","0","","","","","","3","","","","","","","","",""
"","","","","","poldrack-single-stim","205","665558","0.0-2.0-54.0","6101f78a3f9b44e8c17e8593","A3","batch1","","-1","tol_feedback","","","true","","1000","1000","500","","","","","","-1","none","true","4987","6045","","","","","","","","","",""
"","","","","","html-button-response","206","666542","0.0-2.0-55.0","6101f78a3f9b44e8c17e8593","A3","batch1","","983","tol_trial_num","<div class = centerbox><p class = center-block-text>problem <strong>16</strong> out of 25 problems</p></div>","0","","","","","","","","","","","","","","","","","","","","","","","","",""
"","","","","","single-stim-button","207","679856","0.0-2.0-56.0-0.0","6101f78a3f9b44e8c17e8593","A3","batch1","","13313","tol_tohand","","","","tol_peg_2","13313","13313","0","[[0,0,0],[2,0],[1]]","1","[[2,3,0],[1,0],[0]]","15","0","","","","","","7","","","","","","","","",""
"","","","","","single-stim-button","208","680637","0.0-2.0-56.0-1.0","6101f78a3f9b44e8c17e8593","A3","batch1","","779","tol_toboard","","","","tol_peg_1","779","779","0","[[3,0,0],[2,0],[1]]","1","[[2,3,0],[1,0],[0]]","15","0","","","","","","7","","","","","","","","",""
"","","","","","single-stim-button","209","681303","0.0-2.0-56.1-0.1","6101f78a3f9b44e8c17e8593","A3","batch1","","665","tol_tohand","","","","tol_peg_2","665","665","0","[[3,0,0],[0,0],[1]]","2","[[2,3,0],[1,0],[0]]","15","0","","","","","","7","","","","","","","","",""
"","","","","","single-stim-button","210","681969","0.0-2.0-56.1-1.1","6101f78a3f9b44e8c17e8593","A3","batch1","","665","tol_toboard","","","","tol_peg_1","665","665","0","[[3,2,0],[0,0],[1]]","2","[[2,3,0],[1,0],[0]]","15","0","","","","","","7","","","","","","","","",""
"","","","","","single-stim-button","211","682709","0.0-2.0-56.2-0.2","6101f78a3f9b44e8c17e8593","A3","batch1","","739","tol_tohand","","","","tol_peg_3","739","739","0","[[3,2,0],[0,0],[0]]","3","[[2,3,0],[1,0],[0]]","15","0","","","","","","7","","","","","","","","",""
"","","","","","single-stim-button","212","683327","0.0-2.0-56.2-1.2","6101f78a3f9b44e8c17e8593","A3","batch1","","617","tol_toboard","","","","tol_peg_2","617","617","0","[[3,2,0],[1,0],[0]]","3","[[2,3,0],[1,0],[0]]","15","0","","","","","","7","","","","","","","","",""
"","","","","","single-stim-button","213","684133","0.0-2.0-56.3-0.3","6101f78a3f9b44e8c17e8593","A3","batch1","","805","tol_tohand","","","","tol_peg_1","805","805","0","[[3,0,0],[1,0],[0]]","4","[[2,3,0],[1,0],[0]]","15","0","","","","","","7","","","","","","","","",""
"","","","","","single-stim-button","214","685055","0.0-2.0-56.3-1.3","6101f78a3f9b44e8c17e8593","A3","batch1","","921","tol_toboard","","","","tol_peg_2","921","921","0","[[3,0,0],[1,2],[0]]","4","[[2,3,0],[1,0],[0]]","15","0","","","","","","7","","","","","","","","",""
"","","","","","single-stim-button","215","685477","0.0-2.0-56.4-0.4","6101f78a3f9b44e8c17e8593","A3","batch1","","421","tol_tohand","","","","tol_peg_1","421","421","0","[[0,0,0],[1,2],[0]]","5","[[2,3,0],[1,0],[0]]","15","0","","","","","","7","","","","","","","","",""
"","","","","","single-stim-button","216","686255","0.0-2.0-56.4-1.4","6101f78a3f9b44e8c17e8593","A3","batch1","","777","tol_toboard","","","","tol_peg_3","777","777","0","[[0,0,0],[1,2],[3]]","5","[[2,3,0],[1,0],[0]]","15","0","","","","","","7","","","","","","","","",""
"","","","","","single-stim-button","217","687429","0.0-2.0-56.5-0.5","6101f78a3f9b44e8c17e8593","A3","batch1","","1174","tol_tohand","","","","tol_peg_2","1174","1174","0","[[0,0,0],[1,0],[3]]","6","[[2,3,0],[1,0],[0]]","15","0","","","","","","7","","","","","","","","",""
"","","","","","single-stim-button","218","688013","0.0-2.0-56.5-1.5","6101f78a3f9b44e8c17e8593","A3","batch1","","582","tol_toboard","","","","tol_peg_1","582","582","0","[[2,0,0],[1,0],[3]]","6","[[2,3,0],[1,0],[0]]","15","0","","","","","","7","","","","","","","","",""
"","","","","","single-stim-button","219","688703","0.0-2.0-56.6-0.6","6101f78a3f9b44e8c17e8593","A3","batch1","","689","tol_tohand","","","","tol_peg_3","689","689","0","[[2,0,0],[1,0],[0]]","7","[[2,3,0],[1,0],[0]]","15","0","","","","","","7","","","","","","","","",""
"","","","","","single-stim-button","220","689505","0.0-2.0-56.6-1.6","6101f78a3f9b44e8c17e8593","A3","batch1","","802","tol_toboard","","","","tol_peg_1","802","802","0","[[2,3,0],[1,0],[0]]","7","[[2,3,0],[1,0],[0]]","15","0","","","","","","7","","","","","","","","",""
"","","","","","poldrack-single-stim","221","690519","0.0-2.0-57.0","6101f78a3f9b44e8c17e8593","A3","batch1","","-1","tol_feedback","","","true","","1000","1000","500","","","","","","-1","none","true","13313","17806","","","","","","","","","",""
"","","","","","html-button-response","222","691367","0.0-2.0-58.0","6101f78a3f9b44e8c17e8593","A3","batch1","","846.8000000119209","tol_trial_num","<div class = centerbox><p class = center-block-text>problem <strong>17</strong> out of 25 problems</p></div>","0","","","","","","","","","","","","","","","","","","","","","","","","",""
"","","","","","single-stim-button","223","694579","0.0-2.0-59.0-0.0","6101f78a3f9b44e8c17e8593","A3","batch1","","3211","tol_tohand","","","","tol_peg_2","3211","3211","0","[[1,2,0],[0,0],[0]]","1","[[3,1,0],[2,0],[0]]","16","0","","","","","","5","","","","","","","","",""
"","","","","","single-stim-button","224","695247","0.0-2.0-59.0-1.0","6101f78a3f9b44e8c17e8593","A3","batch1","","667","tol_toboard","","","","tol_peg_3","667","667","0","[[1,2,0],[0,0],[3]]","1","[[3,1,0],[2,0],[0]]","16","0","","","","","","5","","","","","","","","",""
"","","","","","single-stim-button","225","695915","0.0-2.0-59.1-0.1","6101f78a3f9b44e8c17e8593","A3","batch1","","667","tol_tohand","","","","tol_peg_1","667","667","0","[[1,0,0],[0,0],[3]]","2","[[3,1,0],[2,0],[0]]","16","0","","","","","","5","","","","","","","","",""
"","","","","","single-stim-button","226","697047","0.0-2.0-59.1-1.1","6101f78a3f9b44e8c17e8593","A3","batch1","","1131","tol_toboard","","","","tol_peg_2","1131","1131","0","[[1,0,0],[2,0],[3]]","2","[[3,1,0],[2,0],[0]]","16","0","","","","","","5","","","","","","","","",""
"","","","","","single-stim-button","227","697519","0.0-2.0-59.2-0.2","6101f78a3f9b44e8c17e8593","A3","batch1","","471","tol_tohand","","","","tol_peg_3","471","471","0","[[1,0,0],[2,0],[0]]","3","[[3,1,0],[2,0],[0]]","16","0","","","","","","5","","","","","","","","",""
"","","","","","single-stim-button","228","699283","0.0-2.0-59.2-1.2","6101f78a3f9b44e8c17e8593","A3","batch1","","1763","tol_toboard","","","","tol_peg_3","1763","1763","0","[[1,0,0],[2,0],[3]]","3","[[3,1,0],[2,0],[0]]","16","0","","","","","","5","","","","","","","","",""
"","","","","","single-stim-button","229","700177","0.0-2.0-59.3-0.3","6101f78a3f9b44e8c17e8593","A3","batch1","","893","tol_tohand","","","","tol_peg_1","893","893","0","[[0,0,0],[2,0],[3]]","4","[[3,1,0],[2,0],[0]]","16","0","","","","","","5","","","","","","","","",""
"","","","","","single-stim-button","230","700958","0.0-2.0-59.3-1.3","6101f78a3f9b44e8c17e8593","A3","batch1","","779","tol_toboard","","","","tol_peg_2","779","779","0","[[0,0,0],[2,1],[3]]","4","[[3,1,0],[2,0],[0]]","16","0","","","","","","5","","","","","","","","",""
"","","","","","single-stim-button","231","701387","0.0-2.0-59.4-0.4","6101f78a3f9b44e8c17e8593","A3","batch1","","429","tol_tohand","","","","tol_peg_3","429","429","0","[[0,0,0],[2,1],[0]]","5","[[3,1,0],[2,0],[0]]","16","0","","","","","","5","","","","","","","","",""
"","","","","","single-stim-button","232","702046","0.0-2.0-59.4-1.4","6101f78a3f9b44e8c17e8593","A3","batch1","","657","tol_toboard","","","","tol_peg_1","657","657","0","[[3,0,0],[2,1],[0]]","5","[[3,1,0],[2,0],[0]]","16","0","","","","","","5","","","","","","","","",""
"","","","","","single-stim-button","233","702541","0.0-2.0-59.5-0.5","6101f78a3f9b44e8c17e8593","A3","batch1","","494","tol_tohand","","","","tol_peg_2","494","494","0","[[3,0,0],[2,0],[0]]","6","[[3,1,0],[2,0],[0]]","16","0","","","","","","5","","","","","","","","",""
"","","","","","single-stim-button","234","703809","0.0-2.0-59.5-1.5","6101f78a3f9b44e8c17e8593","A3","batch1","","1267","tol_toboard","","","","tol_peg_1","1267","1267","0","[[3,1,0],[2,0],[0]]","6","[[3,1,0],[2,0],[0]]","16","0","","","","","","5","","","","","","","","",""
"","","","","","poldrack-single-stim","235","704818","0.0-2.0-60.0","6101f78a3f9b44e8c17e8593","A3","batch1","","-1","tol_feedback","","","true","","1000","1000","500","","","","","","-1","none","true","3211","6165","","","","","","","","","",""
"","","","","","html-button-response","236","706889","0.0-2.0-61.0","6101f78a3f9b44e8c17e8593","A3","batch1","","2069.900000035763","tol_trial_num","<div class = centerbox><p class = center-block-text>problem <strong>18</strong> out of 25 problems</p></div>","0","","","","","","","","","","","","","","","","","","","","","","","","",""
"","","","","","single-stim-button","237","717252","0.0-2.0-62.0-0.0","6101f78a3f9b44e8c17e8593","A3","batch1","","10361","tol_tohand","","","","tol_peg_2","10361","10361","0","[[1,2,0],[0,0],[0]]","1","[[3,0,0],[2,0],[1]]","17","0","","","","","","5","","","","","","","","",""
"","","","","","single-stim-button","238","718664","0.0-2.0-62.0-1.0","6101f78a3f9b44e8c17e8593","A3","batch1","","1411","tol_toboard","","","","tol_peg_3","1411","1411","0","[[1,2,0],[0,0],[3]]","1","[[3,0,0],[2,0],[1]]","17","0","","","","","","5","","","","","","","","",""
"","","","","","single-stim-button","239","719222","0.0-2.0-62.1-0.1","6101f78a3f9b44e8c17e8593","A3","batch1","","557","tol_tohand","","","","tol_peg_1","557","557","0","[[1,0,0],[0,0],[3]]","2","[[3,0,0],[2,0],[1]]","17","0","","","","","","5","","","","","","","","",""
"","","","","","single-stim-button","240","719885","0.0-2.0-62.1-1.1","6101f78a3f9b44e8c17e8593","A3","batch1","","663","tol_toboard","","","","tol_peg_2","663","663","0","[[1,0,0],[2,0],[3]]","2","[[3,0,0],[2,0],[1]]","17","0","","","","","","5","","","","","","","","",""
"","","","","","single-stim-button","241","721250","0.0-2.0-62.2-0.2","6101f78a3f9b44e8c17e8593","A3","batch1","","1363","tol_tohand","","","","tol_peg_1","1363","1363","0","[[0,0,0],[2,0],[3]]","3","[[3,0,0],[2,0],[1]]","17","0","","","","","","5","","","","","","","","",""
"","","","","","single-stim-button","242","721891","0.0-2.0-62.2-1.2","6101f78a3f9b44e8c17e8593","A3","batch1","","641","tol_toboard","","","","tol_peg_2","641","641","0","[[0,0,0],[2,1],[3]]","3","[[3,0,0],[2,0],[1]]","17","0","","","","","","5","","","","","","","","",""
"","","","","","single-stim-button","243","722432","0.0-2.0-62.3-0.3","6101f78a3f9b44e8c17e8593","A3","batch1","","539","tol_tohand","","","","tol_peg_3","539","539","0","[[0,0,0],[2,1],[0]]","4","[[3,0,0],[2,0],[1]]","17","0","","","","","","5","","","","","","","","",""
"","","","","","single-stim-button","244","723274","0.0-2.0-62.3-1.3","6101f78a3f9b44e8c17e8593","A3","batch1","","841","tol_toboard","","","","tol_peg_1","841","841","0","[[3,0,0],[2,1],[0]]","4","[[3,0,0],[2,0],[1]]","17","0","","","","","","5","","","","","","","","",""
"","","","","","single-stim-button","245","724086","0.0-2.0-62.4-0.4","6101f78a3f9b44e8c17e8593","A3","batch1","","811","tol_tohand","","","","tol_peg_2","811","811","0","[[3,0,0],[2,0],[0]]","5","[[3,0,0],[2,0],[1]]","17","0","","","","","","5","","","","","","","","",""
"","","","","","single-stim-button","246","724896","0.0-2.0-62.4-1.4","6101f78a3f9b44e8c17e8593","A3","batch1","","809","tol_toboard","","","","tol_peg_3","809","809","0","[[3,0,0],[2,0],[1]]","5","[[3,0,0],[2,0],[1]]","17","0","","","","","","5","","","","","","","","",""
"","","","","","poldrack-single-stim","247","725903","0.0-2.0-63.0","6101f78a3f9b44e8c17e8593","A3","batch1","","-1","tol_feedback","","","true","","1000","1000","500","","","","","","-1","none","true","10361","13631","","","","","","","","","",""
"","","","","","html-button-response","248","727218","0.0-2.0-64.0","6101f78a3f9b44e8c17e8593","A3","batch1","","1313.199999988079","tol_trial_num","<div class = centerbox><p class = center-block-text>problem <strong>19</strong> out of 25 problems</p></div>","0","","","","","","","","","","","","","","","","","","","","","","","","",""
"","","","","","single-stim-button","249","728878","0.0-2.0-65.0-0.0","6101f78a3f9b44e8c17e8593","A3","batch1","","1659","tol_tohand","","","","tol_peg_2","1659","1659","0","[[1,2,0],[0,0],[0]]","1","[[0,0,0],[1,2],[3]]","18","0","","","","","","7","","","","","","","","",""
"","","","","","single-stim-button","250","733412","0.0-2.0-65.0-1.0","6101f78a3f9b44e8c17e8593","A3","batch1","","4534","tol_toboard","","","","tol_peg_3","4534","4534","0","[[1,2,0],[0,0],[3]]","1","[[0,0,0],[1,2],[3]]","18","0","","","","","","7","","","","","","","","",""
"","","","","","single-stim-button","251","736230","0.0-2.0-65.1-0.1","6101f78a3f9b44e8c17e8593","A3","batch1","","2817","tol_tohand","","","","tol_peg_1","2817","2817","0","[[1,0,0],[0,0],[3]]","2","[[0,0,0],[1,2],[3]]","18","0","","","","","","7","","","","","","","","",""
"","","","","","single-stim-button","252","736990","0.0-2.0-65.1-1.1","6101f78a3f9b44e8c17e8593","A3","batch1","","759","tol_toboard","","","","tol_peg_2","759","759","0","[[1,0,0],[2,0],[3]]","2","[[0,0,0],[1,2],[3]]","18","0","","","","","","7","","","","","","","","",""
"","","","","","single-stim-button","253","737540","0.0-2.0-65.2-0.2","6101f78a3f9b44e8c17e8593","A3","batch1","","549","tol_tohand","","","","tol_peg_1","549","549","0","[[0,0,0],[2,0],[3]]","3","[[0,0,0],[1,2],[3]]","18","0","","","","","","7","","","","","","","","",""
"","","","","","single-stim-button","254","738308","0.0-2.0-65.2-1.2","6101f78a3f9b44e8c17e8593","A3","batch1","","767","tol_toboard","","","","tol_peg_2","767","767","0","[[0,0,0],[2,1],[3]]","3","[[0,0,0],[1,2],[3]]","18","0","","","","","","7","","","","","","","","",""
"","","","","","single-stim-button","255","738804","0.0-2.0-65.3-0.3","6101f78a3f9b44e8c17e8593","A3","batch1","","495","tol_tohand","","","","tol_peg_3","495","495","0","[[0,0,0],[2,1],[0]]","4","[[0,0,0],[1,2],[3]]","18","0","","","","","","7","","","","","","","","",""
"","","","","","single-stim-button","256","739784","0.0-2.0-65.3-1.3","6101f78a3f9b44e8c17e8593","A3","batch1","","979","tol_toboard","","","","tol_peg_1","979","979","0","[[3,0,0],[2,1],[0]]","4","[[0,0,0],[1,2],[3]]","18","0","","","","","","7","","","","","","","","",""
"","","","","","single-stim-button","257","741238","0.0-2.0-65.4-0.4","6101f78a3f9b44e8c17e8593","A3","batch1","","1453","tol_tohand","","","","tol_peg_2","1453","1453","0","[[3,0,0],[2,0],[0]]","5","[[0,0,0],[1,2],[3]]","18","0","","","","","","7","","","","","","","","",""
"","","","","","single-stim-button","258","741760","0.0-2.0-65.4-1.4","6101f78a3f9b44e8c17e8593","A3","batch1","","521","tol_toboard","","","","tol_peg_3","521","521","0","[[3,0,0],[2,0],[1]]","5","[[0,0,0],[1,2],[3]]","18","0","","","","","","7","","","","","","","","",""
"","","","","","single-stim-button","259","742474","0.0-2.0-65.5-0.5","6101f78a3f9b44e8c17e8593","A3","batch1","","713","tol_tohand","","","","tol_peg_2","713","713","0","[[3,0,0],[0,0],[1]]","6","[[0,0,0],[1,2],[3]]","18","0","","","","","","7","","","","","","","","",""
"","","","","","single-stim-button","260","743213","0.0-2.0-65.5-1.5","6101f78a3f9b44e8c17e8593","A3","batch1","","737","tol_toboard","","","","tol_peg_1","737","737","0","[[3,2,0],[0,0],[1]]","6","[[0,0,0],[1,2],[3]]","18","0","","","","","","7","","","","","","","","",""
"","","","","","single-stim-button","261","743999","0.0-2.0-65.6-0.6","6101f78a3f9b44e8c17e8593","A3","batch1","","785","tol_tohand","","","","tol_peg_3","785","785","0","[[3,2,0],[0,0],[0]]","7","[[0,0,0],[1,2],[3]]","18","0","","","","","","7","","","","","","","","",""
"","","","","","single-stim-button","262","745065","0.0-2.0-65.6-1.6","6101f78a3f9b44e8c17e8593","A3","batch1","","1065","tol_toboard","","","","tol_peg_2","1065","1065","0","[[3,2,0],[1,0],[0]]","7","[[0,0,0],[1,2],[3]]","18","0","","","","","","7","","","","","","","","",""
"","","","","","single-stim-button","263","745677","0.0-2.0-65.7-0.7","6101f78a3f9b44e8c17e8593","A3","batch1","","611","tol_tohand","","","","tol_peg_1","611","611","0","[[3,0,0],[1,0],[0]]","8","[[0,0,0],[1,2],[3]]","18","0","","","","","","7","","","","","","","","",""
"","","","","","single-stim-button","264","746229","0.0-2.0-65.7-1.7","6101f78a3f9b44e8c17e8593","A3","batch1","","551","tol_toboard","","","","tol_peg_2","551","551","0","[[3,0,0],[1,2],[0]]","8","[[0,0,0],[1,2],[3]]","18","0","","","","","","7","","","","","","","","",""
"","","","","","single-stim-button","265","746995","0.0-2.0-65.8-0.8","6101f78a3f9b44e8c17e8593","A3","batch1","","765","tol_tohand","","","","tol_peg_1","765","765","0","[[0,0,0],[1,2],[0]]","9","[[0,0,0],[1,2],[3]]","18","0","","","","","","7","","","","","","","","",""
"","","","","","single-stim-button","266","747771","0.0-2.0-65.8-1.8","6101f78a3f9b44e8c17e8593","A3","batch1","","775","tol_toboard","","","","tol_peg_3","775","775","0","[[0,0,0],[1,2],[3]]","9","[[0,0,0],[1,2],[3]]","18","0","","","","","","7","","","","","","","","",""
"","","","","","poldrack-single-stim","267","748785","0.0-2.0-66.0","6101f78a3f9b44e8c17e8593","A3","batch1","","-1","tol_feedback","","","true","","1000","1000","500","","","","","","-1","none","true","1659","9847","","","","","","","","","",""
"","","","","","html-button-response","268","749633","0.0-2.0-67.0","6101f78a3f9b44e8c17e8593","A3","batch1","","846.6000000238419","tol_trial_num","<div class = centerbox><p class = center-block-text>problem <strong>20</strong> out of 25 problems</p></div>","0","","","","","","","","","","","","","","","","","","","","","","","","",""
"","","","","","single-stim-button","269","751407","0.0-2.0-68.0-0.0","6101f78a3f9b44e8c17e8593","A3","batch1","","1773","tol_tohand","","","","tol_peg_2","1773","1773","0","[[1,2,0],[0,0],[0]]","1","[[2,1,0],[0,0],[3]]","19","0","","","","","","5","","","","","","","","",""
"","","","","","single-stim-button","270","752395","0.0-2.0-68.0-1.0","6101f78a3f9b44e8c17e8593","A3","batch1","","987","tol_toboard","","","","tol_peg_3","987","987","0","[[1,2,0],[0,0],[3]]","1","[[2,1,0],[0,0],[3]]","19","0","","","","","","5","","","","","","","","",""
"","","","","","single-stim-button","271","753811","0.0-2.0-68.1-0.1","6101f78a3f9b44e8c17e8593","A3","batch1","","1416","tol_tohand","","","","tol_peg_1","1416","1416","0","[[1,0,0],[0,0],[3]]","2","[[2,1,0],[0,0],[3]]","19","0","","","","","","5","","","","","","","","",""
"","","","","","single-stim-button","272","754397","0.0-2.0-68.1-1.1","6101f78a3f9b44e8c17e8593","A3","batch1","","585","tol_toboard","","","","tol_peg_2","585","585","0","[[1,0,0],[2,0],[3]]","2","[[2,1,0],[0,0],[3]]","19","0","","","","","","5","","","","","","","","",""
"","","","","","single-stim-button","273","756836","0.0-2.0-68.2-0.2","6101f78a3f9b44e8c17e8593","A3","batch1","","2439","tol_tohand","","","","tol_peg_3","2439","2439","0","[[1,0,0],[2,0],[0]]","3","[[2,1,0],[0,0],[3]]","19","0","","","","","","5","","","","","","","","",""
"","","","","","single-stim-button","274","757551","0.0-2.0-68.2-1.2","6101f78a3f9b44e8c17e8593","A3","batch1","","713","tol_toboard","","","","tol_peg_2","713","713","0","[[1,0,0],[2,3],[0]]","3","[[2,1,0],[0,0],[3]]","19","0","","","","","","5","","","","","","","","",""
"","","","","","single-stim-button","275","758103","0.0-2.0-68.3-0.3","6101f78a3f9b44e8c17e8593","A3","batch1","","552","tol_tohand","","","","tol_peg_1","552","552","0","[[0,0,0],[2,3],[0]]","4","[[2,1,0],[0,0],[3]]","19","0","","","","","","5","","","","","","","","",""
"","","","","","single-stim-button","276","758865","0.0-2.0-68.3-1.3","6101f78a3f9b44e8c17e8593","A3","batch1","","760","tol_toboard","","","","tol_peg_3","760","760","0","[[0,0,0],[2,3],[1]]","4","[[2,1,0],[0,0],[3]]","19","0","","","","","","5","","","","","","","","",""
"","","","","","single-stim-button","277","760591","0.0-2.0-68.4-0.4","6101f78a3f9b44e8c17e8593","A3","batch1","","1726","tol_tohand","","","","tol_peg_2","1726","1726","0","[[0,0,0],[2,0],[1]]","5","[[2,1,0],[0,0],[3]]","19","0","","","","","","5","","","","","","","","",""
"","","","","","single-stim-button","278","766041","0.0-2.0-68.4-1.4","6101f78a3f9b44e8c17e8593","A3","batch1","","5450","tol_toboard","","","","tol_peg_1","5450","5450","0","[[3,0,0],[2,0],[1]]","5","[[2,1,0],[0,0],[3]]","19","0","","","","","","5","","","","","","","","",""
"","","","","","single-stim-button","279","768829","0.0-2.0-68.5-0.5","6101f78a3f9b44e8c17e8593","A3","batch1","","2787","tol_tohand","","","","tol_peg_3","2787","2787","0","[[3,0,0],[2,0],[0]]","6","[[2,1,0],[0,0],[3]]","19","0","","","","","","5","","","","","","","","",""
"","","","","","single-stim-button","280","769711","0.0-2.0-68.5-1.5","6101f78a3f9b44e8c17e8593","A3","batch1","","881","tol_toboard","","","","tol_peg_1","881","881","0","[[3,1,0],[2,0],[0]]","6","[[2,1,0],[0,0],[3]]","19","0","","","","","","5","","","","","","","","",""
"","","","","","single-stim-button","281","770241","0.0-2.0-68.6-0.6","6101f78a3f9b44e8c17e8593","A3","batch1","","529","tol_tohand","","","","tol_peg_2","529","529","0","[[3,1,0],[0,0],[0]]","7","[[2,1,0],[0,0],[3]]","19","0","","","","","","5","","","","","","","","",""
"","","","","","single-stim-button","282","771369","0.0-2.0-68.6-1.6","6101f78a3f9b44e8c17e8593","A3","batch1","","1127","tol_toboard","","","","tol_peg_3","1127","1127","0","[[3,1,0],[0,0],[2]]","7","[[2,1,0],[0,0],[3]]","19","0","","","","","","5","","","","","","","","",""
"","","","","","single-stim-button","283","772341","0.0-2.0-68.7-0.7","6101f78a3f9b44e8c17e8593","A3","batch1","","971","tol_tohand","","","","tol_peg_1","971","971","0","[[3,0,0],[0,0],[2]]","8","[[2,1,0],[0,0],[3]]","19","0","","","","","","5","","","","","","","","",""
"","","","","","single-stim-button","284","772979","0.0-2.0-68.7-1.7","6101f78a3f9b44e8c17e8593","A3","batch1","","637","tol_toboard","","","","tol_peg_2","637","637","0","[[3,0,0],[1,0],[2]]","8","[[2,1,0],[0,0],[3]]","19","0","","","","","","5","","","","","","","","",""
"","","","","","single-stim-button","285","773511","0.0-2.0-68.8-0.8","6101f78a3f9b44e8c17e8593","A3","batch1","","531","tol_tohand","","","","tol_peg_1","531","531","0","[[0,0,0],[1,0],[2]]","9","[[2,1,0],[0,0],[3]]","19","0","","","","","","5","","","","","","","","",""
"","","","","","single-stim-button","286","774085","0.0-2.0-68.8-1.8","6101f78a3f9b44e8c17e8593","A3","batch1","","573","tol_toboard","","","","tol_peg_2","573","573","0","[[0,0,0],[1,3],[2]]","9","[[2,1,0],[0,0],[3]]","19","0","","","","","","5","","","","","","","","",""
"","","","","","single-stim-button","287","774585","0.0-2.0-68.9-0.9","6101f78a3f9b44e8c17e8593","A3","batch1","","499","tol_tohand","","","","tol_peg_3","499","499","0","[[0,0,0],[1,3],[0]]","10","[[2,1,0],[0,0],[3]]","19","0","","","","","","5","","","","","","","","",""
"","","","","","single-stim-button","288","775235","0.0-2.0-68.9-1.9","6101f78a3f9b44e8c17e8593","A3","batch1","","649","tol_toboard","","","","tol_peg_1","649","649","0","[[2,0,0],[1,3],[0]]","10","[[2,1,0],[0,0],[3]]","19","0","","","","","","5","","","","","","","","",""
"","","","","","single-stim-button","289","775739","0.0-2.0-68.10-0.10","6101f78a3f9b44e8c17e8593","A3","batch1","","503","tol_tohand","","","","tol_peg_2","503","503","0","[[2,0,0],[1,0],[0]]","11","[[2,1,0],[0,0],[3]]","19","0","","","","","","5","","","","","","","","",""
"","","","","","single-stim-button","290","776510","0.0-2.0-68.10-1.10","6101f78a3f9b44e8c17e8593","A3","batch1","","769","tol_toboard","","","","tol_peg_3","769","769","0","[[2,0,0],[1,0],[3]]","11","[[2,1,0],[0,0],[3]]","19","0","","","","","","5","","","","","","","","",""
"","","","","","single-stim-button","291","776918","0.0-2.0-68.11-0.11","6101f78a3f9b44e8c17e8593","A3","batch1","","407","tol_tohand","","","","tol_peg_2","407","407","0","[[2,0,0],[0,0],[3]]","12","[[2,1,0],[0,0],[3]]","19","0","","","","","","5","","","","","","","","",""
"","","","","","single-stim-button","292","777399","0.0-2.0-68.11-1.11","6101f78a3f9b44e8c17e8593","A3","batch1","","481","tol_toboard","","","","tol_peg_1","481","481","0","[[2,1,0],[0,0],[3]]","12","[[2,1,0],[0,0],[3]]","19","0","","","","","","5","","","","","","","","",""
"","","","","","poldrack-single-stim","293","778408","0.0-2.0-69.0","6101f78a3f9b44e8c17e8593","A3","batch1","","-1","tol_feedback","","","true","","1000","1000","500","","","","","","-1","none","true","1773","14133","","","","","","","","","",""
"","","","","","html-button-response","294","779369","0.0-2.0-70.0","6101f78a3f9b44e8c17e8593","A3","batch1","","960.1999999880791","tol_trial_num","<div class = centerbox><p class = center-block-text>problem <strong>21</strong> out of 25 problems</p></div>","0","","","","","","","","","","","","","","","","","","","","","","","","",""
"","","","","","single-stim-button","295","786892","0.0-2.0-71.0-0.0","6101f78a3f9b44e8c17e8593","A3","batch1","","7521","tol_tohand","","","","tol_peg_1","7521","7521","0","[[1,0,0],[3,0],[0]]","1","[[3,2,0],[0,0],[1]]","20","0","","","","","","6","","","","","","","","",""
"","","","","","single-stim-button","296","787636","0.0-2.0-71.0-1.0","6101f78a3f9b44e8c17e8593","A3","batch1","","742","tol_toboard","","","","tol_peg_2","742","742","0","[[1,0,0],[3,2],[0]]","1","[[3,2,0],[0,0],[1]]","20","0","","","","","","6","","","","","","","","",""
"","","","","","single-stim-button","297","788160","0.0-2.0-71.1-0.1","6101f78a3f9b44e8c17e8593","A3","batch1","","523","tol_tohand","","","","tol_peg_1","523","523","0","[[0,0,0],[3,2],[0]]","2","[[3,2,0],[0,0],[1]]","20","0","","","","","","6","","","","","","","","",""
"","","","","","single-stim-button","298","789338","0.0-2.0-71.1-1.1","6101f78a3f9b44e8c17e8593","A3","batch1","","1177","tol_toboard","","","","tol_peg_3","1177","1177","0","[[0,0,0],[3,2],[1]]","2","[[3,2,0],[0,0],[1]]","20","0","","","","","","6","","","","","","","","",""
"","","","","","single-stim-button","299","790052","0.0-2.0-71.2-0.2","6101f78a3f9b44e8c17e8593","A3","batch1","","713","tol_tohand","","","","tol_peg_2","713","713","0","[[0,0,0],[3,0],[1]]","3","[[3,2,0],[0,0],[1]]","20","0","","","","","","6","","","","","","","","",""
"","","","","","single-stim-button","300","791002","0.0-2.0-71.2-1.2","6101f78a3f9b44e8c17e8593","A3","batch1","","950","tol_toboard","","","","tol_peg_1","950","950","0","[[2,0,0],[3,0],[1]]","3","[[3,2,0],[0,0],[1]]","20","0","","","","","","6","","","","","","","","",""
"","","","","","single-stim-button","301","792798","0.0-2.0-71.3-0.3","6101f78a3f9b44e8c17e8593","A3","batch1","","1795","tol_tohand","","","","tol_peg_2","1795","1795","0","[[2,0,0],[0,0],[1]]","4","[[3,2,0],[0,0],[1]]","20","0","","","","","","6","","","","","","","","",""
"","","","","","single-stim-button","302","793482","0.0-2.0-71.3-1.3","6101f78a3f9b44e8c17e8593","A3","batch1","","682","tol_toboard","","","","tol_peg_1","682","682","0","[[2,3,0],[0,0],[1]]","4","[[3,2,0],[0,0],[1]]","20","0","","","","","","6","","","","","","","","",""
"","","","","","single-stim-button","303","794052","0.0-2.0-71.4-0.4","6101f78a3f9b44e8c17e8593","A3","batch1","","570","tol_tohand","","","","tol_peg_3","570","570","0","[[2,3,0],[0,0],[0]]","5","[[3,2,0],[0,0],[1]]","20","0","","","","","","6","","","","","","","","",""
"","","","","","single-stim-button","304","794494","0.0-2.0-71.4-1.4","6101f78a3f9b44e8c17e8593","A3","batch1","","441","tol_toboard","","","","tol_peg_2","441","441","0","[[2,3,0],[1,0],[0]]","5","[[3,2,0],[0,0],[1]]","20","0","","","","","","6","","","","","","","","",""
"","","","","","single-stim-button","305","795232","0.0-2.0-71.5-0.5","6101f78a3f9b44e8c17e8593","A3","batch1","","737","tol_tohand","","","","tol_peg_1","737","737","0","[[2,0,0],[1,0],[0]]","6","[[3,2,0],[0,0],[1]]","20","0","","","","","","6","","","","","","","","",""
"","","","","","single-stim-button","306","795872","0.0-2.0-71.5-1.5","6101f78a3f9b44e8c17e8593","A3","batch1","","639","tol_toboard","","","","tol_peg_3","639","639","0","[[2,0,0],[1,0],[3]]","6","[[3,2,0],[0,0],[1]]","20","0","","","","","","6","","","","","","","","",""
"","","","","","single-stim-button","307","796810","0.0-2.0-71.6-0.6","6101f78a3f9b44e8c17e8593","A3","batch1","","937","tol_tohand","","","","tol_peg_1","937","937","0","[[0,0,0],[1,0],[3]]","7","[[3,2,0],[0,0],[1]]","20","0","","","","","","6","","","","","","","","",""
"","","","","","single-stim-button","308","797470","0.0-2.0-71.6-1.6","6101f78a3f9b44e8c17e8593","A3","batch1","","660","tol_toboard","","","","tol_peg_2","660","660","0","[[0,0,0],[1,2],[3]]","7","[[3,2,0],[0,0],[1]]","20","0","","","","","","6","","","","","","","","",""
"","","","","","single-stim-button","309","797934","0.0-2.0-71.7-0.7","6101f78a3f9b44e8c17e8593","A3","batch1","","463","tol_tohand","","","","tol_peg_3","463","463","0","[[0,0,0],[1,2],[0]]","8","[[3,2,0],[0,0],[1]]","20","0","","","","","","6","","","","","","","","",""
"","","","","","single-stim-button","310","798532","0.0-2.0-71.7-1.7","6101f78a3f9b44e8c17e8593","A3","batch1","","597","tol_toboard","","","","tol_peg_1","597","597","0","[[3,0,0],[1,2],[0]]","8","[[3,2,0],[0,0],[1]]","20","0","","","","","","6","","","","","","","","",""
"","","","","","single-stim-button","311","799740","0.0-2.0-71.8-0.8","6101f78a3f9b44e8c17e8593","A3","batch1","","1207","tol_tohand","","","","tol_peg_2","1207","1207","0","[[3,0,0],[1,0],[0]]","9","[[3,2,0],[0,0],[1]]","20","0","","","","","","6","","","","","","","","",""
"","","","","","single-stim-button","312","800256","0.0-2.0-71.8-1.8","6101f78a3f9b44e8c17e8593","A3","batch1","","516","tol_toboard","","","","tol_peg_1","516","516","0","[[3,2,0],[1,0],[0]]","9","[[3,2,0],[0,0],[1]]","20","0","","","","","","6","","","","","","","","",""
"","","","","","single-stim-button","313","801009","0.0-2.0-71.9-0.9","6101f78a3f9b44e8c17e8593","A3","batch1","","751","tol_tohand","","","","tol_peg_2","751","751","0","[[3,2,0],[0,0],[0]]","10","[[3,2,0],[0,0],[1]]","20","0","","","","","","6","","","","","","","","",""
"","","","","","single-stim-button","314","801650","0.0-2.0-71.9-1.9","6101f78a3f9b44e8c17e8593","A3","batch1","","641","tol_toboard","","","","tol_peg_3","641","641","0","[[3,2,0],[0,0],[1]]","10","[[3,2,0],[0,0],[1]]","20","0","","","","","","6","","","","","","","","",""
"","","","","","poldrack-single-stim","315","802658","0.0-2.0-72.0","6101f78a3f9b44e8c17e8593","A3","batch1","","-1","tol_feedback","","","true","","1000","1000","500","","","","","","-1","none","true","7521","15217","","","","","","","","","",""
"","","","","","html-button-response","316","803752","0.0-2.0-73.0","6101f78a3f9b44e8c17e8593","A3","batch1","","1093.199999988079","tol_trial_num","<div class = centerbox><p class = center-block-text>problem <strong>22</strong> out of 25 problems</p></div>","0","","","","","","","","","","","","","","","","","","","","","","","","",""
"","","","","","single-stim-button","317","808966","0.0-2.0-74.0-0.0","6101f78a3f9b44e8c17e8593","A3","batch1","","5213","tol_tohand","","","","tol_peg_1","5213","5213","0","[[0,0,0],[2,3],[0]]","1","[[0,0,0],[1,2],[3]]","21","0","","","","","","6","","","","","","","","",""
"","","","","","single-stim-button","318","809832","0.0-2.0-74.0-1.0","6101f78a3f9b44e8c17e8593","A3","batch1","","865","tol_toboard","","","","tol_peg_3","865","865","0","[[0,0,0],[2,3],[1]]","1","[[0,0,0],[1,2],[3]]","21","0","","","","","","6","","","","","","","","",""
"","","","","","single-stim-button","319","811241","0.0-2.0-74.1-0.1","6101f78a3f9b44e8c17e8593","A3","batch1","","1407","tol_tohand","","","","tol_peg_2","1407","1407","0","[[0,0,0],[2,0],[1]]","2","[[0,0,0],[1,2],[3]]","21","0","","","","","","6","","","","","","","","",""
"","","","","","single-stim-button","320","811889","0.0-2.0-74.1-1.1","6101f78a3f9b44e8c17e8593","A3","batch1","","647","tol_toboard","","","","tol_peg_1","647","647","0","[[3,0,0],[2,0],[1]]","2","[[0,0,0],[1,2],[3]]","21","0","","","","","","6","","","","","","","","",""
"","","","","","single-stim-button","321","812611","0.0-2.0-74.2-0.2","6101f78a3f9b44e8c17e8593","A3","batch1","","721","tol_tohand","","","","tol_peg_2","721","721","0","[[3,0,0],[0,0],[1]]","3","[[0,0,0],[1,2],[3]]","21","0","","","","","","6","","","","","","","","",""
"","","","","","single-stim-button","322","813292","0.0-2.0-74.2-1.2","6101f78a3f9b44e8c17e8593","A3","batch1","","681","tol_toboard","","","","tol_peg_1","681","681","0","[[3,2,0],[0,0],[1]]","3","[[0,0,0],[1,2],[3]]","21","0","","","","","","6","","","","","","","","",""
"","","","","","single-stim-button","323","814096","0.0-2.0-74.3-0.3","6101f78a3f9b44e8c17e8593","A3","batch1","","803","tol_tohand","","","","tol_peg_3","803","803","0","[[3,2,0],[0,0],[0]]","4","[[0,0,0],[1,2],[3]]","21","0","","","","","","6","","","","","","","","",""
"","","","","","single-stim-button","324","814584","0.0-2.0-74.3-1.3","6101f78a3f9b44e8c17e8593","A3","batch1","","488","tol_toboard","","","","tol_peg_2","488","488","0","[[3,2,0],[1,0],[0]]","4","[[0,0,0],[1,2],[3]]","21","0","","","","","","6","","","","","","","","",""
"","","","","","single-stim-button","325","815306","0.0-2.0-74.4-0.4","6101f78a3f9b44e8c17e8593","A3","batch1","","721","tol_tohand","","","","tol_peg_1","721","721","0","[[3,0,0],[1,0],[0]]","5","[[0,0,0],[1,2],[3]]","21","0","","","","","","6","","","","","","","","",""
"","","","","","single-stim-button","326","815828","0.0-2.0-74.4-1.4","6101f78a3f9b44e8c17e8593","A3","batch1","","521","tol_toboard","","","","tol_peg_2","521","521","0","[[3,0,0],[1,2],[0]]","5","[[0,0,0],[1,2],[3]]","21","0","","","","","","6","","","","","","","","",""
"","","","","","single-stim-button","327","816260","0.0-2.0-74.5-0.5","6101f78a3f9b44e8c17e8593","A3","batch1","","431","tol_tohand","","","","tol_peg_1","431","431","0","[[0,0,0],[1,2],[0]]","6","[[0,0,0],[1,2],[3]]","21","0","","","","","","6","","","","","","","","",""
"","","","","","single-stim-button","328","817193","0.0-2.0-74.5-1.5","6101f78a3f9b44e8c17e8593","A3","batch1","","931","tol_toboard","","","","tol_peg_3","931","931","0","[[0,0,0],[1,2],[3]]","6","[[0,0,0],[1,2],[3]]","21","0","","","","","","6","","","","","","","","",""
"","","","","","poldrack-single-stim","329","818201","0.0-2.0-75.0","6101f78a3f9b44e8c17e8593","A3","batch1","","-1","tol_feedback","","","true","","1000","1000","500","","","","","","-1","none","true","5213","9296","","","","","","","","","",""
"","","","","","html-button-response","330","819336","0.0-2.0-76.0","6101f78a3f9b44e8c17e8593","A3","batch1","","1133.300000011921","tol_trial_num","<div class = centerbox><p class = center-block-text>problem <strong>23</strong> out of 25 problems</p></div>","0","","","","","","","","","","","","","","","","","","","","","","","","",""
"","","","","","single-stim-button","331","823886","0.0-2.0-77.0-0.0","6101f78a3f9b44e8c17e8593","A3","batch1","","4549","tol_tohand","","","","tol_peg_1","4549","4549","0","[[1,0,0],[3,0],[0]]","1","[[1,3,2],[0,0],[0]]","22","0","","","","","","3","","","","","","","","",""
"","","","","","single-stim-button","332","824713","0.0-2.0-77.0-1.0","6101f78a3f9b44e8c17e8593","A3","batch1","","825","tol_toboard","","","","tol_peg_3","825","825","0","[[1,0,0],[3,0],[2]]","1","[[1,3,2],[0,0],[0]]","22","0","","","","","","3","","","","","","","","",""
"","","","","","single-stim-button","333","825190","0.0-2.0-77.1-0.1","6101f78a3f9b44e8c17e8593","A3","batch1","","476","tol_tohand","","","","tol_peg_2","476","476","0","[[1,0,0],[0,0],[2]]","2","[[1,3,2],[0,0],[0]]","22","0","","","","","","3","","","","","","","","",""
"","","","","","single-stim-button","334","825978","0.0-2.0-77.1-1.1","6101f78a3f9b44e8c17e8593","A3","batch1","","787","tol_toboard","","","","tol_peg_1","787","787","0","[[1,3,0],[0,0],[2]]","2","[[1,3,2],[0,0],[0]]","22","0","","","","","","3","","","","","","","","",""
"","","","","","single-stim-button","335","826533","0.0-2.0-77.2-0.2","6101f78a3f9b44e8c17e8593","A3","batch1","","554","tol_tohand","","","","tol_peg_3","554","554","0","[[1,3,0],[0,0],[0]]","3","[[1,3,2],[0,0],[0]]","22","0","","","","","","3","","","","","","","","",""
"","","","","","single-stim-button","336","827446","0.0-2.0-77.2-1.2","6101f78a3f9b44e8c17e8593","A3","batch1","","912","tol_toboard","","","","tol_peg_1","912","912","0","[[1,3,2],[0,0],[0]]","3","[[1,3,2],[0,0],[0]]","22","0","","","","","","3","","","","","","","","",""
"","","","","","poldrack-single-stim","337","828456","0.0-2.0-78.0","6101f78a3f9b44e8c17e8593","A3","batch1","","-1","tol_feedback","","","true","","1000","1000","500","","","","","","-1","none","true","4549","5579","","","","","","","","","",""
"","","","","","html-button-response","338","829304","0.0-2.0-79.0","6101f78a3f9b44e8c17e8593","A3","batch1","","847.3999999761581","tol_trial_num","<div class = centerbox><p class = center-block-text>problem <strong>24</strong> out of 25 problems</p></div>","0","","","","","","","","","","","","","","","","","","","","","","","","",""
"","","","","","single-stim-button","339","832703","0.0-2.0-80.0-0.0","6101f78a3f9b44e8c17e8593","A3","batch1","","3398","tol_tohand","","","","tol_peg_3","3398","3398","0","[[0,0,0],[2,3],[0]]","1","[[2,0,0],[3,0],[1]]","23","0","","","","","","7","","","","","","","","",""
"","","","","","single-stim-button","340","833353","0.0-2.0-80.0-1.0","6101f78a3f9b44e8c17e8593","A3","batch1","","648","tol_toboard","","","","tol_peg_1","648","648","0","[[1,0,0],[2,3],[0]]","1","[[2,0,0],[3,0],[1]]","23","0","","","","","","7","","","","","","","","",""
"","","","","","single-stim-button","341","833883","0.0-2.0-80.1-0.1","6101f78a3f9b44e8c17e8593","A3","batch1","","529","tol_tohand","","","","tol_peg_2","529","529","0","[[1,0,0],[2,0],[0]]","2","[[2,0,0],[3,0],[1]]","23","0","","","","","","7","","","","","","","","",""
"","","","","","single-stim-button","342","834711","0.0-2.0-80.1-1.1","6101f78a3f9b44e8c17e8593","A3","batch1","","828","tol_toboard","","","","tol_peg_3","828","828","0","[[1,0,0],[2,0],[3]]","2","[[2,0,0],[3,0],[1]]","23","0","","","","","","7","","","","","","","","",""
"","","","","","single-stim-button","343","835169","0.0-2.0-80.2-0.2","6101f78a3f9b44e8c17e8593","A3","batch1","","457","tol_tohand","","","","tol_peg_2","457","457","0","[[1,0,0],[0,0],[3]]","3","[[2,0,0],[3,0],[1]]","23","0","","","","","","7","","","","","","","","",""
"","","","","","single-stim-button","344","836163","0.0-2.0-80.2-1.2","6101f78a3f9b44e8c17e8593","A3","batch1","","992","tol_toboard","","","","tol_peg_1","992","992","0","[[1,2,0],[0,0],[3]]","3","[[2,0,0],[3,0],[1]]","23","0","","","","","","7","","","","","","","","",""
"","","","","","single-stim-button","345","836773","0.0-2.0-80.3-0.3","6101f78a3f9b44e8c17e8593","A3","batch1","","609","tol_tohand","","","","tol_peg_3","609","609","0","[[1,2,0],[0,0],[0]]","4","[[2,0,0],[3,0],[1]]","23","0","","","","","","7","","","","","","","","",""
"","","","","","single-stim-button","346","837430","0.0-2.0-80.3-1.3","6101f78a3f9b44e8c17e8593","A3","batch1","","656","tol_toboard","","","","tol_peg_2","656","656","0","[[1,2,0],[3,0],[0]]","4","[[2,0,0],[3,0],[1]]","23","0","","","","","","7","","","","","","","","",""
"","","","","","single-stim-button","347","838659","0.0-2.0-80.4-0.4","6101f78a3f9b44e8c17e8593","A3","batch1","","1227","tol_tohand","","","","tol_peg_1","1227","1227","0","[[1,0,0],[3,0],[0]]","5","[[2,0,0],[3,0],[1]]","23","0","","","","","","7","","","","","","","","",""
"","","","","","single-stim-button","348","839322","0.0-2.0-80.4-1.4","6101f78a3f9b44e8c17e8593","A3","batch1","","663","tol_toboard","","","","tol_peg_3","663","663","0","[[1,0,0],[3,0],[2]]","5","[[2,0,0],[3,0],[1]]","23","0","","","","","","7","","","","","","","","",""
"","","","","","single-stim-button","349","839991","0.0-2.0-80.5-0.5","6101f78a3f9b44e8c17e8593","A3","batch1","","668","tol_tohand","","","","tol_peg_1","668","668","0","[[0,0,0],[3,0],[2]]","6","[[2,0,0],[3,0],[1]]","23","0","","","","","","7","","","","","","","","",""
"","","","","","single-stim-button","350","840576","0.0-2.0-80.5-1.5","6101f78a3f9b44e8c17e8593","A3","batch1","","584","tol_toboard","","","","tol_peg_2","584","584","0","[[0,0,0],[3,1],[2]]","6","[[2,0,0],[3,0],[1]]","23","0","","","","","","7","","","","","","","","",""
"","","","","","single-stim-button","351","841219","0.0-2.0-80.6-0.6","6101f78a3f9b44e8c17e8593","A3","batch1","","641","tol_tohand","","","","tol_peg_3","641","641","0","[[0,0,0],[3,1],[0]]","7","[[2,0,0],[3,0],[1]]","23","0","","","","","","7","","","","","","","","",""
"","","","","","single-stim-button","352","842123","0.0-2.0-80.6-1.6","6101f78a3f9b44e8c17e8593","A3","batch1","","903","tol_toboard","","","","tol_peg_1","903","903","0","[[2,0,0],[3,1],[0]]","7","[[2,0,0],[3,0],[1]]","23","0","","","","","","7","","","","","","","","",""
"","","","","","single-stim-button","353","842669","0.0-2.0-80.7-0.7","6101f78a3f9b44e8c17e8593","A3","batch1","","544","tol_tohand","","","","tol_peg_2","544","544","0","[[2,0,0],[3,0],[0]]","8","[[2,0,0],[3,0],[1]]","23","0","","","","","","7","","","","","","","","",""
"","","","","","single-stim-button","354","843239","0.0-2.0-80.7-1.7","6101f78a3f9b44e8c17e8593","A3","batch1","","569","tol_toboard","","","","tol_peg_3","569","569","0","[[2,0,0],[3,0],[1]]","8","[[2,0,0],[3,0],[1]]","23","0","","","","","","7","","","","","","","","",""
"","","","","","poldrack-single-stim","355","844246","0.0-2.0-81.0","6101f78a3f9b44e8c17e8593","A3","batch1","","-1","tol_feedback","","","true","","1000","1000","500","","","","","","-1","none","true","3398","8073","","","","","","","","","",""
"","","","","","html-button-response","356","845146","0.0-2.0-82.0","6101f78a3f9b44e8c17e8593","A3","batch1","","899","tol_trial_num","<div class = centerbox><p class = center-block-text>problem <strong>25</strong> out of 25 problems</p></div>","0","","","","","","","","","","","","","","","","","","","","","","","","",""
