"success","timeout","failed_images","failed_audio","failed_video","trial_type","trial_index","time_elapsed","internal_node_id","subject_id","study_id","session_id","view_history","rt","task","stimulus","response","correct","mouse_click","stim_duration","block_duration","timing_post_trial","current_position","tol_num_moves_made","tol_target","tol_problem_id","tol_rt","key_press","possible_responses","tol_correct","preplanning","tol_rt_per_trial","tol_min_moves","answer","item","fiar_detect_rt","fiar_detect_correct","total_correct_fiar_detect","post_trial_gap","choices","spm_correct","spm_rt"
"true","false","[]","[]","[]","preload","0","33658","0.0-0.0","61015eeeac2c6fae4f3696c6","D2","batch4","","","","","","","","","","","","","","","","","","","","","","","","","","","","","",""
"true","","","","","fullscreen","1","42170","0.0-1.0-0.0","61015eeeac2c6fae4f3696c6","D2","batch4","","","","","","","","","","","","","","","","","","","","","","","","","","","","","",""
"true","","","","","fullscreen","2","44890","0.0-2.0-0.0","61015eeeac2c6fae4f3696c6","D2","batch4","","","","","","","","","","","","","","","","","","","","","","","","","","","","","",""
"","","","","","instructions","3","73634","0.0-2.0-1.0-0.0-0.0","61015eeeac2c6fae4f3696c6","D2","batch4","[{""page_index"":0,""viewing_time"":7424.700000047684},{""page_index"":1,""viewing_time"":7916.799999952316},{""page_index"":2,""viewing_time"":2216.8000000715256},{""page_index"":3,""viewing_time"":5033.799999952316},{""page_index"":4,""viewing_time"":2667},{""page_index"":5,""viewing_time"":2036},{""page_index"":6,""viewing_time"":1447.3999999761581}]","28742.900000095367","tol-instructions","","","","","","","","","","","","","","","","","","","","","","","","","","",""
"","","","","","html-button-response","4","74535","0.0-2.0-1.0-1.0-0.0","61015eeeac2c6fae4f3696c6","D2","batch4","","898.5","tol_enter_quiz","<p class=block-text> Let's answer a few questions <br>","0","","","","","","","","","","","","","","","","","","","","","","","","",""
"","","","","","html-button-response","5","80585","0.0-2.0-1.0-1.0-1.0","61015eeeac2c6fae4f3696c6","D2","batch4","","6047.600000023842","tol_quiz","<p class = block-text>True or False: You can only move the ball on top of a peg. <br></p>","0","true","","","","","","","","","","","","","","","","","","","","","","","",""
"","","","","","html-button-response","6","81669","0.0-2.0-1.0-1.0-2.0","61015eeeac2c6fae4f3696c6","D2","batch4","","1080.7999999523163","tol_quiz_feedback","<p class = block-text>Correct! You can only move the ball on top of a peg.</p>","0","","","","","","","","","","","","","","","","","","","","","","","","",""
"","","","","","html-button-response","7","83901","0.0-2.0-1.0-1.0-3.0","61015eeeac2c6fae4f3696c6","D2","batch4","","2230.9000000953674","tol_quiz","<p class = block-text>True or False: You should try to match your board with the target board with fewest moves possible. <br></p>","0","true","","","","","","","","","","","","","","","","","","","","","","","",""
"","","","","","html-button-response","8","84702","0.0-2.0-1.0-1.0-4.0","61015eeeac2c6fae4f3696c6","D2","batch4","","800.3999999761581","tol_quiz_feedback","<p class = block-text>Correct! </p>","0","","","","","","","","","","","","","","","","","","","","","","","","",""
"","","","","","html-button-response","9","86251","0.0-2.0-2.0","61015eeeac2c6fae4f3696c6","D2","batch4","","1546.8999999761581","","<p class=block-text> Now that you've understood the game, let's practice a few easier examples before we start!<br> <br>","0","","","","","","","","","","","","","","","","","","","","","","","","",""
"","","","","","single-stim-button","10","90939","0.0-2.0-3.0-0.0","61015eeeac2c6fae4f3696c6","D2","batch4","","4686","tol_practice","","","","tol_peg_2","4686","4686","0","[[1,2,0],[0,0],[0]]","1","[[1,2,0],[0,0],[3]]","practice","4686","","","","","","","","","","","","","","",""
"","","","","","single-stim-button","11","91936","0.0-2.0-3.0-1.0","61015eeeac2c6fae4f3696c6","D2","batch4","","995","tol_practice","","","","tol_peg_3","995","995","0","[[1,2,0],[0,0],[3]]","1","[[1,2,0],[0,0],[3]]","practice","995","","","","","","","","","","","","","","",""
"","","","","","poldrack-single-stim","12","92944","0.0-2.0-4.0","61015eeeac2c6fae4f3696c6","D2","batch4","","-1","tol_feedback","","","true","","1000","1000","500","","","","","","-1","none","true","","0","","","","","","","","","",""
"","","","","","single-stim-button","13","96453","0.0-2.0-5.0-0.0","61015eeeac2c6fae4f3696c6","D2","batch4","","3509","tol_practice","","","","tol_peg_1","3509","3509","0","[[1,0,0],[3,0],[0]]","2","[[0,0,0],[3,1],[2]]","practice","3509","","","","","","","","","","","","","","",""
"","","","","","single-stim-button","14","97304","0.0-2.0-5.0-1.0","61015eeeac2c6fae4f3696c6","D2","batch4","","849","tol_practice","","","","tol_peg_3","849","849","0","[[1,0,0],[3,0],[2]]","2","[[0,0,0],[3,1],[2]]","practice","849","","","","","","","","","","","","","","",""
"","","","","","single-stim-button","15","97987","0.0-2.0-5.1-0.1","61015eeeac2c6fae4f3696c6","D2","batch4","","682","tol_practice","","","","tol_peg_1","682","682","0","[[0,0,0],[3,0],[2]]","3","[[0,0,0],[3,1],[2]]","practice","682","","","","","","","","","","","","","","",""
"","","","","","single-stim-button","16","98670","0.0-2.0-5.1-1.1","61015eeeac2c6fae4f3696c6","D2","batch4","","682","tol_practice","","","","tol_peg_2","682","682","0","[[0,0,0],[3,1],[2]]","3","[[0,0,0],[3,1],[2]]","practice","682","","","","","","","","","","","","","","",""
"","","","","","poldrack-single-stim","17","99680","0.0-2.0-6.0","61015eeeac2c6fae4f3696c6","D2","batch4","","-1","tol_feedback","","","true","","1000","1000","500","","","","","","-1","none","true","","0","","","","","","","","","",""
"","","","","","single-stim-button","18","101754","0.0-2.0-7.0-0.0","61015eeeac2c6fae4f3696c6","D2","batch4","","2072","tol_practice","","","","tol_peg_2","2072","2072","0","[[1,2,0],[0,0],[0]]","4","[[1,0,0],[2,0],[3]]","practice","2072","","","","","","","","","","","","","","",""
"","","","","","single-stim-button","19","102354","0.0-2.0-7.0-1.0","61015eeeac2c6fae4f3696c6","D2","batch4","","599","tol_practice","","","","tol_peg_3","599","599","0","[[1,2,0],[0,0],[3]]","4","[[1,0,0],[2,0],[3]]","practice","599","","","","","","","","","","","","","","",""
"","","","","","single-stim-button","20","103054","0.0-2.0-7.1-0.1","61015eeeac2c6fae4f3696c6","D2","batch4","","699","tol_practice","","","","tol_peg_1","699","699","0","[[1,0,0],[0,0],[3]]","5","[[1,0,0],[2,0],[3]]","practice","699","","","","","","","","","","","","","","",""
"","","","","","single-stim-button","21","104088","0.0-2.0-7.1-1.1","61015eeeac2c6fae4f3696c6","D2","batch4","","1032","tol_practice","","","","tol_peg_2","1032","1032","0","[[1,0,0],[2,0],[3]]","5","[[1,0,0],[2,0],[3]]","practice","1032","","","","","","","","","","","","","","",""
"","","","","","poldrack-single-stim","22","105095","0.0-2.0-8.0","61015eeeac2c6fae4f3696c6","D2","batch4","","-1","tol_feedback","","","true","","1000","1000","500","","","","","","-1","none","true","","0","","","","","","","","","",""
"","","","","","html-button-response","23","106438","0.0-2.0-9.0","61015eeeac2c6fae4f3696c6","D2","batch4","","1341.7000000476837","tol_instruction","<div class = centerbox><p class = center-block-text>Great job! You are done with practice trials<br>You are about to start official trials.<br> <br> Problem <strong>1</strong> out of 25 problems</p></div>","0","","","","","","","","","","","","","","","","","","","","","","","","",""
"","","","","","single-stim-button","24","110755","0.0-2.0-10.0-0.0","61015eeeac2c6fae4f3696c6","D2","batch4","","3309","tol_tohand","","","","tol_peg_1","3309","3309","0","[[1,0,0],[3,0],[0]]","1","[[1,3,0],[2,0],[0]]","0","0","","","","","","3","","","","","","","","",""
"","","","","","single-stim-button","25","111522","0.0-2.0-10.0-1.0","61015eeeac2c6fae4f3696c6","D2","batch4","","765","tol_toboard","","","","tol_peg_3","765","765","0","[[1,0,0],[3,0],[2]]","1","[[1,3,0],[2,0],[0]]","0","0","","","","","","3","","","","","","","","",""
"","","","","","single-stim-button","26","112189","0.0-2.0-10.1-0.1","61015eeeac2c6fae4f3696c6","D2","batch4","","667","tol_tohand","","","","tol_peg_2","667","667","0","[[1,0,0],[0,0],[2]]","2","[[1,3,0],[2,0],[0]]","0","0","","","","","","3","","","","","","","","",""
"","","","","","single-stim-button","27","112888","0.0-2.0-10.1-1.1","61015eeeac2c6fae4f3696c6","D2","batch4","","698","tol_toboard","","","","tol_peg_1","698","698","0","[[1,3,0],[0,0],[2]]","2","[[1,3,0],[2,0],[0]]","0","0","","","","","","3","","","","","","","","",""
"","","","","","single-stim-button","28","113605","0.0-2.0-10.2-0.2","61015eeeac2c6fae4f3696c6","D2","batch4","","715","tol_tohand","","","","tol_peg_3","715","715","0","[[1,3,0],[0,0],[0]]","3","[[1,3,0],[2,0],[0]]","0","0","","","","","","3","","","","","","","","",""
"","","","","","single-stim-button","29","114238","0.0-2.0-10.2-1.2","61015eeeac2c6fae4f3696c6","D2","batch4","","633","tol_toboard","","","","tol_peg_2","633","633","0","[[1,3,0],[2,0],[0]]","3","[[1,3,0],[2,0],[0]]","0","0","","","","","","3","","","","","","","","",""
"","","","","","poldrack-single-stim","30","115246","0.0-2.0-11.0","61015eeeac2c6fae4f3696c6","D2","batch4","","-1","tol_feedback","","","true","","1000","1000","500","","","","","","-1","none","true","3309","4691","","","","","","","","","",""
"","","","","","html-button-response","31","116389","0.0-2.0-12.0","61015eeeac2c6fae4f3696c6","D2","batch4","","1141.9000000953674","tol_trial_num","<div class = centerbox><p class = center-block-text>problem <strong>2</strong> out of 25 problems</p></div>","0","","","","","","","","","","","","","","","","","","","","","","","","",""
"","","","","","single-stim-button","32","119873","0.0-2.0-13.0-0.0","61015eeeac2c6fae4f3696c6","D2","batch4","","3482","tol_tohand","","","","tol_peg_1","3482","3482","0","[[1,0,0],[3,0],[0]]","1","[[2,1,3],[0,0],[0]]","1","0","","","","","","5","","","","","","","","",""
"","","","","","single-stim-button","33","121573","0.0-2.0-13.0-1.0","61015eeeac2c6fae4f3696c6","D2","batch4","","1699","tol_toboard","","","","tol_peg_3","1699","1699","0","[[1,0,0],[3,0],[2]]","1","[[2,1,3],[0,0],[0]]","1","0","","","","","","5","","","","","","","","",""
"","","","","","single-stim-button","34","124438","0.0-2.0-13.1-0.1","61015eeeac2c6fae4f3696c6","D2","batch4","","2865","tol_tohand","","","","tol_peg_2","2865","2865","0","[[1,0,0],[0,0],[2]]","2","[[2,1,3],[0,0],[0]]","1","0","","","","","","5","","","","","","","","",""
"","","","","","single-stim-button","35","125039","0.0-2.0-13.1-1.1","61015eeeac2c6fae4f3696c6","D2","batch4","","599","tol_toboard","","","","tol_peg_1","599","599","0","[[1,3,0],[0,0],[2]]","2","[[2,1,3],[0,0],[0]]","1","0","","","","","","5","","","","","","","","",""
"","","","","","single-stim-button","36","125655","0.0-2.0-13.2-0.2","61015eeeac2c6fae4f3696c6","D2","batch4","","616","tol_tohand","","","","tol_peg_3","616","616","0","[[1,3,0],[0,0],[0]]","3","[[2,1,3],[0,0],[0]]","1","0","","","","","","5","","","","","","","","",""
"","","","","","single-stim-button","37","126239","0.0-2.0-13.2-1.2","61015eeeac2c6fae4f3696c6","D2","batch4","","582","tol_toboard","","","","tol_peg_2","582","582","0","[[1,3,0],[2,0],[0]]","3","[[2,1,3],[0,0],[0]]","1","0","","","","","","5","","","","","","","","",""
"","","","","","single-stim-button","38","126856","0.0-2.0-13.3-0.3","61015eeeac2c6fae4f3696c6","D2","batch4","","616","tol_tohand","","","","tol_peg_1","616","616","0","[[1,0,0],[2,0],[0]]","4","[[2,1,3],[0,0],[0]]","1","0","","","","","","5","","","","","","","","",""
"","","","","","single-stim-button","39","127957","0.0-2.0-13.3-1.3","61015eeeac2c6fae4f3696c6","D2","batch4","","1100","tol_toboard","","","","tol_peg_3","1100","1100","0","[[1,0,0],[2,0],[3]]","4","[[2,1,3],[0,0],[0]]","1","0","","","","","","5","","","","","","","","",""
"","","","","","single-stim-button","40","131540","0.0-2.0-13.4-0.4","61015eeeac2c6fae4f3696c6","D2","batch4","","3582","tol_tohand","","","","tol_peg_3","3582","3582","0","[[1,0,0],[2,0],[0]]","5","[[2,1,3],[0,0],[0]]","1","0","","","","","","5","","","","","","","","",""
"","","","","","single-stim-button","41","132140","0.0-2.0-13.4-1.4","61015eeeac2c6fae4f3696c6","D2","batch4","","600","tol_toboard","","","","tol_peg_2","600","600","0","[[1,0,0],[2,3],[0]]","5","[[2,1,3],[0,0],[0]]","1","0","","","","","","5","","","","","","","","",""
"","","","","","single-stim-button","42","132790","0.0-2.0-13.5-0.5","61015eeeac2c6fae4f3696c6","D2","batch4","","649","tol_tohand","","","","tol_peg_1","649","649","0","[[0,0,0],[2,3],[0]]","6","[[2,1,3],[0,0],[0]]","1","0","","","","","","5","","","","","","","","",""
"","","","","","single-stim-button","43","133574","0.0-2.0-13.5-1.5","61015eeeac2c6fae4f3696c6","D2","batch4","","782","tol_toboard","","","","tol_peg_3","782","782","0","[[0,0,0],[2,3],[1]]","6","[[2,1,3],[0,0],[0]]","1","0","","","","","","5","","","","","","","","",""
"","","","","","single-stim-button","44","134608","0.0-2.0-13.6-0.6","61015eeeac2c6fae4f3696c6","D2","batch4","","1033","tol_tohand","","","","tol_peg_2","1033","1033","0","[[0,0,0],[2,0],[1]]","7","[[2,1,3],[0,0],[0]]","1","0","","","","","","5","","","","","","","","",""
"","","","","","single-stim-button","45","136174","0.0-2.0-13.6-1.6","61015eeeac2c6fae4f3696c6","D2","batch4","","1565","tol_toboard","","","","tol_peg_1","1565","1565","0","[[3,0,0],[2,0],[1]]","7","[[2,1,3],[0,0],[0]]","1","0","","","","","","5","","","","","","","","",""
"","","","","","single-stim-button","46","140741","0.0-2.0-13.7-0.7","61015eeeac2c6fae4f3696c6","D2","batch4","","4566","tol_tohand","","","","tol_peg_2","4566","4566","0","[[3,0,0],[0,0],[1]]","8","[[2,1,3],[0,0],[0]]","1","0","","","","","","5","","","","","","","","",""
"","","","","","single-stim-button","47","141274","0.0-2.0-13.7-1.7","61015eeeac2c6fae4f3696c6","D2","batch4","","532","tol_toboard","","","","tol_peg_1","532","532","0","[[3,2,0],[0,0],[1]]","8","[[2,1,3],[0,0],[0]]","1","0","","","","","","5","","","","","","","","",""
"","","","","","single-stim-button","48","142057","0.0-2.0-13.8-0.8","61015eeeac2c6fae4f3696c6","D2","batch4","","782","tol_tohand","","","","tol_peg_3","782","782","0","[[3,2,0],[0,0],[0]]","9","[[2,1,3],[0,0],[0]]","1","0","","","","","","5","","","","","","","","",""
"","","","","","single-stim-button","49","142656","0.0-2.0-13.8-1.8","61015eeeac2c6fae4f3696c6","D2","batch4","","599","tol_toboard","","","","tol_peg_2","599","599","0","[[3,2,0],[1,0],[0]]","9","[[2,1,3],[0,0],[0]]","1","0","","","","","","5","","","","","","","","",""
"","","","","","single-stim-button","50","143375","0.0-2.0-13.9-0.9","61015eeeac2c6fae4f3696c6","D2","batch4","","717","tol_tohand","","","","tol_peg_1","717","717","0","[[3,0,0],[1,0],[0]]","10","[[2,1,3],[0,0],[0]]","1","0","","","","","","5","","","","","","","","",""
"","","","","","single-stim-button","51","144074","0.0-2.0-13.9-1.9","61015eeeac2c6fae4f3696c6","D2","batch4","","699","tol_toboard","","","","tol_peg_3","699","699","0","[[3,0,0],[1,0],[2]]","10","[[2,1,3],[0,0],[0]]","1","0","","","","","","5","","","","","","","","",""
"","","","","","single-stim-button","52","144642","0.0-2.0-13.10-0.10","61015eeeac2c6fae4f3696c6","D2","batch4","","567","tol_tohand","","","","tol_peg_1","567","567","0","[[0,0,0],[1,0],[2]]","11","[[2,1,3],[0,0],[0]]","1","0","","","","","","5","","","","","","","","",""
"","","","","","single-stim-button","53","145275","0.0-2.0-13.10-1.10","61015eeeac2c6fae4f3696c6","D2","batch4","","633","tol_toboard","","","","tol_peg_2","633","633","0","[[0,0,0],[1,3],[2]]","11","[[2,1,3],[0,0],[0]]","1","0","","","","","","5","","","","","","","","",""
"","","","","","single-stim-button","54","145759","0.0-2.0-13.11-0.11","61015eeeac2c6fae4f3696c6","D2","batch4","","482","tol_tohand","","","","tol_peg_3","482","482","0","[[0,0,0],[1,3],[0]]","12","[[2,1,3],[0,0],[0]]","1","0","","","","","","5","","","","","","","","",""
"","","","","","single-stim-button","55","146725","0.0-2.0-13.11-1.11","61015eeeac2c6fae4f3696c6","D2","batch4","","966","tol_toboard","","","","tol_peg_1","966","966","0","[[2,0,0],[1,3],[0]]","12","[[2,1,3],[0,0],[0]]","1","0","","","","","","5","","","","","","","","",""
"","","","","","single-stim-button","56","147242","0.0-2.0-13.12-0.12","61015eeeac2c6fae4f3696c6","D2","batch4","","515","tol_tohand","","","","tol_peg_2","515","515","0","[[2,0,0],[1,0],[0]]","13","[[2,1,3],[0,0],[0]]","1","0","","","","","","5","","","","","","","","",""
"","","","","","single-stim-button","57","147975","0.0-2.0-13.12-1.12","61015eeeac2c6fae4f3696c6","D2","batch4","","733","tol_toboard","","","","tol_peg_3","733","733","0","[[2,0,0],[1,0],[3]]","13","[[2,1,3],[0,0],[0]]","1","0","","","","","","5","","","","","","","","",""
"","","","","","single-stim-button","58","149158","0.0-2.0-13.13-0.13","61015eeeac2c6fae4f3696c6","D2","batch4","","1182","tol_tohand","","","","tol_peg_2","1182","1182","0","[[2,0,0],[0,0],[3]]","14","[[2,1,3],[0,0],[0]]","1","0","","","","","","5","","","","","","","","",""
"","","","","","single-stim-button","59","149575","0.0-2.0-13.13-1.13","61015eeeac2c6fae4f3696c6","D2","batch4","","416","tol_toboard","","","","tol_peg_1","416","416","0","[[2,1,0],[0,0],[3]]","14","[[2,1,3],[0,0],[0]]","1","0","","","","","","5","","","","","","","","",""
"","","","","","single-stim-button","60","150243","0.0-2.0-13.14-0.14","61015eeeac2c6fae4f3696c6","D2","batch4","","666","tol_tohand","","","","tol_peg_3","666","666","0","[[2,1,0],[0,0],[0]]","15","[[2,1,3],[0,0],[0]]","1","0","","","","","","5","","","","","","","","",""
"","","","","","single-stim-button","61","151025","0.0-2.0-13.14-1.14","61015eeeac2c6fae4f3696c6","D2","batch4","","782","tol_toboard","","","","tol_peg_1","782","782","0","[[2,1,3],[0,0],[0]]","15","[[2,1,3],[0,0],[0]]","1","0","","","","","","5","","","","","","","","",""
"","","","","","poldrack-single-stim","62","152030","0.0-2.0-14.0","61015eeeac2c6fae4f3696c6","D2","batch4","","-1","tol_feedback","","","true","","1000","1000","500","","","","","","-1","none","true","3482","22320","","","","","","","","","",""
"","","","","","html-button-response","63","153009","0.0-2.0-15.0","61015eeeac2c6fae4f3696c6","D2","batch4","","977.6000000238419","tol_trial_num","<div class = centerbox><p class = center-block-text>problem <strong>3</strong> out of 25 problems</p></div>","0","","","","","","","","","","","","","","","","","","","","","","","","",""
"","","","","","single-stim-button","64","155493","0.0-2.0-16.0-0.0","61015eeeac2c6fae4f3696c6","D2","batch4","","2482","tol_tohand","","","","tol_peg_1","2482","2482","0","[[2,0,0],[0,0],[1]]","1","[[1,2,0],[3,0],[0]]","2","0","","","","","","4","","","","","","","","",""
"","","","","","single-stim-button","65","156876","0.0-2.0-16.0-1.0","61015eeeac2c6fae4f3696c6","D2","batch4","","1382","tol_toboard","","","","tol_peg_2","1382","1382","0","[[2,0,0],[3,0],[1]]","1","[[1,2,0],[3,0],[0]]","2","0","","","","","","4","","","","","","","","",""
"","","","","","single-stim-button","66","158176","0.0-2.0-16.1-0.1","61015eeeac2c6fae4f3696c6","D2","batch4","","1300","tol_tohand","","","","tol_peg_3","1300","1300","0","[[2,0,0],[3,0],[0]]","2","[[1,2,0],[3,0],[0]]","2","0","","","","","","4","","","","","","","","",""
"","","","","","single-stim-button","67","158709","0.0-2.0-16.1-1.1","61015eeeac2c6fae4f3696c6","D2","batch4","","532","tol_toboard","","","","tol_peg_2","532","532","0","[[2,0,0],[3,1],[0]]","2","[[1,2,0],[3,0],[0]]","2","0","","","","","","4","","","","","","","","",""
"","","","","","single-stim-button","68","159159","0.0-2.0-16.2-0.2","61015eeeac2c6fae4f3696c6","D2","batch4","","449","tol_tohand","","","","tol_peg_1","449","449","0","[[0,0,0],[3,1],[0]]","3","[[1,2,0],[3,0],[0]]","2","0","","","","","","4","","","","","","","","",""
"","","","","","single-stim-button","69","159909","0.0-2.0-16.2-1.2","61015eeeac2c6fae4f3696c6","D2","batch4","","749","tol_toboard","","","","tol_peg_3","749","749","0","[[0,0,0],[3,1],[2]]","3","[[1,2,0],[3,0],[0]]","2","0","","","","","","4","","","","","","","","",""
"","","","","","single-stim-button","70","160493","0.0-2.0-16.3-0.3","61015eeeac2c6fae4f3696c6","D2","batch4","","582","tol_tohand","","","","tol_peg_2","582","582","0","[[0,0,0],[3,0],[2]]","4","[[1,2,0],[3,0],[0]]","2","0","","","","","","4","","","","","","","","",""
"","","","","","single-stim-button","71","161193","0.0-2.0-16.3-1.3","61015eeeac2c6fae4f3696c6","D2","batch4","","700","tol_toboard","","","","tol_peg_1","700","700","0","[[1,0,0],[3,0],[2]]","4","[[1,2,0],[3,0],[0]]","2","0","","","","","","4","","","","","","","","",""
"","","","","","single-stim-button","72","162410","0.0-2.0-16.4-0.4","61015eeeac2c6fae4f3696c6","D2","batch4","","1215","tol_tohand","","","","tol_peg_3","1215","1215","0","[[1,0,0],[3,0],[0]]","5","[[1,2,0],[3,0],[0]]","2","0","","","","","","4","","","","","","","","",""
"","","","","","single-stim-button","73","162960","0.0-2.0-16.4-1.4","61015eeeac2c6fae4f3696c6","D2","batch4","","549","tol_toboard","","","","tol_peg_1","549","549","0","[[1,2,0],[3,0],[0]]","5","[[1,2,0],[3,0],[0]]","2","0","","","","","","4","","","","","","","","",""
"","","","","","poldrack-single-stim","74","163966","0.0-2.0-17.0","61015eeeac2c6fae4f3696c6","D2","batch4","","-1","tol_feedback","","","true","","1000","1000","500","","","","","","-1","none","true","2482","6028","","","","","","","","","",""
"","","","","","html-button-response","75","164844","0.0-2.0-18.0","61015eeeac2c6fae4f3696c6","D2","batch4","","876.1000000238419","tol_trial_num","<div class = centerbox><p class = center-block-text>problem <strong>4</strong> out of 25 problems</p></div>","0","","","","","","","","","","","","","","","","","","","","","","","","",""
"","","","","","single-stim-button","76","167093","0.0-2.0-19.0-0.0","61015eeeac2c6fae4f3696c6","D2","batch4","","2249","tol_tohand","","","","tol_peg_2","2249","2249","0","[[3,0,0],[2,0],[0]]","1","[[3,0,0],[1,0],[2]]","3","0","","","","","","3","","","","","","","","",""
"","","","","","single-stim-button","77","167777","0.0-2.0-19.0-1.0","61015eeeac2c6fae4f3696c6","D2","batch4","","682","tol_toboard","","","","tol_peg_1","682","682","0","[[3,1,0],[2,0],[0]]","1","[[3,0,0],[1,0],[2]]","3","0","","","","","","3","","","","","","","","",""
"","","","","","single-stim-button","78","168344","0.0-2.0-19.1-0.1","61015eeeac2c6fae4f3696c6","D2","batch4","","565","tol_tohand","","","","tol_peg_2","565","565","0","[[3,1,0],[0,0],[0]]","2","[[3,0,0],[1,0],[2]]","3","0","","","","","","3","","","","","","","","",""
"","","","","","single-stim-button","79","168960","0.0-2.0-19.1-1.1","61015eeeac2c6fae4f3696c6","D2","batch4","","616","tol_toboard","","","","tol_peg_3","616","616","0","[[3,1,0],[0,0],[2]]","2","[[3,0,0],[1,0],[2]]","3","0","","","","","","3","","","","","","","","",""
"","","","","","single-stim-button","80","169643","0.0-2.0-19.2-0.2","61015eeeac2c6fae4f3696c6","D2","batch4","","682","tol_tohand","","","","tol_peg_1","682","682","0","[[3,0,0],[0,0],[2]]","3","[[3,0,0],[1,0],[2]]","3","0","","","","","","3","","","","","","","","",""
"","","","","","single-stim-button","81","170210","0.0-2.0-19.2-1.2","61015eeeac2c6fae4f3696c6","D2","batch4","","566","tol_toboard","","","","tol_peg_2","566","566","0","[[3,0,0],[1,0],[2]]","3","[[3,0,0],[1,0],[2]]","3","0","","","","","","3","","","","","","","","",""
"","","","","","poldrack-single-stim","82","171218","0.0-2.0-20.0","61015eeeac2c6fae4f3696c6","D2","batch4","","-1","tol_feedback","","","true","","1000","1000","500","","","","","","-1","none","true","2249","3496","","","","","","","","","",""
"","","","","","html-button-response","83","172177","0.0-2.0-21.0","61015eeeac2c6fae4f3696c6","D2","batch4","","958.2999999523163","tol_trial_num","<div class = centerbox><p class = center-block-text>problem <strong>5</strong> out of 25 problems</p></div>","0","","","","","","","","","","","","","","","","","","","","","","","","",""
"","","","","","single-stim-button","84","177278","0.0-2.0-22.0-0.0","61015eeeac2c6fae4f3696c6","D2","batch4","","5100","tol_tohand","","","","tol_peg_3","5100","5100","0","[[1,0,0],[2,0],[0]]","1","[[0,0,0],[1,2],[3]]","4","0","","","","","","7","","","","","","","","",""
"","","","","","single-stim-button","85","177878","0.0-2.0-22.0-1.0","61015eeeac2c6fae4f3696c6","D2","batch4","","599","tol_toboard","","","","tol_peg_2","599","599","0","[[1,0,0],[2,3],[0]]","1","[[0,0,0],[1,2],[3]]","4","0","","","","","","7","","","","","","","","",""
"","","","","","single-stim-button","86","178462","0.0-2.0-22.1-0.1","61015eeeac2c6fae4f3696c6","D2","batch4","","582","tol_tohand","","","","tol_peg_1","582","582","0","[[0,0,0],[2,3],[0]]","2","[[0,0,0],[1,2],[3]]","4","0","","","","","","7","","","","","","","","",""
"","","","","","single-stim-button","87","179262","0.0-2.0-22.1-1.1","61015eeeac2c6fae4f3696c6","D2","batch4","","798","tol_toboard","","","","tol_peg_3","798","798","0","[[0,0,0],[2,3],[1]]","2","[[0,0,0],[1,2],[3]]","4","0","","","","","","7","","","","","","","","",""
"","","","","","single-stim-button","88","179895","0.0-2.0-22.2-0.2","61015eeeac2c6fae4f3696c6","D2","batch4","","632","tol_tohand","","","","tol_peg_2","632","632","0","[[0,0,0],[2,0],[1]]","3","[[0,0,0],[1,2],[3]]","4","0","","","","","","7","","","","","","","","",""
"","","","","","single-stim-button","89","180662","0.0-2.0-22.2-1.2","61015eeeac2c6fae4f3696c6","D2","batch4","","766","tol_toboard","","","","tol_peg_1","766","766","0","[[3,0,0],[2,0],[1]]","3","[[0,0,0],[1,2],[3]]","4","0","","","","","","7","","","","","","","","",""
"","","","","","single-stim-button","90","181562","0.0-2.0-22.3-0.3","61015eeeac2c6fae4f3696c6","D2","batch4","","899","tol_tohand","","","","tol_peg_2","899","899","0","[[3,0,0],[0,0],[1]]","4","[[0,0,0],[1,2],[3]]","4","0","","","","","","7","","","","","","","","",""
"","","","","","single-stim-button","91","182762","0.0-2.0-22.3-1.3","61015eeeac2c6fae4f3696c6","D2","batch4","","1199","tol_toboard","","","","tol_peg_1","1199","1199","0","[[3,2,0],[0,0],[1]]","4","[[0,0,0],[1,2],[3]]","4","0","","","","","","7","","","","","","","","",""
"","","","","","single-stim-button","92","183612","0.0-2.0-22.4-0.4","61015eeeac2c6fae4f3696c6","D2","batch4","","849","tol_tohand","","","","tol_peg_3","849","849","0","[[3,2,0],[0,0],[0]]","5","[[0,0,0],[1,2],[3]]","4","0","","","","","","7","","","","","","","","",""
"","","","","","single-stim-button","93","184279","0.0-2.0-22.4-1.4","61015eeeac2c6fae4f3696c6","D2","batch4","","666","tol_toboard","","","","tol_peg_2","666","666","0","[[3,2,0],[1,0],[0]]","5","[[0,0,0],[1,2],[3]]","4","0","","","","","","7","","","","","","","","",""
"","","","","","single-stim-button","94","184962","0.0-2.0-22.5-0.5","61015eeeac2c6fae4f3696c6","D2","batch4","","682","tol_tohand","","","","tol_peg_1","682","682","0","[[3,0,0],[1,0],[0]]","6","[[0,0,0],[1,2],[3]]","4","0","","","","","","7","","","","","","","","",""
"","","","","","single-stim-button","95","185529","0.0-2.0-22.5-1.5","61015eeeac2c6fae4f3696c6","D2","batch4","","566","tol_toboard","","","","tol_peg_2","566","566","0","[[3,0,0],[1,2],[0]]","6","[[0,0,0],[1,2],[3]]","4","0","","","","","","7","","","","","","","","",""
"","","","","","single-stim-button","96","187346","0.0-2.0-22.6-0.6","61015eeeac2c6fae4f3696c6","D2","batch4","","1816","tol_tohand","","","","tol_peg_1","1816","1816","0","[[0,0,0],[1,2],[0]]","7","[[0,0,0],[1,2],[3]]","4","0","","","","","","7","","","","","","","","",""
"","","","","","single-stim-button","97","188012","0.0-2.0-22.6-1.6","61015eeeac2c6fae4f3696c6","D2","batch4","","665","tol_toboard","","","","tol_peg_3","665","665","0","[[0,0,0],[1,2],[3]]","7","[[0,0,0],[1,2],[3]]","4","0","","","","","","7","","","","","","","","",""
"","","","","","poldrack-single-stim","98","189015","0.0-2.0-23.0","61015eeeac2c6fae4f3696c6","D2","batch4","","-1","tol_feedback","","","true","","1000","1000","500","","","","","","-1","none","true","5100","10560","","","","","","","","","",""
"","","","","","html-button-response","99","190046","0.0-2.0-24.0","61015eeeac2c6fae4f3696c6","D2","batch4","","1029.2999999523163","tol_trial_num","<div class = centerbox><p class = center-block-text>problem <strong>6</strong> out of 25 problems</p></div>","0","","","","","","","","","","","","","","","","","","","","","","","","",""
"","","","","","single-stim-button","100","194413","0.0-2.0-25.0-0.0","61015eeeac2c6fae4f3696c6","D2","batch4","","4366","tol_tohand","","","","tol_peg_3","4366","4366","0","[[0,0,0],[1,2],[0]]","1","[[1,0,0],[2,3],[0]]","5","0","","","","","","6","","","","","","","","",""
"","","","","","single-stim-button","101","195580","0.0-2.0-25.0-1.0","61015eeeac2c6fae4f3696c6","D2","batch4","","1165","tol_toboard","","","","tol_peg_1","1165","1165","0","[[3,0,0],[1,2],[0]]","1","[[1,0,0],[2,3],[0]]","5","0","","","","","","6","","","","","","","","",""
"","","","","","single-stim-button","102","196214","0.0-2.0-25.1-0.1","61015eeeac2c6fae4f3696c6","D2","batch4","","632","tol_tohand","","","","tol_peg_2","632","632","0","[[3,0,0],[1,0],[0]]","2","[[1,0,0],[2,3],[0]]","5","0","","","","","","6","","","","","","","","",""
"","","","","","single-stim-button","103","196897","0.0-2.0-25.1-1.1","61015eeeac2c6fae4f3696c6","D2","batch4","","682","tol_toboard","","","","tol_peg_3","682","682","0","[[3,0,0],[1,0],[2]]","2","[[1,0,0],[2,3],[0]]","5","0","","","","","","6","","","","","","","","",""
"","","","","","single-stim-button","104","199947","0.0-2.0-25.2-0.2","61015eeeac2c6fae4f3696c6","D2","batch4","","3049","tol_tohand","","","","tol_peg_2","3049","3049","0","[[3,0,0],[0,0],[2]]","3","[[1,0,0],[2,3],[0]]","5","0","","","","","","6","","","","","","","","",""
"","","","","","single-stim-button","105","200530","0.0-2.0-25.2-1.2","61015eeeac2c6fae4f3696c6","D2","batch4","","582","tol_toboard","","","","tol_peg_1","582","582","0","[[3,1,0],[0,0],[2]]","3","[[1,0,0],[2,3],[0]]","5","0","","","","","","6","","","","","","","","",""
"","","","","","single-stim-button","106","201180","0.0-2.0-25.3-0.3","61015eeeac2c6fae4f3696c6","D2","batch4","","649","tol_tohand","","","","tol_peg_3","649","649","0","[[3,1,0],[0,0],[0]]","4","[[1,0,0],[2,3],[0]]","5","0","","","","","","6","","","","","","","","",""
"","","","","","single-stim-button","107","201764","0.0-2.0-25.3-1.3","61015eeeac2c6fae4f3696c6","D2","batch4","","582","tol_toboard","","","","tol_peg_2","582","582","0","[[3,1,0],[2,0],[0]]","4","[[1,0,0],[2,3],[0]]","5","0","","","","","","6","","","","","","","","",""
"","","","","","single-stim-button","108","202347","0.0-2.0-25.4-0.4","61015eeeac2c6fae4f3696c6","D2","batch4","","583","tol_tohand","","","","tol_peg_1","583","583","0","[[3,0,0],[2,0],[0]]","5","[[1,0,0],[2,3],[0]]","5","0","","","","","","6","","","","","","","","",""
"","","","","","single-stim-button","109","202980","0.0-2.0-25.4-1.4","61015eeeac2c6fae4f3696c6","D2","batch4","","632","tol_toboard","","","","tol_peg_3","632","632","0","[[3,0,0],[2,0],[1]]","5","[[1,0,0],[2,3],[0]]","5","0","","","","","","6","","","","","","","","",""
"","","","","","single-stim-button","110","203734","0.0-2.0-25.5-0.5","61015eeeac2c6fae4f3696c6","D2","batch4","","752","tol_tohand","","","","tol_peg_1","752","752","0","[[0,0,0],[2,0],[1]]","6","[[1,0,0],[2,3],[0]]","5","0","","","","","","6","","","","","","","","",""
"","","","","","single-stim-button","111","204197","0.0-2.0-25.5-1.5","61015eeeac2c6fae4f3696c6","D2","batch4","","463","tol_toboard","","","","tol_peg_2","463","463","0","[[0,0,0],[2,3],[1]]","6","[[1,0,0],[2,3],[0]]","5","0","","","","","","6","","","","","","","","",""
"","","","","","single-stim-button","112","204648","0.0-2.0-25.6-0.6","61015eeeac2c6fae4f3696c6","D2","batch4","","451","tol_tohand","","","","tol_peg_3","451","451","0","[[0,0,0],[2,3],[0]]","7","[[1,0,0],[2,3],[0]]","5","0","","","","","","6","","","","","","","","",""
"","","","","","single-stim-button","113","205330","0.0-2.0-25.6-1.6","61015eeeac2c6fae4f3696c6","D2","batch4","","681","tol_toboard","","","","tol_peg_1","681","681","0","[[1,0,0],[2,3],[0]]","7","[[1,0,0],[2,3],[0]]","5","0","","","","","","6","","","","","","","","",""
"","","","","","poldrack-single-stim","114","206340","0.0-2.0-26.0","61015eeeac2c6fae4f3696c6","D2","batch4","","-1","tol_feedback","","","true","","1000","1000","500","","","","","","-1","none","true","4366","10482","","","","","","","","","",""
"","","","","","html-button-response","115","207281","0.0-2.0-27.0","61015eeeac2c6fae4f3696c6","D2","batch4","","940.1999999284744","tol_trial_num","<div class = centerbox><p class = center-block-text>problem <strong>7</strong> out of 25 problems</p></div>","0","","","","","","","","","","","","","","","","","","","","","","","","",""
"","","","","","single-stim-button","116","209881","0.0-2.0-28.0-0.0","61015eeeac2c6fae4f3696c6","D2","batch4","","2599","tol_tohand","","","","tol_peg_3","2599","2599","0","[[2,1,0],[0,0],[0]]","1","[[1,2,0],[3,0],[0]]","6","0","","","","","","5","","","","","","","","",""
"","","","","","single-stim-button","117","211548","0.0-2.0-28.0-1.0","61015eeeac2c6fae4f3696c6","D2","batch4","","1667","tol_toboard","","","","tol_peg_2","1667","1667","0","[[2,1,0],[3,0],[0]]","1","[[1,2,0],[3,0],[0]]","6","0","","","","","","5","","","","","","","","",""
"","","","","","single-stim-button","118","212381","0.0-2.0-28.1-0.1","61015eeeac2c6fae4f3696c6","D2","batch4","","832","tol_tohand","","","","tol_peg_1","832","832","0","[[2,0,0],[3,0],[0]]","2","[[1,2,0],[3,0],[0]]","6","0","","","","","","5","","","","","","","","",""
"","","","","","single-stim-button","119","212981","0.0-2.0-28.1-1.1","61015eeeac2c6fae4f3696c6","D2","batch4","","599","tol_toboard","","","","tol_peg_2","599","599","0","[[2,0,0],[3,1],[0]]","2","[[1,2,0],[3,0],[0]]","6","0","","","","","","5","","","","","","","","",""
"","","","","","single-stim-button","120","213498","0.0-2.0-28.2-0.2","61015eeeac2c6fae4f3696c6","D2","batch4","","516","tol_tohand","","","","tol_peg_1","516","516","0","[[0,0,0],[3,1],[0]]","3","[[1,2,0],[3,0],[0]]","6","0","","","","","","5","","","","","","","","",""
"","","","","","single-stim-button","121","214198","0.0-2.0-28.2-1.2","61015eeeac2c6fae4f3696c6","D2","batch4","","699","tol_toboard","","","","tol_peg_3","699","699","0","[[0,0,0],[3,1],[2]]","3","[[1,2,0],[3,0],[0]]","6","0","","","","","","5","","","","","","","","",""
"","","","","","single-stim-button","122","214715","0.0-2.0-28.3-0.3","61015eeeac2c6fae4f3696c6","D2","batch4","","516","tol_tohand","","","","tol_peg_2","516","516","0","[[0,0,0],[3,0],[2]]","4","[[1,2,0],[3,0],[0]]","6","0","","","","","","5","","","","","","","","",""
"","","","","","single-stim-button","123","215232","0.0-2.0-28.3-1.3","61015eeeac2c6fae4f3696c6","D2","batch4","","515","tol_toboard","","","","tol_peg_1","515","515","0","[[1,0,0],[3,0],[2]]","4","[[1,2,0],[3,0],[0]]","6","0","","","","","","5","","","","","","","","",""
"","","","","","single-stim-button","124","215765","0.0-2.0-28.4-0.4","61015eeeac2c6fae4f3696c6","D2","batch4","","533","tol_tohand","","","","tol_peg_3","533","533","0","[[1,0,0],[3,0],[0]]","5","[[1,2,0],[3,0],[0]]","6","0","","","","","","5","","","","","","","","",""
"","","","","","single-stim-button","125","216332","0.0-2.0-28.4-1.4","61015eeeac2c6fae4f3696c6","D2","batch4","","566","tol_toboard","","","","tol_peg_1","566","566","0","[[1,2,0],[3,0],[0]]","5","[[1,2,0],[3,0],[0]]","6","0","","","","","","5","","","","","","","","",""
"","","","","","poldrack-single-stim","126","217338","0.0-2.0-29.0","61015eeeac2c6fae4f3696c6","D2","batch4","","-1","tol_feedback","","","true","","1000","1000","500","","","","","","-1","none","true","2599","4996","","","","","","","","","",""
"","","","","","html-button-response","127","218199","0.0-2.0-30.0","61015eeeac2c6fae4f3696c6","D2","batch4","","859","tol_trial_num","<div class = centerbox><p class = center-block-text>problem <strong>8</strong> out of 25 problems</p></div>","0","","","","","","","","","","","","","","","","","","","","","","","","",""
"","","","","","single-stim-button","128","223466","0.0-2.0-31.0-0.0","61015eeeac2c6fae4f3696c6","D2","batch4","","5266","tol_tohand","","","","tol_peg_2","5266","5266","0","[[0,0,0],[2,0],[1]]","1","[[1,2,0],[3,0],[0]]","7","0","","","","","","4","","","","","","","","",""
"","","","","","single-stim-button","129","224233","0.0-2.0-31.0-1.0","61015eeeac2c6fae4f3696c6","D2","batch4","","765","tol_toboard","","","","tol_peg_1","765","765","0","[[3,0,0],[2,0],[1]]","1","[[1,2,0],[3,0],[0]]","7","0","","","","","","4","","","","","","","","",""
"","","","","","single-stim-button","130","227183","0.0-2.0-31.1-0.1","61015eeeac2c6fae4f3696c6","D2","batch4","","2948","tol_tohand","","","","tol_peg_3","2948","2948","0","[[3,0,0],[2,0],[0]]","2","[[1,2,0],[3,0],[0]]","7","0","","","","","","4","","","","","","","","",""
"","","","","","single-stim-button","131","228100","0.0-2.0-31.1-1.1","61015eeeac2c6fae4f3696c6","D2","batch4","","915","tol_toboard","","","","tol_peg_1","915","915","0","[[3,1,0],[2,0],[0]]","2","[[1,2,0],[3,0],[0]]","7","0","","","","","","4","","","","","","","","",""
"","","","","","single-stim-button","132","228683","0.0-2.0-31.2-0.2","61015eeeac2c6fae4f3696c6","D2","batch4","","583","tol_tohand","","","","tol_peg_2","583","583","0","[[3,1,0],[0,0],[0]]","3","[[1,2,0],[3,0],[0]]","7","0","","","","","","4","","","","","","","","",""
"","","","","","single-stim-button","133","229400","0.0-2.0-31.2-1.2","61015eeeac2c6fae4f3696c6","D2","batch4","","715","tol_toboard","","","","tol_peg_3","715","715","0","[[3,1,0],[0,0],[2]]","3","[[1,2,0],[3,0],[0]]","7","0","","","","","","4","","","","","","","","",""
"","","","","","single-stim-button","134","230233","0.0-2.0-31.3-0.3","61015eeeac2c6fae4f3696c6","D2","batch4","","833","tol_tohand","","","","tol_peg_1","833","833","0","[[3,0,0],[0,0],[2]]","4","[[1,2,0],[3,0],[0]]","7","0","","","","","","4","","","","","","","","",""
"","","","","","single-stim-button","135","230850","0.0-2.0-31.3-1.3","61015eeeac2c6fae4f3696c6","D2","batch4","","615","tol_toboard","","","","tol_peg_2","615","615","0","[[3,0,0],[1,0],[2]]","4","[[1,2,0],[3,0],[0]]","7","0","","","","","","4","","","","","","","","",""
"","","","","","single-stim-button","136","231417","0.0-2.0-31.4-0.4","61015eeeac2c6fae4f3696c6","D2","batch4","","567","tol_tohand","","","","tol_peg_1","567","567","0","[[0,0,0],[1,0],[2]]","5","[[1,2,0],[3,0],[0]]","7","0","","","","","","4","","","","","","","","",""
"","","","","","single-stim-button","137","233734","0.0-2.0-31.4-1.4","61015eeeac2c6fae4f3696c6","D2","batch4","","2315","tol_toboard","","","","tol_peg_2","2315","2315","0","[[0,0,0],[1,3],[2]]","5","[[1,2,0],[3,0],[0]]","7","0","","","","","","4","","","","","","","","",""
"","","","","","single-stim-button","138","234517","0.0-2.0-31.5-0.5","61015eeeac2c6fae4f3696c6","D2","batch4","","781","tol_tohand","","","","tol_peg_3","781","781","0","[[0,0,0],[1,3],[0]]","6","[[1,2,0],[3,0],[0]]","7","0","","","","","","4","","","","","","","","",""
"","","","","","single-stim-button","139","235251","0.0-2.0-31.5-1.5","61015eeeac2c6fae4f3696c6","D2","batch4","","733","tol_toboard","","","","tol_peg_1","733","733","0","[[2,0,0],[1,3],[0]]","6","[[1,2,0],[3,0],[0]]","7","0","","","","","","4","","","","","","","","",""
"","","","","","single-stim-button","140","235800","0.0-2.0-31.6-0.6","61015eeeac2c6fae4f3696c6","D2","batch4","","549","tol_tohand","","","","tol_peg_2","549","549","0","[[2,0,0],[1,0],[0]]","7","[[1,2,0],[3,0],[0]]","7","0","","","","","","4","","","","","","","","",""
"","","","","","single-stim-button","141","236384","0.0-2.0-31.6-1.6","61015eeeac2c6fae4f3696c6","D2","batch4","","583","tol_toboard","","","","tol_peg_3","583","583","0","[[2,0,0],[1,0],[3]]","7","[[1,2,0],[3,0],[0]]","7","0","","","","","","4","","","","","","","","",""
"","","","","","single-stim-button","142","237351","0.0-2.0-31.7-0.7","61015eeeac2c6fae4f3696c6","D2","batch4","","966","tol_tohand","","","","tol_peg_2","966","966","0","[[2,0,0],[0,0],[3]]","8","[[1,2,0],[3,0],[0]]","7","0","","","","","","4","","","","","","","","",""
"","","","","","single-stim-button","143","238417","0.0-2.0-31.7-1.7","61015eeeac2c6fae4f3696c6","D2","batch4","","1066","tol_toboard","","","","tol_peg_1","1066","1066","0","[[2,1,0],[0,0],[3]]","8","[[1,2,0],[3,0],[0]]","7","0","","","","","","4","","","","","","","","",""
"","","","","","single-stim-button","144","239034","0.0-2.0-31.8-0.8","61015eeeac2c6fae4f3696c6","D2","batch4","","616","tol_tohand","","","","tol_peg_3","616","616","0","[[2,1,0],[0,0],[0]]","9","[[1,2,0],[3,0],[0]]","7","0","","","","","","4","","","","","","","","",""
"","","","","","single-stim-button","145","239634","0.0-2.0-31.8-1.8","61015eeeac2c6fae4f3696c6","D2","batch4","","599","tol_toboard","","","","tol_peg_2","599","599","0","[[2,1,0],[3,0],[0]]","9","[[1,2,0],[3,0],[0]]","7","0","","","","","","4","","","","","","","","",""
"","","","","","single-stim-button","146","240234","0.0-2.0-31.9-0.9","61015eeeac2c6fae4f3696c6","D2","batch4","","599","tol_tohand","","","","tol_peg_1","599","599","0","[[2,0,0],[3,0],[0]]","10","[[1,2,0],[3,0],[0]]","7","0","","","","","","4","","","","","","","","",""
"","","","","","single-stim-button","147","240918","0.0-2.0-31.9-1.9","61015eeeac2c6fae4f3696c6","D2","batch4","","682","tol_toboard","","","","tol_peg_3","682","682","0","[[2,0,0],[3,0],[1]]","10","[[1,2,0],[3,0],[0]]","7","0","","","","","","4","","","","","","","","",""
"","","","","","single-stim-button","148","241484","0.0-2.0-31.10-0.10","61015eeeac2c6fae4f3696c6","D2","batch4","","566","tol_tohand","","","","tol_peg_1","566","566","0","[[0,0,0],[3,0],[1]]","11","[[1,2,0],[3,0],[0]]","7","0","","","","","","4","","","","","","","","",""
"","","","","","single-stim-button","149","241951","0.0-2.0-31.10-1.10","61015eeeac2c6fae4f3696c6","D2","batch4","","466","tol_toboard","","","","tol_peg_2","466","466","0","[[0,0,0],[3,2],[1]]","11","[[1,2,0],[3,0],[0]]","7","0","","","","","","4","","","","","","","","",""
"","","","","","single-stim-button","150","242551","0.0-2.0-31.11-0.11","61015eeeac2c6fae4f3696c6","D2","batch4","","599","tol_tohand","","","","tol_peg_3","599","599","0","[[0,0,0],[3,2],[0]]","12","[[1,2,0],[3,0],[0]]","7","0","","","","","","4","","","","","","","","",""
"","","","","","single-stim-button","151","243252","0.0-2.0-31.11-1.11","61015eeeac2c6fae4f3696c6","D2","batch4","","699","tol_toboard","","","","tol_peg_1","699","699","0","[[1,0,0],[3,2],[0]]","12","[[1,2,0],[3,0],[0]]","7","0","","","","","","4","","","","","","","","",""
"","","","","","single-stim-button","152","243751","0.0-2.0-31.12-0.12","61015eeeac2c6fae4f3696c6","D2","batch4","","499","tol_tohand","","","","tol_peg_2","499","499","0","[[1,0,0],[3,0],[0]]","13","[[1,2,0],[3,0],[0]]","7","0","","","","","","4","","","","","","","","",""
"","","","","","single-stim-button","153","244151","0.0-2.0-31.12-1.12","61015eeeac2c6fae4f3696c6","D2","batch4","","399","tol_toboard","","","","tol_peg_1","399","399","0","[[1,2,0],[3,0],[0]]","13","[[1,2,0],[3,0],[0]]","7","0","","","","","","4","","","","","","","","",""
"","","","","","poldrack-single-stim","154","245165","0.0-2.0-32.0","61015eeeac2c6fae4f3696c6","D2","batch4","","-1","tol_feedback","","","true","","1000","1000","500","","","","","","-1","none","true","5266","15372","","","","","","","","","",""
"","","","","","html-button-response","155","246135","0.0-2.0-33.0","61015eeeac2c6fae4f3696c6","D2","batch4","","968.7000000476837","tol_trial_num","<div class = centerbox><p class = center-block-text>problem <strong>9</strong> out of 25 problems</p></div>","0","","","","","","","","","","","","","","","","","","","","","","","","",""
"","","","","","single-stim-button","156","251853","0.0-2.0-34.0-0.0","61015eeeac2c6fae4f3696c6","D2","batch4","","5717","tol_tohand","","","","tol_peg_3","5717","5717","0","[[3,2,0],[0,0],[0]]","1","[[2,1,0],[3,0],[0]]","8","0","","","","","","6","","","","","","","","",""
"","","","","","single-stim-button","157","253286","0.0-2.0-34.0-1.0","61015eeeac2c6fae4f3696c6","D2","batch4","","1432","tol_toboard","","","","tol_peg_2","1432","1432","0","[[3,2,0],[1,0],[0]]","1","[[2,1,0],[3,0],[0]]","8","0","","","","","","6","","","","","","","","",""
"","","","","","single-stim-button","158","254572","0.0-2.0-34.1-0.1","61015eeeac2c6fae4f3696c6","D2","batch4","","1284","tol_tohand","","","","tol_peg_1","1284","1284","0","[[3,0,0],[1,0],[0]]","2","[[2,1,0],[3,0],[0]]","8","0","","","","","","6","","","","","","","","",""
"","","","","","single-stim-button","159","257536","0.0-2.0-34.1-1.1","61015eeeac2c6fae4f3696c6","D2","batch4","","2964","tol_toboard","","","","tol_peg_2","2964","2964","0","[[3,0,0],[1,2],[0]]","2","[[2,1,0],[3,0],[0]]","8","0","","","","","","6","","","","","","","","",""
"","","","","","single-stim-button","160","258069","0.0-2.0-34.2-0.2","61015eeeac2c6fae4f3696c6","D2","batch4","","532","tol_tohand","","","","tol_peg_1","532","532","0","[[0,0,0],[1,2],[0]]","3","[[2,1,0],[3,0],[0]]","8","0","","","","","","6","","","","","","","","",""
"","","","","","single-stim-button","161","258702","0.0-2.0-34.2-1.2","61015eeeac2c6fae4f3696c6","D2","batch4","","632","tol_toboard","","","","tol_peg_3","632","632","0","[[0,0,0],[1,2],[3]]","3","[[2,1,0],[3,0],[0]]","8","0","","","","","","6","","","","","","","","",""
"","","","","","single-stim-button","162","259336","0.0-2.0-34.3-0.3","61015eeeac2c6fae4f3696c6","D2","batch4","","632","tol_tohand","","","","tol_peg_2","632","632","0","[[0,0,0],[1,0],[3]]","4","[[2,1,0],[3,0],[0]]","8","0","","","","","","6","","","","","","","","",""
"","","","","","single-stim-button","163","259953","0.0-2.0-34.3-1.3","61015eeeac2c6fae4f3696c6","D2","batch4","","615","tol_toboard","","","","tol_peg_1","615","615","0","[[2,0,0],[1,0],[3]]","4","[[2,1,0],[3,0],[0]]","8","0","","","","","","6","","","","","","","","",""
"","","","","","single-stim-button","164","260369","0.0-2.0-34.4-0.4","61015eeeac2c6fae4f3696c6","D2","batch4","","415","tol_tohand","","","","tol_peg_2","415","415","0","[[2,0,0],[0,0],[3]]","5","[[2,1,0],[3,0],[0]]","8","0","","","","","","6","","","","","","","","",""
"","","","","","single-stim-button","165","260704","0.0-2.0-34.4-1.4","61015eeeac2c6fae4f3696c6","D2","batch4","","333","tol_toboard","","","","tol_peg_1","333","333","0","[[2,1,0],[0,0],[3]]","5","[[2,1,0],[3,0],[0]]","8","0","","","","","","6","","","","","","","","",""
"","","","","","single-stim-button","166","261202","0.0-2.0-34.5-0.5","61015eeeac2c6fae4f3696c6","D2","batch4","","498","tol_tohand","","","","tol_peg_3","498","498","0","[[2,1,0],[0,0],[0]]","6","[[2,1,0],[3,0],[0]]","8","0","","","","","","6","","","","","","","","",""
"","","","","","single-stim-button","167","261553","0.0-2.0-34.5-1.5","61015eeeac2c6fae4f3696c6","D2","batch4","","350","tol_toboard","","","","tol_peg_2","350","350","0","[[2,1,0],[3,0],[0]]","6","[[2,1,0],[3,0],[0]]","8","0","","","","","","6","","","","","","","","",""
"","","","","","poldrack-single-stim","168","262561","0.0-2.0-35.0","61015eeeac2c6fae4f3696c6","D2","batch4","","-1","tol_feedback","","","true","","1000","1000","500","","","","","","-1","none","true","5717","9078","","","","","","","","","",""
"","","","","","html-button-response","169","263570","0.0-2.0-36.0","61015eeeac2c6fae4f3696c6","D2","batch4","","1007.1000000238419","tol_trial_num","<div class = centerbox><p class = center-block-text>problem <strong>10</strong> out of 25 problems</p></div>","0","","","","","","","","","","","","","","","","","","","","","","","","",""
"","","","","","single-stim-button","170","266170","0.0-2.0-37.0-0.0","61015eeeac2c6fae4f3696c6","D2","batch4","","2599","tol_tohand","","","","tol_peg_2","2599","2599","0","[[3,0,0],[0,0],[2]]","1","[[3,0,0],[2,1],[0]]","9","0","","","","","","3","","","","","","","","",""
"","","","","","single-stim-button","171","266920","0.0-2.0-37.0-1.0","61015eeeac2c6fae4f3696c6","D2","batch4","","749","tol_toboard","","","","tol_peg_1","749","749","0","[[3,1,0],[0,0],[2]]","1","[[3,0,0],[2,1],[0]]","9","0","","","","","","3","","","","","","","","",""
"","","","","","single-stim-button","172","267470","0.0-2.0-37.1-0.1","61015eeeac2c6fae4f3696c6","D2","batch4","","549","tol_tohand","","","","tol_peg_3","549","549","0","[[3,1,0],[0,0],[0]]","2","[[3,0,0],[2,1],[0]]","9","0","","","","","","3","","","","","","","","",""
"","","","","","single-stim-button","173","267853","0.0-2.0-37.1-1.1","61015eeeac2c6fae4f3696c6","D2","batch4","","382","tol_toboard","","","","tol_peg_2","382","382","0","[[3,1,0],[2,0],[0]]","2","[[3,0,0],[2,1],[0]]","9","0","","","","","","3","","","","","","","","",""
"","","","","","single-stim-button","174","268955","0.0-2.0-37.2-0.2","61015eeeac2c6fae4f3696c6","D2","batch4","","1100","tol_tohand","","","","tol_peg_1","1100","1100","0","[[3,0,0],[2,0],[0]]","3","[[3,0,0],[2,1],[0]]","9","0","","","","","","3","","","","","","","","",""
"","","","","","single-stim-button","175","269337","0.0-2.0-37.2-1.2","61015eeeac2c6fae4f3696c6","D2","batch4","","382","tol_toboard","","","","tol_peg_2","382","382","0","[[3,0,0],[2,1],[0]]","3","[[3,0,0],[2,1],[0]]","9","0","","","","","","3","","","","","","","","",""
"","","","","","poldrack-single-stim","176","270350","0.0-2.0-38.0","61015eeeac2c6fae4f3696c6","D2","batch4","","-1","tol_feedback","","","true","","1000","1000","500","","","","","","-1","none","true","2599","4248","","","","","","","","","",""
"","","","","","html-button-response","177","271370","0.0-2.0-39.0","61015eeeac2c6fae4f3696c6","D2","batch4","","1019.6000000238419","tol_trial_num","<div class = centerbox><p class = center-block-text>problem <strong>11</strong> out of 25 problems</p></div>","0","","","","","","","","","","","","","","","","","","","","","","","","",""
"","","","","","single-stim-button","178","278288","0.0-2.0-40.0-0.0","61015eeeac2c6fae4f3696c6","D2","batch4","","6916","tol_tohand","","","","tol_peg_1","6916","6916","0","[[1,0,0],[3,0],[0]]","1","[[2,0,0],[1,3],[0]]","10","0","","","","","","6","","","","","","","","",""
"","","","","","single-stim-button","179","278921","0.0-2.0-40.0-1.0","61015eeeac2c6fae4f3696c6","D2","batch4","","632","tol_toboard","","","","tol_peg_2","632","632","0","[[1,0,0],[3,2],[0]]","1","[[2,0,0],[1,3],[0]]","10","0","","","","","","6","","","","","","","","",""
"","","","","","single-stim-button","180","279438","0.0-2.0-40.1-0.1","61015eeeac2c6fae4f3696c6","D2","batch4","","516","tol_tohand","","","","tol_peg_1","516","516","0","[[0,0,0],[3,2],[0]]","2","[[2,0,0],[1,3],[0]]","10","0","","","","","","6","","","","","","","","",""
"","","","","","single-stim-button","181","280071","0.0-2.0-40.1-1.1","61015eeeac2c6fae4f3696c6","D2","batch4","","632","tol_toboard","","","","tol_peg_3","632","632","0","[[0,0,0],[3,2],[1]]","2","[[2,0,0],[1,3],[0]]","10","0","","","","","","6","","","","","","","","",""
"","","","","","single-stim-button","182","280705","0.0-2.0-40.2-0.2","61015eeeac2c6fae4f3696c6","D2","batch4","","632","tol_tohand","","","","tol_peg_2","632","632","0","[[0,0,0],[3,0],[1]]","3","[[2,0,0],[1,3],[0]]","10","0","","","","","","6","","","","","","","","",""
"","","","","","single-stim-button","183","281338","0.0-2.0-40.2-1.2","61015eeeac2c6fae4f3696c6","D2","batch4","","633","tol_toboard","","","","tol_peg_1","633","633","0","[[2,0,0],[3,0],[1]]","3","[[2,0,0],[1,3],[0]]","10","0","","","","","","6","","","","","","","","",""
"","","","","","single-stim-button","184","281771","0.0-2.0-40.3-0.3","61015eeeac2c6fae4f3696c6","D2","batch4","","432","tol_tohand","","","","tol_peg_2","432","432","0","[[2,0,0],[0,0],[1]]","4","[[2,0,0],[1,3],[0]]","10","0","","","","","","6","","","","","","","","",""
"","","","","","single-stim-button","185","282139","0.0-2.0-40.3-1.3","61015eeeac2c6fae4f3696c6","D2","batch4","","366","tol_toboard","","","","tol_peg_1","366","366","0","[[2,3,0],[0,0],[1]]","4","[[2,0,0],[1,3],[0]]","10","0","","","","","","6","","","","","","","","",""
"","","","","","single-stim-button","186","283705","0.0-2.0-40.4-0.4","61015eeeac2c6fae4f3696c6","D2","batch4","","1565","tol_tohand","","","","tol_peg_3","1565","1565","0","[[2,3,0],[0,0],[0]]","5","[[2,0,0],[1,3],[0]]","10","0","","","","","","6","","","","","","","","",""
"","","","","","single-stim-button","187","284106","0.0-2.0-40.4-1.4","61015eeeac2c6fae4f3696c6","D2","batch4","","399","tol_toboard","","","","tol_peg_2","399","399","0","[[2,3,0],[1,0],[0]]","5","[[2,0,0],[1,3],[0]]","10","0","","","","","","6","","","","","","","","",""
"","","","","","single-stim-button","188","284572","0.0-2.0-40.5-0.5","61015eeeac2c6fae4f3696c6","D2","batch4","","465","tol_tohand","","","","tol_peg_1","465","465","0","[[2,0,0],[1,0],[0]]","6","[[2,0,0],[1,3],[0]]","10","0","","","","","","6","","","","","","","","",""
"","","","","","single-stim-button","189","285022","0.0-2.0-40.5-1.5","61015eeeac2c6fae4f3696c6","D2","batch4","","448","tol_toboard","","","","tol_peg_2","448","448","0","[[2,0,0],[1,3],[0]]","6","[[2,0,0],[1,3],[0]]","10","0","","","","","","6","","","","","","","","",""
"","","","","","poldrack-single-stim","190","286029","0.0-2.0-41.0","61015eeeac2c6fae4f3696c6","D2","batch4","","-1","tol_feedback","","","true","","1000","1000","500","","","","","","-1","none","true","6916","10526","","","","","","","","","",""
"","","","","","html-button-response","191","286956","0.0-2.0-42.0","61015eeeac2c6fae4f3696c6","D2","batch4","","925.5","tol_trial_num","<div class = centerbox><p class = center-block-text>problem <strong>12</strong> out of 25 problems</p></div>","0","","","","","","","","","","","","","","","","","","","","","","","","",""
"","","","","","single-stim-button","192","288672","0.0-2.0-43.0-0.0","61015eeeac2c6fae4f3696c6","D2","batch4","","1716","tol_tohand","","","","tol_peg_1","1716","1716","0","[[1,0,0],[3,0],[0]]","1","[[2,3,0],[0,0],[1]]","11","0","","","","","","4","","","","","","","","",""
"","","","","","single-stim-button","193","289222","0.0-2.0-43.0-1.0","61015eeeac2c6fae4f3696c6","D2","batch4","","549","tol_toboard","","","","tol_peg_2","549","549","0","[[1,0,0],[3,2],[0]]","1","[[2,3,0],[0,0],[1]]","11","0","","","","","","4","","","","","","","","",""
"","","","","","single-stim-button","194","289822","0.0-2.0-43.1-0.1","61015eeeac2c6fae4f3696c6","D2","batch4","","599","tol_tohand","","","","tol_peg_1","599","599","0","[[0,0,0],[3,2],[0]]","2","[[2,3,0],[0,0],[1]]","11","0","","","","","","4","","","","","","","","",""
"","","","","","single-stim-button","195","290505","0.0-2.0-43.1-1.1","61015eeeac2c6fae4f3696c6","D2","batch4","","681","tol_toboard","","","","tol_peg_3","681","681","0","[[0,0,0],[3,2],[1]]","2","[[2,3,0],[0,0],[1]]","11","0","","","","","","4","","","","","","","","",""
"","","","","","single-stim-button","196","291106","0.0-2.0-43.2-0.2","61015eeeac2c6fae4f3696c6","D2","batch4","","600","tol_tohand","","","","tol_peg_2","600","600","0","[[0,0,0],[3,0],[1]]","3","[[2,3,0],[0,0],[1]]","11","0","","","","","","4","","","","","","","","",""
"","","","","","single-stim-button","197","291856","0.0-2.0-43.2-1.2","61015eeeac2c6fae4f3696c6","D2","batch4","","750","tol_toboard","","","","tol_peg_1","750","750","0","[[2,0,0],[3,0],[1]]","3","[[2,3,0],[0,0],[1]]","11","0","","","","","","4","","","","","","","","",""
"","","","","","single-stim-button","198","292273","0.0-2.0-43.3-0.3","61015eeeac2c6fae4f3696c6","D2","batch4","","415","tol_tohand","","","","tol_peg_2","415","415","0","[[2,0,0],[0,0],[1]]","4","[[2,3,0],[0,0],[1]]","11","0","","","","","","4","","","","","","","","",""
"","","","","","single-stim-button","199","292873","0.0-2.0-43.3-1.3","61015eeeac2c6fae4f3696c6","D2","batch4","","599","tol_toboard","","","","tol_peg_1","599","599","0","[[2,3,0],[0,0],[1]]","4","[[2,3,0],[0,0],[1]]","11","0","","","","","","4","","","","","","","","",""
"","","","","","poldrack-single-stim","200","293882","0.0-2.0-44.0","61015eeeac2c6fae4f3696c6","D2","batch4","","-1","tol_feedback","","","true","","1000","1000","500","","","","","","-1","none","true","1716","3330","","","","","","","","","",""
"","","","","","html-button-response","201","294889","0.0-2.0-45.0","61015eeeac2c6fae4f3696c6","D2","batch4","","1005.8999999761581","tol_trial_num","<div class = centerbox><p class = center-block-text>problem <strong>13</strong> out of 25 problems</p></div>","0","","","","","","","","","","","","","","","","","","","","","","","","",""
"","","","","","single-stim-button","202","296573","0.0-2.0-46.0-0.0","61015eeeac2c6fae4f3696c6","D2","batch4","","1683","tol_tohand","","","","tol_peg_1","1683","1683","0","[[1,0,0],[3,0],[0]]","1","[[0,0,0],[2,3],[1]]","12","0","","","","","","4","","","","","","","","",""
"","","","","","single-stim-button","203","297206","0.0-2.0-46.0-1.0","61015eeeac2c6fae4f3696c6","D2","batch4","","632","tol_toboard","","","","tol_peg_2","632","632","0","[[1,0,0],[3,2],[0]]","1","[[0,0,0],[2,3],[1]]","12","0","","","","","","4","","","","","","","","",""
"","","","","","single-stim-button","204","297757","0.0-2.0-46.1-0.1","61015eeeac2c6fae4f3696c6","D2","batch4","","549","tol_tohand","","","","tol_peg_1","549","549","0","[[0,0,0],[3,2],[0]]","2","[[0,0,0],[2,3],[1]]","12","0","","","","","","4","","","","","","","","",""
"","","","","","single-stim-button","205","298540","0.0-2.0-46.1-1.1","61015eeeac2c6fae4f3696c6","D2","batch4","","781","tol_toboard","","","","tol_peg_3","781","781","0","[[0,0,0],[3,2],[1]]","2","[[0,0,0],[2,3],[1]]","12","0","","","","","","4","","","","","","","","",""
"","","","","","single-stim-button","206","299090","0.0-2.0-46.2-0.2","61015eeeac2c6fae4f3696c6","D2","batch4","","549","tol_tohand","","","","tol_peg_2","549","549","0","[[0,0,0],[3,0],[1]]","3","[[0,0,0],[2,3],[1]]","12","0","","","","","","4","","","","","","","","",""
"","","","","","single-stim-button","207","299890","0.0-2.0-46.2-1.2","61015eeeac2c6fae4f3696c6","D2","batch4","","799","tol_toboard","","","","tol_peg_1","799","799","0","[[2,0,0],[3,0],[1]]","3","[[0,0,0],[2,3],[1]]","12","0","","","","","","4","","","","","","","","",""
"","","","","","single-stim-button","208","301873","0.0-2.0-46.3-0.3","61015eeeac2c6fae4f3696c6","D2","batch4","","1982","tol_tohand","","","","tol_peg_3","1982","1982","0","[[2,0,0],[3,0],[0]]","4","[[0,0,0],[2,3],[1]]","12","0","","","","","","4","","","","","","","","",""
"","","","","","single-stim-button","209","302341","0.0-2.0-46.3-1.3","61015eeeac2c6fae4f3696c6","D2","batch4","","466","tol_toboard","","","","tol_peg_2","466","466","0","[[2,0,0],[3,1],[0]]","4","[[0,0,0],[2,3],[1]]","12","0","","","","","","4","","","","","","","","",""
"","","","","","single-stim-button","210","302773","0.0-2.0-46.4-0.4","61015eeeac2c6fae4f3696c6","D2","batch4","","431","tol_tohand","","","","tol_peg_1","431","431","0","[[0,0,0],[3,1],[0]]","5","[[0,0,0],[2,3],[1]]","12","0","","","","","","4","","","","","","","","",""
"","","","","","single-stim-button","211","303490","0.0-2.0-46.4-1.4","61015eeeac2c6fae4f3696c6","D2","batch4","","716","tol_toboard","","","","tol_peg_3","716","716","0","[[0,0,0],[3,1],[2]]","5","[[0,0,0],[2,3],[1]]","12","0","","","","","","4","","","","","","","","",""
"","","","","","single-stim-button","212","303975","0.0-2.0-46.5-0.5","61015eeeac2c6fae4f3696c6","D2","batch4","","483","tol_tohand","","","","tol_peg_2","483","483","0","[[0,0,0],[3,0],[2]]","6","[[0,0,0],[2,3],[1]]","12","0","","","","","","4","","","","","","","","",""
"","","","","","single-stim-button","213","304474","0.0-2.0-46.5-1.5","61015eeeac2c6fae4f3696c6","D2","batch4","","498","tol_toboard","","","","tol_peg_1","498","498","0","[[1,0,0],[3,0],[2]]","6","[[0,0,0],[2,3],[1]]","12","0","","","","","","4","","","","","","","","",""
"","","","","","single-stim-button","214","305357","0.0-2.0-46.6-0.6","61015eeeac2c6fae4f3696c6","D2","batch4","","883","tol_tohand","","","","tol_peg_2","883","883","0","[[1,0,0],[0,0],[2]]","7","[[0,0,0],[2,3],[1]]","12","0","","","","","","4","","","","","","","","",""
"","","","","","single-stim-button","215","306457","0.0-2.0-46.6-1.6","61015eeeac2c6fae4f3696c6","D2","batch4","","1099","tol_toboard","","","","tol_peg_1","1099","1099","0","[[1,3,0],[0,0],[2]]","7","[[0,0,0],[2,3],[1]]","12","0","","","","","","4","","","","","","","","",""
"","","","","","single-stim-button","216","307107","0.0-2.0-46.7-0.7","61015eeeac2c6fae4f3696c6","D2","batch4","","649","tol_tohand","","","","tol_peg_3","649","649","0","[[1,3,0],[0,0],[0]]","8","[[0,0,0],[2,3],[1]]","12","0","","","","","","4","","","","","","","","",""
"","","","","","single-stim-button","217","307741","0.0-2.0-46.7-1.7","61015eeeac2c6fae4f3696c6","D2","batch4","","633","tol_toboard","","","","tol_peg_2","633","633","0","[[1,3,0],[2,0],[0]]","8","[[0,0,0],[2,3],[1]]","12","0","","","","","","4","","","","","","","","",""
"","","","","","single-stim-button","218","308774","0.0-2.0-46.8-0.8","61015eeeac2c6fae4f3696c6","D2","batch4","","1032","tol_tohand","","","","tol_peg_1","1032","1032","0","[[1,0,0],[2,0],[0]]","9","[[0,0,0],[2,3],[1]]","12","0","","","","","","4","","","","","","","","",""
"","","","","","single-stim-button","219","309324","0.0-2.0-46.8-1.8","61015eeeac2c6fae4f3696c6","D2","batch4","","549","tol_toboard","","","","tol_peg_2","549","549","0","[[1,0,0],[2,3],[0]]","9","[[0,0,0],[2,3],[1]]","12","0","","","","","","4","","","","","","","","",""
"","","","","","single-stim-button","220","309808","0.0-2.0-46.9-0.9","61015eeeac2c6fae4f3696c6","D2","batch4","","483","tol_tohand","","","","tol_peg_1","483","483","0","[[0,0,0],[2,3],[0]]","10","[[0,0,0],[2,3],[1]]","12","0","","","","","","4","","","","","","","","",""
"","","","","","single-stim-button","221","310425","0.0-2.0-46.9-1.9","61015eeeac2c6fae4f3696c6","D2","batch4","","615","tol_toboard","","","","tol_peg_3","615","615","0","[[0,0,0],[2,3],[1]]","10","[[0,0,0],[2,3],[1]]","12","0","","","","","","4","","","","","","","","",""
"","","","","","poldrack-single-stim","222","311438","0.0-2.0-47.0","61015eeeac2c6fae4f3696c6","D2","batch4","","-1","tol_feedback","","","true","","1000","1000","500","","","","","","-1","none","true","1683","8724","","","","","","","","","",""
"","","","","","html-button-response","223","314809","0.0-2.0-48.0","61015eeeac2c6fae4f3696c6","D2","batch4","","3369.8000000715256","attention_check","<p class = block-text>How many balls are in your board<br></p>","1","true","","","","","","","","","","","","","","","","","","","","","","","",""
"","","","","","html-button-response","224","316226","0.0-2.0-49.0","61015eeeac2c6fae4f3696c6","D2","batch4","","1415","tol_trial_num","<div class = centerbox><p class = center-block-text>problem <strong>14</strong> out of 25 problems</p></div>","0","","","","","","","","","","","","","","","","","","","","","","","","",""
"","","","","","single-stim-button","225","319709","0.0-2.0-50.0-0.0","61015eeeac2c6fae4f3696c6","D2","batch4","","3481","tol_tohand","","","","tol_peg_1","3481","3481","0","[[2,0,0],[3,0],[0]]","1","[[1,2,0],[3,0],[0]]","13","0","","","","","","4","","","","","","","","",""
"","","","","","single-stim-button","226","320776","0.0-2.0-50.0-1.0","61015eeeac2c6fae4f3696c6","D2","batch4","","1066","tol_toboard","","","","tol_peg_2","1066","1066","0","[[2,0,0],[3,1],[0]]","1","[[1,2,0],[3,0],[0]]","13","0","","","","","","4","","","","","","","","",""
"","","","","","single-stim-button","227","321209","0.0-2.0-50.1-0.1","61015eeeac2c6fae4f3696c6","D2","batch4","","432","tol_tohand","","","","tol_peg_1","432","432","0","[[0,0,0],[3,1],[0]]","2","[[1,2,0],[3,0],[0]]","13","0","","","","","","4","","","","","","","","",""
"","","","","","single-stim-button","228","321825","0.0-2.0-50.1-1.1","61015eeeac2c6fae4f3696c6","D2","batch4","","616","tol_toboard","","","","tol_peg_3","616","616","0","[[0,0,0],[3,1],[2]]","2","[[1,2,0],[3,0],[0]]","13","0","","","","","","4","","","","","","","","",""
"","","","","","single-stim-button","229","322275","0.0-2.0-50.2-0.2","61015eeeac2c6fae4f3696c6","D2","batch4","","449","tol_tohand","","","","tol_peg_2","449","449","0","[[0,0,0],[3,0],[2]]","3","[[1,2,0],[3,0],[0]]","13","0","","","","","","4","","","","","","","","",""
"","","","","","single-stim-button","230","322726","0.0-2.0-50.2-1.2","61015eeeac2c6fae4f3696c6","D2","batch4","","449","tol_toboard","","","","tol_peg_1","449","449","0","[[1,0,0],[3,0],[2]]","3","[[1,2,0],[3,0],[0]]","13","0","","","","","","4","","","","","","","","",""
"","","","","","single-stim-button","231","324676","0.0-2.0-50.3-0.3","61015eeeac2c6fae4f3696c6","D2","batch4","","1950","tol_tohand","","","","tol_peg_3","1950","1950","0","[[1,0,0],[3,0],[0]]","4","[[1,2,0],[3,0],[0]]","13","0","","","","","","4","","","","","","","","",""
"","","","","","single-stim-button","232","325109","0.0-2.0-50.3-1.3","61015eeeac2c6fae4f3696c6","D2","batch4","","432","tol_toboard","","","","tol_peg_1","432","432","0","[[1,2,0],[3,0],[0]]","4","[[1,2,0],[3,0],[0]]","13","0","","","","","","4","","","","","","","","",""
"","","","","","poldrack-single-stim","233","326116","0.0-2.0-51.0","61015eeeac2c6fae4f3696c6","D2","batch4","","-1","tol_feedback","","","true","","1000","1000","500","","","","","","-1","none","true","3481","6312","","","","","","","","","",""
"","","","","","html-button-response","234","327026","0.0-2.0-52.0","61015eeeac2c6fae4f3696c6","D2","batch4","","908.8999999761581","tol_trial_num","<div class = centerbox><p class = center-block-text>problem <strong>15</strong> out of 25 problems</p></div>","0","","","","","","","","","","","","","","","","","","","","","","","","",""
"","","","","","single-stim-button","235","329043","0.0-2.0-53.0-0.0","61015eeeac2c6fae4f3696c6","D2","batch4","","2015","tol_tohand","","","","tol_peg_1","2015","2015","0","[[1,0,0],[3,0],[0]]","1","[[2,0,0],[3,0],[1]]","14","0","","","","","","3","","","","","","","","",""
"","","","","","single-stim-button","236","329993","0.0-2.0-53.0-1.0","61015eeeac2c6fae4f3696c6","D2","batch4","","950","tol_toboard","","","","tol_peg_2","950","950","0","[[1,0,0],[3,2],[0]]","1","[[2,0,0],[3,0],[1]]","14","0","","","","","","3","","","","","","","","",""
"","","","","","single-stim-button","237","330510","0.0-2.0-53.1-0.1","61015eeeac2c6fae4f3696c6","D2","batch4","","515","tol_tohand","","","","tol_peg_1","515","515","0","[[0,0,0],[3,2],[0]]","2","[[2,0,0],[3,0],[1]]","14","0","","","","","","3","","","","","","","","",""
"","","","","","single-stim-button","238","331143","0.0-2.0-53.1-1.1","61015eeeac2c6fae4f3696c6","D2","batch4","","633","tol_toboard","","","","tol_peg_3","633","633","0","[[0,0,0],[3,2],[1]]","2","[[2,0,0],[3,0],[1]]","14","0","","","","","","3","","","","","","","","",""
"","","","","","single-stim-button","239","331577","0.0-2.0-53.2-0.2","61015eeeac2c6fae4f3696c6","D2","batch4","","432","tol_tohand","","","","tol_peg_2","432","432","0","[[0,0,0],[3,0],[1]]","3","[[2,0,0],[3,0],[1]]","14","0","","","","","","3","","","","","","","","",""
"","","","","","single-stim-button","240","331977","0.0-2.0-53.2-1.2","61015eeeac2c6fae4f3696c6","D2","batch4","","400","tol_toboard","","","","tol_peg_1","400","400","0","[[2,0,0],[3,0],[1]]","3","[[2,0,0],[3,0],[1]]","14","0","","","","","","3","","","","","","","","",""
"","","","","","poldrack-single-stim","241","332991","0.0-2.0-54.0","61015eeeac2c6fae4f3696c6","D2","batch4","","-1","tol_feedback","","","true","","1000","1000","500","","","","","","-1","none","true","2015","2962","","","","","","","","","",""
"","","","","","html-button-response","242","333877","0.0-2.0-55.0","61015eeeac2c6fae4f3696c6","D2","batch4","","884.6000000238419","tol_trial_num","<div class = centerbox><p class = center-block-text>problem <strong>16</strong> out of 25 problems</p></div>","0","","","","","","","","","","","","","","","","","","","","","","","","",""
"","","","","","single-stim-button","243","337010","0.0-2.0-56.0-0.0","61015eeeac2c6fae4f3696c6","D2","batch4","","3131","tol_tohand","","","","tol_peg_2","3131","3131","0","[[0,0,0],[2,0],[1]]","1","[[2,3,0],[1,0],[0]]","15","0","","","","","","7","","","","","","","","",""
"","","","","","single-stim-button","244","338060","0.0-2.0-56.0-1.0","61015eeeac2c6fae4f3696c6","D2","batch4","","1049","tol_toboard","","","","tol_peg_1","1049","1049","0","[[3,0,0],[2,0],[1]]","1","[[2,3,0],[1,0],[0]]","15","0","","","","","","7","","","","","","","","",""
"","","","","","single-stim-button","245","340361","0.0-2.0-56.1-0.1","61015eeeac2c6fae4f3696c6","D2","batch4","","2299","tol_tohand","","","","tol_peg_3","2299","2299","0","[[3,0,0],[2,0],[0]]","2","[[2,3,0],[1,0],[0]]","15","0","","","","","","7","","","","","","","","",""
"","","","","","single-stim-button","246","340977","0.0-2.0-56.1-1.1","61015eeeac2c6fae4f3696c6","D2","batch4","","616","tol_toboard","","","","tol_peg_1","616","616","0","[[3,1,0],[2,0],[0]]","2","[[2,3,0],[1,0],[0]]","15","0","","","","","","7","","","","","","","","",""
"","","","","","single-stim-button","247","341477","0.0-2.0-56.2-0.2","61015eeeac2c6fae4f3696c6","D2","batch4","","499","tol_tohand","","","","tol_peg_2","499","499","0","[[3,1,0],[0,0],[0]]","3","[[2,3,0],[1,0],[0]]","15","0","","","","","","7","","","","","","","","",""
"","","","","","single-stim-button","248","342111","0.0-2.0-56.2-1.2","61015eeeac2c6fae4f3696c6","D2","batch4","","632","tol_toboard","","","","tol_peg_3","632","632","0","[[3,1,0],[0,0],[2]]","3","[[2,3,0],[1,0],[0]]","15","0","","","","","","7","","","","","","","","",""
"","","","","","single-stim-button","249","342744","0.0-2.0-56.3-0.3","61015eeeac2c6fae4f3696c6","D2","batch4","","633","tol_tohand","","","","tol_peg_1","633","633","0","[[3,0,0],[0,0],[2]]","4","[[2,3,0],[1,0],[0]]","15","0","","","","","","7","","","","","","","","",""
"","","","","","single-stim-button","250","343344","0.0-2.0-56.3-1.3","61015eeeac2c6fae4f3696c6","D2","batch4","","599","tol_toboard","","","","tol_peg_2","599","599","0","[[3,0,0],[1,0],[2]]","4","[[2,3,0],[1,0],[0]]","15","0","","","","","","7","","","","","","","","",""
"","","","","","single-stim-button","251","343778","0.0-2.0-56.4-0.4","61015eeeac2c6fae4f3696c6","D2","batch4","","432","tol_tohand","","","","tol_peg_1","432","432","0","[[0,0,0],[1,0],[2]]","5","[[2,3,0],[1,0],[0]]","15","0","","","","","","7","","","","","","","","",""
"","","","","","single-stim-button","252","344178","0.0-2.0-56.4-1.4","61015eeeac2c6fae4f3696c6","D2","batch4","","399","tol_toboard","","","","tol_peg_2","399","399","0","[[0,0,0],[1,3],[2]]","5","[[2,3,0],[1,0],[0]]","15","0","","","","","","7","","","","","","","","",""
"","","","","","single-stim-button","253","345161","0.0-2.0-56.5-0.5","61015eeeac2c6fae4f3696c6","D2","batch4","","983","tol_tohand","","","","tol_peg_3","983","983","0","[[0,0,0],[1,3],[0]]","6","[[2,3,0],[1,0],[0]]","15","0","","","","","","7","","","","","","","","",""
"","","","","","single-stim-button","254","345728","0.0-2.0-56.5-1.5","61015eeeac2c6fae4f3696c6","D2","batch4","","565","tol_toboard","","","","tol_peg_1","565","565","0","[[2,0,0],[1,3],[0]]","6","[[2,3,0],[1,0],[0]]","15","0","","","","","","7","","","","","","","","",""
"","","","","","single-stim-button","255","346611","0.0-2.0-56.6-0.6","61015eeeac2c6fae4f3696c6","D2","batch4","","882","tol_tohand","","","","tol_peg_2","882","882","0","[[2,0,0],[1,0],[0]]","7","[[2,3,0],[1,0],[0]]","15","0","","","","","","7","","","","","","","","",""
"","","","","","single-stim-button","256","347045","0.0-2.0-56.6-1.6","61015eeeac2c6fae4f3696c6","D2","batch4","","433","tol_toboard","","","","tol_peg_1","433","433","0","[[2,3,0],[1,0],[0]]","7","[[2,3,0],[1,0],[0]]","15","0","","","","","","7","","","","","","","","",""
"","","","","","poldrack-single-stim","257","348052","0.0-2.0-57.0","61015eeeac2c6fae4f3696c6","D2","batch4","","-1","tol_feedback","","","true","","1000","1000","500","","","","","","-1","none","true","3131","8859","","","","","","","","","",""
"","","","","","html-button-response","258","349295","0.0-2.0-58.0","61015eeeac2c6fae4f3696c6","D2","batch4","","1242","tol_trial_num","<div class = centerbox><p class = center-block-text>problem <strong>17</strong> out of 25 problems</p></div>","0","","","","","","","","","","","","","","","","","","","","","","","","",""
"","","","","","single-stim-button","259","351445","0.0-2.0-59.0-0.0","61015eeeac2c6fae4f3696c6","D2","batch4","","2149","tol_tohand","","","","tol_peg_2","2149","2149","0","[[1,2,0],[0,0],[0]]","1","[[3,1,0],[2,0],[0]]","16","0","","","","","","5","","","","","","","","",""
"","","","","","single-stim-button","260","352078","0.0-2.0-59.0-1.0","61015eeeac2c6fae4f3696c6","D2","batch4","","632","tol_toboard","","","","tol_peg_3","632","632","0","[[1,2,0],[0,0],[3]]","1","[[3,1,0],[2,0],[0]]","16","0","","","","","","5","","","","","","","","",""
"","","","","","single-stim-button","261","352795","0.0-2.0-59.1-0.1","61015eeeac2c6fae4f3696c6","D2","batch4","","716","tol_tohand","","","","tol_peg_1","716","716","0","[[1,0,0],[0,0],[3]]","2","[[3,1,0],[2,0],[0]]","16","0","","","","","","5","","","","","","","","",""
"","","","","","single-stim-button","262","353395","0.0-2.0-59.1-1.1","61015eeeac2c6fae4f3696c6","D2","batch4","","599","tol_toboard","","","","tol_peg_2","599","599","0","[[1,0,0],[2,0],[3]]","2","[[3,1,0],[2,0],[0]]","16","0","","","","","","5","","","","","","","","",""
"","","","","","single-stim-button","263","353929","0.0-2.0-59.2-0.2","61015eeeac2c6fae4f3696c6","D2","batch4","","533","tol_tohand","","","","tol_peg_1","533","533","0","[[0,0,0],[2,0],[3]]","3","[[3,1,0],[2,0],[0]]","16","0","","","","","","5","","","","","","","","",""
"","","","","","single-stim-button","264","354362","0.0-2.0-59.2-1.2","61015eeeac2c6fae4f3696c6","D2","batch4","","432","tol_toboard","","","","tol_peg_2","432","432","0","[[0,0,0],[2,1],[3]]","3","[[3,1,0],[2,0],[0]]","16","0","","","","","","5","","","","","","","","",""
"","","","","","single-stim-button","265","354812","0.0-2.0-59.3-0.3","61015eeeac2c6fae4f3696c6","D2","batch4","","448","tol_tohand","","","","tol_peg_3","448","448","0","[[0,0,0],[2,1],[0]]","4","[[3,1,0],[2,0],[0]]","16","0","","","","","","5","","","","","","","","",""
"","","","","","single-stim-button","266","355396","0.0-2.0-59.3-1.3","61015eeeac2c6fae4f3696c6","D2","batch4","","582","tol_toboard","","","","tol_peg_1","582","582","0","[[3,0,0],[2,1],[0]]","4","[[3,1,0],[2,0],[0]]","16","0","","","","","","5","","","","","","","","",""
"","","","","","single-stim-button","267","355928","0.0-2.0-59.4-0.4","61015eeeac2c6fae4f3696c6","D2","batch4","","532","tol_tohand","","","","tol_peg_2","532","532","0","[[3,0,0],[2,0],[0]]","5","[[3,1,0],[2,0],[0]]","16","0","","","","","","5","","","","","","","","",""
"","","","","","single-stim-button","268","356312","0.0-2.0-59.4-1.4","61015eeeac2c6fae4f3696c6","D2","batch4","","383","tol_toboard","","","","tol_peg_1","383","383","0","[[3,1,0],[2,0],[0]]","5","[[3,1,0],[2,0],[0]]","16","0","","","","","","5","","","","","","","","",""
"","","","","","poldrack-single-stim","269","357319","0.0-2.0-60.0","61015eeeac2c6fae4f3696c6","D2","batch4","","-1","tol_feedback","","","true","","1000","1000","500","","","","","","-1","none","true","2149","4378","","","","","","","","","",""
"","","","","","html-button-response","270","360180","0.0-2.0-61.0","61015eeeac2c6fae4f3696c6","D2","batch4","","2858.2999999523163","tol_trial_num","<div class = centerbox><p class = center-block-text>problem <strong>18</strong> out of 25 problems</p></div>","0","","","","","","","","","","","","","","","","","","","","","","","","",""
"","","","","","single-stim-button","271","361963","0.0-2.0-62.0-0.0","61015eeeac2c6fae4f3696c6","D2","batch4","","1781","tol_tohand","","","","tol_peg_1","1781","1781","0","[[1,0,0],[3,0],[0]]","1","[[3,0,0],[2,0],[1]]","17","0","","","","","","5","","","","","","","","",""
"","","","","","single-stim-button","272","362563","0.0-2.0-62.0-1.0","61015eeeac2c6fae4f3696c6","D2","batch4","","599","tol_toboard","","","","tol_peg_2","599","599","0","[[1,0,0],[3,2],[0]]","1","[[3,0,0],[2,0],[1]]","17","0","","","","","","5","","","","","","","","",""
"","","","","","single-stim-button","273","363046","0.0-2.0-62.1-0.1","61015eeeac2c6fae4f3696c6","D2","batch4","","483","tol_tohand","","","","tol_peg_1","483","483","0","[[0,0,0],[3,2],[0]]","2","[[3,0,0],[2,0],[1]]","17","0","","","","","","5","","","","","","","","",""
"","","","","","single-stim-button","274","363713","0.0-2.0-62.1-1.1","61015eeeac2c6fae4f3696c6","D2","batch4","","666","tol_toboard","","","","tol_peg_3","666","666","0","[[0,0,0],[3,2],[1]]","2","[[3,0,0],[2,0],[1]]","17","0","","","","","","5","","","","","","","","",""
"","","","","","single-stim-button","275","364346","0.0-2.0-62.2-0.2","61015eeeac2c6fae4f3696c6","D2","batch4","","632","tol_tohand","","","","tol_peg_2","632","632","0","[[0,0,0],[3,0],[1]]","3","[[3,0,0],[2,0],[1]]","17","0","","","","","","5","","","","","","","","",""
"","","","","","single-stim-button","276","365347","0.0-2.0-62.2-1.2","61015eeeac2c6fae4f3696c6","D2","batch4","","1000","tol_toboard","","","","tol_peg_1","1000","1000","0","[[2,0,0],[3,0],[1]]","3","[[3,0,0],[2,0],[1]]","17","0","","","","","","5","","","","","","","","",""
"","","","","","single-stim-button","277","365880","0.0-2.0-62.3-0.3","61015eeeac2c6fae4f3696c6","D2","batch4","","531","tol_tohand","","","","tol_peg_2","531","531","0","[[2,0,0],[0,0],[1]]","4","[[3,0,0],[2,0],[1]]","17","0","","","","","","5","","","","","","","","",""
"","","","","","single-stim-button","278","367247","0.0-2.0-62.3-1.3","61015eeeac2c6fae4f3696c6","D2","batch4","","1366","tol_toboard","","","","tol_peg_1","1366","1366","0","[[2,3,0],[0,0],[1]]","4","[[3,0,0],[2,0],[1]]","17","0","","","","","","5","","","","","","","","",""
"","","","","","single-stim-button","279","367880","0.0-2.0-62.4-0.4","61015eeeac2c6fae4f3696c6","D2","batch4","","633","tol_tohand","","","","tol_peg_3","633","633","0","[[2,3,0],[0,0],[0]]","5","[[3,0,0],[2,0],[1]]","17","0","","","","","","5","","","","","","","","",""
"","","","","","single-stim-button","280","368564","0.0-2.0-62.4-1.4","61015eeeac2c6fae4f3696c6","D2","batch4","","682","tol_toboard","","","","tol_peg_2","682","682","0","[[2,3,0],[1,0],[0]]","5","[[3,0,0],[2,0],[1]]","17","0","","","","","","5","","","","","","","","",""
"","","","","","single-stim-button","281","369113","0.0-2.0-62.5-0.5","61015eeeac2c6fae4f3696c6","D2","batch4","","548","tol_tohand","","","","tol_peg_1","548","548","0","[[2,0,0],[1,0],[0]]","6","[[3,0,0],[2,0],[1]]","17","0","","","","","","5","","","","","","","","",""
"","","","","","single-stim-button","282","369630","0.0-2.0-62.5-1.5","61015eeeac2c6fae4f3696c6","D2","batch4","","516","tol_toboard","","","","tol_peg_2","516","516","0","[[2,0,0],[1,3],[0]]","6","[[3,0,0],[2,0],[1]]","17","0","","","","","","5","","","","","","","","",""
"","","","","","single-stim-button","283","370130","0.0-2.0-62.6-0.6","61015eeeac2c6fae4f3696c6","D2","batch4","","499","tol_tohand","","","","tol_peg_1","499","499","0","[[0,0,0],[1,3],[0]]","7","[[3,0,0],[2,0],[1]]","17","0","","","","","","5","","","","","","","","",""
"","","","","","single-stim-button","284","370830","0.0-2.0-62.6-1.6","61015eeeac2c6fae4f3696c6","D2","batch4","","699","tol_toboard","","","","tol_peg_3","699","699","0","[[0,0,0],[1,3],[2]]","7","[[3,0,0],[2,0],[1]]","17","0","","","","","","5","","","","","","","","",""
"","","","","","single-stim-button","285","371430","0.0-2.0-62.7-0.7","61015eeeac2c6fae4f3696c6","D2","batch4","","599","tol_tohand","","","","tol_peg_2","599","599","0","[[0,0,0],[1,0],[2]]","8","[[3,0,0],[2,0],[1]]","17","0","","","","","","5","","","","","","","","",""
"","","","","","single-stim-button","286","372214","0.0-2.0-62.7-1.7","61015eeeac2c6fae4f3696c6","D2","batch4","","782","tol_toboard","","","","tol_peg_1","782","782","0","[[3,0,0],[1,0],[2]]","8","[[3,0,0],[2,0],[1]]","17","0","","","","","","5","","","","","","","","",""
"","","","","","single-stim-button","287","374581","0.0-2.0-62.8-0.8","61015eeeac2c6fae4f3696c6","D2","batch4","","2365","tol_tohand","","","","tol_peg_2","2365","2365","0","[[3,0,0],[0,0],[2]]","9","[[3,0,0],[2,0],[1]]","17","0","","","","","","5","","","","","","","","",""
"","","","","","single-stim-button","288","375147","0.0-2.0-62.8-1.8","61015eeeac2c6fae4f3696c6","D2","batch4","","566","tol_toboard","","","","tol_peg_1","566","566","0","[[3,1,0],[0,0],[2]]","9","[[3,0,0],[2,0],[1]]","17","0","","","","","","5","","","","","","","","",""
"","","","","","single-stim-button","289","375681","0.0-2.0-62.9-0.9","61015eeeac2c6fae4f3696c6","D2","batch4","","533","tol_tohand","","","","tol_peg_3","533","533","0","[[3,1,0],[0,0],[0]]","10","[[3,0,0],[2,0],[1]]","17","0","","","","","","5","","","","","","","","",""
"","","","","","single-stim-button","290","376381","0.0-2.0-62.9-1.9","61015eeeac2c6fae4f3696c6","D2","batch4","","698","tol_toboard","","","","tol_peg_2","698","698","0","[[3,1,0],[2,0],[0]]","10","[[3,0,0],[2,0],[1]]","17","0","","","","","","5","","","","","","","","",""
"","","","","","single-stim-button","291","376982","0.0-2.0-62.10-0.10","61015eeeac2c6fae4f3696c6","D2","batch4","","599","tol_tohand","","","","tol_peg_1","599","599","0","[[3,0,0],[2,0],[0]]","11","[[3,0,0],[2,0],[1]]","17","0","","","","","","5","","","","","","","","",""
"","","","","","single-stim-button","292","377681","0.0-2.0-62.10-1.10","61015eeeac2c6fae4f3696c6","D2","batch4","","697","tol_toboard","","","","tol_peg_3","697","697","0","[[3,0,0],[2,0],[1]]","11","[[3,0,0],[2,0],[1]]","17","0","","","","","","5","","","","","","","","",""
"","","","","","poldrack-single-stim","293","378689","0.0-2.0-63.0","61015eeeac2c6fae4f3696c6","D2","batch4","","-1","tol_feedback","","","true","","1000","1000","500","","","","","","-1","none","true","1781","9203","","","","","","","","","",""
"","","","","","html-button-response","294","379515","0.0-2.0-64.0","61015eeeac2c6fae4f3696c6","D2","batch4","","824.8999999761581","tol_trial_num","<div class = centerbox><p class = center-block-text>problem <strong>19</strong> out of 25 problems</p></div>","0","","","","","","","","","","","","","","","","","","","","","","","","",""
"","","","","","single-stim-button","295","384265","0.0-2.0-65.0-0.0","61015eeeac2c6fae4f3696c6","D2","batch4","","4749","tol_tohand","","","","tol_peg_1","4749","4749","0","[[1,0,0],[3,0],[0]]","1","[[0,0,0],[1,2],[3]]","18","0","","","","","","7","","","","","","","","",""
"","","","","","single-stim-button","296","384815","0.0-2.0-65.0-1.0","61015eeeac2c6fae4f3696c6","D2","batch4","","549","tol_toboard","","","","tol_peg_2","549","549","0","[[1,0,0],[3,2],[0]]","1","[[0,0,0],[1,2],[3]]","18","0","","","","","","7","","","","","","","","",""
"","","","","","single-stim-button","297","385698","0.0-2.0-65.1-0.1","61015eeeac2c6fae4f3696c6","D2","batch4","","882","tol_tohand","","","","tol_peg_1","882","882","0","[[0,0,0],[3,2],[0]]","2","[[0,0,0],[1,2],[3]]","18","0","","","","","","7","","","","","","","","",""
"","","","","","single-stim-button","298","386299","0.0-2.0-65.1-1.1","61015eeeac2c6fae4f3696c6","D2","batch4","","599","tol_toboard","","","","tol_peg_3","599","599","0","[[0,0,0],[3,2],[1]]","2","[[0,0,0],[1,2],[3]]","18","0","","","","","","7","","","","","","","","",""
"","","","","","single-stim-button","299","386916","0.0-2.0-65.2-0.2","61015eeeac2c6fae4f3696c6","D2","batch4","","616","tol_tohand","","","","tol_peg_2","616","616","0","[[0,0,0],[3,0],[1]]","3","[[0,0,0],[1,2],[3]]","18","0","","","","","","7","","","","","","","","",""
"","","","","","single-stim-button","300","387482","0.0-2.0-65.2-1.2","61015eeeac2c6fae4f3696c6","D2","batch4","","565","tol_toboard","","","","tol_peg_1","565","565","0","[[2,0,0],[3,0],[1]]","3","[[0,0,0],[1,2],[3]]","18","0","","","","","","7","","","","","","","","",""
"","","","","","single-stim-button","301","388799","0.0-2.0-65.3-0.3","61015eeeac2c6fae4f3696c6","D2","batch4","","1316","tol_tohand","","","","tol_peg_2","1316","1316","0","[[2,0,0],[0,0],[1]]","4","[[0,0,0],[1,2],[3]]","18","0","","","","","","7","","","","","","","","",""
"","","","","","single-stim-button","302","389215","0.0-2.0-65.3-1.3","61015eeeac2c6fae4f3696c6","D2","batch4","","415","tol_toboard","","","","tol_peg_1","415","415","0","[[2,3,0],[0,0],[1]]","4","[[0,0,0],[1,2],[3]]","18","0","","","","","","7","","","","","","","","",""
"","","","","","single-stim-button","303","389716","0.0-2.0-65.4-0.4","61015eeeac2c6fae4f3696c6","D2","batch4","","499","tol_tohand","","","","tol_peg_3","499","499","0","[[2,3,0],[0,0],[0]]","5","[[0,0,0],[1,2],[3]]","18","0","","","","","","7","","","","","","","","",""
"","","","","","single-stim-button","304","390382","0.0-2.0-65.4-1.4","61015eeeac2c6fae4f3696c6","D2","batch4","","666","tol_toboard","","","","tol_peg_2","666","666","0","[[2,3,0],[1,0],[0]]","5","[[0,0,0],[1,2],[3]]","18","0","","","","","","7","","","","","","","","",""
"","","","","","single-stim-button","305","390866","0.0-2.0-65.5-0.5","61015eeeac2c6fae4f3696c6","D2","batch4","","482","tol_tohand","","","","tol_peg_1","482","482","0","[[2,0,0],[1,0],[0]]","6","[[0,0,0],[1,2],[3]]","18","0","","","","","","7","","","","","","","","",""
"","","","","","single-stim-button","306","391533","0.0-2.0-65.5-1.5","61015eeeac2c6fae4f3696c6","D2","batch4","","667","tol_toboard","","","","tol_peg_3","667","667","0","[[2,0,0],[1,0],[3]]","6","[[0,0,0],[1,2],[3]]","18","0","","","","","","7","","","","","","","","",""
"","","","","","single-stim-button","307","392099","0.0-2.0-65.6-0.6","61015eeeac2c6fae4f3696c6","D2","batch4","","565","tol_tohand","","","","tol_peg_1","565","565","0","[[0,0,0],[1,0],[3]]","7","[[0,0,0],[1,2],[3]]","18","0","","","","","","7","","","","","","","","",""
"","","","","","single-stim-button","308","392682","0.0-2.0-65.6-1.6","61015eeeac2c6fae4f3696c6","D2","batch4","","582","tol_toboard","","","","tol_peg_2","582","582","0","[[0,0,0],[1,2],[3]]","7","[[0,0,0],[1,2],[3]]","18","0","","","","","","7","","","","","","","","",""
"","","","","","poldrack-single-stim","309","393685","0.0-2.0-66.0","61015eeeac2c6fae4f3696c6","D2","batch4","","-1","tol_feedback","","","true","","1000","1000","500","","","","","","-1","none","true","4749","9109","","","","","","","","","",""
"","","","","","html-button-response","310","394533","0.0-2.0-67.0","61015eeeac2c6fae4f3696c6","D2","batch4","","847","tol_trial_num","<div class = centerbox><p class = center-block-text>problem <strong>20</strong> out of 25 problems</p></div>","0","","","","","","","","","","","","","","","","","","","","","","","","",""
"","","","","","single-stim-button","311","397500","0.0-2.0-68.0-0.0","61015eeeac2c6fae4f3696c6","D2","batch4","","2965","tol_tohand","","","","tol_peg_1","2965","2965","0","[[1,0,0],[3,0],[0]]","1","[[2,1,0],[0,0],[3]]","19","0","","","","","","5","","","","","","","","",""
"","","","","","single-stim-button","312","398033","0.0-2.0-68.0-1.0","61015eeeac2c6fae4f3696c6","D2","batch4","","533","tol_toboard","","","","tol_peg_2","533","533","0","[[1,0,0],[3,2],[0]]","1","[[2,1,0],[0,0],[3]]","19","0","","","","","","5","","","","","","","","",""
"","","","","","single-stim-button","313","398550","0.0-2.0-68.1-0.1","61015eeeac2c6fae4f3696c6","D2","batch4","","516","tol_tohand","","","","tol_peg_1","516","516","0","[[0,0,0],[3,2],[0]]","2","[[2,1,0],[0,0],[3]]","19","0","","","","","","5","","","","","","","","",""
"","","","","","single-stim-button","314","399467","0.0-2.0-68.1-1.1","61015eeeac2c6fae4f3696c6","D2","batch4","","915","tol_toboard","","","","tol_peg_3","915","915","0","[[0,0,0],[3,2],[1]]","2","[[2,1,0],[0,0],[3]]","19","0","","","","","","5","","","","","","","","",""
"","","","","","single-stim-button","315","400067","0.0-2.0-68.2-0.2","61015eeeac2c6fae4f3696c6","D2","batch4","","598","tol_tohand","","","","tol_peg_2","598","598","0","[[0,0,0],[3,0],[1]]","3","[[2,1,0],[0,0],[3]]","19","0","","","","","","5","","","","","","","","",""
"","","","","","single-stim-button","316","400701","0.0-2.0-68.2-1.2","61015eeeac2c6fae4f3696c6","D2","batch4","","633","tol_toboard","","","","tol_peg_1","633","633","0","[[2,0,0],[3,0],[1]]","3","[[2,1,0],[0,0],[3]]","19","0","","","","","","5","","","","","","","","",""
"","","","","","single-stim-button","317","401200","0.0-2.0-68.3-0.3","61015eeeac2c6fae4f3696c6","D2","batch4","","499","tol_tohand","","","","tol_peg_3","499","499","0","[[2,0,0],[3,0],[0]]","4","[[2,1,0],[0,0],[3]]","19","0","","","","","","5","","","","","","","","",""
"","","","","","single-stim-button","318","401799","0.0-2.0-68.3-1.3","61015eeeac2c6fae4f3696c6","D2","batch4","","598","tol_toboard","","","","tol_peg_1","598","598","0","[[2,1,0],[3,0],[0]]","4","[[2,1,0],[0,0],[3]]","19","0","","","","","","5","","","","","","","","",""
"","","","","","single-stim-button","319","402283","0.0-2.0-68.4-0.4","61015eeeac2c6fae4f3696c6","D2","batch4","","483","tol_tohand","","","","tol_peg_2","483","483","0","[[2,1,0],[0,0],[0]]","5","[[2,1,0],[0,0],[3]]","19","0","","","","","","5","","","","","","","","",""
"","","","","","single-stim-button","320","402800","0.0-2.0-68.4-1.4","61015eeeac2c6fae4f3696c6","D2","batch4","","516","tol_toboard","","","","tol_peg_3","516","516","0","[[2,1,0],[0,0],[3]]","5","[[2,1,0],[0,0],[3]]","19","0","","","","","","5","","","","","","","","",""
"","","","","","poldrack-single-stim","321","403805","0.0-2.0-69.0","61015eeeac2c6fae4f3696c6","D2","batch4","","-1","tol_feedback","","","true","","1000","1000","500","","","","","","-1","none","true","2965","5061","","","","","","","","","",""
"","","","","","html-button-response","322","405050","0.0-2.0-70.0","61015eeeac2c6fae4f3696c6","D2","batch4","","1244.2000000476837","tol_trial_num","<div class = centerbox><p class = center-block-text>problem <strong>21</strong> out of 25 problems</p></div>","0","","","","","","","","","","","","","","","","","","","","","","","","",""
"","","","","","single-stim-button","323","407134","0.0-2.0-71.0-0.0","61015eeeac2c6fae4f3696c6","D2","batch4","","2083","tol_tohand","","","","tol_peg_1","2083","2083","0","[[1,0,0],[3,0],[0]]","1","[[3,2,0],[0,0],[1]]","20","0","","","","","","6","","","","","","","","",""
"","","","","","single-stim-button","324","407734","0.0-2.0-71.0-1.0","61015eeeac2c6fae4f3696c6","D2","batch4","","599","tol_toboard","","","","tol_peg_2","599","599","0","[[1,0,0],[3,2],[0]]","1","[[3,2,0],[0,0],[1]]","20","0","","","","","","6","","","","","","","","",""
"","","","","","single-stim-button","325","408284","0.0-2.0-71.1-0.1","61015eeeac2c6fae4f3696c6","D2","batch4","","548","tol_tohand","","","","tol_peg_1","548","548","0","[[0,0,0],[3,2],[0]]","2","[[3,2,0],[0,0],[1]]","20","0","","","","","","6","","","","","","","","",""
"","","","","","single-stim-button","326","409018","0.0-2.0-71.1-1.1","61015eeeac2c6fae4f3696c6","D2","batch4","","733","tol_toboard","","","","tol_peg_3","733","733","0","[[0,0,0],[3,2],[1]]","2","[[3,2,0],[0,0],[1]]","20","0","","","","","","6","","","","","","","","",""
"","","","","","single-stim-button","327","410534","0.0-2.0-71.2-0.2","61015eeeac2c6fae4f3696c6","D2","batch4","","1516","tol_tohand","","","","tol_peg_2","1516","1516","0","[[0,0,0],[3,0],[1]]","3","[[3,2,0],[0,0],[1]]","20","0","","","","","","6","","","","","","","","",""
"","","","","","single-stim-button","328","411434","0.0-2.0-71.2-1.2","61015eeeac2c6fae4f3696c6","D2","batch4","","899","tol_toboard","","","","tol_peg_1","899","899","0","[[2,0,0],[3,0],[1]]","3","[[3,2,0],[0,0],[1]]","20","0","","","","","","6","","","","","","","","",""
"","","","","","single-stim-button","329","415851","0.0-2.0-71.3-0.3","61015eeeac2c6fae4f3696c6","D2","batch4","","4416","tol_tohand","","","","tol_peg_2","4416","4416","0","[[2,0,0],[0,0],[1]]","4","[[3,2,0],[0,0],[1]]","20","0","","","","","","6","","","","","","","","",""
"","","","","","single-stim-button","330","417818","0.0-2.0-71.3-1.3","61015eeeac2c6fae4f3696c6","D2","batch4","","1966","tol_toboard","","","","tol_peg_1","1966","1966","0","[[2,3,0],[0,0],[1]]","4","[[3,2,0],[0,0],[1]]","20","0","","","","","","6","","","","","","","","",""
"","","","","","single-stim-button","331","418885","0.0-2.0-71.4-0.4","61015eeeac2c6fae4f3696c6","D2","batch4","","1066","tol_tohand","","","","tol_peg_3","1066","1066","0","[[2,3,0],[0,0],[0]]","5","[[3,2,0],[0,0],[1]]","20","0","","","","","","6","","","","","","","","",""
"","","","","","single-stim-button","332","419686","0.0-2.0-71.4-1.4","61015eeeac2c6fae4f3696c6","D2","batch4","","799","tol_toboard","","","","tol_peg_2","799","799","0","[[2,3,0],[1,0],[0]]","5","[[3,2,0],[0,0],[1]]","20","0","","","","","","6","","","","","","","","",""
"","","","","","single-stim-button","333","420702","0.0-2.0-71.5-0.5","61015eeeac2c6fae4f3696c6","D2","batch4","","1015","tol_tohand","","","","tol_peg_1","1015","1015","0","[[2,0,0],[1,0],[0]]","6","[[3,2,0],[0,0],[1]]","20","0","","","","","","6","","","","","","","","",""
"","","","","","single-stim-button","334","421819","0.0-2.0-71.5-1.5","61015eeeac2c6fae4f3696c6","D2","batch4","","1115","tol_toboard","","","","tol_peg_2","1115","1115","0","[[2,0,0],[1,3],[0]]","6","[[3,2,0],[0,0],[1]]","20","0","","","","","","6","","","","","","","","",""
"","","","","","single-stim-button","335","422502","0.0-2.0-71.6-0.6","61015eeeac2c6fae4f3696c6","D2","batch4","","682","tol_tohand","","","","tol_peg_1","682","682","0","[[0,0,0],[1,3],[0]]","7","[[3,2,0],[0,0],[1]]","20","0","","","","","","6","","","","","","","","",""
"","","","","","single-stim-button","336","423186","0.0-2.0-71.6-1.6","61015eeeac2c6fae4f3696c6","D2","batch4","","682","tol_toboard","","","","tol_peg_3","682","682","0","[[0,0,0],[1,3],[2]]","7","[[3,2,0],[0,0],[1]]","20","0","","","","","","6","","","","","","","","",""
"","","","","","single-stim-button","337","423786","0.0-2.0-71.7-0.7","61015eeeac2c6fae4f3696c6","D2","batch4","","599","tol_tohand","","","","tol_peg_2","599","599","0","[[0,0,0],[1,0],[2]]","8","[[3,2,0],[0,0],[1]]","20","0","","","","","","6","","","","","","","","",""
"","","","","","single-stim-button","338","424352","0.0-2.0-71.7-1.7","61015eeeac2c6fae4f3696c6","D2","batch4","","566","tol_toboard","","","","tol_peg_1","566","566","0","[[3,0,0],[1,0],[2]]","8","[[3,2,0],[0,0],[1]]","20","0","","","","","","6","","","","","","","","",""
"","","","","","single-stim-button","339","424969","0.0-2.0-71.8-0.8","61015eeeac2c6fae4f3696c6","D2","batch4","","616","tol_tohand","","","","tol_peg_3","616","616","0","[[3,0,0],[1,0],[0]]","9","[[3,2,0],[0,0],[1]]","20","0","","","","","","6","","","","","","","","",""
"","","","","","single-stim-button","340","425603","0.0-2.0-71.8-1.8","61015eeeac2c6fae4f3696c6","D2","batch4","","633","tol_toboard","","","","tol_peg_1","633","633","0","[[3,2,0],[1,0],[0]]","9","[[3,2,0],[0,0],[1]]","20","0","","","","","","6","","","","","","","","",""
"","","","","","single-stim-button","341","426102","0.0-2.0-71.9-0.9","61015eeeac2c6fae4f3696c6","D2","batch4","","498","tol_tohand","","","","tol_peg_2","498","498","0","[[3,2,0],[0,0],[0]]","10","[[3,2,0],[0,0],[1]]","20","0","","","","","","6","","","","","","","","",""
"","","","","","single-stim-button","342","426819","0.0-2.0-71.9-1.9","61015eeeac2c6fae4f3696c6","D2","batch4","","716","tol_toboard","","","","tol_peg_3","716","716","0","[[3,2,0],[0,0],[1]]","10","[[3,2,0],[0,0],[1]]","20","0","","","","","","6","","","","","","","","",""
"","","","","","poldrack-single-stim","343","427826","0.0-2.0-72.0","61015eeeac2c6fae4f3696c6","D2","batch4","","-1","tol_feedback","","","true","","1000","1000","500","","","","","","-1","none","true","2083","13039","","","","","","","","","",""
"","","","","","html-button-response","344","428703","0.0-2.0-73.0","61015eeeac2c6fae4f3696c6","D2","batch4","","875.5","tol_trial_num","<div class = centerbox><p class = center-block-text>problem <strong>22</strong> out of 25 problems</p></div>","0","","","","","","","","","","","","","","","","","","","","","","","","",""
"","","","","","single-stim-button","345","431670","0.0-2.0-74.0-0.0","61015eeeac2c6fae4f3696c6","D2","batch4","","2966","tol_tohand","","","","tol_peg_1","2966","2966","0","[[0,0,0],[2,3],[0]]","1","[[0,0,0],[1,2],[3]]","21","0","","","","","","6","","","","","","","","",""
"","","","","","single-stim-button","346","432287","0.0-2.0-74.0-1.0","61015eeeac2c6fae4f3696c6","D2","batch4","","615","tol_toboard","","","","tol_peg_3","615","615","0","[[0,0,0],[2,3],[1]]","1","[[0,0,0],[1,2],[3]]","21","0","","","","","","6","","","","","","","","",""
"","","","","","single-stim-button","347","432836","0.0-2.0-74.1-0.1","61015eeeac2c6fae4f3696c6","D2","batch4","","548","tol_tohand","","","","tol_peg_2","548","548","0","[[0,0,0],[2,0],[1]]","2","[[0,0,0],[1,2],[3]]","21","0","","","","","","6","","","","","","","","",""
"","","","","","single-stim-button","348","433503","0.0-2.0-74.1-1.1","61015eeeac2c6fae4f3696c6","D2","batch4","","666","tol_toboard","","","","tol_peg_1","666","666","0","[[3,0,0],[2,0],[1]]","2","[[0,0,0],[1,2],[3]]","21","0","","","","","","6","","","","","","","","",""
"","","","","","single-stim-button","349","434171","0.0-2.0-74.2-0.2","61015eeeac2c6fae4f3696c6","D2","batch4","","666","tol_tohand","","","","tol_peg_3","666","666","0","[[3,0,0],[2,0],[0]]","3","[[0,0,0],[1,2],[3]]","21","0","","","","","","6","","","","","","","","",""
"","","","","","single-stim-button","350","434720","0.0-2.0-74.2-1.2","61015eeeac2c6fae4f3696c6","D2","batch4","","549","tol_toboard","","","","tol_peg_2","549","549","0","[[3,0,0],[2,1],[0]]","3","[[0,0,0],[1,2],[3]]","21","0","","","","","","6","","","","","","","","",""
"","","","","","single-stim-button","351","435270","0.0-2.0-74.3-0.3","61015eeeac2c6fae4f3696c6","D2","batch4","","549","tol_tohand","","","","tol_peg_1","549","549","0","[[0,0,0],[2,1],[0]]","4","[[0,0,0],[1,2],[3]]","21","0","","","","","","6","","","","","","","","",""
"","","","","","single-stim-button","352","435970","0.0-2.0-74.3-1.3","61015eeeac2c6fae4f3696c6","D2","batch4","","699","tol_toboard","","","","tol_peg_3","699","699","0","[[0,0,0],[2,1],[3]]","4","[[0,0,0],[1,2],[3]]","21","0","","","","","","6","","","","","","","","",""
"","","","","","single-stim-button","353","436720","0.0-2.0-74.4-0.4","61015eeeac2c6fae4f3696c6","D2","batch4","","749","tol_tohand","","","","tol_peg_2","749","749","0","[[0,0,0],[2,0],[3]]","5","[[0,0,0],[1,2],[3]]","21","0","","","","","","6","","","","","","","","",""
"","","","","","single-stim-button","354","437370","0.0-2.0-74.4-1.4","61015eeeac2c6fae4f3696c6","D2","batch4","","649","tol_toboard","","","","tol_peg_1","649","649","0","[[1,0,0],[2,0],[3]]","5","[[0,0,0],[1,2],[3]]","21","0","","","","","","6","","","","","","","","",""
"","","","","","single-stim-button","355","439287","0.0-2.0-74.5-0.5","61015eeeac2c6fae4f3696c6","D2","batch4","","1916","tol_tohand","","","","tol_peg_2","1916","1916","0","[[1,0,0],[0,0],[3]]","6","[[0,0,0],[1,2],[3]]","21","0","","","","","","6","","","","","","","","",""
"","","","","","single-stim-button","356","439770","0.0-2.0-74.5-1.5","61015eeeac2c6fae4f3696c6","D2","batch4","","482","tol_toboard","","","","tol_peg_1","482","482","0","[[1,2,0],[0,0],[3]]","6","[[0,0,0],[1,2],[3]]","21","0","","","","","","6","","","","","","","","",""
