"success","timeout","failed_images","failed_audio","failed_video","trial_type","trial_index","time_elapsed","internal_node_id","subject_id","study_id","session_id","view_history","rt","task","stimulus","response","correct","mouse_click","stim_duration","block_duration","timing_post_trial","current_position","tol_num_moves_made","tol_target","tol_problem_id","tol_rt","key_press","possible_responses","tol_correct","preplanning","tol_rt_per_trial","tol_min_moves","item","answer","spm_correct","spm_rt","fiar_detect_rt","fiar_detect_correct","total_correct_fiar_detect","post_trial_gap","choices"
"true","false","[]","[]","[]","preload","0","1303","0.0-0.0","6101122085410e70ca020a04","A3","batch1","","","","","","","","","","","","","","","","","","","","","","","","","","","","","",""
"true","","","","","fullscreen","1","7325","0.0-1.0-0.0","6101122085410e70ca020a04","A3","batch1","","","","","","","","","","","","","","","","","","","","","","","","","","","","","",""
"true","","","","","fullscreen","2","9975","0.0-2.0-0.0","6101122085410e70ca020a04","A3","batch1","","","","","","","","","","","","","","","","","","","","","","","","","","","","","",""
"","","","","","instructions","3","83466","0.0-2.0-1.0-0.0-0.0","6101122085410e70ca020a04","A3","batch1","[{""page_index"":0,""viewing_time"":36833.60000002384},{""page_index"":1,""viewing_time"":4684.399999976158},{""page_index"":2,""viewing_time"":3794.2000000476837},{""page_index"":3,""viewing_time"":8529},{""page_index"":4,""viewing_time"":9039.799999952316},{""page_index"":5,""viewing_time"":7961.799999952316},{""page_index"":6,""viewing_time"":2646}]","73489","tol-instructions","","","","","","","","","","","","","","","","","","","","","","","","","","",""
"","","","","","html-button-response","4","84330","0.0-2.0-1.0-1.0-0.0","6101122085410e70ca020a04","A3","batch1","","862.8999999761581","tol_enter_quiz","<p class=block-text> Let's answer a few questions <br>","0","","","","","","","","","","","","","","","","","","","","","","","","",""
"","","","","","html-button-response","5","89095","0.0-2.0-1.0-1.0-1.0","6101122085410e70ca020a04","A3","batch1","","4763.700000047684","tol_quiz","<p class = block-text>True or False: You can only move the ball on top of a peg. <br></p>","0","true","","","","","","","","","","","","","","","","","","","","","","","",""
"","","","","","html-button-response","6","90388","0.0-2.0-1.0-1.0-2.0","6101122085410e70ca020a04","A3","batch1","","1291.1000000238419","tol_quiz_feedback","<p class = block-text>Correct! You can only move the ball on top of a peg.</p>","0","","","","","","","","","","","","","","","","","","","","","","","","",""
"","","","","","html-button-response","7","93344","0.0-2.0-1.0-1.0-3.0","6101122085410e70ca020a04","A3","batch1","","2953.6999999284744","tol_quiz","<p class = block-text>True or False: You should try to match your board with the target board with fewest moves possible. <br></p>","0","true","","","","","","","","","","","","","","","","","","","","","","","",""
"","","","","","html-button-response","8","94104","0.0-2.0-1.0-1.0-4.0","6101122085410e70ca020a04","A3","batch1","","759.5","tol_quiz_feedback","<p class = block-text>Correct! </p>","0","","","","","","","","","","","","","","","","","","","","","","","","",""
"","","","","","html-button-response","9","95213","0.0-2.0-2.0","6101122085410e70ca020a04","A3","batch1","","1107.5","","<p class=block-text> Now that you've understood the game, let's practice a few easier examples before we start!<br> <br>","0","","","","","","","","","","","","","","","","","","","","","","","","",""
"","","","","","single-stim-button","10","97974","0.0-2.0-3.0-0.0","6101122085410e70ca020a04","A3","batch1","","2759","tol_practice","","","","tol_peg_2","2759","2759","0","[[1,2,0],[0,0],[0]]","1","[[1,2,0],[0,0],[3]]","practice","2759","","","","","","","","","","","","","","",""
"","","","","","single-stim-button","11","99197","0.0-2.0-3.0-1.0","6101122085410e70ca020a04","A3","batch1","","1221","tol_practice","","","","tol_peg_3","1221","1221","0","[[1,2,0],[0,0],[3]]","1","[[1,2,0],[0,0],[3]]","practice","1221","","","","","","","","","","","","","","",""
"","","","","","poldrack-single-stim","12","100210","0.0-2.0-4.0","6101122085410e70ca020a04","A3","batch1","","-1","tol_feedback","","","true","","1000","1000","500","","","","","","-1","none","true","","0","","","","","","","","","",""
"","","","","","single-stim-button","13","104075","0.0-2.0-5.0-0.0","6101122085410e70ca020a04","A3","batch1","","3865","tol_practice","","","","tol_peg_1","3865","3865","0","[[1,0,0],[3,0],[0]]","2","[[0,0,0],[3,1],[2]]","practice","3865","","","","","","","","","","","","","","",""
"","","","","","single-stim-button","14","105207","0.0-2.0-5.0-1.0","6101122085410e70ca020a04","A3","batch1","","1132","tol_practice","","","","tol_peg_3","1132","1132","0","[[1,0,0],[3,0],[2]]","2","[[0,0,0],[3,1],[2]]","practice","1132","","","","","","","","","","","","","","",""
"","","","","","single-stim-button","15","106015","0.0-2.0-5.1-0.1","6101122085410e70ca020a04","A3","batch1","","806","tol_practice","","","","tol_peg_1","806","806","0","[[0,0,0],[3,0],[2]]","3","[[0,0,0],[3,1],[2]]","practice","806","","","","","","","","","","","","","","",""
"","","","","","single-stim-button","16","106775","0.0-2.0-5.1-1.1","6101122085410e70ca020a04","A3","batch1","","758","tol_practice","","","","tol_peg_2","758","758","0","[[0,0,0],[3,1],[2]]","3","[[0,0,0],[3,1],[2]]","practice","758","","","","","","","","","","","","","","",""
"","","","","","poldrack-single-stim","17","107785","0.0-2.0-6.0","6101122085410e70ca020a04","A3","batch1","","-1","tol_feedback","","","true","","1000","1000","500","","","","","","-1","none","true","","0","","","","","","","","","",""
"","","","","","single-stim-button","18","109776","0.0-2.0-7.0-0.0","6101122085410e70ca020a04","A3","batch1","","1990","tol_practice","","","","tol_peg_1","1990","1990","0","[[1,0,0],[3,0],[0]]","4","[[1,0,0],[2,0],[3]]","practice","1990","","","","","","","","","","","","","","",""
"","","","","","single-stim-button","19","111994","0.0-2.0-7.0-1.0","6101122085410e70ca020a04","A3","batch1","","2218","tol_practice","","","","tol_peg_3","2218","2218","0","[[1,0,0],[3,0],[2]]","4","[[1,0,0],[2,0],[3]]","practice","2218","","","","","","","","","","","","","","",""
"","","","","","single-stim-button","20","113970","0.0-2.0-7.1-0.1","6101122085410e70ca020a04","A3","batch1","","1974","tol_practice","","","","tol_peg_2","1974","1974","0","[[1,0,0],[0,0],[2]]","5","[[1,0,0],[2,0],[3]]","practice","1974","","","","","","","","","","","","","","",""
"","","","","","single-stim-button","21","116148","0.0-2.0-7.1-1.1","6101122085410e70ca020a04","A3","batch1","","2177","tol_practice","","","","tol_peg_2","2177","2177","0","[[1,0,0],[3,0],[2]]","5","[[1,0,0],[2,0],[3]]","practice","2177","","","","","","","","","","","","","","",""
"","","","","","single-stim-button","22","117604","0.0-2.0-7.2-0.2","6101122085410e70ca020a04","A3","batch1","","1455","tol_practice","","","","tol_peg_3","1455","1455","0","[[1,0,0],[3,0],[0]]","6","[[1,0,0],[2,0],[3]]","practice","1455","","","","","","","","","","","","","","",""
"","","","","","single-stim-button","23","119782","0.0-2.0-7.2-1.2","6101122085410e70ca020a04","A3","batch1","","2177","tol_practice","","","","tol_peg_1","2177","2177","0","[[1,2,0],[3,0],[0]]","6","[[1,0,0],[2,0],[3]]","practice","2177","","","","","","","","","","","","","","",""
"","","","","","single-stim-button","24","120524","0.0-2.0-7.3-0.3","6101122085410e70ca020a04","A3","batch1","","742","tol_practice","","","","tol_peg_2","742","742","0","[[1,2,0],[0,0],[0]]","7","[[1,0,0],[2,0],[3]]","practice","742","","","","","","","","","","","","","","",""
"","","","","","single-stim-button","25","121446","0.0-2.0-7.3-1.3","6101122085410e70ca020a04","A3","batch1","","922","tol_practice","","","","tol_peg_3","922","922","0","[[1,2,0],[0,0],[3]]","7","[[1,0,0],[2,0],[3]]","practice","922","","","","","","","","","","","","","","",""
"","","","","","single-stim-button","26","122119","0.0-2.0-7.4-0.4","6101122085410e70ca020a04","A3","batch1","","671","tol_practice","","","","tol_peg_1","671","671","0","[[1,0,0],[0,0],[3]]","8","[[1,0,0],[2,0],[3]]","practice","671","","","","","","","","","","","","","","",""
"","","","","","single-stim-button","27","122741","0.0-2.0-7.4-1.4","6101122085410e70ca020a04","A3","batch1","","622","tol_practice","","","","tol_peg_2","622","622","0","[[1,0,0],[2,0],[3]]","8","[[1,0,0],[2,0],[3]]","practice","622","","","","","","","","","","","","","","",""
"","","","","","poldrack-single-stim","28","123754","0.0-2.0-8.0","6101122085410e70ca020a04","A3","batch1","","-1","tol_feedback","","","true","","1000","1000","500","","","","","","-1","none","true","","0","","","","","","","","","",""
"","","","","","html-button-response","29","126592","0.0-2.0-9.0","6101122085410e70ca020a04","A3","batch1","","2837.1999999284744","tol_instruction","<div class = centerbox><p class = center-block-text>Great job! You are done with practice trials<br>You are about to start official trials.<br> <br> Problem <strong>1</strong> out of 25 problems</p></div>","0","","","","","","","","","","","","","","","","","","","","","","","","",""
"","","","","","single-stim-button","30","131551","0.0-2.0-10.0-0.0","6101122085410e70ca020a04","A3","batch1","","3952","tol_tohand","","","","tol_peg_1","3952","3952","0","[[1,0,0],[3,0],[0]]","1","[[1,3,0],[2,0],[0]]","0","0","","","","","","3","","","","","","","","",""
"","","","","","single-stim-button","31","134054","0.0-2.0-10.0-1.0","6101122085410e70ca020a04","A3","batch1","","2503","tol_toboard","","","","tol_peg_3","2503","2503","0","[[1,0,0],[3,0],[2]]","1","[[1,3,0],[2,0],[0]]","0","0","","","","","","3","","","","","","","","",""
"","","","","","single-stim-button","32","134728","0.0-2.0-10.1-0.1","6101122085410e70ca020a04","A3","batch1","","672","tol_tohand","","","","tol_peg_2","672","672","0","[[1,0,0],[0,0],[2]]","2","[[1,3,0],[2,0],[0]]","0","0","","","","","","3","","","","","","","","",""
"","","","","","single-stim-button","33","135982","0.0-2.0-10.1-1.1","6101122085410e70ca020a04","A3","batch1","","1254","tol_toboard","","","","tol_peg_1","1254","1254","0","[[1,3,0],[0,0],[2]]","2","[[1,3,0],[2,0],[0]]","0","0","","","","","","3","","","","","","","","",""
"","","","","","single-stim-button","34","136805","0.0-2.0-10.2-0.2","6101122085410e70ca020a04","A3","batch1","","822","tol_tohand","","","","tol_peg_3","822","822","0","[[1,3,0],[0,0],[0]]","3","[[1,3,0],[2,0],[0]]","0","0","","","","","","3","","","","","","","","",""
"","","","","","single-stim-button","35","137527","0.0-2.0-10.2-1.2","6101122085410e70ca020a04","A3","batch1","","721","tol_toboard","","","","tol_peg_2","721","721","0","[[1,3,0],[2,0],[0]]","3","[[1,3,0],[2,0],[0]]","0","0","","","","","","3","","","","","","","","",""
"","","","","","poldrack-single-stim","36","138534","0.0-2.0-11.0","6101122085410e70ca020a04","A3","batch1","","-1","tol_feedback","","","true","","1000","1000","500","","","","","","-1","none","true","3952","5446","","","","","","","","","",""
"","","","","","html-button-response","37","139566","0.0-2.0-12.0","6101122085410e70ca020a04","A3","batch1","","1031","tol_trial_num","<div class = centerbox><p class = center-block-text>problem <strong>2</strong> out of 25 problems</p></div>","0","","","","","","","","","","","","","","","","","","","","","","","","",""
"","","","","","single-stim-button","38","144071","0.0-2.0-13.0-0.0","6101122085410e70ca020a04","A3","batch1","","4503","tol_tohand","","","","tol_peg_1","4503","4503","0","[[1,0,0],[3,0],[0]]","1","[[2,1,3],[0,0],[0]]","1","0","","","","","","5","","","","","","","","",""
"","","","","","single-stim-button","39","146261","0.0-2.0-13.0-1.0","6101122085410e70ca020a04","A3","batch1","","2190","tol_toboard","","","","tol_peg_3","2190","2190","0","[[1,0,0],[3,0],[2]]","1","[[2,1,3],[0,0],[0]]","1","0","","","","","","5","","","","","","","","",""
"","","","","","single-stim-button","40","148451","0.0-2.0-13.1-0.1","6101122085410e70ca020a04","A3","batch1","","2189","tol_tohand","","","","tol_peg_1","2189","2189","0","[[0,0,0],[3,0],[2]]","2","[[2,1,3],[0,0],[0]]","1","0","","","","","","5","","","","","","","","",""
"","","","","","single-stim-button","41","149818","0.0-2.0-13.1-1.1","6101122085410e70ca020a04","A3","batch1","","1367","tol_toboard","","","","tol_peg_2","1367","1367","0","[[0,0,0],[3,1],[2]]","2","[[2,1,3],[0,0],[0]]","1","0","","","","","","5","","","","","","","","",""
"","","","","","single-stim-button","42","151173","0.0-2.0-13.2-0.2","6101122085410e70ca020a04","A3","batch1","","1355","tol_tohand","","","","tol_peg_3","1355","1355","0","[[0,0,0],[3,1],[0]]","3","[[2,1,3],[0,0],[0]]","1","0","","","","","","5","","","","","","","","",""
"","","","","","single-stim-button","43","151918","0.0-2.0-13.2-1.2","6101122085410e70ca020a04","A3","batch1","","745","tol_toboard","","","","tol_peg_1","745","745","0","[[2,0,0],[3,1],[0]]","3","[[2,1,3],[0,0],[0]]","1","0","","","","","","5","","","","","","","","",""
"","","","","","single-stim-button","44","152637","0.0-2.0-13.3-0.3","6101122085410e70ca020a04","A3","batch1","","718","tol_tohand","","","","tol_peg_2","718","718","0","[[2,0,0],[3,0],[0]]","4","[[2,1,3],[0,0],[0]]","1","0","","","","","","5","","","","","","","","",""
"","","","","","single-stim-button","45","153251","0.0-2.0-13.3-1.3","6101122085410e70ca020a04","A3","batch1","","614","tol_toboard","","","","tol_peg_1","614","614","0","[[2,1,0],[3,0],[0]]","4","[[2,1,3],[0,0],[0]]","1","0","","","","","","5","","","","","","","","",""
"","","","","","single-stim-button","46","154176","0.0-2.0-13.4-0.4","6101122085410e70ca020a04","A3","batch1","","924","tol_tohand","","","","tol_peg_2","924","924","0","[[2,1,0],[0,0],[0]]","5","[[2,1,3],[0,0],[0]]","1","0","","","","","","5","","","","","","","","",""
"","","","","","single-stim-button","47","154734","0.0-2.0-13.4-1.4","6101122085410e70ca020a04","A3","batch1","","558","tol_toboard","","","","tol_peg_1","558","558","0","[[2,1,3],[0,0],[0]]","5","[[2,1,3],[0,0],[0]]","1","0","","","","","","5","","","","","","","","",""
"","","","","","poldrack-single-stim","48","155746","0.0-2.0-14.0","6101122085410e70ca020a04","A3","batch1","","-1","tol_feedback","","","true","","1000","1000","500","","","","","","-1","none","true","4503","9689","","","","","","","","","",""
"","","","","","html-button-response","49","156600","0.0-2.0-15.0","6101122085410e70ca020a04","A3","batch1","","852.3999999761581","tol_trial_num","<div class = centerbox><p class = center-block-text>problem <strong>3</strong> out of 25 problems</p></div>","0","","","","","","","","","","","","","","","","","","","","","","","","",""
"","","","","","single-stim-button","50","161954","0.0-2.0-16.0-0.0","6101122085410e70ca020a04","A3","batch1","","5354","tol_tohand","","","","tol_peg_1","5354","5354","0","[[2,0,0],[0,0],[1]]","1","[[1,2,0],[3,0],[0]]","2","0","","","","","","4","","","","","","","","",""
"","","","","","single-stim-button","51","163445","0.0-2.0-16.0-1.0","6101122085410e70ca020a04","A3","batch1","","1490","tol_toboard","","","","tol_peg_2","1490","1490","0","[[2,0,0],[3,0],[1]]","1","[[1,2,0],[3,0],[0]]","2","0","","","","","","4","","","","","","","","",""
"","","","","","single-stim-button","52","165552","0.0-2.0-16.1-0.1","6101122085410e70ca020a04","A3","batch1","","2106","tol_tohand","","","","tol_peg_1","2106","2106","0","[[0,0,0],[3,0],[1]]","2","[[1,2,0],[3,0],[0]]","2","0","","","","","","4","","","","","","","","",""
"","","","","","single-stim-button","53","166158","0.0-2.0-16.1-1.1","6101122085410e70ca020a04","A3","batch1","","606","tol_toboard","","","","tol_peg_2","606","606","0","[[0,0,0],[3,2],[1]]","2","[[1,2,0],[3,0],[0]]","2","0","","","","","","4","","","","","","","","",""
"","","","","","single-stim-button","54","166714","0.0-2.0-16.2-0.2","6101122085410e70ca020a04","A3","batch1","","555","tol_tohand","","","","tol_peg_3","555","555","0","[[0,0,0],[3,2],[0]]","3","[[1,2,0],[3,0],[0]]","2","0","","","","","","4","","","","","","","","",""
"","","","","","single-stim-button","55","167436","0.0-2.0-16.2-1.2","6101122085410e70ca020a04","A3","batch1","","722","tol_toboard","","","","tol_peg_1","722","722","0","[[1,0,0],[3,2],[0]]","3","[[1,2,0],[3,0],[0]]","2","0","","","","","","4","","","","","","","","",""
"","","","","","single-stim-button","56","167926","0.0-2.0-16.3-0.3","6101122085410e70ca020a04","A3","batch1","","489","tol_tohand","","","","tol_peg_2","489","489","0","[[1,0,0],[3,0],[0]]","4","[[1,2,0],[3,0],[0]]","2","0","","","","","","4","","","","","","","","",""
"","","","","","single-stim-button","57","168698","0.0-2.0-16.3-1.3","6101122085410e70ca020a04","A3","batch1","","772","tol_toboard","","","","tol_peg_1","772","772","0","[[1,2,0],[3,0],[0]]","4","[[1,2,0],[3,0],[0]]","2","0","","","","","","4","","","","","","","","",""
"","","","","","poldrack-single-stim","58","169703","0.0-2.0-17.0","6101122085410e70ca020a04","A3","batch1","","-1","tol_feedback","","","true","","1000","1000","500","","","","","","-1","none","true","5354","8504","","","","","","","","","",""
"","","","","","html-button-response","59","170690","0.0-2.0-18.0","6101122085410e70ca020a04","A3","batch1","","985.6000000238419","tol_trial_num","<div class = centerbox><p class = center-block-text>problem <strong>4</strong> out of 25 problems</p></div>","0","","","","","","","","","","","","","","","","","","","","","","","","",""
"","","","","","single-stim-button","60","179000","0.0-2.0-19.0-0.0","6101122085410e70ca020a04","A3","batch1","","8309","tol_tohand","","","","tol_peg_2","8309","8309","0","[[3,0,0],[2,0],[0]]","1","[[3,0,0],[1,0],[2]]","3","0","","","","","","3","","","","","","","","",""
"","","","","","single-stim-button","61","179713","0.0-2.0-19.0-1.0","6101122085410e70ca020a04","A3","batch1","","713","tol_toboard","","","","tol_peg_1","713","713","0","[[3,1,0],[2,0],[0]]","1","[[3,0,0],[1,0],[2]]","3","0","","","","","","3","","","","","","","","",""
"","","","","","single-stim-button","62","180337","0.0-2.0-19.1-0.1","6101122085410e70ca020a04","A3","batch1","","622","tol_tohand","","","","tol_peg_2","622","622","0","[[3,1,0],[0,0],[0]]","2","[[3,0,0],[1,0],[2]]","3","0","","","","","","3","","","","","","","","",""
"","","","","","single-stim-button","63","181076","0.0-2.0-19.1-1.1","6101122085410e70ca020a04","A3","batch1","","739","tol_toboard","","","","tol_peg_3","739","739","0","[[3,1,0],[0,0],[2]]","2","[[3,0,0],[1,0],[2]]","3","0","","","","","","3","","","","","","","","",""
"","","","","","single-stim-button","64","181733","0.0-2.0-19.2-0.2","6101122085410e70ca020a04","A3","batch1","","657","tol_tohand","","","","tol_peg_1","657","657","0","[[3,0,0],[0,0],[2]]","3","[[3,0,0],[1,0],[2]]","3","0","","","","","","3","","","","","","","","",""
"","","","","","single-stim-button","65","182358","0.0-2.0-19.2-1.2","6101122085410e70ca020a04","A3","batch1","","623","tol_toboard","","","","tol_peg_2","623","623","0","[[3,0,0],[1,0],[2]]","3","[[3,0,0],[1,0],[2]]","3","0","","","","","","3","","","","","","","","",""
"","","","","","poldrack-single-stim","66","183366","0.0-2.0-20.0","6101122085410e70ca020a04","A3","batch1","","-1","tol_feedback","","","true","","1000","1000","500","","","","","","-1","none","true","8309","9588","","","","","","","","","",""
"","","","","","html-button-response","67","184959","0.0-2.0-21.0","6101122085410e70ca020a04","A3","batch1","","1591.5","tol_trial_num","<div class = centerbox><p class = center-block-text>problem <strong>5</strong> out of 25 problems</p></div>","0","","","","","","","","","","","","","","","","","","","","","","","","",""
"","","","","","single-stim-button","68","192085","0.0-2.0-22.0-0.0","6101122085410e70ca020a04","A3","batch1","","7126","tol_tohand","","","","tol_peg_3","7126","7126","0","[[1,0,0],[2,0],[0]]","1","[[0,0,0],[1,2],[3]]","4","0","","","","","","7","","","","","","","","",""
"","","","","","single-stim-button","69","193223","0.0-2.0-22.0-1.0","6101122085410e70ca020a04","A3","batch1","","1137","tol_toboard","","","","tol_peg_1","1137","1137","0","[[1,3,0],[2,0],[0]]","1","[[0,0,0],[1,2],[3]]","4","0","","","","","","7","","","","","","","","",""
"","","","","","single-stim-button","70","193799","0.0-2.0-22.1-0.1","6101122085410e70ca020a04","A3","batch1","","575","tol_tohand","","","","tol_peg_2","575","575","0","[[1,3,0],[0,0],[0]]","2","[[0,0,0],[1,2],[3]]","4","0","","","","","","7","","","","","","","","",""
"","","","","","single-stim-button","71","194389","0.0-2.0-22.1-1.1","6101122085410e70ca020a04","A3","batch1","","590","tol_toboard","","","","tol_peg_3","590","590","0","[[1,3,0],[0,0],[2]]","2","[[0,0,0],[1,2],[3]]","4","0","","","","","","7","","","","","","","","",""
"","","","","","single-stim-button","72","195876","0.0-2.0-22.2-0.2","6101122085410e70ca020a04","A3","batch1","","1487","tol_tohand","","","","tol_peg_1","1487","1487","0","[[1,0,0],[0,0],[2]]","3","[[0,0,0],[1,2],[3]]","4","0","","","","","","7","","","","","","","","",""
"","","","","","single-stim-button","73","196667","0.0-2.0-22.2-1.2","6101122085410e70ca020a04","A3","batch1","","791","tol_toboard","","","","tol_peg_2","791","791","0","[[1,0,0],[3,0],[2]]","3","[[0,0,0],[1,2],[3]]","4","0","","","","","","7","","","","","","","","",""
"","","","","","single-stim-button","74","197170","0.0-2.0-22.3-0.3","6101122085410e70ca020a04","A3","batch1","","502","tol_tohand","","","","tol_peg_1","502","502","0","[[0,0,0],[3,0],[2]]","4","[[0,0,0],[1,2],[3]]","4","0","","","","","","7","","","","","","","","",""
"","","","","","single-stim-button","75","197691","0.0-2.0-22.3-1.3","6101122085410e70ca020a04","A3","batch1","","520","tol_toboard","","","","tol_peg_2","520","520","0","[[0,0,0],[3,1],[2]]","4","[[0,0,0],[1,2],[3]]","4","0","","","","","","7","","","","","","","","",""
"","","","","","single-stim-button","76","199298","0.0-2.0-22.4-0.4","6101122085410e70ca020a04","A3","batch1","","1606","tol_tohand","","","","tol_peg_2","1606","1606","0","[[0,0,0],[3,0],[2]]","5","[[0,0,0],[1,2],[3]]","4","0","","","","","","7","","","","","","","","",""
"","","","","","single-stim-button","77","200239","0.0-2.0-22.4-1.4","6101122085410e70ca020a04","A3","batch1","","941","tol_toboard","","","","tol_peg_2","941","941","0","[[0,0,0],[3,1],[2]]","5","[[0,0,0],[1,2],[3]]","4","0","","","","","","7","","","","","","","","",""
"","","","","","single-stim-button","78","200913","0.0-2.0-22.5-0.5","6101122085410e70ca020a04","A3","batch1","","674","tol_tohand","","","","tol_peg_3","674","674","0","[[0,0,0],[3,1],[0]]","6","[[0,0,0],[1,2],[3]]","4","0","","","","","","7","","","","","","","","",""
"","","","","","single-stim-button","79","201603","0.0-2.0-22.5-1.5","6101122085410e70ca020a04","A3","batch1","","689","tol_toboard","","","","tol_peg_1","689","689","0","[[2,0,0],[3,1],[0]]","6","[[0,0,0],[1,2],[3]]","4","0","","","","","","7","","","","","","","","",""
"","","","","","single-stim-button","80","203206","0.0-2.0-22.6-0.6","6101122085410e70ca020a04","A3","batch1","","1603","tol_tohand","","","","tol_peg_2","1603","1603","0","[[2,0,0],[3,0],[0]]","7","[[0,0,0],[1,2],[3]]","4","0","","","","","","7","","","","","","","","",""
"","","","","","single-stim-button","81","203939","0.0-2.0-22.6-1.6","6101122085410e70ca020a04","A3","batch1","","732","tol_toboard","","","","tol_peg_3","732","732","0","[[2,0,0],[3,0],[1]]","7","[[0,0,0],[1,2],[3]]","4","0","","","","","","7","","","","","","","","",""
"","","","","","single-stim-button","82","204680","0.0-2.0-22.7-0.7","6101122085410e70ca020a04","A3","batch1","","740","tol_tohand","","","","tol_peg_2","740","740","0","[[2,0,0],[0,0],[1]]","8","[[0,0,0],[1,2],[3]]","4","0","","","","","","7","","","","","","","","",""
"","","","","","single-stim-button","83","205368","0.0-2.0-22.7-1.7","6101122085410e70ca020a04","A3","batch1","","687","tol_toboard","","","","tol_peg_1","687","687","0","[[2,3,0],[0,0],[1]]","8","[[0,0,0],[1,2],[3]]","4","0","","","","","","7","","","","","","","","",""
"","","","","","single-stim-button","84","206058","0.0-2.0-22.8-0.8","6101122085410e70ca020a04","A3","batch1","","689","tol_tohand","","","","tol_peg_3","689","689","0","[[2,3,0],[0,0],[0]]","9","[[0,0,0],[1,2],[3]]","4","0","","","","","","7","","","","","","","","",""
"","","","","","single-stim-button","85","206647","0.0-2.0-22.8-1.8","6101122085410e70ca020a04","A3","batch1","","589","tol_toboard","","","","tol_peg_2","589","589","0","[[2,3,0],[1,0],[0]]","9","[[0,0,0],[1,2],[3]]","4","0","","","","","","7","","","","","","","","",""
"","","","","","single-stim-button","86","207268","0.0-2.0-22.9-0.9","6101122085410e70ca020a04","A3","batch1","","620","tol_tohand","","","","tol_peg_1","620","620","0","[[2,0,0],[1,0],[0]]","10","[[0,0,0],[1,2],[3]]","4","0","","","","","","7","","","","","","","","",""
"","","","","","single-stim-button","87","208107","0.0-2.0-22.9-1.9","6101122085410e70ca020a04","A3","batch1","","839","tol_toboard","","","","tol_peg_3","839","839","0","[[2,0,0],[1,0],[3]]","10","[[0,0,0],[1,2],[3]]","4","0","","","","","","7","","","","","","","","",""
"","","","","","single-stim-button","88","208677","0.0-2.0-22.10-0.10","6101122085410e70ca020a04","A3","batch1","","569","tol_tohand","","","","tol_peg_1","569","569","0","[[0,0,0],[1,0],[3]]","11","[[0,0,0],[1,2],[3]]","4","0","","","","","","7","","","","","","","","",""
"","","","","","single-stim-button","89","209225","0.0-2.0-22.10-1.10","6101122085410e70ca020a04","A3","batch1","","547","tol_toboard","","","","tol_peg_2","547","547","0","[[0,0,0],[1,2],[3]]","11","[[0,0,0],[1,2],[3]]","4","0","","","","","","7","","","","","","","","",""
"","","","","","poldrack-single-stim","90","210230","0.0-2.0-23.0","6101122085410e70ca020a04","A3","batch1","","-1","tol_feedback","","","true","","1000","1000","500","","","","","","-1","none","true","7126","16191","","","","","","","","","",""
"","","","","","html-button-response","91","211172","0.0-2.0-24.0","6101122085410e70ca020a04","A3","batch1","","940.8000000715256","tol_trial_num","<div class = centerbox><p class = center-block-text>problem <strong>6</strong> out of 25 problems</p></div>","0","","","","","","","","","","","","","","","","","","","","","","","","",""
"","","","","","single-stim-button","92","213173","0.0-2.0-25.0-0.0","6101122085410e70ca020a04","A3","batch1","","2000","tol_tohand","","","","tol_peg_2","2000","2000","0","[[0,0,0],[1,0],[3]]","1","[[1,0,0],[2,3],[0]]","5","0","","","","","","6","","","","","","","","",""
"","","","","","single-stim-button","93","214378","0.0-2.0-25.0-1.0","6101122085410e70ca020a04","A3","batch1","","1204","tol_toboard","","","","tol_peg_1","1204","1204","0","[[2,0,0],[1,0],[3]]","1","[[1,0,0],[2,3],[0]]","5","0","","","","","","6","","","","","","","","",""
"","","","","","single-stim-button","94","218578","0.0-2.0-25.1-0.1","6101122085410e70ca020a04","A3","batch1","","4199","tol_tohand","","","","tol_peg_3","4199","4199","0","[[2,0,0],[1,0],[0]]","2","[[1,0,0],[2,3],[0]]","5","0","","","","","","6","","","","","","","","",""
"","","","","","single-stim-button","95","219683","0.0-2.0-25.1-1.1","6101122085410e70ca020a04","A3","batch1","","1105","tol_toboard","","","","tol_peg_1","1105","1105","0","[[2,3,0],[1,0],[0]]","2","[[1,0,0],[2,3],[0]]","5","0","","","","","","6","","","","","","","","",""
"","","","","","single-stim-button","96","220389","0.0-2.0-25.2-0.2","6101122085410e70ca020a04","A3","batch1","","705","tol_tohand","","","","tol_peg_2","705","705","0","[[2,3,0],[0,0],[0]]","3","[[1,0,0],[2,3],[0]]","5","0","","","","","","6","","","","","","","","",""
"","","","","","single-stim-button","97","221812","0.0-2.0-25.2-1.2","6101122085410e70ca020a04","A3","batch1","","1422","tol_toboard","","","","tol_peg_3","1422","1422","0","[[2,3,0],[0,0],[1]]","3","[[1,0,0],[2,3],[0]]","5","0","","","","","","6","","","","","","","","",""
"","","","","","single-stim-button","98","222570","0.0-2.0-25.3-0.3","6101122085410e70ca020a04","A3","batch1","","758","tol_tohand","","","","tol_peg_1","758","758","0","[[2,0,0],[0,0],[1]]","4","[[1,0,0],[2,3],[0]]","5","0","","","","","","6","","","","","","","","",""
"","","","","","single-stim-button","99","223142","0.0-2.0-25.3-1.3","6101122085410e70ca020a04","A3","batch1","","571","tol_toboard","","","","tol_peg_2","571","571","0","[[2,0,0],[3,0],[1]]","4","[[1,0,0],[2,3],[0]]","5","0","","","","","","6","","","","","","","","",""
"","","","","","single-stim-button","100","224212","0.0-2.0-25.4-0.4","6101122085410e70ca020a04","A3","batch1","","1070","tol_tohand","","","","tol_peg_1","1070","1070","0","[[0,0,0],[3,0],[1]]","5","[[1,0,0],[2,3],[0]]","5","0","","","","","","6","","","","","","","","",""
"","","","","","single-stim-button","101","226637","0.0-2.0-25.4-1.4","6101122085410e70ca020a04","A3","batch1","","2425","tol_toboard","","","","tol_peg_2","2425","2425","0","[[0,0,0],[3,2],[1]]","5","[[1,0,0],[2,3],[0]]","5","0","","","","","","6","","","","","","","","",""
"","","","","","single-stim-button","102","227426","0.0-2.0-25.5-0.5","6101122085410e70ca020a04","A3","batch1","","787","tol_tohand","","","","tol_peg_3","787","787","0","[[0,0,0],[3,2],[0]]","6","[[1,0,0],[2,3],[0]]","5","0","","","","","","6","","","","","","","","",""
"","","","","","single-stim-button","103","228051","0.0-2.0-25.5-1.5","6101122085410e70ca020a04","A3","batch1","","624","tol_toboard","","","","tol_peg_1","624","624","0","[[1,0,0],[3,2],[0]]","6","[[1,0,0],[2,3],[0]]","5","0","","","","","","6","","","","","","","","",""
"","","","","","single-stim-button","104","229819","0.0-2.0-25.6-0.6","6101122085410e70ca020a04","A3","batch1","","1767","tol_tohand","","","","tol_peg_2","1767","1767","0","[[1,0,0],[3,0],[0]]","7","[[1,0,0],[2,3],[0]]","5","0","","","","","","6","","","","","","","","",""
"","","","","","single-stim-button","105","230516","0.0-2.0-25.6-1.6","6101122085410e70ca020a04","A3","batch1","","697","tol_toboard","","","","tol_peg_1","697","697","0","[[1,2,0],[3,0],[0]]","7","[[1,0,0],[2,3],[0]]","5","0","","","","","","6","","","","","","","","",""
"","","","","","single-stim-button","106","230991","0.0-2.0-25.7-0.7","6101122085410e70ca020a04","A3","batch1","","474","tol_tohand","","","","tol_peg_2","474","474","0","[[1,2,0],[0,0],[0]]","8","[[1,0,0],[2,3],[0]]","5","0","","","","","","6","","","","","","","","",""
"","","","","","single-stim-button","107","231547","0.0-2.0-25.7-1.7","6101122085410e70ca020a04","A3","batch1","","556","tol_toboard","","","","tol_peg_3","556","556","0","[[1,2,0],[0,0],[3]]","8","[[1,0,0],[2,3],[0]]","5","0","","","","","","6","","","","","","","","",""
"","","","","","single-stim-button","108","232337","0.0-2.0-25.8-0.8","6101122085410e70ca020a04","A3","batch1","","789","tol_tohand","","","","tol_peg_1","789","789","0","[[1,0,0],[0,0],[3]]","9","[[1,0,0],[2,3],[0]]","5","0","","","","","","6","","","","","","","","",""
"","","","","","single-stim-button","109","232744","0.0-2.0-25.8-1.8","6101122085410e70ca020a04","A3","batch1","","407","tol_toboard","","","","tol_peg_2","407","407","0","[[1,0,0],[2,0],[3]]","9","[[1,0,0],[2,3],[0]]","5","0","","","","","","6","","","","","","","","",""
"","","","","","single-stim-button","110","235428","0.0-2.0-25.9-0.9","6101122085410e70ca020a04","A3","batch1","","2684","tol_tohand","","","","tol_peg_3","2684","2684","0","[[1,0,0],[2,0],[0]]","10","[[1,0,0],[2,3],[0]]","5","0","","","","","","6","","","","","","","","",""
"","","","","","single-stim-button","111","235801","0.0-2.0-25.9-1.9","6101122085410e70ca020a04","A3","batch1","","372","tol_toboard","","","","tol_peg_2","372","372","0","[[1,0,0],[2,3],[0]]","10","[[1,0,0],[2,3],[0]]","5","0","","","","","","6","","","","","","","","",""
"","","","","","poldrack-single-stim","112","236806","0.0-2.0-26.0","6101122085410e70ca020a04","A3","batch1","","-1","tol_feedback","","","true","","1000","1000","500","","","","","","-1","none","true","2000","15233","","","","","","","","","",""
"","","","","","html-button-response","113","238075","0.0-2.0-27.0","6101122085410e70ca020a04","A3","batch1","","1268.1000000238419","tol_trial_num","<div class = centerbox><p class = center-block-text>problem <strong>7</strong> out of 25 problems</p></div>","0","","","","","","","","","","","","","","","","","","","","","","","","",""
"","","","","","single-stim-button","114","243776","0.0-2.0-28.0-0.0","6101122085410e70ca020a04","A3","batch1","","5700","tol_tohand","","","","tol_peg_1","5700","5700","0","[[2,0,0],[0,0],[3]]","1","[[1,2,0],[3,0],[0]]","6","0","","","","","","5","","","","","","","","",""
"","","","","","single-stim-button","115","245747","0.0-2.0-28.0-1.0","6101122085410e70ca020a04","A3","batch1","","1971","tol_toboard","","","","tol_peg_2","1971","1971","0","[[2,0,0],[1,0],[3]]","1","[[1,2,0],[3,0],[0]]","6","0","","","","","","5","","","","","","","","",""
"","","","","","single-stim-button","116","247388","0.0-2.0-28.1-0.1","6101122085410e70ca020a04","A3","batch1","","1640","tol_tohand","","","","tol_peg_3","1640","1640","0","[[2,0,0],[1,0],[0]]","2","[[1,2,0],[3,0],[0]]","6","0","","","","","","5","","","","","","","","",""
"","","","","","single-stim-button","117","247953","0.0-2.0-28.1-1.1","6101122085410e70ca020a04","A3","batch1","","564","tol_toboard","","","","tol_peg_2","564","564","0","[[2,0,0],[1,3],[0]]","2","[[1,2,0],[3,0],[0]]","6","0","","","","","","5","","","","","","","","",""
"","","","","","single-stim-button","118","248550","0.0-2.0-28.2-0.2","6101122085410e70ca020a04","A3","batch1","","597","tol_tohand","","","","tol_peg_1","597","597","0","[[0,0,0],[1,3],[0]]","3","[[1,2,0],[3,0],[0]]","6","0","","","","","","5","","","","","","","","",""
"","","","","","single-stim-button","119","250140","0.0-2.0-28.2-1.2","6101122085410e70ca020a04","A3","batch1","","1588","tol_toboard","","","","tol_peg_3","1588","1588","0","[[0,0,0],[1,3],[2]]","3","[[1,2,0],[3,0],[0]]","6","0","","","","","","5","","","","","","","","",""
"","","","","","single-stim-button","120","251426","0.0-2.0-28.3-0.3","6101122085410e70ca020a04","A3","batch1","","1286","tol_tohand","","","","tol_peg_2","1286","1286","0","[[0,0,0],[1,0],[2]]","4","[[1,2,0],[3,0],[0]]","6","0","","","","","","5","","","","","","","","",""
"","","","","","single-stim-button","121","252098","0.0-2.0-28.3-1.3","6101122085410e70ca020a04","A3","batch1","","672","tol_toboard","","","","tol_peg_1","672","672","0","[[3,0,0],[1,0],[2]]","4","[[1,2,0],[3,0],[0]]","6","0","","","","","","5","","","","","","","","",""
"","","","","","single-stim-button","122","252687","0.0-2.0-28.4-0.4","6101122085410e70ca020a04","A3","batch1","","588","tol_tohand","","","","tol_peg_2","588","588","0","[[3,0,0],[0,0],[2]]","5","[[1,2,0],[3,0],[0]]","6","0","","","","","","5","","","","","","","","",""
"","","","","","single-stim-button","123","253679","0.0-2.0-28.4-1.4","6101122085410e70ca020a04","A3","batch1","","991","tol_toboard","","","","tol_peg_1","991","991","0","[[3,1,0],[0,0],[2]]","5","[[1,2,0],[3,0],[0]]","6","0","","","","","","5","","","","","","","","",""
"","","","","","single-stim-button","124","254553","0.0-2.0-28.5-0.5","6101122085410e70ca020a04","A3","batch1","","874","tol_tohand","","","","tol_peg_3","874","874","0","[[3,1,0],[0,0],[0]]","6","[[1,2,0],[3,0],[0]]","6","0","","","","","","5","","","","","","","","",""
"","","","","","single-stim-button","125","255178","0.0-2.0-28.5-1.5","6101122085410e70ca020a04","A3","batch1","","624","tol_toboard","","","","tol_peg_2","624","624","0","[[3,1,0],[2,0],[0]]","6","[[1,2,0],[3,0],[0]]","6","0","","","","","","5","","","","","","","","",""
"","","","","","single-stim-button","126","255901","0.0-2.0-28.6-0.6","6101122085410e70ca020a04","A3","batch1","","722","tol_tohand","","","","tol_peg_1","722","722","0","[[3,0,0],[2,0],[0]]","7","[[1,2,0],[3,0],[0]]","6","0","","","","","","5","","","","","","","","",""
"","","","","","single-stim-button","127","256839","0.0-2.0-28.6-1.6","6101122085410e70ca020a04","A3","batch1","","937","tol_toboard","","","","tol_peg_2","937","937","0","[[3,0,0],[2,1],[0]]","7","[[1,2,0],[3,0],[0]]","6","0","","","","","","5","","","","","","","","",""
"","","","","","single-stim-button","128","257409","0.0-2.0-28.7-0.7","6101122085410e70ca020a04","A3","batch1","","570","tol_tohand","","","","tol_peg_1","570","570","0","[[0,0,0],[2,1],[0]]","8","[[1,2,0],[3,0],[0]]","6","0","","","","","","5","","","","","","","","",""
"","","","","","single-stim-button","129","258014","0.0-2.0-28.7-1.7","6101122085410e70ca020a04","A3","batch1","","604","tol_toboard","","","","tol_peg_3","604","604","0","[[0,0,0],[2,1],[3]]","8","[[1,2,0],[3,0],[0]]","6","0","","","","","","5","","","","","","","","",""
"","","","","","single-stim-button","130","258654","0.0-2.0-28.8-0.8","6101122085410e70ca020a04","A3","batch1","","640","tol_tohand","","","","tol_peg_2","640","640","0","[[0,0,0],[2,0],[3]]","9","[[1,2,0],[3,0],[0]]","6","0","","","","","","5","","","","","","","","",""
"","","","","","single-stim-button","131","259346","0.0-2.0-28.8-1.8","6101122085410e70ca020a04","A3","batch1","","691","tol_toboard","","","","tol_peg_1","691","691","0","[[1,0,0],[2,0],[3]]","9","[[1,2,0],[3,0],[0]]","6","0","","","","","","5","","","","","","","","",""
"","","","","","single-stim-button","132","259835","0.0-2.0-28.9-0.9","6101122085410e70ca020a04","A3","batch1","","488","tol_tohand","","","","tol_peg_2","488","488","0","[[1,0,0],[0,0],[3]]","10","[[1,2,0],[3,0],[0]]","6","0","","","","","","5","","","","","","","","",""
"","","","","","single-stim-button","133","260340","0.0-2.0-28.9-1.9","6101122085410e70ca020a04","A3","batch1","","504","tol_toboard","","","","tol_peg_1","504","504","0","[[1,2,0],[0,0],[3]]","10","[[1,2,0],[3,0],[0]]","6","0","","","","","","5","","","","","","","","",""
"","","","","","single-stim-button","134","261294","0.0-2.0-28.10-0.10","6101122085410e70ca020a04","A3","batch1","","954","tol_tohand","","","","tol_peg_3","954","954","0","[[1,2,0],[0,0],[0]]","11","[[1,2,0],[3,0],[0]]","6","0","","","","","","5","","","","","","","","",""
"","","","","","single-stim-button","135","261682","0.0-2.0-28.10-1.10","6101122085410e70ca020a04","A3","batch1","","387","tol_toboard","","","","tol_peg_2","387","387","0","[[1,2,0],[3,0],[0]]","11","[[1,2,0],[3,0],[0]]","6","0","","","","","","5","","","","","","","","",""
"","","","","","poldrack-single-stim","136","262688","0.0-2.0-29.0","6101122085410e70ca020a04","A3","batch1","","-1","tol_feedback","","","true","","1000","1000","500","","","","","","-1","none","true","5700","14059","","","","","","","","","",""
"","","","","","html-button-response","137","263530","0.0-2.0-30.0","6101122085410e70ca020a04","A3","batch1","","841.3000000715256","tol_trial_num","<div class = centerbox><p class = center-block-text>problem <strong>8</strong> out of 25 problems</p></div>","0","","","","","","","","","","","","","","","","","","","","","","","","",""
"","","","","","single-stim-button","138","269613","0.0-2.0-31.0-0.0","6101122085410e70ca020a04","A3","batch1","","6081","tol_tohand","","","","tol_peg_3","6081","6081","0","[[0,0,0],[2,3],[0]]","1","[[1,2,0],[3,0],[0]]","7","0","","","","","","4","","","","","","","","",""
"","","","","","single-stim-button","139","270643","0.0-2.0-31.0-1.0","6101122085410e70ca020a04","A3","batch1","","1029","tol_toboard","","","","tol_peg_1","1029","1029","0","[[1,0,0],[2,3],[0]]","1","[[1,2,0],[3,0],[0]]","7","0","","","","","","4","","","","","","","","",""
"","","","","","single-stim-button","140","271152","0.0-2.0-31.1-0.1","6101122085410e70ca020a04","A3","batch1","","509","tol_tohand","","","","tol_peg_2","509","509","0","[[1,0,0],[2,0],[0]]","2","[[1,2,0],[3,0],[0]]","7","0","","","","","","4","","","","","","","","",""
"","","","","","single-stim-button","141","271677","0.0-2.0-31.1-1.1","6101122085410e70ca020a04","A3","batch1","","524","tol_toboard","","","","tol_peg_3","524","524","0","[[1,0,0],[2,0],[3]]","2","[[1,2,0],[3,0],[0]]","7","0","","","","","","4","","","","","","","","",""
"","","","","","single-stim-button","142","272202","0.0-2.0-31.2-0.2","6101122085410e70ca020a04","A3","batch1","","525","tol_tohand","","","","tol_peg_2","525","525","0","[[1,0,0],[0,0],[3]]","3","[[1,2,0],[3,0],[0]]","7","0","","","","","","4","","","","","","","","",""
"","","","","","single-stim-button","143","272660","0.0-2.0-31.2-1.2","6101122085410e70ca020a04","A3","batch1","","457","tol_toboard","","","","tol_peg_1","457","457","0","[[1,2,0],[0,0],[3]]","3","[[1,2,0],[3,0],[0]]","7","0","","","","","","4","","","","","","","","",""
"","","","","","single-stim-button","144","273149","0.0-2.0-31.3-0.3","6101122085410e70ca020a04","A3","batch1","","489","tol_tohand","","","","tol_peg_3","489","489","0","[[1,2,0],[0,0],[0]]","4","[[1,2,0],[3,0],[0]]","7","0","","","","","","4","","","","","","","","",""
"","","","","","single-stim-button","145","273569","0.0-2.0-31.3-1.3","6101122085410e70ca020a04","A3","batch1","","420","tol_toboard","","","","tol_peg_2","420","420","0","[[1,2,0],[3,0],[0]]","4","[[1,2,0],[3,0],[0]]","7","0","","","","","","4","","","","","","","","",""
"","","","","","poldrack-single-stim","146","274576","0.0-2.0-32.0","6101122085410e70ca020a04","A3","batch1","","-1","tol_feedback","","","true","","1000","1000","500","","","","","","-1","none","true","6081","7604","","","","","","","","","",""
"","","","","","html-button-response","147","276035","0.0-2.0-33.0","6101122085410e70ca020a04","A3","batch1","","1458.5","tol_trial_num","<div class = centerbox><p class = center-block-text>problem <strong>9</strong> out of 25 problems</p></div>","0","","","","","","","","","","","","","","","","","","","","","","","","",""
"","","","","","single-stim-button","148","285961","0.0-2.0-34.0-0.0","6101122085410e70ca020a04","A3","batch1","","9925","tol_tohand","","","","tol_peg_1","9925","9925","0","[[3,0,0],[0,0],[1]]","1","[[2,1,0],[3,0],[0]]","8","0","","","","","","6","","","","","","","","",""
"","","","","","single-stim-button","149","287335","0.0-2.0-34.0-1.0","6101122085410e70ca020a04","A3","batch1","","1373","tol_toboard","","","","tol_peg_2","1373","1373","0","[[3,0,0],[2,0],[1]]","1","[[2,1,0],[3,0],[0]]","8","0","","","","","","6","","","","","","","","",""
"","","","","","single-stim-button","150","290175","0.0-2.0-34.1-0.1","6101122085410e70ca020a04","A3","batch1","","2839","tol_tohand","","","","tol_peg_1","2839","2839","0","[[0,0,0],[2,0],[1]]","2","[[2,1,0],[3,0],[0]]","8","0","","","","","","6","","","","","","","","",""
"","","","","","single-stim-button","151","290830","0.0-2.0-34.1-1.1","6101122085410e70ca020a04","A3","batch1","","654","tol_toboard","","","","tol_peg_2","654","654","0","[[0,0,0],[2,3],[1]]","2","[[2,1,0],[3,0],[0]]","8","0","","","","","","6","","","","","","","","",""
"","","","","","single-stim-button","152","291437","0.0-2.0-34.2-0.2","6101122085410e70ca020a04","A3","batch1","","606","tol_tohand","","","","tol_peg_3","606","606","0","[[0,0,0],[2,3],[0]]","3","[[2,1,0],[3,0],[0]]","8","0","","","","","","6","","","","","","","","",""
"","","","","","single-stim-button","153","292428","0.0-2.0-34.2-1.2","6101122085410e70ca020a04","A3","batch1","","990","tol_toboard","","","","tol_peg_1","990","990","0","[[1,0,0],[2,3],[0]]","3","[[2,1,0],[3,0],[0]]","8","0","","","","","","6","","","","","","","","",""
"","","","","","single-stim-button","154","293185","0.0-2.0-34.3-0.3","6101122085410e70ca020a04","A3","batch1","","757","tol_tohand","","","","tol_peg_2","757","757","0","[[1,0,0],[2,0],[0]]","4","[[2,1,0],[3,0],[0]]","8","0","","","","","","6","","","","","","","","",""
"","","","","","single-stim-button","155","293825","0.0-2.0-34.3-1.3","6101122085410e70ca020a04","A3","batch1","","639","tol_toboard","","","","tol_peg_3","639","639","0","[[1,0,0],[2,0],[3]]","4","[[2,1,0],[3,0],[0]]","8","0","","","","","","6","","","","","","","","",""
"","","","","","single-stim-button","156","294506","0.0-2.0-34.4-0.4","6101122085410e70ca020a04","A3","batch1","","681","tol_tohand","","","","tol_peg_2","681","681","0","[[1,0,0],[0,0],[3]]","5","[[2,1,0],[3,0],[0]]","8","0","","","","","","6","","","","","","","","",""
"","","","","","single-stim-button","157","295311","0.0-2.0-34.4-1.4","6101122085410e70ca020a04","A3","batch1","","804","tol_toboard","","","","tol_peg_1","804","804","0","[[1,2,0],[0,0],[3]]","5","[[2,1,0],[3,0],[0]]","8","0","","","","","","6","","","","","","","","",""
"","","","","","single-stim-button","158","297149","0.0-2.0-34.5-0.5","6101122085410e70ca020a04","A3","batch1","","1838","tol_tohand","","","","tol_peg_3","1838","1838","0","[[1,2,0],[0,0],[0]]","6","[[2,1,0],[3,0],[0]]","8","0","","","","","","6","","","","","","","","",""
"","","","","","single-stim-button","159","297691","0.0-2.0-34.5-1.5","6101122085410e70ca020a04","A3","batch1","","541","tol_toboard","","","","tol_peg_2","541","541","0","[[1,2,0],[3,0],[0]]","6","[[2,1,0],[3,0],[0]]","8","0","","","","","","6","","","","","","","","",""
"","","","","","single-stim-button","160","303953","0.0-2.0-34.6-0.6","6101122085410e70ca020a04","A3","batch1","","6261","tol_tohand","","","","tol_peg_1","6261","6261","0","[[1,0,0],[3,0],[0]]","7","[[2,1,0],[3,0],[0]]","8","0","","","","","","6","","","","","","","","",""
"","","","","","single-stim-button","161","304638","0.0-2.0-34.6-1.6","6101122085410e70ca020a04","A3","batch1","","684","tol_toboard","","","","tol_peg_2","684","684","0","[[1,0,0],[3,2],[0]]","7","[[2,1,0],[3,0],[0]]","8","0","","","","","","6","","","","","","","","",""
"","","","","","single-stim-button","162","305505","0.0-2.0-34.7-0.7","6101122085410e70ca020a04","A3","batch1","","867","tol_tohand","","","","tol_peg_1","867","867","0","[[0,0,0],[3,2],[0]]","8","[[2,1,0],[3,0],[0]]","8","0","","","","","","6","","","","","","","","",""
"","","","","","single-stim-button","163","306842","0.0-2.0-34.7-1.7","6101122085410e70ca020a04","A3","batch1","","1336","tol_toboard","","","","tol_peg_3","1336","1336","0","[[0,0,0],[3,2],[1]]","8","[[2,1,0],[3,0],[0]]","8","0","","","","","","6","","","","","","","","",""
"","","","","","single-stim-button","164","307785","0.0-2.0-34.8-0.8","6101122085410e70ca020a04","A3","batch1","","943","tol_tohand","","","","tol_peg_2","943","943","0","[[0,0,0],[3,0],[1]]","9","[[2,1,0],[3,0],[0]]","8","0","","","","","","6","","","","","","","","",""
"","","","","","single-stim-button","165","308273","0.0-2.0-34.8-1.8","6101122085410e70ca020a04","A3","batch1","","487","tol_toboard","","","","tol_peg_1","487","487","0","[[2,0,0],[3,0],[1]]","9","[[2,1,0],[3,0],[0]]","8","0","","","","","","6","","","","","","","","",""
"","","","","","single-stim-button","166","308928","0.0-2.0-34.9-0.9","6101122085410e70ca020a04","A3","batch1","","655","tol_tohand","","","","tol_peg_3","655","655","0","[[2,0,0],[3,0],[0]]","10","[[2,1,0],[3,0],[0]]","8","0","","","","","","6","","","","","","","","",""
"","","","","","single-stim-button","167","309553","0.0-2.0-34.9-1.9","6101122085410e70ca020a04","A3","batch1","","624","tol_toboard","","","","tol_peg_1","624","624","0","[[2,1,0],[3,0],[0]]","10","[[2,1,0],[3,0],[0]]","8","0","","","","","","6","","","","","","","","",""
"","","","","","poldrack-single-stim","168","310564","0.0-2.0-35.0","6101122085410e70ca020a04","A3","batch1","","-1","tol_feedback","","","true","","1000","1000","500","","","","","","-1","none","true","9925","25372","","","","","","","","","",""
"","","","","","html-button-response","169","311552","0.0-2.0-36.0","6101122085410e70ca020a04","A3","batch1","","987.2999999523163","tol_trial_num","<div class = centerbox><p class = center-block-text>problem <strong>10</strong> out of 25 problems</p></div>","0","","","","","","","","","","","","","","","","","","","","","","","","",""
"","","","","","single-stim-button","170","315165","0.0-2.0-37.0-0.0","6101122085410e70ca020a04","A3","batch1","","3612","tol_tohand","","","","tol_peg_3","3612","3612","0","[[3,0,0],[1,0],[0]]","1","[[3,0,0],[2,1],[0]]","9","0","","","","","","3","","","","","","","","",""
"","","","","","single-stim-button","171","315917","0.0-2.0-37.0-1.0","6101122085410e70ca020a04","A3","batch1","","752","tol_toboard","","","","tol_peg_3","752","752","0","[[3,0,0],[1,0],[2]]","1","[[3,0,0],[2,1],[0]]","9","0","","","","","","3","","","","","","","","",""
"","","","","","single-stim-button","172","316506","0.0-2.0-37.1-0.1","6101122085410e70ca020a04","A3","batch1","","588","tol_tohand","","","","tol_peg_2","588","588","0","[[3,0,0],[0,0],[2]]","2","[[3,0,0],[2,1],[0]]","9","0","","","","","","3","","","","","","","","",""
"","","","","","single-stim-button","173","317164","0.0-2.0-37.1-1.1","6101122085410e70ca020a04","A3","batch1","","657","tol_toboard","","","","tol_peg_1","657","657","0","[[3,1,0],[0,0],[2]]","2","[[3,0,0],[2,1],[0]]","9","0","","","","","","3","","","","","","","","",""
"","","","","","single-stim-button","174","318039","0.0-2.0-37.2-0.2","6101122085410e70ca020a04","A3","batch1","","874","tol_tohand","","","","tol_peg_3","874","874","0","[[3,1,0],[0,0],[0]]","3","[[3,0,0],[2,1],[0]]","9","0","","","","","","3","","","","","","","","",""
"","","","","","single-stim-button","175","318462","0.0-2.0-37.2-1.2","6101122085410e70ca020a04","A3","batch1","","422","tol_toboard","","","","tol_peg_2","422","422","0","[[3,1,0],[2,0],[0]]","3","[[3,0,0],[2,1],[0]]","9","0","","","","","","3","","","","","","","","",""
"","","","","","single-stim-button","176","318999","0.0-2.0-37.3-0.3","6101122085410e70ca020a04","A3","batch1","","536","tol_tohand","","","","tol_peg_1","536","536","0","[[3,0,0],[2,0],[0]]","4","[[3,0,0],[2,1],[0]]","9","0","","","","","","3","","","","","","","","",""
"","","","","","single-stim-button","177","319389","0.0-2.0-37.3-1.3","6101122085410e70ca020a04","A3","batch1","","388","tol_toboard","","","","tol_peg_2","388","388","0","[[3,0,0],[2,1],[0]]","4","[[3,0,0],[2,1],[0]]","9","0","","","","","","3","","","","","","","","",""
"","","","","","poldrack-single-stim","178","320393","0.0-2.0-38.0","6101122085410e70ca020a04","A3","batch1","","-1","tol_feedback","","","true","","1000","1000","500","","","","","","-1","none","true","3612","5610","","","","","","","","","",""
"","","","","","html-button-response","179","321304","0.0-2.0-39.0","6101122085410e70ca020a04","A3","batch1","","909.7999999523163","tol_trial_num","<div class = centerbox><p class = center-block-text>problem <strong>11</strong> out of 25 problems</p></div>","0","","","","","","","","","","","","","","","","","","","","","","","","",""
"","","","","","single-stim-button","180","324929","0.0-2.0-40.0-0.0","6101122085410e70ca020a04","A3","batch1","","3623","tol_tohand","","","","tol_peg_1","3623","3623","0","[[1,0,0],[3,0],[0]]","1","[[2,0,0],[1,3],[0]]","10","0","","","","","","6","","","","","","","","",""
"","","","","","single-stim-button","181","325906","0.0-2.0-40.0-1.0","6101122085410e70ca020a04","A3","batch1","","977","tol_toboard","","","","tol_peg_2","977","977","0","[[1,0,0],[3,2],[0]]","1","[[2,0,0],[1,3],[0]]","10","0","","","","","","6","","","","","","","","",""
"","","","","","single-stim-button","182","326860","0.0-2.0-40.1-0.1","6101122085410e70ca020a04","A3","batch1","","952","tol_tohand","","","","tol_peg_1","952","952","0","[[0,0,0],[3,2],[0]]","2","[[2,0,0],[1,3],[0]]","10","0","","","","","","6","","","","","","","","",""
"","","","","","single-stim-button","183","327413","0.0-2.0-40.1-1.1","6101122085410e70ca020a04","A3","batch1","","553","tol_toboard","","","","tol_peg_3","553","553","0","[[0,0,0],[3,2],[1]]","2","[[2,0,0],[1,3],[0]]","10","0","","","","","","6","","","","","","","","",""
"","","","","","single-stim-button","184","328899","0.0-2.0-40.2-0.2","6101122085410e70ca020a04","A3","batch1","","1486","tol_tohand","","","","tol_peg_2","1486","1486","0","[[0,0,0],[3,0],[1]]","3","[[2,0,0],[1,3],[0]]","10","0","","","","","","6","","","","","","","","",""
"","","","","","single-stim-button","185","330109","0.0-2.0-40.2-1.2","6101122085410e70ca020a04","A3","batch1","","1209","tol_toboard","","","","tol_peg_1","1209","1209","0","[[2,0,0],[3,0],[1]]","3","[[2,0,0],[1,3],[0]]","10","0","","","","","","6","","","","","","","","",""
"","","","","","single-stim-button","186","330813","0.0-2.0-40.3-0.3","6101122085410e70ca020a04","A3","batch1","","703","tol_tohand","","","","tol_peg_2","703","703","0","[[2,0,0],[0,0],[1]]","4","[[2,0,0],[1,3],[0]]","10","0","","","","","","6","","","","","","","","",""
"","","","","","single-stim-button","187","331555","0.0-2.0-40.3-1.3","6101122085410e70ca020a04","A3","batch1","","740","tol_toboard","","","","tol_peg_1","740","740","0","[[2,3,0],[0,0],[1]]","4","[[2,0,0],[1,3],[0]]","10","0","","","","","","6","","","","","","","","",""
"","","","","","single-stim-button","188","332028","0.0-2.0-40.4-0.4","6101122085410e70ca020a04","A3","batch1","","473","tol_tohand","","","","tol_peg_3","473","473","0","[[2,3,0],[0,0],[0]]","5","[[2,0,0],[1,3],[0]]","10","0","","","","","","6","","","","","","","","",""
"","","","","","single-stim-button","189","332459","0.0-2.0-40.4-1.4","6101122085410e70ca020a04","A3","batch1","","430","tol_toboard","","","","tol_peg_2","430","430","0","[[2,3,0],[1,0],[0]]","5","[[2,0,0],[1,3],[0]]","10","0","","","","","","6","","","","","","","","",""
"","","","","","single-stim-button","190","333048","0.0-2.0-40.5-0.5","6101122085410e70ca020a04","A3","batch1","","588","tol_tohand","","","","tol_peg_1","588","588","0","[[2,0,0],[1,0],[0]]","6","[[2,0,0],[1,3],[0]]","10","0","","","","","","6","","","","","","","","",""
"","","","","","single-stim-button","191","333557","0.0-2.0-40.5-1.5","6101122085410e70ca020a04","A3","batch1","","508","tol_toboard","","","","tol_peg_2","508","508","0","[[2,0,0],[1,3],[0]]","6","[[2,0,0],[1,3],[0]]","10","0","","","","","","6","","","","","","","","",""
"","","","","","poldrack-single-stim","192","334559","0.0-2.0-41.0","6101122085410e70ca020a04","A3","batch1","","-1","tol_feedback","","","true","","1000","1000","500","","","","","","-1","none","true","3623","7825","","","","","","","","","",""
"","","","","","html-button-response","193","335605","0.0-2.0-42.0","6101122085410e70ca020a04","A3","batch1","","1045.2000000476837","tol_trial_num","<div class = centerbox><p class = center-block-text>problem <strong>12</strong> out of 25 problems</p></div>","0","","","","","","","","","","","","","","","","","","","","","","","","",""
"","","","","","single-stim-button","194","340324","0.0-2.0-43.0-0.0","6101122085410e70ca020a04","A3","batch1","","4719","tol_tohand","","","","tol_peg_2","4719","4719","0","[[1,2,0],[0,0],[0]]","1","[[2,3,0],[0,0],[1]]","11","0","","","","","","4","","","","","","","","",""
"","","","","","single-stim-button","195","340883","0.0-2.0-43.0-1.0","6101122085410e70ca020a04","A3","batch1","","558","tol_toboard","","","","tol_peg_3","558","558","0","[[1,2,0],[0,0],[3]]","1","[[2,3,0],[0,0],[1]]","11","0","","","","","","4","","","","","","","","",""
"","","","","","single-stim-button","196","341506","0.0-2.0-43.1-0.1","6101122085410e70ca020a04","A3","batch1","","623","tol_tohand","","","","tol_peg_1","623","623","0","[[1,0,0],[0,0],[3]]","2","[[2,3,0],[0,0],[1]]","11","0","","","","","","4","","","","","","","","",""
"","","","","","single-stim-button","197","342079","0.0-2.0-43.1-1.1","6101122085410e70ca020a04","A3","batch1","","571","tol_toboard","","","","tol_peg_2","571","571","0","[[1,0,0],[2,0],[3]]","2","[[2,3,0],[0,0],[1]]","11","0","","","","","","4","","","","","","","","",""
"","","","","","single-stim-button","198","343218","0.0-2.0-43.2-0.2","6101122085410e70ca020a04","A3","batch1","","1139","tol_tohand","","","","tol_peg_1","1139","1139","0","[[0,0,0],[2,0],[3]]","3","[[2,3,0],[0,0],[1]]","11","0","","","","","","4","","","","","","","","",""
"","","","","","single-stim-button","199","343810","0.0-2.0-43.2-1.2","6101122085410e70ca020a04","A3","batch1","","592","tol_toboard","","","","tol_peg_2","592","592","0","[[0,0,0],[2,1],[3]]","3","[[2,3,0],[0,0],[1]]","11","0","","","","","","4","","","","","","","","",""
"","","","","","single-stim-button","200","344265","0.0-2.0-43.3-0.3","6101122085410e70ca020a04","A3","batch1","","455","tol_tohand","","","","tol_peg_3","455","455","0","[[0,0,0],[2,1],[0]]","4","[[2,3,0],[0,0],[1]]","11","0","","","","","","4","","","","","","","","",""
"","","","","","single-stim-button","201","344876","0.0-2.0-43.3-1.3","6101122085410e70ca020a04","A3","batch1","","610","tol_toboard","","","","tol_peg_1","610","610","0","[[3,0,0],[2,1],[0]]","4","[[2,3,0],[0,0],[1]]","11","0","","","","","","4","","","","","","","","",""
"","","","","","single-stim-button","202","345599","0.0-2.0-43.4-0.4","6101122085410e70ca020a04","A3","batch1","","722","tol_tohand","","","","tol_peg_2","722","722","0","[[3,0,0],[2,0],[0]]","5","[[2,3,0],[0,0],[1]]","11","0","","","","","","4","","","","","","","","",""
"","","","","","single-stim-button","203","346421","0.0-2.0-43.4-1.4","6101122085410e70ca020a04","A3","batch1","","822","tol_toboard","","","","tol_peg_3","822","822","0","[[3,0,0],[2,0],[1]]","5","[[2,3,0],[0,0],[1]]","11","0","","","","","","4","","","","","","","","",""
"","","","","","single-stim-button","204","349813","0.0-2.0-43.5-0.5","6101122085410e70ca020a04","A3","batch1","","3391","tol_tohand","","","","tol_peg_3","3391","3391","0","[[3,0,0],[2,0],[0]]","6","[[2,3,0],[0,0],[1]]","11","0","","","","","","4","","","","","","","","",""
"","","","","","single-stim-button","205","350538","0.0-2.0-43.5-1.5","6101122085410e70ca020a04","A3","batch1","","724","tol_toboard","","","","tol_peg_2","724","724","0","[[3,0,0],[2,1],[0]]","6","[[2,3,0],[0,0],[1]]","11","0","","","","","","4","","","","","","","","",""
"","","","","","single-stim-button","206","351760","0.0-2.0-43.6-0.6","6101122085410e70ca020a04","A3","batch1","","1221","tol_tohand","","","","tol_peg_1","1221","1221","0","[[0,0,0],[2,1],[0]]","7","[[2,3,0],[0,0],[1]]","11","0","","","","","","4","","","","","","","","",""
"","","","","","single-stim-button","207","352312","0.0-2.0-43.6-1.6","6101122085410e70ca020a04","A3","batch1","","551","tol_toboard","","","","tol_peg_3","551","551","0","[[0,0,0],[2,1],[3]]","7","[[2,3,0],[0,0],[1]]","11","0","","","","","","4","","","","","","","","",""
"","","","","","single-stim-button","208","353301","0.0-2.0-43.7-0.7","6101122085410e70ca020a04","A3","batch1","","989","tol_tohand","","","","tol_peg_2","989","989","0","[[0,0,0],[2,0],[3]]","8","[[2,3,0],[0,0],[1]]","11","0","","","","","","4","","","","","","","","",""
"","","","","","single-stim-button","209","353658","0.0-2.0-43.7-1.7","6101122085410e70ca020a04","A3","batch1","","356","tol_toboard","","","","tol_peg_1","356","356","0","[[1,0,0],[2,0],[3]]","8","[[2,3,0],[0,0],[1]]","11","0","","","","","","4","","","","","","","","",""
"","","","","","single-stim-button","210","354416","0.0-2.0-43.8-0.8","6101122085410e70ca020a04","A3","batch1","","756","tol_tohand","","","","tol_peg_2","756","756","0","[[1,0,0],[0,0],[3]]","9","[[2,3,0],[0,0],[1]]","11","0","","","","","","4","","","","","","","","",""
"","","","","","single-stim-button","211","354921","0.0-2.0-43.8-1.8","6101122085410e70ca020a04","A3","batch1","","505","tol_toboard","","","","tol_peg_1","505","505","0","[[1,2,0],[0,0],[3]]","9","[[2,3,0],[0,0],[1]]","11","0","","","","","","4","","","","","","","","",""
"","","","","","single-stim-button","212","355629","0.0-2.0-43.9-0.9","6101122085410e70ca020a04","A3","batch1","","707","tol_tohand","","","","tol_peg_3","707","707","0","[[1,2,0],[0,0],[0]]","10","[[2,3,0],[0,0],[1]]","11","0","","","","","","4","","","","","","","","",""
"","","","","","single-stim-button","213","356502","0.0-2.0-43.9-1.9","6101122085410e70ca020a04","A3","batch1","","873","tol_toboard","","","","tol_peg_2","873","873","0","[[1,2,0],[3,0],[0]]","10","[[2,3,0],[0,0],[1]]","11","0","","","","","","4","","","","","","","","",""
"","","","","","single-stim-button","214","357522","0.0-2.0-43.10-0.10","6101122085410e70ca020a04","A3","batch1","","1020","tol_tohand","","","","tol_peg_1","1020","1020","0","[[1,0,0],[3,0],[0]]","11","[[2,3,0],[0,0],[1]]","11","0","","","","","","4","","","","","","","","",""
"","","","","","single-stim-button","215","359527","0.0-2.0-43.10-1.10","6101122085410e70ca020a04","A3","batch1","","2004","tol_toboard","","","","tol_peg_2","2004","2004","0","[[1,0,0],[3,2],[0]]","11","[[2,3,0],[0,0],[1]]","11","0","","","","","","4","","","","","","","","",""
"","","","","","single-stim-button","216","360370","0.0-2.0-43.11-0.11","6101122085410e70ca020a04","A3","batch1","","843","tol_tohand","","","","tol_peg_1","843","843","0","[[0,0,0],[3,2],[0]]","12","[[2,3,0],[0,0],[1]]","11","0","","","","","","4","","","","","","","","",""
"","","","","","single-stim-button","217","361792","0.0-2.0-43.11-1.11","6101122085410e70ca020a04","A3","batch1","","1421","tol_toboard","","","","tol_peg_3","1421","1421","0","[[0,0,0],[3,2],[1]]","12","[[2,3,0],[0,0],[1]]","11","0","","","","","","4","","","","","","","","",""
"","","","","","single-stim-button","218","362417","0.0-2.0-43.12-0.12","6101122085410e70ca020a04","A3","batch1","","623","tol_tohand","","","","tol_peg_2","623","623","0","[[0,0,0],[3,0],[1]]","13","[[2,3,0],[0,0],[1]]","11","0","","","","","","4","","","","","","","","",""
"","","","","","single-stim-button","219","362975","0.0-2.0-43.12-1.12","6101122085410e70ca020a04","A3","batch1","","558","tol_toboard","","","","tol_peg_1","558","558","0","[[2,0,0],[3,0],[1]]","13","[[2,3,0],[0,0],[1]]","11","0","","","","","","4","","","","","","","","",""
"","","","","","single-stim-button","220","363398","0.0-2.0-43.13-0.13","6101122085410e70ca020a04","A3","batch1","","421","tol_tohand","","","","tol_peg_2","421","421","0","[[2,0,0],[0,0],[1]]","14","[[2,3,0],[0,0],[1]]","11","0","","","","","","4","","","","","","","","",""
"","","","","","single-stim-button","221","363871","0.0-2.0-43.13-1.13","6101122085410e70ca020a04","A3","batch1","","472","tol_toboard","","","","tol_peg_1","472","472","0","[[2,3,0],[0,0],[1]]","14","[[2,3,0],[0,0],[1]]","11","0","","","","","","4","","","","","","","","",""
"","","","","","poldrack-single-stim","222","364875","0.0-2.0-44.0","6101122085410e70ca020a04","A3","batch1","","-1","tol_feedback","","","true","","1000","1000","500","","","","","","-1","none","true","4719","17629","","","","","","","","","",""
"","","","","","html-button-response","223","365874","0.0-2.0-45.0","6101122085410e70ca020a04","A3","batch1","","997.6000000238419","tol_trial_num","<div class = centerbox><p class = center-block-text>problem <strong>13</strong> out of 25 problems</p></div>","0","","","","","","","","","","","","","","","","","","","","","","","","",""
"","","","","","single-stim-button","224","376670","0.0-2.0-46.0-0.0","6101122085410e70ca020a04","A3","batch1","","10795","tol_tohand","","","","tol_peg_1","10795","10795","0","[[1,0,0],[3,0],[0]]","1","[[0,0,0],[2,3],[1]]","12","0","","","","","","4","","","","","","","","",""
"","","","","","single-stim-button","225","378843","0.0-2.0-46.0-1.0","6101122085410e70ca020a04","A3","batch1","","2173","tol_toboard","","","","tol_peg_3","2173","2173","0","[[1,0,0],[3,0],[2]]","1","[[0,0,0],[2,3],[1]]","12","0","","","","","","4","","","","","","","","",""
"","","","","","single-stim-button","226","380849","0.0-2.0-46.1-0.1","6101122085410e70ca020a04","A3","batch1","","2006","tol_tohand","","","","tol_peg_2","2006","2006","0","[[1,0,0],[0,0],[2]]","2","[[0,0,0],[2,3],[1]]","12","0","","","","","","4","","","","","","","","",""
"","","","","","single-stim-button","227","381513","0.0-2.0-46.1-1.1","6101122085410e70ca020a04","A3","batch1","","664","tol_toboard","","","","tol_peg_1","664","664","0","[[1,3,0],[0,0],[2]]","2","[[0,0,0],[2,3],[1]]","12","0","","","","","","4","","","","","","","","",""
"","","","","","single-stim-button","228","383154","0.0-2.0-46.2-0.2","6101122085410e70ca020a04","A3","batch1","","1639","tol_tohand","","","","tol_peg_3","1639","1639","0","[[1,3,0],[0,0],[0]]","3","[[0,0,0],[2,3],[1]]","12","0","","","","","","4","","","","","","","","",""
"","","","","","single-stim-button","229","383984","0.0-2.0-46.2-1.2","6101122085410e70ca020a04","A3","batch1","","830","tol_toboard","","","","tol_peg_2","830","830","0","[[1,3,0],[2,0],[0]]","3","[[0,0,0],[2,3],[1]]","12","0","","","","","","4","","","","","","","","",""
"","","","","","single-stim-button","230","385457","0.0-2.0-46.3-0.3","6101122085410e70ca020a04","A3","batch1","","1473","tol_tohand","","","","tol_peg_1","1473","1473","0","[[1,0,0],[2,0],[0]]","4","[[0,0,0],[2,3],[1]]","12","0","","","","","","4","","","","","","","","",""
"","","","","","single-stim-button","231","386016","0.0-2.0-46.3-1.3","6101122085410e70ca020a04","A3","batch1","","558","tol_toboard","","","","tol_peg_2","558","558","0","[[1,0,0],[2,3],[0]]","4","[[0,0,0],[2,3],[1]]","12","0","","","","","","4","","","","","","","","",""
"","","","","","single-stim-button","232","386519","0.0-2.0-46.4-0.4","6101122085410e70ca020a04","A3","batch1","","503","tol_tohand","","","","tol_peg_1","503","503","0","[[0,0,0],[2,3],[0]]","5","[[0,0,0],[2,3],[1]]","12","0","","","","","","4","","","","","","","","",""
"","","","","","single-stim-button","233","387056","0.0-2.0-46.4-1.4","6101122085410e70ca020a04","A3","batch1","","537","tol_toboard","","","","tol_peg_3","537","537","0","[[0,0,0],[2,3],[1]]","5","[[0,0,0],[2,3],[1]]","12","0","","","","","","4","","","","","","","","",""
"","","","","","poldrack-single-stim","234","388069","0.0-2.0-47.0","6101122085410e70ca020a04","A3","batch1","","-1","tol_feedback","","","true","","1000","1000","500","","","","","","-1","none","true","10795","16416","","","","","","","","","",""
"","","","","","html-button-response","235","390358","0.0-2.0-48.0","6101122085410e70ca020a04","A3","batch1","","2287.399999976158","attention_check","<p class = block-text>How many balls are in your board<br></p>","1","true","","","","","","","","","","","","","","","","","","","","","","","",""
"","","","","","html-button-response","236","391387","0.0-2.0-49.0","6101122085410e70ca020a04","A3","batch1","","1028.7999999523163","tol_trial_num","<div class = centerbox><p class = center-block-text>problem <strong>14</strong> out of 25 problems</p></div>","0","","","","","","","","","","","","","","","","","","","","","","","","",""
"","","","","","single-stim-button","237","392866","0.0-2.0-50.0-0.0","6101122085410e70ca020a04","A3","batch1","","1478","tol_tohand","","","","tol_peg_1","1478","1478","0","[[2,0,0],[3,0],[0]]","1","[[1,2,0],[3,0],[0]]","13","0","","","","","","4","","","","","","","","",""
"","","","","","single-stim-button","238","399590","0.0-2.0-50.0-1.0","6101122085410e70ca020a04","A3","batch1","","6724","tol_toboard","","","","tol_peg_3","6724","6724","0","[[2,0,0],[3,0],[1]]","1","[[1,2,0],[3,0],[0]]","13","0","","","","","","4","","","","","","","","",""
"","","","","","single-stim-button","239","400216","0.0-2.0-50.1-0.1","6101122085410e70ca020a04","A3","batch1","","625","tol_tohand","","","","tol_peg_1","625","625","0","[[0,0,0],[3,0],[1]]","2","[[1,2,0],[3,0],[0]]","13","0","","","","","","4","","","","","","","","",""
"","","","","","single-stim-button","240","400791","0.0-2.0-50.1-1.1","6101122085410e70ca020a04","A3","batch1","","573","tol_toboard","","","","tol_peg_2","573","573","0","[[0,0,0],[3,2],[1]]","2","[[1,2,0],[3,0],[0]]","13","0","","","","","","4","","","","","","","","",""
"","","","","","single-stim-button","241","401397","0.0-2.0-50.2-0.2","6101122085410e70ca020a04","A3","batch1","","605","tol_tohand","","","","tol_peg_3","605","605","0","[[0,0,0],[3,2],[0]]","3","[[1,2,0],[3,0],[0]]","13","0","","","","","","4","","","","","","","","",""
"","","","","","single-stim-button","242","401953","0.0-2.0-50.2-1.2","6101122085410e70ca020a04","A3","batch1","","555","tol_toboard","","","","tol_peg_1","555","555","0","[[1,0,0],[3,2],[0]]","3","[[1,2,0],[3,0],[0]]","13","0","","","","","","4","","","","","","","","",""
"","","","","","single-stim-button","243","402495","0.0-2.0-50.3-0.3","6101122085410e70ca020a04","A3","batch1","","541","tol_tohand","","","","tol_peg_2","541","541","0","[[1,0,0],[3,0],[0]]","4","[[1,2,0],[3,0],[0]]","13","0","","","","","","4","","","","","","","","",""
"","","","","","single-stim-button","244","403052","0.0-2.0-50.3-1.3","6101122085410e70ca020a04","A3","batch1","","557","tol_toboard","","","","tol_peg_1","557","557","0","[[1,2,0],[3,0],[0]]","4","[[1,2,0],[3,0],[0]]","13","0","","","","","","4","","","","","","","","",""
"","","","","","poldrack-single-stim","245","404058","0.0-2.0-51.0","6101122085410e70ca020a04","A3","batch1","","-1","tol_feedback","","","true","","1000","1000","500","","","","","","-1","none","true","1478","3249","","","","","","","","","",""
"","","","","","html-button-response","246","404951","0.0-2.0-52.0","6101122085410e70ca020a04","A3","batch1","","892.2999999523163","tol_trial_num","<div class = centerbox><p class = center-block-text>problem <strong>15</strong> out of 25 problems</p></div>","0","","","","","","","","","","","","","","","","","","","","","","","","",""
"","","","","","single-stim-button","247","409018","0.0-2.0-53.0-0.0","6101122085410e70ca020a04","A3","batch1","","4066","tol_tohand","","","","tol_peg_1","4066","4066","0","[[1,0,0],[3,0],[0]]","1","[[2,0,0],[3,0],[1]]","14","0","","","","","","3","","","","","","","","",""
"","","","","","single-stim-button","248","409845","0.0-2.0-53.0-1.0","6101122085410e70ca020a04","A3","batch1","","826","tol_toboard","","","","tol_peg_2","826","826","0","[[1,0,0],[3,2],[0]]","1","[[2,0,0],[3,0],[1]]","14","0","","","","","","3","","","","","","","","",""
"","","","","","single-stim-button","249","410567","0.0-2.0-53.1-0.1","6101122085410e70ca020a04","A3","batch1","","722","tol_tohand","","","","tol_peg_1","722","722","0","[[0,0,0],[3,2],[0]]","2","[[2,0,0],[3,0],[1]]","14","0","","","","","","3","","","","","","","","",""
"","","","","","single-stim-button","250","411270","0.0-2.0-53.1-1.1","6101122085410e70ca020a04","A3","batch1","","702","tol_toboard","","","","tol_peg_3","702","702","0","[[0,0,0],[3,2],[1]]","2","[[2,0,0],[3,0],[1]]","14","0","","","","","","3","","","","","","","","",""
"","","","","","single-stim-button","251","411775","0.0-2.0-53.2-0.2","6101122085410e70ca020a04","A3","batch1","","505","tol_tohand","","","","tol_peg_2","505","505","0","[[0,0,0],[3,0],[1]]","3","[[2,0,0],[3,0],[1]]","14","0","","","","","","3","","","","","","","","",""
"","","","","","single-stim-button","252","412131","0.0-2.0-53.2-1.2","6101122085410e70ca020a04","A3","batch1","","355","tol_toboard","","","","tol_peg_1","355","355","0","[[2,0,0],[3,0],[1]]","3","[[2,0,0],[3,0],[1]]","14","0","","","","","","3","","","","","","","","",""
"","","","","","poldrack-single-stim","253","413138","0.0-2.0-54.0","6101122085410e70ca020a04","A3","batch1","","-1","tol_feedback","","","true","","1000","1000","500","","","","","","-1","none","true","4066","5293","","","","","","","","","",""
"","","","","","html-button-response","254","414373","0.0-2.0-55.0","6101122085410e70ca020a04","A3","batch1","","1234.4000000953674","tol_trial_num","<div class = centerbox><p class = center-block-text>problem <strong>16</strong> out of 25 problems</p></div>","0","","","","","","","","","","","","","","","","","","","","","","","","",""
"","","","","","single-stim-button","255","417191","0.0-2.0-56.0-0.0","6101122085410e70ca020a04","A3","batch1","","2818","tol_tohand","","","","tol_peg_2","2818","2818","0","[[0,0,0],[2,0],[1]]","1","[[2,3,0],[1,0],[0]]","15","0","","","","","","7","","","","","","","","",""
"","","","","","single-stim-button","256","420848","0.0-2.0-56.0-1.0","6101122085410e70ca020a04","A3","batch1","","3657","tol_toboard","","","","tol_peg_2","3657","3657","0","[[0,0,0],[2,3],[1]]","1","[[2,3,0],[1,0],[0]]","15","0","","","","","","7","","","","","","","","",""
"","","","","","single-stim-button","257","421509","0.0-2.0-56.1-0.1","6101122085410e70ca020a04","A3","batch1","","659","tol_tohand","","","","tol_peg_3","659","659","0","[[0,0,0],[2,3],[0]]","2","[[2,3,0],[1,0],[0]]","15","0","","","","","","7","","","","","","","","",""
"","","","","","single-stim-button","258","422527","0.0-2.0-56.1-1.1","6101122085410e70ca020a04","A3","batch1","","1018","tol_toboard","","","","tol_peg_1","1018","1018","0","[[1,0,0],[2,3],[0]]","2","[[2,3,0],[1,0],[0]]","15","0","","","","","","7","","","","","","","","",""
"","","","","","single-stim-button","259","423035","0.0-2.0-56.2-0.2","6101122085410e70ca020a04","A3","batch1","","507","tol_tohand","","","","tol_peg_2","507","507","0","[[1,0,0],[2,0],[0]]","3","[[2,3,0],[1,0],[0]]","15","0","","","","","","7","","","","","","","","",""
"","","","","","single-stim-button","260","423509","0.0-2.0-56.2-1.2","6101122085410e70ca020a04","A3","batch1","","474","tol_toboard","","","","tol_peg_3","474","474","0","[[1,0,0],[2,0],[3]]","3","[[2,3,0],[1,0],[0]]","15","0","","","","","","7","","","","","","","","",""
"","","","","","single-stim-button","261","424183","0.0-2.0-56.3-0.3","6101122085410e70ca020a04","A3","batch1","","673","tol_tohand","","","","tol_peg_1","673","673","0","[[0,0,0],[2,0],[3]]","4","[[2,3,0],[1,0],[0]]","15","0","","","","","","7","","","","","","","","",""
"","","","","","single-stim-button","262","424753","0.0-2.0-56.3-1.3","6101122085410e70ca020a04","A3","batch1","","569","tol_toboard","","","","tol_peg_2","569","569","0","[[0,0,0],[2,1],[3]]","4","[[2,3,0],[1,0],[0]]","15","0","","","","","","7","","","","","","","","",""
"","","","","","single-stim-button","263","425345","0.0-2.0-56.4-0.4","6101122085410e70ca020a04","A3","batch1","","592","tol_tohand","","","","tol_peg_3","592","592","0","[[0,0,0],[2,1],[0]]","5","[[2,3,0],[1,0],[0]]","15","0","","","","","","7","","","","","","","","",""
"","","","","","single-stim-button","264","427854","0.0-2.0-56.4-1.4","6101122085410e70ca020a04","A3","batch1","","2509","tol_toboard","","","","tol_peg_1","2509","2509","0","[[3,0,0],[2,1],[0]]","5","[[2,3,0],[1,0],[0]]","15","0","","","","","","7","","","","","","","","",""
"","","","","","single-stim-button","265","428513","0.0-2.0-56.5-0.5","6101122085410e70ca020a04","A3","batch1","","657","tol_tohand","","","","tol_peg_2","657","657","0","[[3,0,0],[2,0],[0]]","6","[[2,3,0],[1,0],[0]]","15","0","","","","","","7","","","","","","","","",""
"","","","","","single-stim-button","266","429088","0.0-2.0-56.5-1.5","6101122085410e70ca020a04","A3","batch1","","575","tol_toboard","","","","tol_peg_1","575","575","0","[[3,1,0],[2,0],[0]]","6","[[2,3,0],[1,0],[0]]","15","0","","","","","","7","","","","","","","","",""
"","","","","","single-stim-button","267","429844","0.0-2.0-56.6-0.6","6101122085410e70ca020a04","A3","batch1","","755","tol_tohand","","","","tol_peg_2","755","755","0","[[3,1,0],[0,0],[0]]","7","[[2,3,0],[1,0],[0]]","15","0","","","","","","7","","","","","","","","",""
"","","","","","single-stim-button","268","430404","0.0-2.0-56.6-1.6","6101122085410e70ca020a04","A3","batch1","","558","tol_toboard","","","","tol_peg_3","558","558","0","[[3,1,0],[0,0],[2]]","7","[[2,3,0],[1,0],[0]]","15","0","","","","","","7","","","","","","","","",""
"","","","","","single-stim-button","269","431043","0.0-2.0-56.7-0.7","6101122085410e70ca020a04","A3","batch1","","639","tol_tohand","","","","tol_peg_1","639","639","0","[[3,0,0],[0,0],[2]]","8","[[2,3,0],[1,0],[0]]","15","0","","","","","","7","","","","","","","","",""
"","","","","","single-stim-button","270","431726","0.0-2.0-56.7-1.7","6101122085410e70ca020a04","A3","batch1","","682","tol_toboard","","","","tol_peg_2","682","682","0","[[3,0,0],[1,0],[2]]","8","[[2,3,0],[1,0],[0]]","15","0","","","","","","7","","","","","","","","",""
"","","","","","single-stim-button","271","433764","0.0-2.0-56.8-0.8","6101122085410e70ca020a04","A3","batch1","","2036","tol_tohand","","","","tol_peg_1","2036","2036","0","[[0,0,0],[1,0],[2]]","9","[[2,3,0],[1,0],[0]]","15","0","","","","","","7","","","","","","","","",""
"","","","","","single-stim-button","272","434386","0.0-2.0-56.8-1.8","6101122085410e70ca020a04","A3","batch1","","622","tol_toboard","","","","tol_peg_2","622","622","0","[[0,0,0],[1,3],[2]]","9","[[2,3,0],[1,0],[0]]","15","0","","","","","","7","","","","","","","","",""
"","","","","","single-stim-button","273","434940","0.0-2.0-56.9-0.9","6101122085410e70ca020a04","A3","batch1","","553","tol_tohand","","","","tol_peg_3","553","553","0","[[0,0,0],[1,3],[0]]","10","[[2,3,0],[1,0],[0]]","15","0","","","","","","7","","","","","","","","",""
"","","","","","single-stim-button","274","435552","0.0-2.0-56.9-1.9","6101122085410e70ca020a04","A3","batch1","","612","tol_toboard","","","","tol_peg_1","612","612","0","[[2,0,0],[1,3],[0]]","10","[[2,3,0],[1,0],[0]]","15","0","","","","","","7","","","","","","","","",""
"","","","","","single-stim-button","275","436475","0.0-2.0-56.10-0.10","6101122085410e70ca020a04","A3","batch1","","921","tol_tohand","","","","tol_peg_2","921","921","0","[[2,0,0],[1,0],[0]]","11","[[2,3,0],[1,0],[0]]","15","0","","","","","","7","","","","","","","","",""
"","","","","","single-stim-button","276","437064","0.0-2.0-56.10-1.10","6101122085410e70ca020a04","A3","batch1","","589","tol_toboard","","","","tol_peg_1","589","589","0","[[2,3,0],[1,0],[0]]","11","[[2,3,0],[1,0],[0]]","15","0","","","","","","7","","","","","","","","",""
"","","","","","poldrack-single-stim","277","438076","0.0-2.0-57.0","6101122085410e70ca020a04","A3","batch1","","-1","tol_feedback","","","true","","1000","1000","500","","","","","","-1","none","true","2818","10810","","","","","","","","","",""
"","","","","","html-button-response","278","438654","0.0-2.0-58.0","6101122085410e70ca020a04","A3","batch1","","576.7000000476837","tol_trial_num","<div class = centerbox><p class = center-block-text>problem <strong>17</strong> out of 25 problems</p></div>","0","","","","","","","","","","","","","","","","","","","","","","","","",""
"","","","","","single-stim-button","279","440838","0.0-2.0-59.0-0.0","6101122085410e70ca020a04","A3","batch1","","2183","tol_tohand","","","","tol_peg_2","2183","2183","0","[[1,2,0],[0,0],[0]]","1","[[3,1,0],[2,0],[0]]","16","0","","","","","","5","","","","","","","","",""
"","","","","","single-stim-button","280","441558","0.0-2.0-59.0-1.0","6101122085410e70ca020a04","A3","batch1","","720","tol_toboard","","","","tol_peg_3","720","720","0","[[1,2,0],[0,0],[3]]","1","[[3,1,0],[2,0],[0]]","16","0","","","","","","5","","","","","","","","",""
"","","","","","single-stim-button","281","442448","0.0-2.0-59.1-0.1","6101122085410e70ca020a04","A3","batch1","","890","tol_tohand","","","","tol_peg_1","890","890","0","[[1,0,0],[0,0],[3]]","2","[[3,1,0],[2,0],[0]]","16","0","","","","","","5","","","","","","","","",""
"","","","","","single-stim-button","282","443039","0.0-2.0-59.1-1.1","6101122085410e70ca020a04","A3","batch1","","590","tol_toboard","","","","tol_peg_2","590","590","0","[[1,0,0],[2,0],[3]]","2","[[3,1,0],[2,0],[0]]","16","0","","","","","","5","","","","","","","","",""
"","","","","","single-stim-button","283","445369","0.0-2.0-59.2-0.2","6101122085410e70ca020a04","A3","batch1","","2329","tol_tohand","","","","tol_peg_1","2329","2329","0","[[0,0,0],[2,0],[3]]","3","[[3,1,0],[2,0],[0]]","16","0","","","","","","5","","","","","","","","",""
"","","","","","single-stim-button","284","445857","0.0-2.0-59.2-1.2","6101122085410e70ca020a04","A3","batch1","","487","tol_toboard","","","","tol_peg_2","487","487","0","[[0,0,0],[2,1],[3]]","3","[[3,1,0],[2,0],[0]]","16","0","","","","","","5","","","","","","","","",""
"","","","","","single-stim-button","285","446363","0.0-2.0-59.3-0.3","6101122085410e70ca020a04","A3","batch1","","505","tol_tohand","","","","tol_peg_3","505","505","0","[[0,0,0],[2,1],[0]]","4","[[3,1,0],[2,0],[0]]","16","0","","","","","","5","","","","","","","","",""
"","","","","","single-stim-button","286","447003","0.0-2.0-59.3-1.3","6101122085410e70ca020a04","A3","batch1","","640","tol_toboard","","","","tol_peg_1","640","640","0","[[3,0,0],[2,1],[0]]","4","[[3,1,0],[2,0],[0]]","16","0","","","","","","5","","","","","","","","",""
"","","","","","single-stim-button","287","447527","0.0-2.0-59.4-0.4","6101122085410e70ca020a04","A3","batch1","","523","tol_tohand","","","","tol_peg_2","523","523","0","[[3,0,0],[2,0],[0]]","5","[[3,1,0],[2,0],[0]]","16","0","","","","","","5","","","","","","","","",""
"","","","","","single-stim-button","288","448065","0.0-2.0-59.4-1.4","6101122085410e70ca020a04","A3","batch1","","538","tol_toboard","","","","tol_peg_1","538","538","0","[[3,1,0],[2,0],[0]]","5","[[3,1,0],[2,0],[0]]","16","0","","","","","","5","","","","","","","","",""
"","","","","","poldrack-single-stim","289","449074","0.0-2.0-60.0","6101122085410e70ca020a04","A3","batch1","","-1","tol_feedback","","","true","","1000","1000","500","","","","","","-1","none","true","2183","6430","","","","","","","","","",""
"","","","","","html-button-response","290","449896","0.0-2.0-61.0","6101122085410e70ca020a04","A3","batch1","","820.7000000476837","tol_trial_num","<div class = centerbox><p class = center-block-text>problem <strong>18</strong> out of 25 problems</p></div>","0","","","","","","","","","","","","","","","","","","","","","","","","",""
"","","","","","single-stim-button","291","452929","0.0-2.0-62.0-0.0","6101122085410e70ca020a04","A3","batch1","","3031","tol_tohand","","","","tol_peg_1","3031","3031","0","[[1,0,0],[3,0],[0]]","1","[[3,0,0],[2,0],[1]]","17","0","","","","","","5","","","","","","","","",""
"","","","","","single-stim-button","292","453521","0.0-2.0-62.0-1.0","6101122085410e70ca020a04","A3","batch1","","591","tol_toboard","","","","tol_peg_2","591","591","0","[[1,0,0],[3,2],[0]]","1","[[3,0,0],[2,0],[1]]","17","0","","","","","","5","","","","","","","","",""
"","","","","","single-stim-button","293","454009","0.0-2.0-62.1-0.1","6101122085410e70ca020a04","A3","batch1","","487","tol_tohand","","","","tol_peg_1","487","487","0","[[0,0,0],[3,2],[0]]","2","[[3,0,0],[2,0],[1]]","17","0","","","","","","5","","","","","","","","",""
"","","","","","single-stim-button","294","454783","0.0-2.0-62.1-1.1","6101122085410e70ca020a04","A3","batch1","","773","tol_toboard","","","","tol_peg_3","773","773","0","[[0,0,0],[3,2],[1]]","2","[[3,0,0],[2,0],[1]]","17","0","","","","","","5","","","","","","","","",""
"","","","","","single-stim-button","295","455723","0.0-2.0-62.2-0.2","6101122085410e70ca020a04","A3","batch1","","939","tol_tohand","","","","tol_peg_2","939","939","0","[[0,0,0],[3,0],[1]]","3","[[3,0,0],[2,0],[1]]","17","0","","","","","","5","","","","","","","","",""
"","","","","","single-stim-button","296","456629","0.0-2.0-62.2-1.2","6101122085410e70ca020a04","A3","batch1","","906","tol_toboard","","","","tol_peg_1","906","906","0","[[2,0,0],[3,0],[1]]","3","[[3,0,0],[2,0],[1]]","17","0","","","","","","5","","","","","","","","",""
"","","","","","single-stim-button","297","457337","0.0-2.0-62.3-0.3","6101122085410e70ca020a04","A3","batch1","","707","tol_tohand","","","","tol_peg_2","707","707","0","[[2,0,0],[0,0],[1]]","4","[[3,0,0],[2,0],[1]]","17","0","","","","","","5","","","","","","","","",""
"","","","","","single-stim-button","298","458026","0.0-2.0-62.3-1.3","6101122085410e70ca020a04","A3","batch1","","688","tol_toboard","","","","tol_peg_1","688","688","0","[[2,3,0],[0,0],[1]]","4","[[3,0,0],[2,0],[1]]","17","0","","","","","","5","","","","","","","","",""
"","","","","","single-stim-button","299","458882","0.0-2.0-62.4-0.4","6101122085410e70ca020a04","A3","batch1","","855","tol_tohand","","","","tol_peg_3","855","855","0","[[2,3,0],[0,0],[0]]","5","[[3,0,0],[2,0],[1]]","17","0","","","","","","5","","","","","","","","",""
"","","","","","single-stim-button","300","459322","0.0-2.0-62.4-1.4","6101122085410e70ca020a04","A3","batch1","","438","tol_toboard","","","","tol_peg_2","438","438","0","[[2,3,0],[1,0],[0]]","5","[[3,0,0],[2,0],[1]]","17","0","","","","","","5","","","","","","","","",""
"","","","","","single-stim-button","301","459845","0.0-2.0-62.5-0.5","6101122085410e70ca020a04","A3","batch1","","523","tol_tohand","","","","tol_peg_1","523","523","0","[[2,0,0],[1,0],[0]]","6","[[3,0,0],[2,0],[1]]","17","0","","","","","","5","","","","","","","","",""
"","","","","","single-stim-button","302","460368","0.0-2.0-62.5-1.5","6101122085410e70ca020a04","A3","batch1","","522","tol_toboard","","","","tol_peg_3","522","522","0","[[2,0,0],[1,0],[3]]","6","[[3,0,0],[2,0],[1]]","17","0","","","","","","5","","","","","","","","",""
"","","","","","single-stim-button","303","460955","0.0-2.0-62.6-0.6","6101122085410e70ca020a04","A3","batch1","","586","tol_tohand","","","","tol_peg_1","586","586","0","[[0,0,0],[1,0],[3]]","7","[[3,0,0],[2,0],[1]]","17","0","","","","","","5","","","","","","","","",""
"","","","","","single-stim-button","304","461612","0.0-2.0-62.6-1.6","6101122085410e70ca020a04","A3","batch1","","655","tol_toboard","","","","tol_peg_2","655","655","0","[[0,0,0],[1,2],[3]]","7","[[3,0,0],[2,0],[1]]","17","0","","","","","","5","","","","","","","","",""
"","","","","","single-stim-button","305","462382","0.0-2.0-62.7-0.7","6101122085410e70ca020a04","A3","batch1","","770","tol_tohand","","","","tol_peg_3","770","770","0","[[0,0,0],[1,2],[0]]","8","[[3,0,0],[2,0],[1]]","17","0","","","","","","5","","","","","","","","",""
"","","","","","single-stim-button","306","462970","0.0-2.0-62.7-1.7","6101122085410e70ca020a04","A3","batch1","","586","tol_toboard","","","","tol_peg_1","586","586","0","[[3,0,0],[1,2],[0]]","8","[[3,0,0],[2,0],[1]]","17","0","","","","","","5","","","","","","","","",""
"","","","","","single-stim-button","307","463873","0.0-2.0-62.8-0.8","6101122085410e70ca020a04","A3","batch1","","903","tol_tohand","","","","tol_peg_2","903","903","0","[[3,0,0],[1,0],[0]]","9","[[3,0,0],[2,0],[1]]","17","0","","","","","","5","","","","","","","","",""
"","","","","","single-stim-button","308","464297","0.0-2.0-62.8-1.8","6101122085410e70ca020a04","A3","batch1","","422","tol_toboard","","","","tol_peg_3","422","422","0","[[3,0,0],[1,0],[2]]","9","[[3,0,0],[2,0],[1]]","17","0","","","","","","5","","","","","","","","",""
"","","","","","single-stim-button","309","464885","0.0-2.0-62.9-0.9","6101122085410e70ca020a04","A3","batch1","","588","tol_tohand","","","","tol_peg_2","588","588","0","[[3,0,0],[0,0],[2]]","10","[[3,0,0],[2,0],[1]]","17","0","","","","","","5","","","","","","","","",""
"","","","","","single-stim-button","310","466665","0.0-2.0-62.9-1.9","6101122085410e70ca020a04","A3","batch1","","1780","tol_toboard","","","","tol_peg_1","1780","1780","0","[[3,1,0],[0,0],[2]]","10","[[3,0,0],[2,0],[1]]","17","0","","","","","","5","","","","","","","","",""
"","","","","","single-stim-button","311","467231","0.0-2.0-62.10-0.10","6101122085410e70ca020a04","A3","batch1","","564","tol_tohand","","","","tol_peg_3","564","564","0","[[3,1,0],[0,0],[0]]","11","[[3,0,0],[2,0],[1]]","17","0","","","","","","5","","","","","","","","",""
"","","","","","single-stim-button","312","467677","0.0-2.0-62.10-1.10","6101122085410e70ca020a04","A3","batch1","","446","tol_toboard","","","","tol_peg_2","446","446","0","[[3,1,0],[2,0],[0]]","11","[[3,0,0],[2,0],[1]]","17","0","","","","","","5","","","","","","","","",""
"","","","","","single-stim-button","313","468283","0.0-2.0-62.11-0.11","6101122085410e70ca020a04","A3","batch1","","606","tol_tohand","","","","tol_peg_1","606","606","0","[[3,0,0],[2,0],[0]]","12","[[3,0,0],[2,0],[1]]","17","0","","","","","","5","","","","","","","","",""
"","","","","","single-stim-button","314","468790","0.0-2.0-62.11-1.11","6101122085410e70ca020a04","A3","batch1","","506","tol_toboard","","","","tol_peg_3","506","506","0","[[3,0,0],[2,0],[1]]","12","[[3,0,0],[2,0],[1]]","17","0","","","","","","5","","","","","","","","",""
"","","","","","poldrack-single-stim","315","469797","0.0-2.0-63.0","6101122085410e70ca020a04","A3","batch1","","-1","tol_feedback","","","true","","1000","1000","500","","","","","","-1","none","true","3031","10559","","","","","","","","","",""
"","","","","","html-button-response","316","470401","0.0-2.0-64.0","6101122085410e70ca020a04","A3","batch1","","603.2000000476837","tol_trial_num","<div class = centerbox><p class = center-block-text>problem <strong>19</strong> out of 25 problems</p></div>","0","","","","","","","","","","","","","","","","","","","","","","","","",""
"","","","","","single-stim-button","317","472119","0.0-2.0-65.0-0.0","6101122085410e70ca020a04","A3","batch1","","1716","tol_tohand","","","","tol_peg_1","1716","1716","0","[[1,0,0],[3,0],[0]]","1","[[0,0,0],[1,2],[3]]","18","0","","","","","","7","","","","","","","","",""
"","","","","","single-stim-button","318","476471","0.0-2.0-65.0-1.0","6101122085410e70ca020a04","A3","batch1","","4351","tol_toboard","","","","tol_peg_2","4351","4351","0","[[1,0,0],[3,2],[0]]","1","[[0,0,0],[1,2],[3]]","18","0","","","","","","7","","","","","","","","",""
"","","","","","single-stim-button","319","476988","0.0-2.0-65.1-0.1","6101122085410e70ca020a04","A3","batch1","","517","tol_tohand","","","","tol_peg_1","517","517","0","[[0,0,0],[3,2],[0]]","2","[[0,0,0],[1,2],[3]]","18","0","","","","","","7","","","","","","","","",""
"","","","","","single-stim-button","320","477711","0.0-2.0-65.1-1.1","6101122085410e70ca020a04","A3","batch1","","722","tol_toboard","","","","tol_peg_3","722","722","0","[[0,0,0],[3,2],[1]]","2","[[0,0,0],[1,2],[3]]","18","0","","","","","","7","","","","","","","","",""
"","","","","","single-stim-button","321","478782","0.0-2.0-65.2-0.2","6101122085410e70ca020a04","A3","batch1","","1070","tol_tohand","","","","tol_peg_2","1070","1070","0","[[0,0,0],[3,0],[1]]","3","[[0,0,0],[1,2],[3]]","18","0","","","","","","7","","","","","","","","",""
"","","","","","single-stim-button","322","479567","0.0-2.0-65.2-1.2","6101122085410e70ca020a04","A3","batch1","","784","tol_toboard","","","","tol_peg_1","784","784","0","[[2,0,0],[3,0],[1]]","3","[[0,0,0],[1,2],[3]]","18","0","","","","","","7","","","","","","","","",""
"","","","","","single-stim-button","323","481040","0.0-2.0-65.3-0.3","6101122085410e70ca020a04","A3","batch1","","1472","tol_tohand","","","","tol_peg_2","1472","1472","0","[[2,0,0],[0,0],[1]]","4","[[0,0,0],[1,2],[3]]","18","0","","","","","","7","","","","","","","","",""
"","","","","","single-stim-button","324","481480","0.0-2.0-65.3-1.3","6101122085410e70ca020a04","A3","batch1","","440","tol_toboard","","","","tol_peg_1","440","440","0","[[2,3,0],[0,0],[1]]","4","[[0,0,0],[1,2],[3]]","18","0","","","","","","7","","","","","","","","",""
"","","","","","single-stim-button","325","481985","0.0-2.0-65.4-0.4","6101122085410e70ca020a04","A3","batch1","","505","tol_tohand","","","","tol_peg_3","505","505","0","[[2,3,0],[0,0],[0]]","5","[[0,0,0],[1,2],[3]]","18","0","","","","","","7","","","","","","","","",""
"","","","","","single-stim-button","326","482645","0.0-2.0-65.4-1.4","6101122085410e70ca020a04","A3","batch1","","659","tol_toboard","","","","tol_peg_2","659","659","0","[[2,3,0],[1,0],[0]]","5","[[0,0,0],[1,2],[3]]","18","0","","","","","","7","","","","","","","","",""
"","","","","","single-stim-button","327","483266","0.0-2.0-65.5-0.5","6101122085410e70ca020a04","A3","batch1","","621","tol_tohand","","","","tol_peg_1","621","621","0","[[2,0,0],[1,0],[0]]","6","[[0,0,0],[1,2],[3]]","18","0","","","","","","7","","","","","","","","",""
"","","","","","single-stim-button","328","483789","0.0-2.0-65.5-1.5","6101122085410e70ca020a04","A3","batch1","","522","tol_toboard","","","","tol_peg_3","522","522","0","[[2,0,0],[1,0],[3]]","6","[[0,0,0],[1,2],[3]]","18","0","","","","","","7","","","","","","","","",""
"","","","","","single-stim-button","329","484229","0.0-2.0-65.6-0.6","6101122085410e70ca020a04","A3","batch1","","439","tol_tohand","","","","tol_peg_1","439","439","0","[[0,0,0],[1,0],[3]]","7","[[0,0,0],[1,2],[3]]","18","0","","","","","","7","","","","","","","","",""
"","","","","","single-stim-button","330","484564","0.0-2.0-65.6-1.6","6101122085410e70ca020a04","A3","batch1","","335","tol_toboard","","","","tol_peg_2","335","335","0","[[0,0,0],[1,2],[3]]","7","[[0,0,0],[1,2],[3]]","18","0","","","","","","7","","","","","","","","",""
"","","","","","poldrack-single-stim","331","485572","0.0-2.0-66.0","6101122085410e70ca020a04","A3","batch1","","-1","tol_feedback","","","true","","1000","1000","500","","","","","","-1","none","true","1716","6340","","","","","","","","","",""
"","","","","","html-button-response","332","486149","0.0-2.0-67.0","6101122085410e70ca020a04","A3","batch1","","576","tol_trial_num","<div class = centerbox><p class = center-block-text>problem <strong>20</strong> out of 25 problems</p></div>","0","","","","","","","","","","","","","","","","","","","","","","","","",""
"","","","","","single-stim-button","333","488234","0.0-2.0-68.0-0.0","6101122085410e70ca020a04","A3","batch1","","2084","tol_tohand","","","","tol_peg_2","2084","2084","0","[[1,2,0],[0,0],[0]]","1","[[2,1,0],[0,0],[3]]","19","0","","","","","","5","","","","","","","","",""
"","","","","","single-stim-button","334","488977","0.0-2.0-68.0-1.0","6101122085410e70ca020a04","A3","batch1","","743","tol_toboard","","","","tol_peg_3","743","743","0","[[1,2,0],[0,0],[3]]","1","[[2,1,0],[0,0],[3]]","19","0","","","","","","5","","","","","","","","",""
"","","","","","single-stim-button","335","489585","0.0-2.0-68.1-0.1","6101122085410e70ca020a04","A3","batch1","","607","tol_tohand","","","","tol_peg_1","607","607","0","[[1,0,0],[0,0],[3]]","2","[[2,1,0],[0,0],[3]]","19","0","","","","","","5","","","","","","","","",""
"","","","","","single-stim-button","336","490293","0.0-2.0-68.1-1.1","6101122085410e70ca020a04","A3","batch1","","707","tol_toboard","","","","tol_peg_2","707","707","0","[[1,0,0],[2,0],[3]]","2","[[2,1,0],[0,0],[3]]","19","0","","","","","","5","","","","","","","","",""
"","","","","","single-stim-button","337","491955","0.0-2.0-68.2-0.2","6101122085410e70ca020a04","A3","batch1","","1662","tol_tohand","","","","tol_peg_3","1662","1662","0","[[1,0,0],[2,0],[0]]","3","[[2,1,0],[0,0],[3]]","19","0","","","","","","5","","","","","","","","",""
"","","","","","single-stim-button","338","492328","0.0-2.0-68.2-1.2","6101122085410e70ca020a04","A3","batch1","","371","tol_toboard","","","","tol_peg_2","371","371","0","[[1,0,0],[2,3],[0]]","3","[[2,1,0],[0,0],[3]]","19","0","","","","","","5","","","","","","","","",""
"","","","","","single-stim-button","339","492815","0.0-2.0-68.3-0.3","6101122085410e70ca020a04","A3","batch1","","486","tol_tohand","","","","tol_peg_1","486","486","0","[[0,0,0],[2,3],[0]]","4","[[2,1,0],[0,0],[3]]","19","0","","","","","","5","","","","","","","","",""
"","","","","","single-stim-button","340","494738","0.0-2.0-68.3-1.3","6101122085410e70ca020a04","A3","batch1","","1922","tol_toboard","","","","tol_peg_3","1922","1922","0","[[0,0,0],[2,3],[1]]","4","[[2,1,0],[0,0],[3]]","19","0","","","","","","5","","","","","","","","",""
"","","","","","single-stim-button","341","495281","0.0-2.0-68.4-0.4","6101122085410e70ca020a04","A3","batch1","","543","tol_tohand","","","","tol_peg_2","543","543","0","[[0,0,0],[2,0],[1]]","5","[[2,1,0],[0,0],[3]]","19","0","","","","","","5","","","","","","","","",""
"","","","","","single-stim-button","342","496221","0.0-2.0-68.4-1.4","6101122085410e70ca020a04","A3","batch1","","939","tol_toboard","","","","tol_peg_1","939","939","0","[[3,0,0],[2,0],[1]]","5","[[2,1,0],[0,0],[3]]","19","0","","","","","","5","","","","","","","","",""
"","","","","","single-stim-button","343","497273","0.0-2.0-68.5-0.5","6101122085410e70ca020a04","A3","batch1","","1051","tol_tohand","","","","tol_peg_2","1051","1051","0","[[3,0,0],[0,0],[1]]","6","[[2,1,0],[0,0],[3]]","19","0","","","","","","5","","","","","","","","",""
"","","","","","single-stim-button","344","498214","0.0-2.0-68.5-1.5","6101122085410e70ca020a04","A3","batch1","","940","tol_toboard","","","","tol_peg_1","940","940","0","[[3,2,0],[0,0],[1]]","6","[[2,1,0],[0,0],[3]]","19","0","","","","","","5","","","","","","","","",""
"","","","","","single-stim-button","345","499010","0.0-2.0-68.6-0.6","6101122085410e70ca020a04","A3","batch1","","795","tol_tohand","","","","tol_peg_3","795","795","0","[[3,2,0],[0,0],[0]]","7","[[2,1,0],[0,0],[3]]","19","0","","","","","","5","","","","","","","","",""
"","","","","","single-stim-button","346","499383","0.0-2.0-68.6-1.6","6101122085410e70ca020a04","A3","batch1","","372","tol_toboard","","","","tol_peg_2","372","372","0","[[3,2,0],[1,0],[0]]","7","[[2,1,0],[0,0],[3]]","19","0","","","","","","5","","","","","","","","",""
"","","","","","single-stim-button","347","499853","0.0-2.0-68.7-0.7","6101122085410e70ca020a04","A3","batch1","","470","tol_tohand","","","","tol_peg_1","470","470","0","[[3,0,0],[1,0],[0]]","8","[[2,1,0],[0,0],[3]]","19","0","","","","","","5","","","","","","","","",""
"","","","","","single-stim-button","348","500473","0.0-2.0-68.7-1.7","6101122085410e70ca020a04","A3","batch1","","620","tol_toboard","","","","tol_peg_3","620","620","0","[[3,0,0],[1,0],[2]]","8","[[2,1,0],[0,0],[3]]","19","0","","","","","","5","","","","","","","","",""
"","","","","","single-stim-button","349","501262","0.0-2.0-68.8-0.8","6101122085410e70ca020a04","A3","batch1","","789","tol_tohand","","","","tol_peg_1","789","789","0","[[0,0,0],[1,0],[2]]","9","[[2,1,0],[0,0],[3]]","19","0","","","","","","5","","","","","","","","",""
"","","","","","single-stim-button","350","501969","0.0-2.0-68.8-1.8","6101122085410e70ca020a04","A3","batch1","","707","tol_toboard","","","","tol_peg_2","707","707","0","[[0,0,0],[1,3],[2]]","9","[[2,1,0],[0,0],[3]]","19","0","","","","","","5","","","","","","","","",""
"","","","","","single-stim-button","351","502524","0.0-2.0-68.9-0.9","6101122085410e70ca020a04","A3","batch1","","555","tol_tohand","","","","tol_peg_3","555","555","0","[[0,0,0],[1,3],[0]]","10","[[2,1,0],[0,0],[3]]","19","0","","","","","","5","","","","","","","","",""
"","","","","","single-stim-button","352","503332","0.0-2.0-68.9-1.9","6101122085410e70ca020a04","A3","batch1","","807","tol_toboard","","","","tol_peg_1","807","807","0","[[2,0,0],[1,3],[0]]","10","[[2,1,0],[0,0],[3]]","19","0","","","","","","5","","","","","","","","",""
"","","","","","single-stim-button","353","503857","0.0-2.0-68.10-0.10","6101122085410e70ca020a04","A3","batch1","","525","tol_tohand","","","","tol_peg_2","525","525","0","[[2,0,0],[1,0],[0]]","11","[[2,1,0],[0,0],[3]]","19","0","","","","","","5","","","","","","","","",""
"","","","","","single-stim-button","354","504816","0.0-2.0-68.10-1.10","6101122085410e70ca020a04","A3","batch1","","958","tol_toboard","","","","tol_peg_3","958","958","0","[[2,0,0],[1,0],[3]]","11","[[2,1,0],[0,0],[3]]","19","0","","","","","","5","","","","","","","","",""
"","","","","","single-stim-button","355","505557","0.0-2.0-68.11-0.11","6101122085410e70ca020a04","A3","batch1","","739","tol_tohand","","","","tol_peg_2","739","739","0","[[2,0,0],[0,0],[3]]","12","[[2,1,0],[0,0],[3]]","19","0","","","","","","5","","","","","","","","",""
"","","","","","single-stim-button","356","505963","0.0-2.0-68.11-1.11","6101122085410e70ca020a04","A3","batch1","","406","tol_toboard","","","","tol_peg_1","406","406","0","[[2,1,0],[0,0],[3]]","12","[[2,1,0],[0,0],[3]]","19","0","","","","","","5","","","","","","","","",""
