"success","timeout","failed_images","failed_audio","failed_video","trial_type","trial_index","time_elapsed","internal_node_id","subject_id","study_id","session_id","view_history","rt","stimulus","response","task","correct","answer","item","fiar_detect_rt","fiar_detect_correct","total_correct_fiar_detect","post_trial_gap","choices","spm_correct","spm_rt","mouse_click","stim_duration","block_duration","timing_post_trial","current_position","tol_num_moves_made","tol_target","tol_problem_id","tol_rt","key_press","possible_responses","tol_correct","preplanning","tol_rt_per_trial","tol_min_moves"
"true","false","[]","[]","[]","preload","0","1759","0.0-0.0","6101d74db97360e25d2c3d57","B2","batch2","","","","","","","","","","","","","","","","","","","","","","","","","","","","","",""
"true","","","","","fullscreen","1","15068","0.0-1.0-0.0","6101d74db97360e25d2c3d57","B2","batch2","","","","","","","","","","","","","","","","","","","","","","","","","","","","","",""
"true","","","","","fullscreen","2","19292","0.0-2.0-0.0","6101d74db97360e25d2c3d57","B2","batch2","","","","","","","","","","","","","","","","","","","","","","","","","","","","","",""
"","","","","","instructions","3","44720","0.0-2.0-1.0-0.0","6101d74db97360e25d2c3d57","B2","batch2","[{""page_index"":0,""viewing_time"":17241.10000000894},{""page_index"":1,""viewing_time"":8184.399999991059}]","25426.10000000894","","","","","","","","","","","","","","","","","","","","","","","","","","","",""
"","","","","","html-button-response","4","46204","0.0-2.0-1.0-1.0-0.0","6101d74db97360e25d2c3d57","B2","batch2","","1482.2999999970198","<p class=block-text> Let's answer a few questions <br>","0","pattern_enter_quiz","","","","","","","","","","","","","","","","","","","","","","","","",""
"","","","","","html-button-response","5","60496","0.0-2.0-1.0-1.0-1.0","6101d74db97360e25d2c3d57","B2","batch2","","14291.79999999702","<p class = block-text>True or False: You will have as much time as you want to make each choice. <br></p>","0","pattern_quiz","false","","","","","","","","","","","","","","","","","","","","","","","",""
"","","","","","html-button-response","6","62673","0.0-2.0-1.0-1.0-2.0","6101d74db97360e25d2c3d57","B2","batch2","","2176.4000000059605","<p class = block-text>Incorrect. Remember, You should make your choice as fast as you can.</p>","0","pattern_quiz_feedback","","","","","","","","","","","","","","","","","","","","","","","","",""
"","","","","","html-button-response","7","68129","0.0-2.0-1.0-1.0-3.0","6101d74db97360e25d2c3d57","B2","batch2","","5455.0999999940395","<p class = block-text>True or False: You will look for 4 pieces in black or white color connected in a row either horizontally, vertically or diagonally. <br></p>","0","pattern_quiz","true","","","","","","","","","","","","","","","","","","","","","","","",""
"","","","","","html-button-response","8","68981","0.0-2.0-1.0-1.0-4.0","6101d74db97360e25d2c3d57","B2","batch2","","849.2999999970198","<p class = block-text>Correct! </p>","0","pattern_quiz_feedback","","","","","","","","","","","","","","","","","","","","","","","","",""
"","","","","","html-button-response","9","71455","0.0-2.0-1.0-2.0-0.0","6101d74db97360e25d2c3d57","B2","batch2","","2471.9000000059605","<p class = block-text>You made too many incorrect choices.</p><p class = block-text>You will now repeat the instruction and quiz</p>","0","","","","","","","","","","","","","","","","","","","","","","","","","",""
"","","","","","instructions","10","79825","0.0-2.0-1.1-0.1","6101d74db97360e25d2c3d57","B2","batch2","[{""page_index"":0,""viewing_time"":5604.9000000059605},{""page_index"":1,""viewing_time"":2764.0999999940395}]","8369.29999999702","","","","","","","","","","","","","","","","","","","","","","","","","","","",""
"","","","","","html-button-response","11","80884","0.0-2.0-1.1-1.1-0.1","6101d74db97360e25d2c3d57","B2","batch2","","1057.7999999970198","<p class=block-text> Let's answer a few questions <br>","0","pattern_enter_quiz","","","","","","","","","","","","","","","","","","","","","","","","",""
"","","","","","html-button-response","12","83175","0.0-2.0-1.1-1.1-1.1","6101d74db97360e25d2c3d57","B2","batch2","","2290","<p class = block-text>True or False: You will have as much time as you want to make each choice. <br></p>","1","pattern_quiz","true","","","","","","","","","","","","","","","","","","","","","","","",""
"","","","","","html-button-response","13","84202","0.0-2.0-1.1-1.1-2.1","6101d74db97360e25d2c3d57","B2","batch2","","1025.7999999970198","<p class = block-text>Correct! You should make your choice <strong> as fast as you can</strong>.</p>","0","pattern_quiz_feedback","","","","","","","","","","","","","","","","","","","","","","","","",""
"","","","","","html-button-response","14","86209","0.0-2.0-1.1-1.1-3.1","6101d74db97360e25d2c3d57","B2","batch2","","2005.4000000059605","<p class = block-text>True or False: You will look for 4 pieces in black or white color connected in a row either horizontally, vertically or diagonally. <br></p>","0","pattern_quiz","true","","","","","","","","","","","","","","","","","","","","","","","",""
"","","","","","html-button-response","15","86947","0.0-2.0-1.1-1.1-4.1","6101d74db97360e25d2c3d57","B2","batch2","","737.2000000029802","<p class = block-text>Correct! </p>","0","pattern_quiz_feedback","","","","","","","","","","","","","","","","","","","","","","","","",""
"","","","","","html-button-response","16","89318","0.0-2.0-2.0","6101d74db97360e25d2c3d57","B2","batch2","","2368.5999999940395","<p class=block-text> Now that you've understood the game, let's do a few practice trials before we start!<br> <br>","0","pattern_enter_practice","","","","","","","","","","","","","","","","","","","","","","","","",""
"","","","","","image-keyboard-response","17","91956","0.0-2.0-3.0-0.0","6101d74db97360e25d2c3d57","B2","batch2","","2597","stim/prac_no_18_1.png","j","pattern_practice","true","j","","","","","","","","","","","","","","","","","","","","","","",""
"","","","","","html-keyboard-response","18","92972","0.0-2.0-3.0-1.0","6101d74db97360e25d2c3d57","B2","batch2","","null","<p style=""font-size:30px;color:green;"">Correct!</p>","null","pattern_feedback","","","","","","","","","","","","","","","","","","","","","","","","",""
"","","","","","image-keyboard-response","19","94210","0.0-2.0-3.0-0.1","6101d74db97360e25d2c3d57","B2","batch2","","1236.9000000059605","stim/prac_yes_16_ver_w1.png","f","pattern_practice","true","f","","","","","","","","","","","","","","","","","","","","","","",""
"","","","","","html-keyboard-response","20","95232","0.0-2.0-3.0-1.1","6101d74db97360e25d2c3d57","B2","batch2","","null","<p style=""font-size:30px;color:green;"">Correct!</p>","null","pattern_feedback","","","","","","","","","","","","","","","","","","","","","","","","",""
"","","","","","image-keyboard-response","21","96447","0.0-2.0-3.0-0.2","6101d74db97360e25d2c3d57","B2","batch2","","1213.5999999940395","stim/prac_yes_18_hor_w1.png","f","pattern_practice","true","f","","","","","","","","","","","","","","","","","","","","","","",""
"","","","","","html-keyboard-response","22","97463","0.0-2.0-3.0-1.2","6101d74db97360e25d2c3d57","B2","batch2","","null","<p style=""font-size:30px;color:green;"">Correct!</p>","null","pattern_feedback","","","","","","","","","","","","","","","","","","","","","","","","",""
"","","","","","image-keyboard-response","23","98284","0.0-2.0-3.0-0.3","6101d74db97360e25d2c3d57","B2","batch2","","820","stim/prac_no_16_1.png","j","pattern_practice","true","j","","","","","","","","","","","","","","","","","","","","","","",""
"","","","","","html-keyboard-response","24","99300","0.0-2.0-3.0-1.3","6101d74db97360e25d2c3d57","B2","batch2","","null","<p style=""font-size:30px;color:green;"">Correct!</p>","null","pattern_feedback","","","","","","","","","","","","","","","","","","","","","","","","",""
"","","","","","image-keyboard-response","25","100216","0.0-2.0-3.0-0.4","6101d74db97360e25d2c3d57","B2","batch2","","914.5","stim/prac_yes_20_dia_b1.png","j","pattern_practice","false","f","","","","","","","","","","","","","","","","","","","","","","",""
"","","","","","html-keyboard-response","26","101240","0.0-2.0-3.0-1.4","6101d74db97360e25d2c3d57","B2","batch2","","null","<p style=""font-size:30px;color:red;"">Wrong.</p>","null","pattern_feedback","","","","","","","","","","","","","","","","","","","","","","","","",""
"","","","","","html-button-response","27","106387","0.0-2.0-4.0","6101d74db97360e25d2c3d57","B2","batch2","","5145.79999999702","<p class=block-text> Good job! You are done with practice trials!<br>
        You responded correctly on 80% of the trials.<br>
        Press the button below to start official trials. Now you won't see any feedback about your response</p>","0","pattern_enter_official_trials","","","","","","","","","","","","","","","","","","","","","","","","",""
"","","","","","html-keyboard-response","28","107196","0.0-2.0-5.0-0.0","6101d74db97360e25d2c3d57","B2","batch2","","null","<p class=block-text>Trial 1 out of 78</p>","null","pattern_show_trial_num","","","","","","","","","","","","","","","","","","","","","","","","",""
"","","","","","image-keyboard-response","29","109420","0.0-2.0-5.0-1.0","6101d74db97360e25d2c3d57","B2","batch2","","2220.7999999970198","stim/no_49_2_b.png","j","pattern_response","true","j","pattern_29","2220.7999999970198","true","1","","","","","","","","","","","","","","","","","","",""
"","","","","","html-keyboard-response","30","110732","0.0-2.0-5.0-0.1","6101d74db97360e25d2c3d57","B2","batch2","","null","<p class=block-text>Trial 2 out of 78</p>","null","pattern_show_trial_num","","","","","","","","","","","","","","","","","","","","","","","","",""
"","","","","","image-keyboard-response","31","113131","0.0-2.0-5.0-1.1","6101d74db97360e25d2c3d57","B2","batch2","","2397","stim/no_47_1_b.png","j","pattern_response","true","j","pattern_27","2397","true","2","","","","","","","","","","","","","","","","","","",""
"","","","","","html-keyboard-response","32","114448","0.0-2.0-5.0-0.2","6101d74db97360e25d2c3d57","B2","batch2","","null","<p class=block-text>Trial 3 out of 78</p>","null","pattern_show_trial_num","","","","","","","","","","","","","","","","","","","","","","","","",""
"","","","","","image-keyboard-response","33","115401","0.0-2.0-5.0-1.2","6101d74db97360e25d2c3d57","B2","batch2","","950.3999999910593","stim/yes_15_dia_b1u_b.png","f","pattern_response","true","f","pattern_44","950.3999999910593","true","3","","","","","","","","","","","","","","","","","","",""
"","","","","","html-keyboard-response","34","116720","0.0-2.0-5.0-0.3","6101d74db97360e25d2c3d57","B2","batch2","","null","<p class=block-text>Trial 4 out of 78</p>","null","pattern_show_trial_num","","","","","","","","","","","","","","","","","","","","","","","","",""
"","","","","","image-keyboard-response","35","117818","0.0-2.0-5.0-1.3","6101d74db97360e25d2c3d57","B2","batch2","","1096.7999999970198","stim/yes_26_dia_w2_w.png","j","pattern_response","false","f","pattern_50","1096.7999999970198","false","3","","","","","","","","","","","","","","","","","","",""
"","","","","","html-keyboard-response","36","119136","0.0-2.0-5.0-0.4","6101d74db97360e25d2c3d57","B2","batch2","","null","<p class=block-text>Trial 5 out of 78</p>","null","pattern_show_trial_num","","","","","","","","","","","","","","","","","","","","","","","","",""
"","","","","","image-keyboard-response","37","119957","0.0-2.0-5.0-1.4","6101d74db97360e25d2c3d57","B2","batch2","","819","stim/yes_70_ver_b1.png","f","pattern_response","true","f","pattern_80","819","true","4","","","","","","","","","","","","","","","","","","",""
"","","","","","html-keyboard-response","38","121272","0.0-2.0-5.0-0.5","6101d74db97360e25d2c3d57","B2","batch2","","null","<p class=block-text>Trial 6 out of 78</p>","null","pattern_show_trial_num","","","","","","","","","","","","","","","","","","","","","","","","",""
"","","","","","image-keyboard-response","39","122607","0.0-2.0-5.0-1.5","6101d74db97360e25d2c3d57","B2","batch2","","1333.2000000029802","stim/yes_42_dia_w1_w.png","j","pattern_response","false","f","pattern_64","1333.2000000029802","false","4","","","","","","","","","","","","","","","","","","",""
"","","","","","html-keyboard-response","40","123915","0.0-2.0-5.0-0.6","6101d74db97360e25d2c3d57","B2","batch2","","null","<p class=block-text>Trial 7 out of 78</p>","null","pattern_show_trial_num","","","","","","","","","","","","","","","","","","","","","","","","",""
"","","","","","image-keyboard-response","41","126200","0.0-2.0-5.0-1.6","6101d74db97360e25d2c3d57","B2","batch2","","2283.199999988079","stim/no_39_1_w.png","j","pattern_response","true","j","pattern_21","2283.199999988079","true","5","","","","","","","","","","","","","","","","","","",""
"","","","","","html-keyboard-response","42","127520","0.0-2.0-5.0-0.7","6101d74db97360e25d2c3d57","B2","batch2","","null","<p class=block-text>Trial 8 out of 78</p>","null","pattern_show_trial_num","","","","","","","","","","","","","","","","","","","","","","","","",""
"","","","","","image-keyboard-response","43","128212","0.0-2.0-5.0-1.7","6101d74db97360e25d2c3d57","B2","batch2","","690.0999999940395","stim/yes_12_hor_w1_w.png","f","pattern_response","true","f","pattern_42","690.0999999940395","true","6","","","","","","","","","","","","","","","","","","",""
"","","","","","html-keyboard-response","44","129528","0.0-2.0-5.0-0.8","6101d74db97360e25d2c3d57","B2","batch2","","null","<p class=block-text>Trial 9 out of 78</p>","null","pattern_show_trial_num","","","","","","","","","","","","","","","","","","","","","","","","",""
"","","","","","image-keyboard-response","45","132547","0.0-2.0-5.0-1.8","6101d74db97360e25d2c3d57","B2","batch2","","3017.7999999970198","stim/no_43_2_b.png","j","pattern_response","true","j","pattern_23","3017.7999999970198","true","7","","","","","","","","","","","","","","","","","","",""
"","","","","","html-keyboard-response","46","133864","0.0-2.0-5.0-0.9","6101d74db97360e25d2c3d57","B2","batch2","","null","<p class=block-text>Trial 10 out of 78</p>","null","pattern_show_trial_num","","","","","","","","","","","","","","","","","","","","","","","","",""
"","","","","","image-keyboard-response","47","134971","0.0-2.0-5.0-1.9","6101d74db97360e25d2c3d57","B2","batch2","","1103.7000000029802","stim/no_22_1_b.png","j","pattern_response","true","j","pattern_07","1103.7000000029802","true","8","","","","","","","","","","","","","","","","","","",""
"","","","","","html-keyboard-response","48","136288","0.0-2.0-5.0-0.10","6101d74db97360e25d2c3d57","B2","batch2","","null","<p class=block-text>Trial 11 out of 78</p>","null","pattern_show_trial_num","","","","","","","","","","","","","","","","","","","","","","","","",""
"","","","","","image-keyboard-response","49","137101","0.0-2.0-5.0-1.10","6101d74db97360e25d2c3d57","B2","batch2","","811.5999999940395","stim/yes_46_ver_b1_b.png","f","pattern_response","true","f","pattern_68","811.5999999940395","true","9","","","","","","","","","","","","","","","","","","",""
"","","","","","html-keyboard-response","50","138413","0.0-2.0-5.0-0.11","6101d74db97360e25d2c3d57","B2","batch2","","null","<p class=block-text>Trial 12 out of 78</p>","null","pattern_show_trial_num","","","","","","","","","","","","","","","","","","","","","","","","",""
"","","","","","image-keyboard-response","51","139108","0.0-2.0-5.0-1.11","6101d74db97360e25d2c3d57","B2","batch2","","694.1000000089407","stim/no_18_1_b.png","j","pattern_response","true","j","pattern_05","694.1000000089407","true","10","","","","","","","","","","","","","","","","","","",""
"","","","","","html-keyboard-response","52","140420","0.0-2.0-5.0-0.12","6101d74db97360e25d2c3d57","B2","batch2","","null","<p class=block-text>Trial 13 out of 78</p>","null","pattern_show_trial_num","","","","","","","","","","","","","","","","","","","","","","","","",""
"","","","","","image-keyboard-response","53","141800","0.0-2.0-5.0-1.12","6101d74db97360e25d2c3d57","B2","batch2","","1379.1000000089407","stim/no_33_1_b.png","j","pattern_response","true","j","pattern_15","1379.1000000089407","true","11","","","","","","","","","","","","","","","","","","",""
"","","","","","html-keyboard-response","54","143120","0.0-2.0-5.0-0.13","6101d74db97360e25d2c3d57","B2","batch2","","null","<p class=block-text>Trial 14 out of 78</p>","null","pattern_show_trial_num","","","","","","","","","","","","","","","","","","","","","","","","",""
"","","","","","image-keyboard-response","55","143788","0.0-2.0-5.0-1.13","6101d74db97360e25d2c3d57","B2","batch2","","666.3999999910593","stim/yes_30_ver_b1_b.png","f","pattern_response","true","f","pattern_54","666.3999999910593","true","12","","","","","","","","","","","","","","","","","","",""
"","","","","","html-keyboard-response","56","145104","0.0-2.0-5.0-0.14","6101d74db97360e25d2c3d57","B2","batch2","","null","<p class=block-text>Trial 15 out of 78</p>","null","pattern_show_trial_num","","","","","","","","","","","","","","","","","","","","","","","","",""
"","","","","","image-keyboard-response","57","147296","0.0-2.0-5.0-1.14","6101d74db97360e25d2c3d57","B2","batch2","","2190.800000011921","stim/no_58_1_w.png","j","pattern_response","true","j","pattern_35","2190.800000011921","true","13","","","","","","","","","","","","","","","","","","",""
"","","","","","html-keyboard-response","58","148616","0.0-2.0-5.0-0.15","6101d74db97360e25d2c3d57","B2","batch2","","null","<p class=block-text>Trial 16 out of 78</p>","null","pattern_show_trial_num","","","","","","","","","","","","","","","","","","","","","","","","",""
"","","","","","image-keyboard-response","59","149648","0.0-2.0-5.0-1.15","6101d74db97360e25d2c3d57","B2","batch2","","1030","stim/yes_37_hor_w1_w.png","f","pattern_response","true","f","pattern_60","1030","true","14","","","","","","","","","","","","","","","","","","",""
"","","","","","html-keyboard-response","60","150968","0.0-2.0-5.0-0.16","6101d74db97360e25d2c3d57","B2","batch2","","null","<p class=block-text>Trial 17 out of 78</p>","null","pattern_show_trial_num","","","","","","","","","","","","","","","","","","","","","","","","",""
"","","","","","image-keyboard-response","61","153726","0.0-2.0-5.0-1.16","6101d74db97360e25d2c3d57","B2","batch2","","2756.7999999970198","stim/no_51_1.png","j","pattern_response","true","j","pattern_31","2756.7999999970198","true","15","","","","","","","","","","","","","","","","","","",""
"","","","","","html-keyboard-response","62","155039","0.0-2.0-5.0-0.17","6101d74db97360e25d2c3d57","B2","batch2","","null","<p class=block-text>Trial 18 out of 78</p>","null","pattern_show_trial_num","","","","","","","","","","","","","","","","","","","","","","","","",""
"","","","","","image-keyboard-response","63","157262","0.0-2.0-5.0-1.17","6101d74db97360e25d2c3d57","B2","batch2","","2220.2000000029802","stim/no_45_1_w.png","j","pattern_response","true","j","pattern_25","2220.2000000029802","true","16","","","","","","","","","","","","","","","","","","",""
"","","","","","html-keyboard-response","64","158572","0.0-2.0-5.0-0.18","6101d74db97360e25d2c3d57","B2","batch2","","null","<p class=block-text>Trial 19 out of 78</p>","null","pattern_show_trial_num","","","","","","","","","","","","","","","","","","","","","","","","",""
"","","","","","image-keyboard-response","65","161772","0.0-2.0-5.0-1.18","6101d74db97360e25d2c3d57","B2","batch2","","3198.6000000089407","stim/no_67_1.png","j","pattern_response","true","j","pattern_39","3198.6000000089407","true","17","","","","","","","","","","","","","","","","","","",""
"","","","","","html-keyboard-response","66","163088","0.0-2.0-5.0-0.19","6101d74db97360e25d2c3d57","B2","batch2","","null","<p class=block-text>Trial 20 out of 78</p>","null","pattern_show_trial_num","","","","","","","","","","","","","","","","","","","","","","","","",""
"","","","","","image-keyboard-response","67","163760","0.0-2.0-5.0-1.19","6101d74db97360e25d2c3d57","B2","batch2","","670.4000000059605","stim/yes_29_hor_b1_b.png","f","pattern_response","true","f","pattern_52","670.4000000059605","true","18","","","","","","","","","","","","","","","","","","",""
"","","","","","html-keyboard-response","68","165080","0.0-2.0-5.0-0.20","6101d74db97360e25d2c3d57","B2","batch2","","null","<p class=block-text>Trial 21 out of 78</p>","null","pattern_show_trial_num","","","","","","","","","","","","","","","","","","","","","","","","",""
"","","","","","image-keyboard-response","69","166338","0.0-2.0-5.0-1.20","6101d74db97360e25d2c3d57","B2","batch2","","1256.7999999970198","stim/yes_49_hor_w1_b.png","f","pattern_response","true","f","pattern_70","1256.7999999970198","true","19","","","","","","","","","","","","","","","","","","",""
"","","","","","html-keyboard-response","70","167651","0.0-2.0-5.0-0.21","6101d74db97360e25d2c3d57","B2","batch2","","null","<p class=block-text>Trial 22 out of 78</p>","null","pattern_show_trial_num","","","","","","","","","","","","","","","","","","","","","","","","",""
"","","","","","image-keyboard-response","71","168955","0.0-2.0-5.0-1.21","6101d74db97360e25d2c3d57","B2","batch2","","1301.5999999940395","stim/yes_23_ver_b1.png","f","pattern_response","true","f","pattern_48","1301.5999999940395","true","20","","","","","","","","","","","","","","","","","","",""
"","","","","","html-keyboard-response","72","170272","0.0-2.0-5.0-0.22","6101d74db97360e25d2c3d57","B2","batch2","","null","<p class=block-text>Trial 23 out of 78</p>","null","pattern_show_trial_num","","","","","","","","","","","","","","","","","","","","","","","","",""
"","","","","","image-keyboard-response","73","171427","0.0-2.0-5.0-1.22","6101d74db97360e25d2c3d57","B2","batch2","","1153.5","stim/yes_33_dia_w1_w.png","j","pattern_response","false","f","pattern_56","1153.5","false","20","","","","","","","","","","","","","","","","","","",""
"","","","","","html-keyboard-response","74","172743","0.0-2.0-5.0-0.23","6101d74db97360e25d2c3d57","B2","batch2","","null","<p class=block-text>Trial 24 out of 78</p>","null","pattern_show_trial_num","","","","","","","","","","","","","","","","","","","","","","","","",""
"","","","","","image-keyboard-response","75","173609","0.0-2.0-5.0-1.23","6101d74db97360e25d2c3d57","B2","batch2","","864.2999999970198","stim/no_15_1_w.png","j","pattern_response","true","j","pattern_03","864.2999999970198","true","21","","","","","","","","","","","","","","","","","","",""
"","","","","","html-keyboard-response","76","174928","0.0-2.0-5.0-0.24","6101d74db97360e25d2c3d57","B2","batch2","","null","<p class=block-text>Trial 25 out of 78</p>","null","pattern_show_trial_num","","","","","","","","","","","","","","","","","","","","","","","","",""
"","","","","","image-keyboard-response","77","176685","0.0-2.0-5.0-1.24","6101d74db97360e25d2c3d57","B2","batch2","","1755.7000000029802","stim/no_28_2.png","j","pattern_response","true","j","pattern_11","1755.7000000029802","true","22","","","","","","","","","","","","","","","","","","",""
"","","","","","html-keyboard-response","78","178000","0.0-2.0-5.0-0.25","6101d74db97360e25d2c3d57","B2","batch2","","null","<p class=block-text>Trial 26 out of 78</p>","null","pattern_show_trial_num","","","","","","","","","","","","","","","","","","","","","","","","",""
"","","","","","image-keyboard-response","79","181121","0.0-2.0-5.0-1.25","6101d74db97360e25d2c3d57","B2","batch2","","3118.8999999910593","stim/yes_44_ver_w1_w.png","j","pattern_response","false","f","pattern_66","3118.8999999910593","false","22","","","","","","","","","","","","","","","","","","",""
"","","","","","html-keyboard-response","80","182440","0.0-2.0-5.0-0.26","6101d74db97360e25d2c3d57","B2","batch2","","null","<p class=block-text>Trial 27 out of 78</p>","null","pattern_show_trial_num","","","","","","","","","","","","","","","","","","","","","","","","",""
"","","","","","image-keyboard-response","81","185413","0.0-2.0-5.0-1.26","6101d74db97360e25d2c3d57","B2","batch2","","2971.2000000029802","stim/yes_58_dia_w1_w.png","j","pattern_response","false","f","pattern_76","2971.2000000029802","false","22","","","","","","","","","","","","","","","","","","",""
"","","","","","html-keyboard-response","82","186728","0.0-2.0-5.0-0.27","6101d74db97360e25d2c3d57","B2","batch2","","null","<p class=block-text>Trial 28 out of 78</p>","null","pattern_show_trial_num","","","","","","","","","","","","","","","","","","","","","","","","",""
"","","","","","image-keyboard-response","83","188183","0.0-2.0-5.0-1.27","6101d74db97360e25d2c3d57","B2","batch2","","1439.800000011921","stim/yes_53_ver_b1_b.png","f","pattern_response","true","f","pattern_74","1439.800000011921","true","23","","","","","","","","","","","","","","","","","","",""
"","","","","","html-keyboard-response","84","189504","0.0-2.0-5.0-0.28","6101d74db97360e25d2c3d57","B2","batch2","","null","<p class=block-text>Trial 29 out of 78</p>","null","pattern_show_trial_num","","","","","","","","","","","","","","","","","","","","","","","","",""
"","","","","","image-keyboard-response","85","191248","0.0-2.0-5.0-1.28","6101d74db97360e25d2c3d57","B2","batch2","","1741.5","stim/no_30_1_b.png","j","pattern_response","true","j","pattern_13","1741.5","true","24","","","","","","","","","","","","","","","","","","",""
"","","","","","html-keyboard-response","86","192568","0.0-2.0-5.0-0.29","6101d74db97360e25d2c3d57","B2","batch2","","null","<p class=block-text>Trial 30 out of 78</p>","null","pattern_show_trial_num","","","","","","","","","","","","","","","","","","","","","","","","",""
"","","","","","image-keyboard-response","87","193215","0.0-2.0-5.0-1.29","6101d74db97360e25d2c3d57","B2","batch2","","646.3000000119209","stim/yes_36_ver_w1_w.png","f","pattern_response","true","f","pattern_58","646.3000000119209","true","25","","","","","","","","","","","","","","","","","","",""
"","","","","","html-keyboard-response","88","194536","0.0-2.0-5.0-0.30","6101d74db97360e25d2c3d57","B2","batch2","","null","<p class=block-text>Trial 31 out of 78</p>","null","pattern_show_trial_num","","","","","","","","","","","","","","","","","","","","","","","","",""
"","","","","","image-keyboard-response","89","195907","0.0-2.0-5.0-1.30","6101d74db97360e25d2c3d57","B2","batch2","","1369.4000000059605","stim/no_25_1_b.png","j","pattern_response","true","j","pattern_09","1369.4000000059605","true","26","","","","","","","","","","","","","","","","","","",""
"","","","","","html-keyboard-response","90","197224","0.0-2.0-5.0-0.31","6101d74db97360e25d2c3d57","B2","batch2","","null","<p class=block-text>Trial 32 out of 78</p>","null","pattern_show_trial_num","","","","","","","","","","","","","","","","","","","","","","","","",""
"","","","","","image-keyboard-response","91","202442","0.0-2.0-5.0-1.31","6101d74db97360e25d2c3d57","B2","batch2","","5217.399999991059","stim/yes_63_dia_b1.png","j","pattern_response","false","f","pattern_78","5217.399999991059","false","26","","","","","","","","","","","","","","","","","","",""
"","","","","","html-keyboard-response","92","203760","0.0-2.0-5.0-0.32","6101d74db97360e25d2c3d57","B2","batch2","","null","<p class=block-text>Trial 33 out of 78</p>","null","pattern_show_trial_num","","","","","","","","","","","","","","","","","","","","","","","","",""
"","","","","","image-keyboard-response","93","206567","0.0-2.0-5.0-1.32","6101d74db97360e25d2c3d57","B2","batch2","","2805.7000000029802","stim/no_53_1_b.png","j","pattern_response","true","j","pattern_33","2805.7000000029802","true","27","","","","","","","","","","","","","","","","","","",""
"","","","","","html-keyboard-response","94","207883","0.0-2.0-5.0-0.33","6101d74db97360e25d2c3d57","B2","batch2","","null","<p class=block-text>Trial 34 out of 78</p>","null","pattern_show_trial_num","","","","","","","","","","","","","","","","","","","","","","","","",""
"","","","","","image-keyboard-response","95","209843","0.0-2.0-5.0-1.33","6101d74db97360e25d2c3d57","B2","batch2","","1957.7000000029802","stim/no_37_2_w.png","j","pattern_response","true","j","pattern_19","1957.7000000029802","true","28","","","","","","","","","","","","","","","","","","",""
"","","","","","html-keyboard-response","96","211160","0.0-2.0-5.0-0.34","6101d74db97360e25d2c3d57","B2","batch2","","null","<p class=block-text>Trial 35 out of 78</p>","null","pattern_show_trial_num","","","","","","","","","","","","","","","","","","","","","","","","",""
"","","","","","image-keyboard-response","97","211928","0.0-2.0-5.0-1.34","6101d74db97360e25d2c3d57","B2","batch2","","767.2000000029802","stim/yes_39_hor_w1_w.png","f","pattern_response","true","f","pattern_62","767.2000000029802","true","29","","","","","","","","","","","","","","","","","","",""
"","","","","","html-keyboard-response","98","213244","0.0-2.0-5.0-0.35","6101d74db97360e25d2c3d57","B2","batch2","","null","<p class=block-text>Trial 36 out of 78</p>","null","pattern_show_trial_num","","","","","","","","","","","","","","","","","","","","","","","","",""
"","","","","","image-keyboard-response","99","214037","0.0-2.0-5.0-1.35","6101d74db97360e25d2c3d57","B2","batch2","","791.7999999970198","stim/no_12_1.png","j","pattern_response","true","j","pattern_01","791.7999999970198","true","30","","","","","","","","","","","","","","","","","","",""
"","","","","","html-keyboard-response","100","215350","0.0-2.0-5.0-0.36","6101d74db97360e25d2c3d57","B2","batch2","","null","<p class=block-text>Trial 37 out of 78</p>","null","pattern_show_trial_num","","","","","","","","","","","","","","","","","","","","","","","","",""
"","","","","","image-keyboard-response","101","215962","0.0-2.0-5.0-1.36","6101d74db97360e25d2c3d57","B2","batch2","","611.1000000089407","stim/yes_17_ver_b1_b.png","f","pattern_response","true","f","pattern_46","611.1000000089407","true","31","","","","","","","","","","","","","","","","","","",""
"","","","","","html-keyboard-response","102","217275","0.0-2.0-5.0-0.37","6101d74db97360e25d2c3d57","B2","batch2","","null","<p class=block-text>Trial 38 out of 78</p>","null","pattern_show_trial_num","","","","","","","","","","","","","","","","","","","","","","","","",""
"","","","","","image-keyboard-response","103","219364","0.0-2.0-5.0-1.37","6101d74db97360e25d2c3d57","B2","batch2","","2087.8999999910593","stim/yes_51_dia_b1.png","j","pattern_response","false","f","pattern_72","2087.8999999910593","false","31","","","","","","","","","","","","","","","","","","",""
"","","","","","html-keyboard-response","104","220675","0.0-2.0-5.0-0.38","6101d74db97360e25d2c3d57","B2","batch2","","null","<p class=block-text>Trial 39 out of 78</p>","null","pattern_show_trial_num","","","","","","","","","","","","","","","","","","","","","","","","",""
"","","","","","image-keyboard-response","105","222466","0.0-2.0-5.0-1.38","6101d74db97360e25d2c3d57","B2","batch2","","1789.5","stim/no_36_1_b.png","j","pattern_response","true","j","pattern_17","1789.5","true","32","","","","","","","","","","","","","","","","","","",""
"","","","","","image-keyboard-response","106","224115","0.0-2.0-6.0","6101d74db97360e25d2c3d57","B2","batch2","","1138.7999999970198","stim/empty_board.png","j","attention_check","true","j","","","","","500","[""f"",""j""]","","","","","","","","","","","","","","","","",""
"","","","","","html-keyboard-response","107","224927","0.0-2.0-7.0-0.0","6101d74db97360e25d2c3d57","B2","batch2","","null","<p class=block-text>Trial 40 out of 78</p>","null","pattern_show_trial_num","","","","","","","","","","","","","","","","","","","","","","","","",""
"","","","","","image-keyboard-response","108","225890","0.0-2.0-7.0-1.0","6101d74db97360e25d2c3d57","B2","batch2","","960.6000000089407","stim/yes_14_hor_b1_w.png","f","pattern_response","true","f","pattern_43","960.6000000089407","true","33","","","","","","","","","","","","","","","","","","",""
"","","","","","html-keyboard-response","109","227207","0.0-2.0-7.0-0.1","6101d74db97360e25d2c3d57","B2","batch2","","null","<p class=block-text>Trial 41 out of 78</p>","null","pattern_show_trial_num","","","","","","","","","","","","","","","","","","","","","","","","",""
"","","","","","image-keyboard-response","110","229170","0.0-2.0-7.0-1.1","6101d74db97360e25d2c3d57","B2","batch2","","1961.5","stim/yes_29_ver_w1.png","f","pattern_response","true","f","pattern_53","1961.5","true","34","","","","","","","","","","","","","","","","","","",""
"","","","","","html-keyboard-response","111","230487","0.0-2.0-7.0-0.2","6101d74db97360e25d2c3d57","B2","batch2","","null","<p class=block-text>Trial 42 out of 78</p>","null","pattern_show_trial_num","","","","","","","","","","","","","","","","","","","","","","","","",""
"","","","","","image-keyboard-response","112","232165","0.0-2.0-7.0-1.2","6101d74db97360e25d2c3d57","B2","batch2","","1675.2999999970198","stim/no_17_1_w.png","j","pattern_response","true","j","pattern_04","1675.2999999970198","true","35","","","","","","","","","","","","","","","","","","",""
"","","","","","html-keyboard-response","113","233475","0.0-2.0-7.0-0.3","6101d74db97360e25d2c3d57","B2","batch2","","null","<p class=block-text>Trial 43 out of 78</p>","null","pattern_show_trial_num","","","","","","","","","","","","","","","","","","","","","","","","",""
"","","","","","image-keyboard-response","114","236848","0.0-2.0-7.0-1.3","6101d74db97360e25d2c3d57","B2","batch2","","3371.2999999970198","stim/no_38_1_b.png","j","pattern_response","true","j","pattern_20","3371.2999999970198","true","36","","","","","","","","","","","","","","","","","","",""
"","","","","","html-keyboard-response","115","238163","0.0-2.0-7.0-0.4","6101d74db97360e25d2c3d57","B2","batch2","","null","<p class=block-text>Trial 44 out of 78</p>","null","pattern_show_trial_num","","","","","","","","","","","","","","","","","","","","","","","","",""
"","","","","","image-keyboard-response","116","240469","0.0-2.0-7.0-1.4","6101d74db97360e25d2c3d57","B2","batch2","","2304.7000000029802","stim/no_44_1.png","j","pattern_response","true","j","pattern_24","2304.7000000029802","true","37","","","","","","","","","","","","","","","","","","",""
"","","","","","html-keyboard-response","117","241779","0.0-2.0-7.0-0.5","6101d74db97360e25d2c3d57","B2","batch2","","null","<p class=block-text>Trial 45 out of 78</p>","null","pattern_show_trial_num","","","","","","","","","","","","","","","","","","","","","","","","",""
"","","","","","image-keyboard-response","118","243821","0.0-2.0-7.0-1.5","6101d74db97360e25d2c3d57","B2","batch2","","2039.6000000089407","stim/yes_31_hor_b1.png","f","pattern_response","true","f","pattern_55","2039.6000000089407","true","38","","","","","","","","","","","","","","","","","","",""
"","","","","","html-keyboard-response","119","245135","0.0-2.0-7.0-0.6","6101d74db97360e25d2c3d57","B2","batch2","","null","<p class=block-text>Trial 46 out of 78</p>","null","pattern_show_trial_num","","","","","","","","","","","","","","","","","","","","","","","","",""
"","","","","","image-keyboard-response","120","246373","0.0-2.0-7.0-1.6","6101d74db97360e25d2c3d57","B2","batch2","","1235.7999999970198","stim/no_26_1_w.png","j","pattern_response","true","j","pattern_10","1235.7999999970198","true","39","","","","","","","","","","","","","","","","","","",""
"","","","","","html-keyboard-response","121","247687","0.0-2.0-7.0-0.7","6101d74db97360e25d2c3d57","B2","batch2","","null","<p class=block-text>Trial 47 out of 78</p>","null","pattern_show_trial_num","","","","","","","","","","","","","","","","","","","","","","","","",""
"","","","","","image-keyboard-response","122","249359","0.0-2.0-7.0-1.7","6101d74db97360e25d2c3d57","B2","batch2","","1670.1000000089407","stim/no_23_1.png","j","pattern_response","true","j","pattern_08","1670.1000000089407","true","40","","","","","","","","","","","","","","","","","","",""
"","","","","","html-keyboard-response","123","250674","0.0-2.0-7.0-0.8","6101d74db97360e25d2c3d57","B2","batch2","","null","<p class=block-text>Trial 48 out of 78</p>","null","pattern_show_trial_num","","","","","","","","","","","","","","","","","","","","","","","","",""
"","","","","","image-keyboard-response","124","254761","0.0-2.0-7.0-1.8","6101d74db97360e25d2c3d57","B2","batch2","","4084.7000000029802","stim/yes_50_dia_w1.png","j","pattern_response","false","f","pattern_71","4084.7000000029802","false","40","","","","","","","","","","","","","","","","","","",""
"","","","","","html-keyboard-response","125","256079","0.0-2.0-7.0-0.9","6101d74db97360e25d2c3d57","B2","batch2","","null","<p class=block-text>Trial 49 out of 78</p>","null","pattern_show_trial_num","","","","","","","","","","","","","","","","","","","","","","","","",""
"","","","","","image-keyboard-response","126","257947","0.0-2.0-7.0-1.9","6101d74db97360e25d2c3d57","B2","batch2","","1865.2999999970198","stim/yes_35_dia_b1.png","f","pattern_response","true","f","pattern_57","1865.2999999970198","true","41","","","","","","","","","","","","","","","","","","",""
"","","","","","html-keyboard-response","127","259260","0.0-2.0-7.0-0.10","6101d74db97360e25d2c3d57","B2","batch2","","null","<p class=block-text>Trial 50 out of 78</p>","null","pattern_show_trial_num","","","","","","","","","","","","","","","","","","","","","","","","",""
"","","","","","image-keyboard-response","128","261730","0.0-2.0-7.0-1.10","6101d74db97360e25d2c3d57","B2","batch2","","2469","stim/yes_40_dia_b1_b.png","j","pattern_response","false","f","pattern_63","2469","false","41","","","","","","","","","","","","","","","","","","",""
"","","","","","html-keyboard-response","129","263047","0.0-2.0-7.0-0.11","6101d74db97360e25d2c3d57","B2","batch2","","null","<p class=block-text>Trial 51 out of 78</p>","null","pattern_show_trial_num","","","","","","","","","","","","","","","","","","","","","","","","",""
"","","","","","image-keyboard-response","130","265655","0.0-2.0-7.0-1.11","6101d74db97360e25d2c3d57","B2","batch2","","2606.2000000029802","stim/no_55_1_w.png","j","pattern_response","true","j","pattern_34","2606.2000000029802","true","42","","","","","","","","","","","","","","","","","","",""
"","","","","","html-keyboard-response","131","266971","0.0-2.0-7.0-0.12","6101d74db97360e25d2c3d57","B2","batch2","","null","<p class=block-text>Trial 52 out of 78</p>","null","pattern_show_trial_num","","","","","","","","","","","","","","","","","","","","","","","","",""
"","","","","","image-keyboard-response","132","269830","0.0-2.0-7.0-1.12","6101d74db97360e25d2c3d57","B2","batch2","","2857.7000000029802","stim/yes_52_ver_w1.png","f","pattern_response","true","f","pattern_73","2857.7000000029802","true","43","","","","","","","","","","","","","","","","","","",""
"","","","","","html-keyboard-response","133","271167","0.0-2.0-7.0-0.13","6101d74db97360e25d2c3d57","B2","batch2","","null","<p class=block-text>Trial 53 out of 78</p>","null","pattern_show_trial_num","","","","","","","","","","","","","","","","","","","","","","","","",""
"","","","","","image-keyboard-response","134","273189","0.0-2.0-7.0-1.13","6101d74db97360e25d2c3d57","B2","batch2","","2019.9000000059605","stim/yes_60_ver_b1_b.png","f","pattern_response","true","f","pattern_77","2019.9000000059605","true","44","","","","","","","","","","","","","","","","","","",""
"","","","","","html-keyboard-response","135","274503","0.0-2.0-7.0-0.14","6101d74db97360e25d2c3d57","B2","batch2","","null","<p class=block-text>Trial 54 out of 78</p>","null","pattern_show_trial_num","","","","","","","","","","","","","","","","","","","","","","","","",""
"","","","","","image-keyboard-response","136","276433","0.0-2.0-7.0-1.14","6101d74db97360e25d2c3d57","B2","batch2","","1927.5","stim/no_29_1_b.png","j","pattern_response","true","j","pattern_12","1927.5","true","45","","","","","","","","","","","","","","","","","","",""
"","","","","","html-keyboard-response","137","277750","0.0-2.0-7.0-0.15","6101d74db97360e25d2c3d57","B2","batch2","","null","<p class=block-text>Trial 55 out of 78</p>","null","pattern_show_trial_num","","","","","","","","","","","","","","","","","","","","","","","","",""
"","","","","","image-keyboard-response","138","279027","0.0-2.0-7.0-1.15","6101d74db97360e25d2c3d57","B2","batch2","","1275.6000000089407","stim/yes_45_hor_b2_b.png","f","pattern_response","true","f","pattern_67","1275.6000000089407","true","46","","","","","","","","","","","","","","","","","","",""
"","","","","","html-keyboard-response","139","280343","0.0-2.0-7.0-0.16","6101d74db97360e25d2c3d57","B2","batch2","","null","<p class=block-text>Trial 56 out of 78</p>","null","pattern_show_trial_num","","","","","","","","","","","","","","","","","","","","","","","","",""
"","","","","","image-keyboard-response","140","281414","0.0-2.0-7.0-1.16","6101d74db97360e25d2c3d57","B2","batch2","","1069.7000000029802","stim/yes_43_ver_w1_w.png","f","pattern_response","true","f","pattern_65","1069.7000000029802","true","47","","","","","","","","","","","","","","","","","","",""
"","","","","","html-keyboard-response","141","282735","0.0-2.0-7.0-0.17","6101d74db97360e25d2c3d57","B2","batch2","","null","<p class=block-text>Trial 57 out of 78</p>","null","pattern_show_trial_num","","","","","","","","","","","","","","","","","","","","","","","","",""
"","","","","","image-keyboard-response","142","285810","0.0-2.0-7.0-1.17","6101d74db97360e25d2c3d57","B2","batch2","","3073.300000011921","stim/yes_48_dia_w1_w.png","j","pattern_response","false","f","pattern_69","3073.300000011921","false","47","","","","","","","","","","","","","","","","","","",""
"","","","","","html-keyboard-response","143","287123","0.0-2.0-7.0-0.18","6101d74db97360e25d2c3d57","B2","batch2","","null","<p class=block-text>Trial 58 out of 78</p>","null","pattern_show_trial_num","","","","","","","","","","","","","","","","","","","","","","","","",""
"","","","","","image-keyboard-response","144","287984","0.0-2.0-7.0-1.18","6101d74db97360e25d2c3d57","B2","batch2","","858.9000000059605","stim/yes_25_hor_b1_b.png","f","pattern_response","true","f","pattern_49","858.9000000059605","true","48","","","","","","","","","","","","","","","","","","",""
"","","","","","html-keyboard-response","145","289303","0.0-2.0-7.0-0.19","6101d74db97360e25d2c3d57","B2","batch2","","null","<p class=block-text>Trial 59 out of 78</p>","null","pattern_show_trial_num","","","","","","","","","","","","","","","","","","","","","","","","",""
"","","","","","image-keyboard-response","146","290317","0.0-2.0-7.0-1.19","6101d74db97360e25d2c3d57","B2","batch2","","1012.0999999940395","stim/yes_28_ver_b1.png","f","pattern_response","true","f","pattern_51","1012.0999999940395","true","49","","","","","","","","","","","","","","","","","","",""
"","","","","","html-keyboard-response","147","291631","0.0-2.0-7.0-0.20","6101d74db97360e25d2c3d57","B2","batch2","","null","<p class=block-text>Trial 60 out of 78</p>","null","pattern_show_trial_num","","","","","","","","","","","","","","","","","","","","","","","","",""
"","","","","","image-keyboard-response","148","294763","0.0-2.0-7.0-1.20","6101d74db97360e25d2c3d57","B2","batch2","","3130.4000000059605","stim/no_52_1.png","j","pattern_response","true","j","pattern_32","3130.4000000059605","true","50","","","","","","","","","","","","","","","","","","",""
"","","","","","html-keyboard-response","149","296079","0.0-2.0-7.0-0.21","6101d74db97360e25d2c3d57","B2","batch2","","null","<p class=block-text>Trial 61 out of 78</p>","null","pattern_show_trial_num","","","","","","","","","","","","","","","","","","","","","","","","",""
"","","","","","image-keyboard-response","150","298296","0.0-2.0-7.0-1.21","6101d74db97360e25d2c3d57","B2","batch2","","2215.2999999970198","stim/no_48_1_w.png","j","pattern_response","true","j","pattern_28","2215.2999999970198","true","51","","","","","","","","","","","","","","","","","","",""
"","","","","","html-keyboard-response","151","299610","0.0-2.0-7.0-0.22","6101d74db97360e25d2c3d57","B2","batch2","","null","<p class=block-text>Trial 62 out of 78</p>","null","pattern_show_trial_num","","","","","","","","","","","","","","","","","","","","","","","","",""
"","","","","","image-keyboard-response","152","302634","0.0-2.0-7.0-1.22","6101d74db97360e25d2c3d57","B2","batch2","","3022.2000000029802","stim/no_46_1_b.png","j","pattern_response","true","j","pattern_26","3022.2000000029802","true","52","","","","","","","","","","","","","","","","","","",""
"","","","","","html-keyboard-response","153","303950","0.0-2.0-7.0-0.23","6101d74db97360e25d2c3d57","B2","batch2","","null","<p class=block-text>Trial 63 out of 78</p>","null","pattern_show_trial_num","","","","","","","","","","","","","","","","","","","","","","","","",""
"","","","","","image-keyboard-response","154","305134","0.0-2.0-7.0-1.23","6101d74db97360e25d2c3d57","B2","batch2","","1181.8999999910593","stim/yes_38_hor_b1_b.png","f","pattern_response","true","f","pattern_61","1181.8999999910593","true","53","","","","","","","","","","","","","","","","","","",""
"","","","","","html-keyboard-response","155","306447","0.0-2.0-7.0-0.24","6101d74db97360e25d2c3d57","B2","batch2","","null","<p class=block-text>Trial 64 out of 78</p>","null","pattern_show_trial_num","","","","","","","","","","","","","","","","","","","","","","","","",""
"","","","","","image-keyboard-response","156","308675","0.0-2.0-7.0-1.24","6101d74db97360e25d2c3d57","B2","batch2","","2226.5","stim/no_13_2_b.png","j","pattern_response","true","j","pattern_02","2226.5","true","54","","","","","","","","","","","","","","","","","","",""
"","","","","","html-keyboard-response","157","309991","0.0-2.0-7.0-0.25","6101d74db97360e25d2c3d57","B2","batch2","","null","<p class=block-text>Trial 65 out of 78</p>","null","pattern_show_trial_num","","","","","","","","","","","","","","","","","","","","","","","","",""
"","","","","","image-keyboard-response","158","313038","0.0-2.0-7.0-1.25","6101d74db97360e25d2c3d57","B2","batch2","","3044.6000000089407","stim/no_34_1_b.png","j","pattern_response","true","j","pattern_16","3044.6000000089407","true","55","","","","","","","","","","","","","","","","","","",""
"","","","","","html-keyboard-response","159","314351","0.0-2.0-7.0-0.26","6101d74db97360e25d2c3d57","B2","batch2","","null","<p class=block-text>Trial 66 out of 78</p>","null","pattern_show_trial_num","","","","","","","","","","","","","","","","","","","","","","","","",""
"","","","","","image-keyboard-response","160","316834","0.0-2.0-7.0-1.26","6101d74db97360e25d2c3d57","B2","batch2","","2480.5999999940395","stim/yes_55_hor_w1_w.png","f","pattern_response","true","f","pattern_75","2480.5999999940395","true","56","","","","","","","","","","","","","","","","","","",""
"","","","","","html-keyboard-response","161","318151","0.0-2.0-7.0-0.27","6101d74db97360e25d2c3d57","B2","batch2","","null","<p class=block-text>Trial 67 out of 78</p>","null","pattern_show_trial_num","","","","","","","","","","","","","","","","","","","","","","","","",""
"","","","","","image-keyboard-response","162","322106","0.0-2.0-7.0-1.27","6101d74db97360e25d2c3d57","B2","batch2","","3952.7999999970198","stim/no_50_1.png","j","pattern_response","true","j","pattern_30","3952.7999999970198","true","57","","","","","","","","","","","","","","","","","","",""
"","","","","","html-keyboard-response","163","323419","0.0-2.0-7.0-0.28","6101d74db97360e25d2c3d57","B2","batch2","","null","<p class=block-text>Trial 68 out of 78</p>","null","pattern_show_trial_num","","","","","","","","","","","","","","","","","","","","","","","","",""
"","","","","","image-keyboard-response","164","325553","0.0-2.0-7.0-1.28","6101d74db97360e25d2c3d57","B2","batch2","","2132","stim/no_42_1_w.png","j","pattern_response","true","j","pattern_22","2132","true","58","","","","","","","","","","","","","","","","","","",""
"","","","","","html-keyboard-response","165","326871","0.0-2.0-7.0-0.29","6101d74db97360e25d2c3d57","B2","batch2","","null","<p class=block-text>Trial 69 out of 78</p>","null","pattern_show_trial_num","","","","","","","","","","","","","","","","","","","","","","","","",""
"","","","","","image-keyboard-response","166","328782","0.0-2.0-7.0-1.29","6101d74db97360e25d2c3d57","B2","batch2","","1909","stim/no_20_1_w.png","j","pattern_response","true","j","pattern_06","1909","true","59","","","","","","","","","","","","","","","","","","",""
"","","","","","html-keyboard-response","167","330092","0.0-2.0-7.0-0.30","6101d74db97360e25d2c3d57","B2","batch2","","null","<p class=block-text>Trial 70 out of 78</p>","null","pattern_show_trial_num","","","","","","","","","","","","","","","","","","","","","","","","",""
"","","","","","image-keyboard-response","168","331314","0.0-2.0-7.0-1.30","6101d74db97360e25d2c3d57","B2","batch2","","1220.2999999970198","stim/yes_17_dia_w1.png","f","pattern_response","true","f","pattern_45","1220.2999999970198","true","60","","","","","","","","","","","","","","","","","","",""
"","","","","","html-keyboard-response","169","332631","0.0-2.0-7.0-0.31","6101d74db97360e25d2c3d57","B2","batch2","","null","<p class=block-text>Trial 71 out of 78</p>","null","pattern_show_trial_num","","","","","","","","","","","","","","","","","","","","","","","","",""
"","","","","","image-keyboard-response","170","335953","0.0-2.0-7.0-1.31","6101d74db97360e25d2c3d57","B2","batch2","","3320.5999999940395","stim/no_62_1_w.png","j","pattern_response","true","j","pattern_36","3320.5999999940395","true","61","","","","","","","","","","","","","","","","","","",""
"","","","","","html-keyboard-response","171","337271","0.0-2.0-7.0-0.32","6101d74db97360e25d2c3d57","B2","batch2","","null","<p class=block-text>Trial 72 out of 78</p>","null","pattern_show_trial_num","","","","","","","","","","","","","","","","","","","","","","","","",""
"","","","","","image-keyboard-response","172","340985","0.0-2.0-7.0-1.32","6101d74db97360e25d2c3d57","B2","batch2","","3712.5","stim/no_65_1_b.png","j","pattern_response","true","j","pattern_38","3712.5","true","62","","","","","","","","","","","","","","","","","","",""
"","","","","","html-keyboard-response","173","342303","0.0-2.0-7.0-0.33","6101d74db97360e25d2c3d57","B2","batch2","","null","<p class=block-text>Trial 73 out of 78</p>","null","pattern_show_trial_num","","","","","","","","","","","","","","","","","","","","","","","","",""
"","","","","","image-keyboard-response","174","345342","0.0-2.0-7.0-1.33","6101d74db97360e25d2c3d57","B2","batch2","","3037.5","stim/yes_37_dia_w1.png","j","pattern_response","false","f","pattern_59","3037.5","false","62","","","","","","","","","","","","","","","","","","",""
"","","","","","html-keyboard-response","175","346658","0.0-2.0-7.0-0.34","6101d74db97360e25d2c3d57","B2","batch2","","null","<p class=block-text>Trial 74 out of 78</p>","null","pattern_show_trial_num","","","","","","","","","","","","","","","","","","","","","","","","",""
"","","","","","image-keyboard-response","176","351508","0.0-2.0-7.0-1.34","6101d74db97360e25d2c3d57","B2","batch2","","4847.5","stim/no_36_2_w.png","j","pattern_response","true","j","pattern_18","4847.5","true","63","","","","","","","","","","","","","","","","","","",""
"","","","","","html-keyboard-response","177","352823","0.0-2.0-7.0-0.35","6101d74db97360e25d2c3d57","B2","batch2","","null","<p class=block-text>Trial 75 out of 78</p>","null","pattern_show_trial_num","","","","","","","","","","","","","","","","","","","","","","","","",""
"","","","","","image-keyboard-response","178","354552","0.0-2.0-7.0-1.35","6101d74db97360e25d2c3d57","B2","batch2","","1727.3999999910593","stim/yes_67_hor_b1.png","f","pattern_response","true","f","pattern_79","1727.3999999910593","true","64","","","","","","","","","","","","","","","","","","",""
"","","","","","html-keyboard-response","179","355867","0.0-2.0-7.0-0.36","6101d74db97360e25d2c3d57","B2","batch2","","null","<p class=block-text>Trial 76 out of 78</p>","null","pattern_show_trial_num","","","","","","","","","","","","","","","","","","","","","","","","",""
"","","","","","image-keyboard-response","180","357376","0.0-2.0-7.0-1.36","6101d74db97360e25d2c3d57","B2","batch2","","1508.2000000029802","stim/no_32_1_w.png","j","pattern_response","true","j","pattern_14","1508.2000000029802","true","65","","","","","","","","","","","","","","","","","","",""
"","","","","","html-keyboard-response","181","358690","0.0-2.0-7.0-0.37","6101d74db97360e25d2c3d57","B2","batch2","","null","<p class=block-text>Trial 77 out of 78</p>","null","pattern_show_trial_num","","","","","","","","","","","","","","","","","","","","","","","","",""
"","","","","","image-keyboard-response","182","363067","0.0-2.0-7.0-1.37","6101d74db97360e25d2c3d57","B2","batch2","","4375.300000011921","stim/no_70_2.png","j","pattern_response","true","j","pattern_40","4375.300000011921","true","66","","","","","","","","","","","","","","","","","","",""
"","","","","","html-keyboard-response","183","364395","0.0-2.0-7.0-0.38","6101d74db97360e25d2c3d57","B2","batch2","","null","<p class=block-text>Trial 78 out of 78</p>","null","pattern_show_trial_num","","","","","","","","","","","","","","","","","","","","","","","","",""
"","","","","","image-keyboard-response","184","365737","0.0-2.0-7.0-1.38","6101d74db97360e25d2c3d57","B2","batch2","","1339.699999988079","stim/yes_22_ver_w1.png","f","pattern_response","true","f","pattern_47","1339.699999988079","true","67","","","","","","","","","","","","","","","","","","",""
"","","","","","html-button-response","185","376027","0.0-2.0-8.0","6101d74db97360e25d2c3d57","B2","batch2","","9781.39999999106","<p class = block-text>This concludes the 4-in-a-row detection game.Thank you for your responses!<br>
            You responded correctly on 86% of the trials.<br>
            When you are ready, press ""Continue"" button to continue </p>","0","","","","","","","","","","","","","","","","","","","","","","","","","",""
"true","","","","","fullscreen","186","380351","0.0-3.0-0.0","6101d74db97360e25d2c3d57","B2","batch2","","","","","spm_fullscreen","","","","","","","","","","","","","","","","","","","","","","","","",""
"","","","","","html-button-response","187","393957","0.0-3.0-1.0","6101d74db97360e25d2c3d57","B2","batch2","","13604.40000000596","<p class = block-text><b>Instructions</b> <br>This is a widely used intelligence test in research. <br>In this test, a figure with a missing piece will be presented.<br>Below the figure are alternative pieces to complete the figure, only one of which is correct.<br> Different figures might involve different principles for obtaining the missing piece<br>Your job is to select the most logical piece to complete the figure.</p>","0","","","","","","","","","","","","","","","","","","","","","","","","","",""
"","","","","","html-keyboard-response","188","394767","0.0-3.0-2.0-0.0","6101d74db97360e25d2c3d57","B2","batch2","","null","<p class=block-text>Trial 1 out of 60</p>","null","spm_show_trial_num","","","","","","","","","","","","","","","","","","","","","","","","",""
"","","","","","image-button-response","189","405492","0.0-3.0-2.0-1.0","6101d74db97360e25d2c3d57","B2","batch2","","10720.79999999702","img/question_1_1.jpeg","3","spm_respsonse","1","4","mat_01","","","","","","1","10720.79999999702","","","","","","","","","","","","","","",""
"","","","","","html-keyboard-response","190","406555","0.0-3.0-2.0-0.1","6101d74db97360e25d2c3d57","B2","batch2","","null","<p class=block-text>Trial 2 out of 60</p>","null","spm_show_trial_num","","","","","","","","","","","","","","","","","","","","","","","","",""
"","","","","","image-button-response","191","409082","0.0-3.0-2.0-1.1","6101d74db97360e25d2c3d57","B2","batch2","","2524.199999988079","img/question_1_2.jpeg","4","spm_respsonse","1","5","mat_02","","","","","","1","2524.199999988079","","","","","","","","","","","","","","",""
"","","","","","html-keyboard-response","192","410151","0.0-3.0-2.0-0.2","6101d74db97360e25d2c3d57","B2","batch2","","null","<p class=block-text>Trial 3 out of 60</p>","null","spm_show_trial_num","","","","","","","","","","","","","","","","","","","","","","","","",""
"","","","","","image-button-response","193","413248","0.0-3.0-2.0-1.2","6101d74db97360e25d2c3d57","B2","batch2","","3095.3999999910593","img/question_1_3.jpeg","0","spm_respsonse","1","1","mat_03","","","","","","1","3095.3999999910593","","","","","","","","","","","","","","",""
"","","","","","html-keyboard-response","194","414319","0.0-3.0-2.0-0.3","6101d74db97360e25d2c3d57","B2","batch2","","null","<p class=block-text>Trial 4 out of 60</p>","null","spm_show_trial_num","","","","","","","","","","","","","","","","","","","","","","","","",""
"","","","","","image-button-response","195","419562","0.0-3.0-2.0-1.3","6101d74db97360e25d2c3d57","B2","batch2","","5240.79999999702","img/question_1_4.jpeg","1","spm_respsonse","1","2","mat_04","","","","","","1","5240.79999999702","","","","","","","","","","","","","","",""
"","","","","","html-keyboard-response","196","420627","0.0-3.0-2.0-0.4","6101d74db97360e25d2c3d57","B2","batch2","","null","<p class=block-text>Trial 5 out of 60</p>","null","spm_show_trial_num","","","","","","","","","","","","","","","","","","","","","","","","",""
"","","","","","image-button-response","197","424435","0.0-3.0-2.0-1.4","6101d74db97360e25d2c3d57","B2","batch2","","3806","img/question_1_5.jpeg","5","spm_respsonse","1","6","mat_05","","","","","","1","3806","","","","","","","","","","","","","","",""
"","","","","","html-keyboard-response","198","425502","0.0-3.0-2.0-0.5","6101d74db97360e25d2c3d57","B2","batch2","","null","<p class=block-text>Trial 6 out of 60</p>","null","spm_show_trial_num","","","","","","","","","","","","","","","","","","","","","","","","",""
"","","","","","image-button-response","199","429028","0.0-3.0-2.0-1.5","6101d74db97360e25d2c3d57","B2","batch2","","3523.0999999940395","img/question_1_6.jpeg","2","spm_respsonse","1","3","mat_06","","","","","","1","3523.0999999940395","","","","","","","","","","","","","","",""
"","","","","","html-keyboard-response","200","430088","0.0-3.0-2.0-0.6","6101d74db97360e25d2c3d57","B2","batch2","","null","<p class=block-text>Trial 7 out of 60</p>","null","spm_show_trial_num","","","","","","","","","","","","","","","","","","","","","","","","",""
"","","","","","image-button-response","201","434654","0.0-3.0-2.0-1.6","6101d74db97360e25d2c3d57","B2","batch2","","4562.70000000298","img/question_1_7.jpeg","5","spm_respsonse","1","6","mat_07","","","","","","1","4562.70000000298","","","","","","","","","","","","","","",""
"","","","","","html-keyboard-response","202","435718","0.0-3.0-2.0-0.7","6101d74db97360e25d2c3d57","B2","batch2","","null","<p class=block-text>Trial 8 out of 60</p>","null","spm_show_trial_num","","","","","","","","","","","","","","","","","","","","","","","","",""
"","","","","","image-button-response","203","443014","0.0-3.0-2.0-1.7","6101d74db97360e25d2c3d57","B2","batch2","","7293.199999988079","img/question_1_8.jpeg","1","spm_respsonse","1","2","mat_08","","","","","","1","7293.199999988079","","","","","","","","","","","","","","",""
"","","","","","html-keyboard-response","204","444075","0.0-3.0-2.0-0.8","6101d74db97360e25d2c3d57","B2","batch2","","null","<p class=block-text>Trial 9 out of 60</p>","null","spm_show_trial_num","","","","","","","","","","","","","","","","","","","","","","","","",""
"","","","","","image-button-response","205","447875","0.0-3.0-2.0-1.8","6101d74db97360e25d2c3d57","B2","batch2","","3797.800000011921","img/question_1_9.jpeg","0","spm_respsonse","1","1","mat_09","","","","","","1","3797.800000011921","","","","","","","","","","","","","","",""
"","","","","","html-keyboard-response","206","448938","0.0-3.0-2.0-0.9","6101d74db97360e25d2c3d57","B2","batch2","","null","<p class=block-text>Trial 10 out of 60</p>","null","spm_show_trial_num","","","","","","","","","","","","","","","","","","","","","","","","",""
"","","","","","image-button-response","207","452962","0.0-3.0-2.0-1.9","6101d74db97360e25d2c3d57","B2","batch2","","4021.2000000029802","img/question_1_10.jpeg","2","spm_respsonse","1","3","mat_10","","","","","","1","4021.2000000029802","","","","","","","","","","","","","","",""
"","","","","","html-keyboard-response","208","454023","0.0-3.0-2.0-0.10","6101d74db97360e25d2c3d57","B2","batch2","","null","<p class=block-text>Trial 11 out of 60</p>","null","spm_show_trial_num","","","","","","","","","","","","","","","","","","","","","","","","",""
"","","","","","image-button-response","209","461552","0.0-3.0-2.0-1.10","6101d74db97360e25d2c3d57","B2","batch2","","7527.4000000059605","img/question_1_11.jpeg","3","spm_respsonse","1","4","mat_11","","","","","","1","7527.4000000059605","","","","","","","","","","","","","","",""
"","","","","","html-keyboard-response","210","462622","0.0-3.0-2.0-0.11","6101d74db97360e25d2c3d57","B2","batch2","","null","<p class=block-text>Trial 12 out of 60</p>","null","spm_show_trial_num","","","","","","","","","","","","","","","","","","","","","","","","",""
"","","","","","image-button-response","211","468475","0.0-3.0-2.0-1.11","6101d74db97360e25d2c3d57","B2","batch2","","5850.70000000298","img/question_1_12.jpeg","0","spm_respsonse","0","5","mat_12","","","","","","0","5850.70000000298","","","","","","","","","","","","","","",""
"","","","","","html-keyboard-response","212","469542","0.0-3.0-2.0-0.12","6101d74db97360e25d2c3d57","B2","batch2","","null","<p class=block-text>Trial 13 out of 60</p>","null","spm_show_trial_num","","","","","","","","","","","","","","","","","","","","","","","","",""
"","","","","","image-button-response","213","472402","0.0-3.0-2.0-1.12","6101d74db97360e25d2c3d57","B2","batch2","","2857.9000000059605","img/question_2_1.jpeg","1","spm_respsonse","1","2","mat_13","","","","","","1","2857.9000000059605","","","","","","","","","","","","","","",""
"","","","","","html-keyboard-response","214","473470","0.0-3.0-2.0-0.13","6101d74db97360e25d2c3d57","B2","batch2","","null","<p class=block-text>Trial 14 out of 60</p>","null","spm_show_trial_num","","","","","","","","","","","","","","","","","","","","","","","","",""
"","","","","","image-button-response","215","477775","0.0-3.0-2.0-1.13","6101d74db97360e25d2c3d57","B2","batch2","","4302.5","img/question_2_2.jpeg","5","spm_respsonse","1","6","mat_14","","","","","","1","4302.5","","","","","","","","","","","","","","",""
"","","","","","html-keyboard-response","216","478846","0.0-3.0-2.0-0.14","6101d74db97360e25d2c3d57","B2","batch2","","null","<p class=block-text>Trial 15 out of 60</p>","null","spm_show_trial_num","","","","","","","","","","","","","","","","","","","","","","","","",""
"","","","","","image-button-response","217","482407","0.0-3.0-2.0-1.14","6101d74db97360e25d2c3d57","B2","batch2","","3558.199999988079","img/question_2_3.jpeg","0","spm_respsonse","1","1","mat_15","","","","","","1","3558.199999988079","","","","","","","","","","","","","","",""
"","","","","","html-keyboard-response","218","483478","0.0-3.0-2.0-0.15","6101d74db97360e25d2c3d57","B2","batch2","","null","<p class=block-text>Trial 16 out of 60</p>","null","spm_show_trial_num","","","","","","","","","","","","","","","","","","","","","","","","",""
"","","","","","image-button-response","219","487283","0.0-3.0-2.0-1.15","6101d74db97360e25d2c3d57","B2","batch2","","3802.2999999970198","img/question_2_4.jpeg","1","spm_respsonse","1","2","mat_16","","","","","","1","3802.2999999970198","","","","","","","","","","","","","","",""
"","","","","","html-keyboard-response","220","488346","0.0-3.0-2.0-0.16","6101d74db97360e25d2c3d57","B2","batch2","","null","<p class=block-text>Trial 17 out of 60</p>","null","spm_show_trial_num","","","","","","","","","","","","","","","","","","","","","","","","",""
"","","","","","image-button-response","221","493598","0.0-3.0-2.0-1.16","6101d74db97360e25d2c3d57","B2","batch2","","5247.899999991059","img/question_2_5.jpeg","0","spm_respsonse","1","1","mat_17","","","","","","1","5247.899999991059","","","","","","","","","","","","","","",""
"","","","","","html-keyboard-response","222","494657","0.0-3.0-2.0-0.17","6101d74db97360e25d2c3d57","B2","batch2","","null","<p class=block-text>Trial 18 out of 60</p>","null","spm_show_trial_num","","","","","","","","","","","","","","","","","","","","","","","","",""
"","","","","","image-button-response","223","499685","0.0-3.0-2.0-1.17","6101d74db97360e25d2c3d57","B2","batch2","","5022.600000008941","img/question_2_6.jpeg","2","spm_respsonse","1","3","mat_18","","","","","","1","5022.600000008941","","","","","","","","","","","","","","",""
"","","","","","html-keyboard-response","224","500750","0.0-3.0-2.0-0.18","6101d74db97360e25d2c3d57","B2","batch2","","null","<p class=block-text>Trial 19 out of 60</p>","null","spm_show_trial_num","","","","","","","","","","","","","","","","","","","","","","","","",""
"","","","","","image-button-response","225","504357","0.0-3.0-2.0-1.18","6101d74db97360e25d2c3d57","B2","batch2","","3603.5","img/question_2_7.jpeg","4","spm_respsonse","1","5","mat_19","","","","","","1","3603.5","","","","","","","","","","","","","","",""
"","","","","","html-keyboard-response","226","505422","0.0-3.0-2.0-0.19","6101d74db97360e25d2c3d57","B2","batch2","","null","<p class=block-text>Trial 20 out of 60</p>","null","spm_show_trial_num","","","","","","","","","","","","","","","","","","","","","","","","",""
"","","","","","image-button-response","227","511542","0.0-3.0-2.0-1.19","6101d74db97360e25d2c3d57","B2","batch2","","6116.29999999702","img/question_2_8.jpeg","5","spm_respsonse","1","6","mat_20","","","","","","1","6116.29999999702","","","","","","","","","","","","","","",""
"","","","","","html-keyboard-response","228","512606","0.0-3.0-2.0-0.20","6101d74db97360e25d2c3d57","B2","batch2","","null","<p class=block-text>Trial 21 out of 60</p>","null","spm_show_trial_num","","","","","","","","","","","","","","","","","","","","","","","","",""
"","","","","","image-button-response","229","516430","0.0-3.0-2.0-1.20","6101d74db97360e25d2c3d57","B2","batch2","","3820.5999999940395","img/question_2_9.jpeg","3","spm_respsonse","1","4","mat_21","","","","","","1","3820.5999999940395","","","","","","","","","","","","","","",""
"","","","","","html-keyboard-response","230","517491","0.0-3.0-2.0-0.21","6101d74db97360e25d2c3d57","B2","batch2","","null","<p class=block-text>Trial 22 out of 60</p>","null","spm_show_trial_num","","","","","","","","","","","","","","","","","","","","","","","","",""
"","","","","","image-button-response","231","521155","0.0-3.0-2.0-1.21","6101d74db97360e25d2c3d57","B2","batch2","","3660","img/question_2_10.jpeg","2","spm_respsonse","1","3","mat_22","","","","","","1","3660","","","","","","","","","","","","","","",""
"","","","","","html-keyboard-response","232","522222","0.0-3.0-2.0-0.22","6101d74db97360e25d2c3d57","B2","batch2","","null","<p class=block-text>Trial 23 out of 60</p>","null","spm_show_trial_num","","","","","","","","","","","","","","","","","","","","","","","","",""
"","","","","","image-button-response","233","527741","0.0-3.0-2.0-1.22","6101d74db97360e25d2c3d57","B2","batch2","","5516.199999988079","img/question_2_11.jpeg","3","spm_respsonse","1","4","mat_23","","","","","","1","5516.199999988079","","","","","","","","","","","","","","",""
"","","","","","html-keyboard-response","234","528806","0.0-3.0-2.0-0.23","6101d74db97360e25d2c3d57","B2","batch2","","null","<p class=block-text>Trial 24 out of 60</p>","null","spm_show_trial_num","","","","","","","","","","","","","","","","","","","","","","","","",""
"","","","","","image-button-response","235","542374","0.0-3.0-2.0-1.23","6101d74db97360e25d2c3d57","B2","batch2","","13565.20000000298","img/question_2_12.jpeg","5","spm_respsonse","0","5","mat_24","","","","","","0","13565.20000000298","","","","","","","","","","","","","","",""
"","","","","","html-button-response","236","544774","0.0-3.0-3.0","6101d74db97360e25d2c3d57","B2","batch2","","2143.5","<p class = block-text>Attention check: Please choose 1<br></p>","0","attention_check","true","","","","","","","","","","","","","","","","","","","","","","","",""
"","","","","","html-keyboard-response","237","545582","0.0-3.0-4.0-0.0","6101d74db97360e25d2c3d57","B2","batch2","","null","<p class=block-text>Trial 25 out of 60</p>","null","spm_show_trial_num","","","","","","","","","","","","","","","","","","","","","","","","",""
"","","","","","image-button-response","238","551668","0.0-3.0-4.0-1.0","6101d74db97360e25d2c3d57","B2","batch2","","6083.5999999940395","img/question_3_1.jpeg","7","spm_respsonse","1","8","mat_25","","","","","","1","6083.5999999940395","","","","","","","","","","","","","","",""
"","","","","","html-keyboard-response","239","552729","0.0-3.0-4.0-0.1","6101d74db97360e25d2c3d57","B2","batch2","","null","<p class=block-text>Trial 26 out of 60</p>","null","spm_show_trial_num","","","","","","","","","","","","","","","","","","","","","","","","",""
"","","","","","image-button-response","240","559284","0.0-3.0-4.0-1.1","6101d74db97360e25d2c3d57","B2","batch2","","6552.5","img/question_3_2.jpeg","1","spm_respsonse","1","2","mat_26","","","","","","1","6552.5","","","","","","","","","","","","","","",""
"","","","","","html-keyboard-response","241","560346","0.0-3.0-4.0-0.2","6101d74db97360e25d2c3d57","B2","batch2","","null","<p class=block-text>Trial 27 out of 60</p>","null","spm_show_trial_num","","","","","","","","","","","","","","","","","","","","","","","","",""
"","","","","","image-button-response","242","570136","0.0-3.0-4.0-1.2","6101d74db97360e25d2c3d57","B2","batch2","","9787.10000000894","img/question_3_3.jpeg","2","spm_respsonse","1","3","mat_27","","","","","","1","9787.10000000894","","","","","","","","","","","","","","",""
"","","","","","html-keyboard-response","243","571206","0.0-3.0-4.0-0.3","6101d74db97360e25d2c3d57","B2","batch2","","null","<p class=block-text>Trial 28 out of 60</p>","null","spm_show_trial_num","","","","","","","","","","","","","","","","","","","","","","","","",""
"","","","","","image-button-response","244","586793","0.0-3.0-4.0-1.3","6101d74db97360e25d2c3d57","B2","batch2","","15584.20000000298","img/question_3_4.jpeg","7","spm_respsonse","1","8","mat_28","","","","","","1","15584.20000000298","","","","","","","","","","","","","","",""
"","","","","","html-keyboard-response","245","587862","0.0-3.0-4.0-0.4","6101d74db97360e25d2c3d57","B2","batch2","","null","<p class=block-text>Trial 29 out of 60</p>","null","spm_show_trial_num","","","","","","","","","","","","","","","","","","","","","","","","",""
"","","","","","image-button-response","246","593434","0.0-3.0-4.0-1.4","6101d74db97360e25d2c3d57","B2","batch2","","5568.9000000059605","img/question_3_5.jpeg","6","spm_respsonse","1","7","mat_29","","","","","","1","5568.9000000059605","","","","","","","","","","","","","","",""
"","","","","","html-keyboard-response","247","594498","0.0-3.0-4.0-0.5","6101d74db97360e25d2c3d57","B2","batch2","","null","<p class=block-text>Trial 30 out of 60</p>","null","spm_show_trial_num","","","","","","","","","","","","","","","","","","","","","","","","",""
"","","","","","image-button-response","248","609557","0.0-3.0-4.0-1.5","6101d74db97360e25d2c3d57","B2","batch2","","15056.09999999404","img/question_3_6.jpeg","1","spm_respsonse","0","4","mat_30","","","","","","0","15056.09999999404","","","","","","","","","","","","","","",""
"","","","","","html-keyboard-response","249","610622","0.0-3.0-4.0-0.6","6101d74db97360e25d2c3d57","B2","batch2","","null","<p class=block-text>Trial 31 out of 60</p>","null","spm_show_trial_num","","","","","","","","","","","","","","","","","","","","","","","","",""
"","","","","","image-button-response","250","619398","0.0-3.0-4.0-1.6","6101d74db97360e25d2c3d57","B2","batch2","","8773.79999999702","img/question_3_7.jpeg","4","spm_respsonse","1","5","mat_31","","","","","","1","8773.79999999702","","","","","","","","","","","","","","",""
"","","","","","html-keyboard-response","251","620462","0.0-3.0-4.0-0.7","6101d74db97360e25d2c3d57","B2","batch2","","null","<p class=block-text>Trial 32 out of 60</p>","null","spm_show_trial_num","","","","","","","","","","","","","","","","","","","","","","","","",""
"","","","","","image-button-response","252","637119","0.0-3.0-4.0-1.7","6101d74db97360e25d2c3d57","B2","batch2","","16655.39999999106","img/question_3_8.jpeg","6","spm_respsonse","0","1","mat_32","","","","","","0","16655.39999999106","","","","","","","","","","","","","","",""
"","","","","","html-keyboard-response","253","638185","0.0-3.0-4.0-0.8","6101d74db97360e25d2c3d57","B2","batch2","","null","<p class=block-text>Trial 33 out of 60</p>","null","spm_show_trial_num","","","","","","","","","","","","","","","","","","","","","","","","",""
"","","","","","image-button-response","254","646405","0.0-3.0-4.0-1.8","6101d74db97360e25d2c3d57","B2","batch2","","8216.59999999404","img/question_3_9.jpeg","6","spm_respsonse","1","7","mat_33","","","","","","1","8216.59999999404","","","","","","","","","","","","","","",""
"","","","","","html-keyboard-response","255","647465","0.0-3.0-4.0-0.9","6101d74db97360e25d2c3d57","B2","batch2","","null","<p class=block-text>Trial 34 out of 60</p>","null","spm_show_trial_num","","","","","","","","","","","","","","","","","","","","","","","","",""
"","","","","","image-button-response","256","665722","0.0-3.0-4.0-1.9","6101d74db97360e25d2c3d57","B2","batch2","","18252.59999999404","img/question_3_10.jpeg","5","spm_respsonse","1","6","mat_34","","","","","","1","18252.59999999404","","","","","","","","","","","","","","",""
"","","","","","html-keyboard-response","257","666785","0.0-3.0-4.0-0.10","6101d74db97360e25d2c3d57","B2","batch2","","null","<p class=block-text>Trial 35 out of 60</p>","null","spm_show_trial_num","","","","","","","","","","","","","","","","","","","","","","","","",""
"","","","","","image-button-response","258","687740","0.0-3.0-4.0-1.10","6101d74db97360e25d2c3d57","B2","batch2","","20952.70000000298","img/question_3_11.jpeg","0","spm_respsonse","1","1","mat_35","","","","","","1","20952.70000000298","","","","","","","","","","","","","","",""
"","","","","","html-keyboard-response","259","688801","0.0-3.0-4.0-0.11","6101d74db97360e25d2c3d57","B2","batch2","","null","<p class=block-text>Trial 36 out of 60</p>","null","spm_show_trial_num","","","","","","","","","","","","","","","","","","","","","","","","",""
"","","","","","image-button-response","260","713125","0.0-3.0-4.0-1.11","6101d74db97360e25d2c3d57","B2","batch2","","24320.40000000596","img/question_3_12.jpeg","1","spm_respsonse","1","2","mat_36","","","","","","1","24320.40000000596","","","","","","","","","","","","","","",""
"","","","","","html-keyboard-response","261","714185","0.0-3.0-4.0-0.12","6101d74db97360e25d2c3d57","B2","batch2","","null","<p class=block-text>Trial 37 out of 60</p>","null","spm_show_trial_num","","","","","","","","","","","","","","","","","","","","","","","","",""
"","","","","","image-button-response","262","716910","0.0-3.0-4.0-1.12","6101d74db97360e25d2c3d57","B2","batch2","","2721.0999999940395","img/question_4_1.jpeg","2","spm_respsonse","1","3","mat_37","","","","","","1","2721.0999999940395","","","","","","","","","","","","","","",""
"","","","","","html-keyboard-response","263","717981","0.0-3.0-4.0-0.13","6101d74db97360e25d2c3d57","B2","batch2","","null","<p class=block-text>Trial 38 out of 60</p>","null","spm_show_trial_num","","","","","","","","","","","","","","","","","","","","","","","","",""
"","","","","","image-button-response","264","723873","0.0-3.0-4.0-1.13","6101d74db97360e25d2c3d57","B2","batch2","","5889","img/question_4_2.jpeg","3","spm_respsonse","1","4","mat_38","","","","","","1","5889","","","","","","","","","","","","","","",""
"","","","","","html-keyboard-response","265","724941","0.0-3.0-4.0-0.14","6101d74db97360e25d2c3d57","B2","batch2","","null","<p class=block-text>Trial 39 out of 60</p>","null","spm_show_trial_num","","","","","","","","","","","","","","","","","","","","","","","","",""
"","","","","","image-button-response","266","730254","0.0-3.0-4.0-1.14","6101d74db97360e25d2c3d57","B2","batch2","","5310.20000000298","img/question_4_3.jpeg","2","spm_respsonse","1","3","mat_39","","","","","","1","5310.20000000298","","","","","","","","","","","","","","",""
"","","","","","html-keyboard-response","267","731313","0.0-3.0-4.0-0.15","6101d74db97360e25d2c3d57","B2","batch2","","null","<p class=block-text>Trial 40 out of 60</p>","null","spm_show_trial_num","","","","","","","","","","","","","","","","","","","","","","","","",""
"","","","","","image-button-response","268","737143","0.0-3.0-4.0-1.15","6101d74db97360e25d2c3d57","B2","batch2","","5827","img/question_4_4.jpeg","6","spm_respsonse","1","7","mat_40","","","","","","1","5827","","","","","","","","","","","","","","",""
"","","","","","html-keyboard-response","269","738208","0.0-3.0-4.0-0.16","6101d74db97360e25d2c3d57","B2","batch2","","null","<p class=block-text>Trial 41 out of 60</p>","null","spm_show_trial_num","","","","","","","","","","","","","","","","","","","","","","","","",""
"","","","","","image-button-response","270","743904","0.0-3.0-4.0-1.16","6101d74db97360e25d2c3d57","B2","batch2","","5693.100000008941","img/question_4_5.jpeg","7","spm_respsonse","1","8","mat_41","","","","","","1","5693.100000008941","","","","","","","","","","","","","","",""
"","","","","","html-keyboard-response","271","744973","0.0-3.0-4.0-0.17","6101d74db97360e25d2c3d57","B2","batch2","","null","<p class=block-text>Trial 42 out of 60</p>","null","spm_show_trial_num","","","","","","","","","","","","","","","","","","","","","","","","",""
"","","","","","image-button-response","272","767834","0.0-3.0-4.0-1.17","6101d74db97360e25d2c3d57","B2","batch2","","22858.79999999702","img/question_4_6.jpeg","6","spm_respsonse","0","6","mat_42","","","","","","0","22858.79999999702","","","","","","","","","","","","","","",""
"","","","","","html-keyboard-response","273","768901","0.0-3.0-4.0-0.18","6101d74db97360e25d2c3d57","B2","batch2","","null","<p class=block-text>Trial 43 out of 60</p>","null","spm_show_trial_num","","","","","","","","","","","","","","","","","","","","","","","","",""
"","","","","","image-button-response","274","776886","0.0-3.0-4.0-1.18","6101d74db97360e25d2c3d57","B2","batch2","","7982.800000011921","img/question_4_7.jpeg","1","spm_respsonse","0","5","mat_43","","","","","","0","7982.800000011921","","","","","","","","","","","","","","",""
"","","","","","html-keyboard-response","275","777957","0.0-3.0-4.0-0.19","6101d74db97360e25d2c3d57","B2","batch2","","null","<p class=block-text>Trial 44 out of 60</p>","null","spm_show_trial_num","","","","","","","","","","","","","","","","","","","","","","","","",""
"","","","","","image-button-response","276","784217","0.0-3.0-4.0-1.19","6101d74db97360e25d2c3d57","B2","batch2","","6257.29999999702","img/question_4_8.jpeg","3","spm_respsonse","1","4","mat_44","","","","","","1","6257.29999999702","","","","","","","","","","","","","","",""
"","","","","","html-keyboard-response","277","785273","0.0-3.0-4.0-0.20","6101d74db97360e25d2c3d57","B2","batch2","","null","<p class=block-text>Trial 45 out of 60</p>","null","spm_show_trial_num","","","","","","","","","","","","","","","","","","","","","","","","",""
"","","","","","image-button-response","278","797846","0.0-3.0-4.0-1.20","6101d74db97360e25d2c3d57","B2","batch2","","12569.10000000894","img/question_4_9.jpeg","0","spm_respsonse","1","1","mat_45","","","","","","1","12569.10000000894","","","","","","","","","","","","","","",""
"","","","","","html-keyboard-response","279","798912","0.0-3.0-4.0-0.21","6101d74db97360e25d2c3d57","B2","batch2","","null","<p class=block-text>Trial 46 out of 60</p>","null","spm_show_trial_num","","","","","","","","","","","","","","","","","","","","","","","","",""
"","","","","","image-button-response","280","816999","0.0-3.0-4.0-1.21","6101d74db97360e25d2c3d57","B2","batch2","","18084.29999999702","img/question_4_10.jpeg","1","spm_respsonse","1","2","mat_46","","","","","","1","18084.29999999702","","","","","","","","","","","","","","",""
"","","","","","html-keyboard-response","281","818065","0.0-3.0-4.0-0.22","6101d74db97360e25d2c3d57","B2","batch2","","null","<p class=block-text>Trial 47 out of 60</p>","null","spm_show_trial_num","","","","","","","","","","","","","","","","","","","","","","","","",""
"","","","","","image-button-response","282","844468","0.0-3.0-4.0-1.22","6101d74db97360e25d2c3d57","B2","batch2","","26400.40000000596","img/question_4_11.jpeg","4","spm_respsonse","1","5","mat_47","","","","","","1","26400.40000000596","","","","","","","","","","","","","","",""
"","","","","","html-keyboard-response","283","845531","0.0-3.0-4.0-0.23","6101d74db97360e25d2c3d57","B2","batch2","","null","<p class=block-text>Trial 48 out of 60</p>","null","spm_show_trial_num","","","","","","","","","","","","","","","","","","","","","","","","",""
"","","","","","image-button-response","284","867584","0.0-3.0-4.0-1.23","6101d74db97360e25d2c3d57","B2","batch2","","22050","img/question_4_12.jpeg","3","spm_respsonse","0","6","mat_48","","","","","","0","22050","","","","","","","","","","","","","","",""
"","","","","","html-keyboard-response","285","868648","0.0-3.0-4.0-0.24","6101d74db97360e25d2c3d57","B2","batch2","","null","<p class=block-text>Trial 49 out of 60</p>","null","spm_show_trial_num","","","","","","","","","","","","","","","","","","","","","","","","",""
"","","","","","image-button-response","286","881562","0.0-3.0-4.0-1.24","6101d74db97360e25d2c3d57","B2","batch2","","12910.60000000894","img/question_5_1.jpeg","3","spm_respsonse","0","7","mat_49","","","","","","0","12910.60000000894","","","","","","","","","","","","","","",""
"","","","","","html-keyboard-response","287","882628","0.0-3.0-4.0-0.25","6101d74db97360e25d2c3d57","B2","batch2","","null","<p class=block-text>Trial 50 out of 60</p>","null","spm_show_trial_num","","","","","","","","","","","","","","","","","","","","","","","","",""
"","","","","","image-button-response","288","894546","0.0-3.0-4.0-1.25","6101d74db97360e25d2c3d57","B2","batch2","","11915.29999999702","img/question_5_2.jpeg","0","spm_respsonse","0","6","mat_50","","","","","","0","11915.29999999702","","","","","","","","","","","","","","",""
"","","","","","html-keyboard-response","289","895612","0.0-3.0-4.0-0.26","6101d74db97360e25d2c3d57","B2","batch2","","null","<p class=block-text>Trial 51 out of 60</p>","null","spm_show_trial_num","","","","","","","","","","","","","","","","","","","","","","","","",""
"","","","","","image-button-response","290","905673","0.0-3.0-4.0-1.26","6101d74db97360e25d2c3d57","B2","batch2","","10057.70000000298","img/question_5_3.jpeg","5","spm_respsonse","0","8","mat_51","","","","","","0","10057.70000000298","","","","","","","","","","","","","","",""
"","","","","","html-keyboard-response","291","906740","0.0-3.0-4.0-0.27","6101d74db97360e25d2c3d57","B2","batch2","","null","<p class=block-text>Trial 52 out of 60</p>","null","spm_show_trial_num","","","","","","","","","","","","","","","","","","","","","","","","",""
"","","","","","image-button-response","292","922844","0.0-3.0-4.0-1.27","6101d74db97360e25d2c3d57","B2","batch2","","16101.59999999404","img/question_5_4.jpeg","3","spm_respsonse","0","2","mat_52","","","","","","0","16101.59999999404","","","","","","","","","","","","","","",""
"","","","","","html-keyboard-response","293","923916","0.0-3.0-4.0-0.28","6101d74db97360e25d2c3d57","B2","batch2","","null","<p class=block-text>Trial 53 out of 60</p>","null","spm_show_trial_num","","","","","","","","","","","","","","","","","","","","","","","","",""
"","","","","","image-button-response","294","931822","0.0-3.0-4.0-1.28","6101d74db97360e25d2c3d57","B2","batch2","","7903.29999999702","img/question_5_5.jpeg","6","spm_respsonse","0","1","mat_53","","","","","","0","7903.29999999702","","","","","","","","","","","","","","",""
"","","","","","html-keyboard-response","295","932884","0.0-3.0-4.0-0.29","6101d74db97360e25d2c3d57","B2","batch2","","null","<p class=block-text>Trial 54 out of 60</p>","null","spm_show_trial_num","","","","","","","","","","","","","","","","","","","","","","","","",""
"","","","","","image-button-response","296","943392","0.0-3.0-4.0-1.29","6101d74db97360e25d2c3d57","B2","batch2","","10504.20000000298","img/question_5_6.jpeg","1","spm_respsonse","0","5","mat_54","","","","","","0","10504.20000000298","","","","","","","","","","","","","","",""
"","","","","","html-keyboard-response","297","944456","0.0-3.0-4.0-0.30","6101d74db97360e25d2c3d57","B2","batch2","","null","<p class=block-text>Trial 55 out of 60</p>","null","spm_show_trial_num","","","","","","","","","","","","","","","","","","","","","","","","",""
"","","","","","image-button-response","298","962416","0.0-3.0-4.0-1.30","6101d74db97360e25d2c3d57","B2","batch2","","17957.59999999404","img/question_5_7.jpeg","7","spm_respsonse","0","1","mat_55","","","","","","0","17957.59999999404","","","","","","","","","","","","","","",""
"","","","","","html-keyboard-response","299","963483","0.0-3.0-4.0-0.31","6101d74db97360e25d2c3d57","B2","batch2","","null","<p class=block-text>Trial 56 out of 60</p>","null","spm_show_trial_num","","","","","","","","","","","","","","","","","","","","","","","","",""
"","","","","","image-button-response","300","972708","0.0-3.0-4.0-1.31","6101d74db97360e25d2c3d57","B2","batch2","","9222.89999999106","img/question_5_8.jpeg","0","spm_respsonse","0","6","mat_56","","","","","","0","9222.89999999106","","","","","","","","","","","","","","",""
"","","","","","html-keyboard-response","301","973768","0.0-3.0-4.0-0.32","6101d74db97360e25d2c3d57","B2","batch2","","null","<p class=block-text>Trial 57 out of 60</p>","null","spm_show_trial_num","","","","","","","","","","","","","","","","","","","","","","","","",""
"","","","","","image-button-response","302","984537","0.0-3.0-4.0-1.32","6101d74db97360e25d2c3d57","B2","batch2","","10765.59999999404","img/question_5_9.jpeg","7","spm_respsonse","0","3","mat_57","","","","","","0","10765.59999999404","","","","","","","","","","","","","","",""
"","","","","","html-keyboard-response","303","985604","0.0-3.0-4.0-0.33","6101d74db97360e25d2c3d57","B2","batch2","","null","<p class=block-text>Trial 58 out of 60</p>","null","spm_show_trial_num","","","","","","","","","","","","","","","","","","","","","","","","",""
"","","","","","image-button-response","304","1001797","0.0-3.0-4.0-1.33","6101d74db97360e25d2c3d57","B2","batch2","","16190.79999999702","img/question_5_10.jpeg","0","spm_respsonse","0","2","mat_58","","","","","","0","16190.79999999702","","","","","","","","","","","","","","",""
"","","","","","html-keyboard-response","305","1002868","0.0-3.0-4.0-0.34","6101d74db97360e25d2c3d57","B2","batch2","","null","<p class=block-text>Trial 59 out of 60</p>","null","spm_show_trial_num","","","","","","","","","","","","","","","","","","","","","","","","",""
"","","","","","image-button-response","306","1019852","0.0-3.0-4.0-1.34","6101d74db97360e25d2c3d57","B2","batch2","","16981.89999999106","img/question_5_11.jpeg","0","spm_respsonse","0","4","mat_59","","","","","","0","16981.89999999106","","","","","","","","","","","","","","",""
"","","","","","html-keyboard-response","307","1020924","0.0-3.0-4.0-0.35","6101d74db97360e25d2c3d57","B2","batch2","","null","<p class=block-text>Trial 60 out of 60</p>","null","spm_show_trial_num","","","","","","","","","","","","","","","","","","","","","","","","",""
"","","","","","image-button-response","308","1039902","0.0-3.0-4.0-1.35","6101d74db97360e25d2c3d57","B2","batch2","","18976.09999999404","img/question_5_12.jpeg","0","spm_respsonse","0","5","mat_60","","","","","","0","18976.09999999404","","","","","","","","","","","","","","",""
"","","","","","html-button-response","309","1069531","0.0-3.0-5.0","6101d74db97360e25d2c3d57","B2","batch2","","29366.70000000298","<p class= block-text>This concludes the Standard Progressive Matrix game. Thank you for your responses!<br> When you are ready, click the button continue</p>","0","spm_goodbye","","","","","","","","","","","","","","","","","","","","","","","","",""
"true","","","","","fullscreen","310","1073903","0.0-4.0-0.0","6101d74db97360e25d2c3d57","B2","batch2","","","","","","","","","","","","","","","","","","","","","","","","","","","","","",""
"","","","","","instructions","311","1178466","0.0-4.0-1.0-0.0-0.0","6101d74db97360e25d2c3d57","B2","batch2","[{""page_index"":0,""viewing_time"":12575.59999999404},{""page_index"":1,""viewing_time"":8607.79999999702},{""page_index"":2,""viewing_time"":4333.9000000059605},{""page_index"":3,""viewing_time"":45695.79999999702},{""page_index"":4,""viewing_time"":11985.29999999702},{""page_index"":5,""viewing_time"":18449.70000000298},{""page_index"":6,""viewing_time"":2913.5}]","104562","","","tol-instructions","","","","","","","","","","","","","","","","","","","","","","","","",""
"","","","","","html-button-response","312","1179444","0.0-4.0-1.0-1.0-0.0","6101d74db97360e25d2c3d57","B2","batch2","","977.0999999940395","<p class=block-text> Let's answer a few questions <br>","0","tol_enter_quiz","","","","","","","","","","","","","","","","","","","","","","","","",""
"","","","","","html-button-response","313","1185905","0.0-4.0-1.0-1.0-1.0","6101d74db97360e25d2c3d57","B2","batch2","","6457.70000000298","<p class = block-text>True or False: You can only move the ball on top of a peg. <br></p>","0","tol_quiz","true","","","","","","","","","","","","","","","","","","","","","","","",""
"","","","","","html-button-response","314","1188070","0.0-4.0-1.0-1.0-2.0","6101d74db97360e25d2c3d57","B2","batch2","","2163.7000000029802","<p class = block-text>Correct! You can only move the ball on top of a peg.</p>","0","tol_quiz_feedback","","","","","","","","","","","","","","","","","","","","","","","","",""
"","","","","","html-button-response","315","1190987","0.0-4.0-1.0-1.0-3.0","6101d74db97360e25d2c3d57","B2","batch2","","2916.800000011921","<p class = block-text>True or False: You should try to match your board with the target board with fewest moves possible. <br></p>","0","tol_quiz","true","","","","","","","","","","","","","","","","","","","","","","","",""
"","","","","","html-button-response","316","1191704","0.0-4.0-1.0-1.0-4.0","6101d74db97360e25d2c3d57","B2","batch2","","715.8999999910593","<p class = block-text>Correct! </p>","0","tol_quiz_feedback","","","","","","","","","","","","","","","","","","","","","","","","",""
"","","","","","html-button-response","317","1193810","0.0-4.0-2.0","6101d74db97360e25d2c3d57","B2","batch2","","2104.2000000029802","<p class=block-text> Now that you've understood the game, let's practice a few easier examples before we start!<br> <br>","0","","","","","","","","","","","","","","","","","","","","","","","","","",""
"","","","","","single-stim-button","318","1196083","0.0-4.0-3.0-0.0","6101d74db97360e25d2c3d57","B2","batch2","","2270","","","tol_practice","","","","","","","","","","","tol_peg_2","2270","2270","0","[[1,2,0],[0,0],[0]]","1","[[1,2,0],[0,0],[3]]","practice","2270","","","","","",""
"","","","","","single-stim-button","319","1197463","0.0-4.0-3.0-1.0","6101d74db97360e25d2c3d57","B2","batch2","","1379","","","tol_practice","","","","","","","","","","","tol_peg_3","1379","1379","0","[[1,2,0],[0,0],[3]]","1","[[1,2,0],[0,0],[3]]","practice","1379","","","","","",""
"","","","","","poldrack-single-stim","320","1198467","0.0-4.0-4.0","6101d74db97360e25d2c3d57","B2","batch2","","-1","","","tol_feedback","true","","","","","","","","","","","1000","1000","500","","","","","","-1","none","true","","0",""
"","","","","","single-stim-button","321","1201085","0.0-4.0-5.0-0.0","6101d74db97360e25d2c3d57","B2","batch2","","2617","","","tol_practice","","","","","","","","","","","tol_peg_1","2617","2617","0","[[1,0,0],[3,0],[0]]","2","[[0,0,0],[3,1],[2]]","practice","2617","","","","","",""
"","","","","","single-stim-button","322","1202213","0.0-4.0-5.0-1.0","6101d74db97360e25d2c3d57","B2","batch2","","1126","","","tol_practice","","","","","","","","","","","tol_peg_3","1126","1126","0","[[1,0,0],[3,0],[2]]","2","[[0,0,0],[3,1],[2]]","practice","1126","","","","","",""
"","","","","","single-stim-button","323","1203152","0.0-4.0-5.1-0.1","6101d74db97360e25d2c3d57","B2","batch2","","939","","","tol_practice","","","","","","","","","","","tol_peg_1","939","939","0","[[0,0,0],[3,0],[2]]","3","[[0,0,0],[3,1],[2]]","practice","939","","","","","",""
"","","","","","single-stim-button","324","1204043","0.0-4.0-5.1-1.1","6101d74db97360e25d2c3d57","B2","batch2","","890","","","tol_practice","","","","","","","","","","","tol_peg_2","890","890","0","[[0,0,0],[3,1],[2]]","3","[[0,0,0],[3,1],[2]]","practice","890","","","","","",""
"","","","","","poldrack-single-stim","325","1205051","0.0-4.0-6.0","6101d74db97360e25d2c3d57","B2","batch2","","-1","","","tol_feedback","true","","","","","","","","","","","1000","1000","500","","","","","","-1","none","true","","0",""
"","","","","","single-stim-button","326","1207307","0.0-4.0-7.0-0.0","6101d74db97360e25d2c3d57","B2","batch2","","2255","","","tol_practice","","","","","","","","","","","tol_peg_2","2255","2255","0","[[1,2,0],[0,0],[0]]","4","[[1,0,0],[2,0],[3]]","practice","2255","","","","","",""
"","","","","","single-stim-button","327","1208296","0.0-4.0-7.0-1.0","6101d74db97360e25d2c3d57","B2","batch2","","987","","","tol_practice","","","","","","","","","","","tol_peg_3","987","987","0","[[1,2,0],[0,0],[3]]","4","[[1,0,0],[2,0],[3]]","practice","987","","","","","",""
"","","","","","single-stim-button","328","1209115","0.0-4.0-7.1-0.1","6101d74db97360e25d2c3d57","B2","batch2","","818","","","tol_practice","","","","","","","","","","","tol_peg_1","818","818","0","[[1,0,0],[0,0],[3]]","5","[[1,0,0],[2,0],[3]]","practice","818","","","","","",""
"","","","","","single-stim-button","329","1210194","0.0-4.0-7.1-1.1","6101d74db97360e25d2c3d57","B2","batch2","","1077","","","tol_practice","","","","","","","","","","","tol_peg_2","1077","1077","0","[[1,0,0],[2,0],[3]]","5","[[1,0,0],[2,0],[3]]","practice","1077","","","","","",""
"","","","","","poldrack-single-stim","330","1211199","0.0-4.0-8.0","6101d74db97360e25d2c3d57","B2","batch2","","-1","","","tol_feedback","true","","","","","","","","","","","1000","1000","500","","","","","","-1","none","true","","0",""
"","","","","","html-button-response","331","1213988","0.0-4.0-9.0","6101d74db97360e25d2c3d57","B2","batch2","","2787.7999999970198","<div class = centerbox><p class = center-block-text>Great job! You are done with practice trials<br>You are about to start official trials.<br> <br> Problem <strong>1</strong> out of 25 problems</p></div>","0","tol_instruction","","","","","","","","","","","","","","","","","","","","","","","","",""
"","","","","","single-stim-button","332","1219140","0.0-4.0-10.0-0.0","6101d74db97360e25d2c3d57","B2","batch2","","4149","","","tol_tohand","","","","","","","","","","","tol_peg_1","4149","4149","0","[[1,0,0],[3,0],[0]]","1","[[1,3,0],[2,0],[0]]","0","0","","","","","","3"
"","","","","","single-stim-button","333","1223262","0.0-4.0-10.0-1.0","6101d74db97360e25d2c3d57","B2","batch2","","4121","","","tol_toboard","","","","","","","","","","","tol_peg_3","4121","4121","0","[[1,0,0],[3,0],[2]]","1","[[1,3,0],[2,0],[0]]","0","0","","","","","","3"
"","","","","","single-stim-button","334","1224097","0.0-4.0-10.1-0.1","6101d74db97360e25d2c3d57","B2","batch2","","834","","","tol_tohand","","","","","","","","","","","tol_peg_2","834","834","0","[[1,0,0],[0,0],[2]]","2","[[1,3,0],[2,0],[0]]","0","0","","","","","","3"
"","","","","","single-stim-button","335","1224969","0.0-4.0-10.1-1.1","6101d74db97360e25d2c3d57","B2","batch2","","870","","","tol_toboard","","","","","","","","","","","tol_peg_1","870","870","0","[[1,3,0],[0,0],[2]]","2","[[1,3,0],[2,0],[0]]","0","0","","","","","","3"
"","","","","","single-stim-button","336","1225804","0.0-4.0-10.2-0.2","6101d74db97360e25d2c3d57","B2","batch2","","835","","","tol_tohand","","","","","","","","","","","tol_peg_3","835","835","0","[[1,3,0],[0,0],[0]]","3","[[1,3,0],[2,0],[0]]","0","0","","","","","","3"
"","","","","","single-stim-button","337","1226647","0.0-4.0-10.2-1.2","6101d74db97360e25d2c3d57","B2","batch2","","843","","","tol_toboard","","","","","","","","","","","tol_peg_2","843","843","0","[[1,3,0],[2,0],[0]]","3","[[1,3,0],[2,0],[0]]","0","0","","","","","","3"
"","","","","","poldrack-single-stim","338","1227651","0.0-4.0-11.0","6101d74db97360e25d2c3d57","B2","batch2","","-1","","","tol_feedback","true","","","","","","","","","","","1000","1000","500","","","","","","-1","none","true","4149","5818",""
"","","","","","html-button-response","339","1228791","0.0-4.0-12.0","6101d74db97360e25d2c3d57","B2","batch2","","1138.5","<div class = centerbox><p class = center-block-text>problem <strong>2</strong> out of 25 problems</p></div>","0","tol_trial_num","","","","","","","","","","","","","","","","","","","","","","","","",""
"","","","","","single-stim-button","340","1234538","0.0-4.0-13.0-0.0","6101d74db97360e25d2c3d57","B2","batch2","","5746","","","tol_tohand","","","","","","","","","","","tol_peg_1","5746","5746","0","[[1,0,0],[3,0],[0]]","1","[[2,1,3],[0,0],[0]]","1","0","","","","","","5"
"","","","","","single-stim-button","341","1242811","0.0-4.0-13.0-1.0","6101d74db97360e25d2c3d57","B2","batch2","","8272","","","tol_toboard","","","","","","","","","","","tol_peg_3","8272","8272","0","[[1,0,0],[3,0],[2]]","1","[[2,1,3],[0,0],[0]]","1","0","","","","","","5"
"","","","","","single-stim-button","342","1247982","0.0-4.0-13.1-0.1","6101d74db97360e25d2c3d57","B2","batch2","","5170","","","tol_tohand","","","","","","","","","","","tol_peg_1","5170","5170","0","[[0,0,0],[3,0],[2]]","2","[[2,1,3],[0,0],[0]]","1","0","","","","","","5"
"","","","","","single-stim-button","343","1249118","0.0-4.0-13.1-1.1","6101d74db97360e25d2c3d57","B2","batch2","","1135","","","tol_toboard","","","","","","","","","","","tol_peg_2","1135","1135","0","[[0,0,0],[3,1],[2]]","2","[[2,1,3],[0,0],[0]]","1","0","","","","","","5"
"","","","","","single-stim-button","344","1249960","0.0-4.0-13.2-0.2","6101d74db97360e25d2c3d57","B2","batch2","","841","","","tol_tohand","","","","","","","","","","","tol_peg_3","841","841","0","[[0,0,0],[3,1],[0]]","3","[[2,1,3],[0,0],[0]]","1","0","","","","","","5"
"","","","","","single-stim-button","345","1250965","0.0-4.0-13.2-1.2","6101d74db97360e25d2c3d57","B2","batch2","","1004","","","tol_toboard","","","","","","","","","","","tol_peg_1","1004","1004","0","[[2,0,0],[3,1],[0]]","3","[[2,1,3],[0,0],[0]]","1","0","","","","","","5"
