"success","timeout","failed_images","failed_audio","failed_video","trial_type","trial_index","time_elapsed","internal_node_id","subject_id","study_id","session_id","task","rt","stimulus","response","item","answer","correct","spm_correct","spm_rt","view_history","mouse_click","stim_duration","block_duration","timing_post_trial","current_position","tol_num_moves_made","tol_target","tol_problem_id","tol_rt","key_press","possible_responses","tol_correct","preplanning","tol_rt_per_trial","tol_min_moves","fiar_detect_rt","fiar_detect_correct","total_correct_fiar_detect","post_trial_gap","choices"
"true","false","[]","[]","[]","preload","0","21606","0.0-0.0","6102c81e911700cf7ba5f6bd","C3","batch3","","","","","","","","","","","","","","","","","","","","","","","","","","","","","",""
"true","","","","","fullscreen","1","39337","0.0-1.0-0.0","6102c81e911700cf7ba5f6bd","C3","batch3","","","","","","","","","","","","","","","","","","","","","","","","","","","","","",""
"true","","","","","fullscreen","2","46404","0.0-2.0-0.0","6102c81e911700cf7ba5f6bd","C3","batch3","spm_fullscreen","","","","","","","","","","","","","","","","","","","","","","","","","","","","",""
"","","","","","html-button-response","3","67115","0.0-2.0-1.0","6102c81e911700cf7ba5f6bd","C3","batch3","","20708.60000000149","<p class = block-text><b>Instructions</b> <br>This is a widely used intelligence test in research. <br>In this test, a figure with a missing piece will be presented.<br>Below the figure are alternative pieces to complete the figure, only one of which is correct.<br> Different figures might involve different principles for obtaining the missing piece<br>Your job is to select the most logical piece to complete the figure.</p>","0","","","","","","","","","","","","","","","","","","","","","","","","","",""
"","","","","","html-keyboard-response","4","67927","0.0-2.0-2.0-0.0","6102c81e911700cf7ba5f6bd","C3","batch3","spm_show_trial_num","null","<p class=block-text>Trial 1 out of 60</p>","null","","","","","","","","","","","","","","","","","","","","","","","","","",""
"","","","","","image-button-response","5","75988","0.0-2.0-2.0-1.0","6102c81e911700cf7ba5f6bd","C3","batch3","spm_respsonse","8055.5999999996275","img/question_1_1.jpeg","3","mat_01","4","1","1","8055.5999999996275","","","","","","","","","","","","","","","","","","","","",""
"","","","","","html-keyboard-response","6","77057","0.0-2.0-2.0-0.1","6102c81e911700cf7ba5f6bd","C3","batch3","spm_show_trial_num","null","<p class=block-text>Trial 2 out of 60</p>","null","","","","","","","","","","","","","","","","","","","","","","","","","",""
"","","","","","image-button-response","7","81347","0.0-2.0-2.0-1.1","6102c81e911700cf7ba5f6bd","C3","batch3","spm_respsonse","4286.9000000003725","img/question_1_2.jpeg","4","mat_02","5","1","1","4286.9000000003725","","","","","","","","","","","","","","","","","","","","",""
"","","","","","html-keyboard-response","8","82408","0.0-2.0-2.0-0.2","6102c81e911700cf7ba5f6bd","C3","batch3","spm_show_trial_num","null","<p class=block-text>Trial 3 out of 60</p>","null","","","","","","","","","","","","","","","","","","","","","","","","","",""
"","","","","","image-button-response","9","85562","0.0-2.0-2.0-1.2","6102c81e911700cf7ba5f6bd","C3","batch3","spm_respsonse","3148.5999999996275","img/question_1_3.jpeg","0","mat_03","1","1","1","3148.5999999996275","","","","","","","","","","","","","","","","","","","","",""
"","","","","","html-keyboard-response","10","86616","0.0-2.0-2.0-0.3","6102c81e911700cf7ba5f6bd","C3","batch3","spm_show_trial_num","null","<p class=block-text>Trial 4 out of 60</p>","null","","","","","","","","","","","","","","","","","","","","","","","","","",""
"","","","","","image-button-response","11","90732","0.0-2.0-2.0-1.3","6102c81e911700cf7ba5f6bd","C3","batch3","spm_respsonse","4112.800000000745","img/question_1_4.jpeg","1","mat_04","2","1","1","4112.800000000745","","","","","","","","","","","","","","","","","","","","",""
"","","","","","html-keyboard-response","12","91871","0.0-2.0-2.0-0.4","6102c81e911700cf7ba5f6bd","C3","batch3","spm_show_trial_num","null","<p class=block-text>Trial 5 out of 60</p>","null","","","","","","","","","","","","","","","","","","","","","","","","","",""
"","","","","","image-button-response","13","104419","0.0-2.0-2.0-1.4","6102c81e911700cf7ba5f6bd","C3","batch3","spm_respsonse","12545.699999999255","img/question_1_5.jpeg","5","mat_05","6","1","1","12545.699999999255","","","","","","","","","","","","","","","","","","","","",""
"","","","","","html-keyboard-response","14","105477","0.0-2.0-2.0-0.5","6102c81e911700cf7ba5f6bd","C3","batch3","spm_show_trial_num","null","<p class=block-text>Trial 6 out of 60</p>","null","","","","","","","","","","","","","","","","","","","","","","","","","",""
"","","","","","image-button-response","15","108491","0.0-2.0-2.0-1.5","6102c81e911700cf7ba5f6bd","C3","batch3","spm_respsonse","3011.199999999255","img/question_1_6.jpeg","2","mat_06","3","1","1","3011.199999999255","","","","","","","","","","","","","","","","","","","","",""
"","","","","","html-keyboard-response","16","109547","0.0-2.0-2.0-0.6","6102c81e911700cf7ba5f6bd","C3","batch3","spm_show_trial_num","null","<p class=block-text>Trial 7 out of 60</p>","null","","","","","","","","","","","","","","","","","","","","","","","","","",""
"","","","","","image-button-response","17","113450","0.0-2.0-2.0-1.6","6102c81e911700cf7ba5f6bd","C3","batch3","spm_respsonse","3895.5999999996275","img/question_1_7.jpeg","5","mat_07","6","1","1","3895.5999999996275","","","","","","","","","","","","","","","","","","","","",""
"","","","","","html-keyboard-response","18","114507","0.0-2.0-2.0-0.7","6102c81e911700cf7ba5f6bd","C3","batch3","spm_show_trial_num","null","<p class=block-text>Trial 8 out of 60</p>","null","","","","","","","","","","","","","","","","","","","","","","","","","",""
"","","","","","image-button-response","19","119565","0.0-2.0-2.0-1.7","6102c81e911700cf7ba5f6bd","C3","batch3","spm_respsonse","5055.299999998882","img/question_1_8.jpeg","1","mat_08","2","1","1","5055.299999998882","","","","","","","","","","","","","","","","","","","","",""
"","","","","","html-keyboard-response","20","120617","0.0-2.0-2.0-0.8","6102c81e911700cf7ba5f6bd","C3","batch3","spm_show_trial_num","null","<p class=block-text>Trial 9 out of 60</p>","null","","","","","","","","","","","","","","","","","","","","","","","","","",""
"","","","","","image-button-response","21","125283","0.0-2.0-2.0-1.8","6102c81e911700cf7ba5f6bd","C3","batch3","spm_respsonse","4664.5","img/question_1_9.jpeg","0","mat_09","1","1","1","4664.5","","","","","","","","","","","","","","","","","","","","",""
"","","","","","html-keyboard-response","22","126346","0.0-2.0-2.0-0.9","6102c81e911700cf7ba5f6bd","C3","batch3","spm_show_trial_num","null","<p class=block-text>Trial 10 out of 60</p>","null","","","","","","","","","","","","","","","","","","","","","","","","","",""
"","","","","","image-button-response","23","132459","0.0-2.0-2.0-1.9","6102c81e911700cf7ba5f6bd","C3","batch3","spm_respsonse","6111.5999999996275","img/question_1_10.jpeg","2","mat_10","3","1","1","6111.5999999996275","","","","","","","","","","","","","","","","","","","","",""
"","","","","","html-keyboard-response","24","133529","0.0-2.0-2.0-0.10","6102c81e911700cf7ba5f6bd","C3","batch3","spm_show_trial_num","null","<p class=block-text>Trial 11 out of 60</p>","null","","","","","","","","","","","","","","","","","","","","","","","","","",""
"","","","","","image-button-response","25","141224","0.0-2.0-2.0-1.10","6102c81e911700cf7ba5f6bd","C3","batch3","spm_respsonse","7692.799999998882","img/question_1_11.jpeg","3","mat_11","4","1","1","7692.799999998882","","","","","","","","","","","","","","","","","","","","",""
"","","","","","html-keyboard-response","26","142276","0.0-2.0-2.0-0.11","6102c81e911700cf7ba5f6bd","C3","batch3","spm_show_trial_num","null","<p class=block-text>Trial 12 out of 60</p>","null","","","","","","","","","","","","","","","","","","","","","","","","","",""
"","","","","","image-button-response","27","148578","0.0-2.0-2.0-1.11","6102c81e911700cf7ba5f6bd","C3","batch3","spm_respsonse","6300.699999999255","img/question_1_12.jpeg","0","mat_12","5","0","0","6300.699999999255","","","","","","","","","","","","","","","","","","","","",""
"","","","","","html-keyboard-response","28","149644","0.0-2.0-2.0-0.12","6102c81e911700cf7ba5f6bd","C3","batch3","spm_show_trial_num","null","<p class=block-text>Trial 13 out of 60</p>","null","","","","","","","","","","","","","","","","","","","","","","","","","",""
"","","","","","image-button-response","29","153147","0.0-2.0-2.0-1.12","6102c81e911700cf7ba5f6bd","C3","batch3","spm_respsonse","3500","img/question_2_1.jpeg","1","mat_13","2","1","1","3500","","","","","","","","","","","","","","","","","","","","",""
"","","","","","html-keyboard-response","30","154200","0.0-2.0-2.0-0.13","6102c81e911700cf7ba5f6bd","C3","batch3","spm_show_trial_num","null","<p class=block-text>Trial 14 out of 60</p>","null","","","","","","","","","","","","","","","","","","","","","","","","","",""
"","","","","","image-button-response","31","160428","0.0-2.0-2.0-1.13","6102c81e911700cf7ba5f6bd","C3","batch3","spm_respsonse","6226.0999999996275","img/question_2_2.jpeg","5","mat_14","6","1","1","6226.0999999996275","","","","","","","","","","","","","","","","","","","","",""
"","","","","","html-keyboard-response","32","161494","0.0-2.0-2.0-0.14","6102c81e911700cf7ba5f6bd","C3","batch3","spm_show_trial_num","null","<p class=block-text>Trial 15 out of 60</p>","null","","","","","","","","","","","","","","","","","","","","","","","","","",""
"","","","","","image-button-response","33","164362","0.0-2.0-2.0-1.14","6102c81e911700cf7ba5f6bd","C3","batch3","spm_respsonse","2866.0999999996275","img/question_2_3.jpeg","0","mat_15","1","1","1","2866.0999999996275","","","","","","","","","","","","","","","","","","","","",""
"","","","","","html-keyboard-response","34","165424","0.0-2.0-2.0-0.15","6102c81e911700cf7ba5f6bd","C3","batch3","spm_show_trial_num","null","<p class=block-text>Trial 16 out of 60</p>","null","","","","","","","","","","","","","","","","","","","","","","","","","",""
"","","","","","image-button-response","35","168275","0.0-2.0-2.0-1.15","6102c81e911700cf7ba5f6bd","C3","batch3","spm_respsonse","2847.60000000149","img/question_2_4.jpeg","1","mat_16","2","1","1","2847.60000000149","","","","","","","","","","","","","","","","","","","","",""
"","","","","","html-keyboard-response","36","169330","0.0-2.0-2.0-0.16","6102c81e911700cf7ba5f6bd","C3","batch3","spm_show_trial_num","null","<p class=block-text>Trial 17 out of 60</p>","null","","","","","","","","","","","","","","","","","","","","","","","","","",""
"","","","","","image-button-response","37","172963","0.0-2.0-2.0-1.16","6102c81e911700cf7ba5f6bd","C3","batch3","spm_respsonse","3627.800000000745","img/question_2_5.jpeg","0","mat_17","1","1","1","3627.800000000745","","","","","","","","","","","","","","","","","","","","",""
"","","","","","html-keyboard-response","38","174015","0.0-2.0-2.0-0.17","6102c81e911700cf7ba5f6bd","C3","batch3","spm_show_trial_num","null","<p class=block-text>Trial 18 out of 60</p>","null","","","","","","","","","","","","","","","","","","","","","","","","","",""
"","","","","","image-button-response","39","178803","0.0-2.0-2.0-1.17","6102c81e911700cf7ba5f6bd","C3","batch3","spm_respsonse","4785.199999999255","img/question_2_6.jpeg","2","mat_18","3","1","1","4785.199999999255","","","","","","","","","","","","","","","","","","","","",""
"","","","","","html-keyboard-response","40","179856","0.0-2.0-2.0-0.18","6102c81e911700cf7ba5f6bd","C3","batch3","spm_show_trial_num","null","<p class=block-text>Trial 19 out of 60</p>","null","","","","","","","","","","","","","","","","","","","","","","","","","",""
"","","","","","image-button-response","41","194107","0.0-2.0-2.0-1.18","6102c81e911700cf7ba5f6bd","C3","batch3","spm_respsonse","14249.60000000149","img/question_2_7.jpeg","4","mat_19","5","1","1","14249.60000000149","","","","","","","","","","","","","","","","","","","","",""
"","","","","","html-keyboard-response","42","195161","0.0-2.0-2.0-0.19","6102c81e911700cf7ba5f6bd","C3","batch3","spm_show_trial_num","null","<p class=block-text>Trial 20 out of 60</p>","null","","","","","","","","","","","","","","","","","","","","","","","","","",""
"","","","","","image-button-response","43","203331","0.0-2.0-2.0-1.19","6102c81e911700cf7ba5f6bd","C3","batch3","spm_respsonse","8168.900000002235","img/question_2_8.jpeg","5","mat_20","6","1","1","8168.900000002235","","","","","","","","","","","","","","","","","","","","",""
"","","","","","html-keyboard-response","44","204385","0.0-2.0-2.0-0.20","6102c81e911700cf7ba5f6bd","C3","batch3","spm_show_trial_num","null","<p class=block-text>Trial 21 out of 60</p>","null","","","","","","","","","","","","","","","","","","","","","","","","","",""
"","","","","","image-button-response","45","213490","0.0-2.0-2.0-1.20","6102c81e911700cf7ba5f6bd","C3","batch3","spm_respsonse","9103.800000000745","img/question_2_9.jpeg","3","mat_21","4","1","1","9103.800000000745","","","","","","","","","","","","","","","","","","","","",""
"","","","","","html-keyboard-response","46","214553","0.0-2.0-2.0-0.21","6102c81e911700cf7ba5f6bd","C3","batch3","spm_show_trial_num","null","<p class=block-text>Trial 22 out of 60</p>","null","","","","","","","","","","","","","","","","","","","","","","","","","",""
"","","","","","image-button-response","47","222186","0.0-2.0-2.0-1.21","6102c81e911700cf7ba5f6bd","C3","batch3","spm_respsonse","7630.400000002235","img/question_2_10.jpeg","2","mat_22","3","1","1","7630.400000002235","","","","","","","","","","","","","","","","","","","","",""
"","","","","","html-keyboard-response","48","223267","0.0-2.0-2.0-0.22","6102c81e911700cf7ba5f6bd","C3","batch3","spm_show_trial_num","null","<p class=block-text>Trial 23 out of 60</p>","null","","","","","","","","","","","","","","","","","","","","","","","","","",""
"","","","","","image-button-response","49","243755","0.0-2.0-2.0-1.22","6102c81e911700cf7ba5f6bd","C3","batch3","spm_respsonse","20486","img/question_2_11.jpeg","3","mat_23","4","1","1","20486","","","","","","","","","","","","","","","","","","","","",""
"","","","","","html-keyboard-response","50","244828","0.0-2.0-2.0-0.23","6102c81e911700cf7ba5f6bd","C3","batch3","spm_show_trial_num","null","<p class=block-text>Trial 24 out of 60</p>","null","","","","","","","","","","","","","","","","","","","","","","","","","",""
"","","","","","image-button-response","51","283979","0.0-2.0-2.0-1.23","6102c81e911700cf7ba5f6bd","C3","batch3","spm_respsonse","39148.199999999255","img/question_2_12.jpeg","5","mat_24","5","0","0","39148.199999999255","","","","","","","","","","","","","","","","","","","","",""
"","","","","","html-button-response","52","288121","0.0-2.0-3.0","6102c81e911700cf7ba5f6bd","C3","batch3","attention_check","3888.099999997765","<p class = block-text>Attention check: Please choose 1<br></p>","0","","","true","","","","","","","","","","","","","","","","","","","","","","",""
"","","","","","html-keyboard-response","53","288922","0.0-2.0-4.0-0.0","6102c81e911700cf7ba5f6bd","C3","batch3","spm_show_trial_num","null","<p class=block-text>Trial 25 out of 60</p>","null","","","","","","","","","","","","","","","","","","","","","","","","","",""
"","","","","","image-button-response","54","302004","0.0-2.0-4.0-1.0","6102c81e911700cf7ba5f6bd","C3","batch3","spm_respsonse","13077.800000000745","img/question_3_1.jpeg","7","mat_25","8","1","1","13077.800000000745","","","","","","","","","","","","","","","","","","","","",""
"","","","","","html-keyboard-response","55","303061","0.0-2.0-4.0-0.1","6102c81e911700cf7ba5f6bd","C3","batch3","spm_show_trial_num","null","<p class=block-text>Trial 26 out of 60</p>","null","","","","","","","","","","","","","","","","","","","","","","","","","",""
"","","","","","image-button-response","56","310987","0.0-2.0-4.0-1.1","6102c81e911700cf7ba5f6bd","C3","batch3","spm_respsonse","7921.300000000745","img/question_3_2.jpeg","1","mat_26","2","1","1","7921.300000000745","","","","","","","","","","","","","","","","","","","","",""
"","","","","","html-keyboard-response","57","312041","0.0-2.0-4.0-0.2","6102c81e911700cf7ba5f6bd","C3","batch3","spm_show_trial_num","null","<p class=block-text>Trial 27 out of 60</p>","null","","","","","","","","","","","","","","","","","","","","","","","","","",""
"","","","","","image-button-response","58","320778","0.0-2.0-4.0-1.2","6102c81e911700cf7ba5f6bd","C3","batch3","spm_respsonse","8735.699999999255","img/question_3_3.jpeg","2","mat_27","3","1","1","8735.699999999255","","","","","","","","","","","","","","","","","","","","",""
"","","","","","html-keyboard-response","59","321836","0.0-2.0-4.0-0.3","6102c81e911700cf7ba5f6bd","C3","batch3","spm_show_trial_num","null","<p class=block-text>Trial 28 out of 60</p>","null","","","","","","","","","","","","","","","","","","","","","","","","","",""
"","","","","","image-button-response","60","338555","0.0-2.0-4.0-1.3","6102c81e911700cf7ba5f6bd","C3","batch3","spm_respsonse","16715.300000000745","img/question_3_4.jpeg","7","mat_28","8","1","1","16715.300000000745","","","","","","","","","","","","","","","","","","","","",""
"","","","","","html-keyboard-response","61","339607","0.0-2.0-4.0-0.4","6102c81e911700cf7ba5f6bd","C3","batch3","spm_show_trial_num","null","<p class=block-text>Trial 29 out of 60</p>","null","","","","","","","","","","","","","","","","","","","","","","","","","",""
"","","","","","image-button-response","62","357500","0.0-2.0-4.0-1.4","6102c81e911700cf7ba5f6bd","C3","batch3","spm_respsonse","17890.79999999702","img/question_3_5.jpeg","6","mat_29","7","1","1","17890.79999999702","","","","","","","","","","","","","","","","","","","","",""
"","","","","","html-keyboard-response","63","358561","0.0-2.0-4.0-0.5","6102c81e911700cf7ba5f6bd","C3","batch3","spm_show_trial_num","null","<p class=block-text>Trial 30 out of 60</p>","null","","","","","","","","","","","","","","","","","","","","","","","","","",""
"","","","","","image-button-response","64","367300","0.0-2.0-4.0-1.5","6102c81e911700cf7ba5f6bd","C3","batch3","spm_respsonse","8736.39999999851","img/question_3_6.jpeg","3","mat_30","4","1","1","8736.39999999851","","","","","","","","","","","","","","","","","","","","",""
"","","","","","html-keyboard-response","65","368358","0.0-2.0-4.0-0.6","6102c81e911700cf7ba5f6bd","C3","batch3","spm_show_trial_num","null","<p class=block-text>Trial 31 out of 60</p>","null","","","","","","","","","","","","","","","","","","","","","","","","","",""
"","","","","","image-button-response","66","375731","0.0-2.0-4.0-1.6","6102c81e911700cf7ba5f6bd","C3","batch3","spm_respsonse","7370","img/question_3_7.jpeg","4","mat_31","5","1","1","7370","","","","","","","","","","","","","","","","","","","","",""
"","","","","","html-keyboard-response","67","376787","0.0-2.0-4.0-0.7","6102c81e911700cf7ba5f6bd","C3","batch3","spm_show_trial_num","null","<p class=block-text>Trial 32 out of 60</p>","null","","","","","","","","","","","","","","","","","","","","","","","","","",""
"","","","","","image-button-response","68","394947","0.0-2.0-4.0-1.7","6102c81e911700cf7ba5f6bd","C3","batch3","spm_respsonse","18157.900000002235","img/question_3_8.jpeg","0","mat_32","1","1","1","18157.900000002235","","","","","","","","","","","","","","","","","","","","",""
"","","","","","html-keyboard-response","69","396014","0.0-2.0-4.0-0.8","6102c81e911700cf7ba5f6bd","C3","batch3","spm_show_trial_num","null","<p class=block-text>Trial 33 out of 60</p>","null","","","","","","","","","","","","","","","","","","","","","","","","","",""
"","","","","","image-button-response","70","411685","0.0-2.0-4.0-1.8","6102c81e911700cf7ba5f6bd","C3","batch3","spm_respsonse","15669.699999999255","img/question_3_9.jpeg","6","mat_33","7","1","1","15669.699999999255","","","","","","","","","","","","","","","","","","","","",""
"","","","","","html-keyboard-response","71","412738","0.0-2.0-4.0-0.9","6102c81e911700cf7ba5f6bd","C3","batch3","spm_show_trial_num","null","<p class=block-text>Trial 34 out of 60</p>","null","","","","","","","","","","","","","","","","","","","","","","","","","",""
"","","","","","image-button-response","72","429242","0.0-2.0-4.0-1.9","6102c81e911700cf7ba5f6bd","C3","batch3","spm_respsonse","16501.699999999255","img/question_3_10.jpeg","5","mat_34","6","1","1","16501.699999999255","","","","","","","","","","","","","","","","","","","","",""
"","","","","","html-keyboard-response","73","430304","0.0-2.0-4.0-0.10","6102c81e911700cf7ba5f6bd","C3","batch3","spm_show_trial_num","null","<p class=block-text>Trial 35 out of 60</p>","null","","","","","","","","","","","","","","","","","","","","","","","","","",""
"","","","","","image-button-response","74","447196","0.0-2.0-4.0-1.10","6102c81e911700cf7ba5f6bd","C3","batch3","spm_respsonse","16890.20000000298","img/question_3_11.jpeg","4","mat_35","1","0","0","16890.20000000298","","","","","","","","","","","","","","","","","","","","",""
"","","","","","html-keyboard-response","75","448251","0.0-2.0-4.0-0.11","6102c81e911700cf7ba5f6bd","C3","batch3","spm_show_trial_num","null","<p class=block-text>Trial 36 out of 60</p>","null","","","","","","","","","","","","","","","","","","","","","","","","","",""
"","","","","","image-button-response","76","469926","0.0-2.0-4.0-1.11","6102c81e911700cf7ba5f6bd","C3","batch3","spm_respsonse","21671.199999999255","img/question_3_12.jpeg","1","mat_36","2","1","1","21671.199999999255","","","","","","","","","","","","","","","","","","","","",""
"","","","","","html-keyboard-response","77","470992","0.0-2.0-4.0-0.12","6102c81e911700cf7ba5f6bd","C3","batch3","spm_show_trial_num","null","<p class=block-text>Trial 37 out of 60</p>","null","","","","","","","","","","","","","","","","","","","","","","","","","",""
"","","","","","image-button-response","78","476611","0.0-2.0-4.0-1.12","6102c81e911700cf7ba5f6bd","C3","batch3","spm_respsonse","5617.10000000149","img/question_4_1.jpeg","2","mat_37","3","1","1","5617.10000000149","","","","","","","","","","","","","","","","","","","","",""
"","","","","","html-keyboard-response","79","477677","0.0-2.0-4.0-0.13","6102c81e911700cf7ba5f6bd","C3","batch3","spm_show_trial_num","null","<p class=block-text>Trial 38 out of 60</p>","null","","","","","","","","","","","","","","","","","","","","","","","","","",""
"","","","","","image-button-response","80","484937","0.0-2.0-4.0-1.13","6102c81e911700cf7ba5f6bd","C3","batch3","spm_respsonse","7254.60000000149","img/question_4_2.jpeg","3","mat_38","4","1","1","7254.60000000149","","","","","","","","","","","","","","","","","","","","",""
"","","","","","html-keyboard-response","81","486036","0.0-2.0-4.0-0.14","6102c81e911700cf7ba5f6bd","C3","batch3","spm_show_trial_num","null","<p class=block-text>Trial 39 out of 60</p>","null","","","","","","","","","","","","","","","","","","","","","","","","","",""
"","","","","","image-button-response","82","499596","0.0-2.0-4.0-1.14","6102c81e911700cf7ba5f6bd","C3","batch3","spm_respsonse","13557.300000000745","img/question_4_3.jpeg","2","mat_39","3","1","1","13557.300000000745","","","","","","","","","","","","","","","","","","","","",""
"","","","","","html-keyboard-response","83","500659","0.0-2.0-4.0-0.15","6102c81e911700cf7ba5f6bd","C3","batch3","spm_show_trial_num","null","<p class=block-text>Trial 40 out of 60</p>","null","","","","","","","","","","","","","","","","","","","","","","","","","",""
"","","","","","image-button-response","84","520276","0.0-2.0-4.0-1.15","6102c81e911700cf7ba5f6bd","C3","batch3","spm_respsonse","19614.5","img/question_4_4.jpeg","6","mat_40","7","1","1","19614.5","","","","","","","","","","","","","","","","","","","","",""
"","","","","","html-keyboard-response","85","521383","0.0-2.0-4.0-0.16","6102c81e911700cf7ba5f6bd","C3","batch3","spm_show_trial_num","null","<p class=block-text>Trial 41 out of 60</p>","null","","","","","","","","","","","","","","","","","","","","","","","","","",""
"","","","","","image-button-response","86","540226","0.0-2.0-4.0-1.16","6102c81e911700cf7ba5f6bd","C3","batch3","spm_respsonse","18841.20000000298","img/question_4_5.jpeg","7","mat_41","8","1","1","18841.20000000298","","","","","","","","","","","","","","","","","","","","",""
"","","","","","html-keyboard-response","87","541279","0.0-2.0-4.0-0.17","6102c81e911700cf7ba5f6bd","C3","batch3","spm_show_trial_num","null","<p class=block-text>Trial 42 out of 60</p>","null","","","","","","","","","","","","","","","","","","","","","","","","","",""
"","","","","","image-button-response","88","562268","0.0-2.0-4.0-1.17","6102c81e911700cf7ba5f6bd","C3","batch3","spm_respsonse","20986.199999999255","img/question_4_6.jpeg","5","mat_42","6","1","1","20986.199999999255","","","","","","","","","","","","","","","","","","","","",""
"","","","","","html-keyboard-response","89","563325","0.0-2.0-4.0-0.18","6102c81e911700cf7ba5f6bd","C3","batch3","spm_show_trial_num","null","<p class=block-text>Trial 43 out of 60</p>","null","","","","","","","","","","","","","","","","","","","","","","","","","",""
"","","","","","image-button-response","90","576316","0.0-2.0-4.0-1.18","6102c81e911700cf7ba5f6bd","C3","batch3","spm_respsonse","12989.199999999255","img/question_4_7.jpeg","4","mat_43","5","1","1","12989.199999999255","","","","","","","","","","","","","","","","","","","","",""
"","","","","","html-keyboard-response","91","577371","0.0-2.0-4.0-0.19","6102c81e911700cf7ba5f6bd","C3","batch3","spm_show_trial_num","null","<p class=block-text>Trial 44 out of 60</p>","null","","","","","","","","","","","","","","","","","","","","","","","","","",""
"","","","","","image-button-response","92","583907","0.0-2.0-4.0-1.19","6102c81e911700cf7ba5f6bd","C3","batch3","spm_respsonse","6534","img/question_4_8.jpeg","4","mat_44","4","0","0","6534","","","","","","","","","","","","","","","","","","","","",""
"","","","","","html-keyboard-response","93","584969","0.0-2.0-4.0-0.20","6102c81e911700cf7ba5f6bd","C3","batch3","spm_show_trial_num","null","<p class=block-text>Trial 45 out of 60</p>","null","","","","","","","","","","","","","","","","","","","","","","","","","",""
"","","","","","image-button-response","94","607258","0.0-2.0-4.0-1.20","6102c81e911700cf7ba5f6bd","C3","batch3","spm_respsonse","22287","img/question_4_9.jpeg","0","mat_45","1","1","1","22287","","","","","","","","","","","","","","","","","","","","",""
"","","","","","html-keyboard-response","95","608311","0.0-2.0-4.0-0.21","6102c81e911700cf7ba5f6bd","C3","batch3","spm_show_trial_num","null","<p class=block-text>Trial 46 out of 60</p>","null","","","","","","","","","","","","","","","","","","","","","","","","","",""
"","","","","","image-button-response","96","627988","0.0-2.0-4.0-1.21","6102c81e911700cf7ba5f6bd","C3","batch3","spm_respsonse","19674.800000000745","img/question_4_10.jpeg","1","mat_46","2","1","1","19674.800000000745","","","","","","","","","","","","","","","","","","","","",""
"","","","","","html-keyboard-response","97","629048","0.0-2.0-4.0-0.22","6102c81e911700cf7ba5f6bd","C3","batch3","spm_show_trial_num","null","<p class=block-text>Trial 47 out of 60</p>","null","","","","","","","","","","","","","","","","","","","","","","","","","",""
"","","","","","image-button-response","98","731427","0.0-2.0-4.0-1.22","6102c81e911700cf7ba5f6bd","C3","batch3","spm_respsonse","102377.5","img/question_4_11.jpeg","4","mat_47","5","1","1","102377.5","","","","","","","","","","","","","","","","","","","","",""
"","","","","","html-keyboard-response","99","732481","0.0-2.0-4.0-0.23","6102c81e911700cf7ba5f6bd","C3","batch3","spm_show_trial_num","null","<p class=block-text>Trial 48 out of 60</p>","null","","","","","","","","","","","","","","","","","","","","","","","","","",""
"","","","","","image-button-response","100","753659","0.0-2.0-4.0-1.23","6102c81e911700cf7ba5f6bd","C3","batch3","spm_respsonse","21176.60000000149","img/question_4_12.jpeg","5","mat_48","6","1","1","21176.60000000149","","","","","","","","","","","","","","","","","","","","",""
"","","","","","html-keyboard-response","101","754719","0.0-2.0-4.0-0.24","6102c81e911700cf7ba5f6bd","C3","batch3","spm_show_trial_num","null","<p class=block-text>Trial 49 out of 60</p>","null","","","","","","","","","","","","","","","","","","","","","","","","","",""
"","","","","","image-button-response","102","762332","0.0-2.0-4.0-1.24","6102c81e911700cf7ba5f6bd","C3","batch3","spm_respsonse","7610.300000000745","img/question_5_1.jpeg","6","mat_49","7","1","1","7610.300000000745","","","","","","","","","","","","","","","","","","","","",""
"","","","","","html-keyboard-response","103","763386","0.0-2.0-4.0-0.25","6102c81e911700cf7ba5f6bd","C3","batch3","spm_show_trial_num","null","<p class=block-text>Trial 50 out of 60</p>","null","","","","","","","","","","","","","","","","","","","","","","","","","",""
"","","","","","image-button-response","104","779268","0.0-2.0-4.0-1.25","6102c81e911700cf7ba5f6bd","C3","batch3","spm_respsonse","15879.39999999851","img/question_5_2.jpeg","5","mat_50","6","1","1","15879.39999999851","","","","","","","","","","","","","","","","","","","","",""
"","","","","","html-keyboard-response","105","780334","0.0-2.0-4.0-0.26","6102c81e911700cf7ba5f6bd","C3","batch3","spm_show_trial_num","null","<p class=block-text>Trial 51 out of 60</p>","null","","","","","","","","","","","","","","","","","","","","","","","","","",""
"","","","","","image-button-response","106","798571","0.0-2.0-4.0-1.26","6102c81e911700cf7ba5f6bd","C3","batch3","spm_respsonse","18234.699999999255","img/question_5_3.jpeg","7","mat_51","8","1","1","18234.699999999255","","","","","","","","","","","","","","","","","","","","",""
"","","","","","html-keyboard-response","107","799633","0.0-2.0-4.0-0.27","6102c81e911700cf7ba5f6bd","C3","batch3","spm_show_trial_num","null","<p class=block-text>Trial 52 out of 60</p>","null","","","","","","","","","","","","","","","","","","","","","","","","","",""
"","","","","","image-button-response","108","844955","0.0-2.0-4.0-1.27","6102c81e911700cf7ba5f6bd","C3","batch3","spm_respsonse","45320.099999997765","img/question_5_4.jpeg","1","mat_52","2","1","1","45320.099999997765","","","","","","","","","","","","","","","","","","","","",""
"","","","","","html-keyboard-response","109","846008","0.0-2.0-4.0-0.28","6102c81e911700cf7ba5f6bd","C3","batch3","spm_show_trial_num","null","<p class=block-text>Trial 53 out of 60</p>","null","","","","","","","","","","","","","","","","","","","","","","","","","",""
"","","","","","image-button-response","110","862237","0.0-2.0-4.0-1.28","6102c81e911700cf7ba5f6bd","C3","batch3","spm_respsonse","16226.699999999255","img/question_5_5.jpeg","0","mat_53","1","1","1","16226.699999999255","","","","","","","","","","","","","","","","","","","","",""
"","","","","","html-keyboard-response","111","863304","0.0-2.0-4.0-0.29","6102c81e911700cf7ba5f6bd","C3","batch3","spm_show_trial_num","null","<p class=block-text>Trial 54 out of 60</p>","null","","","","","","","","","","","","","","","","","","","","","","","","","",""
"","","","","","image-button-response","112","881123","0.0-2.0-4.0-1.29","6102c81e911700cf7ba5f6bd","C3","batch3","spm_respsonse","17817","img/question_5_6.jpeg","4","mat_54","5","1","1","17817","","","","","","","","","","","","","","","","","","","","",""
"","","","","","html-keyboard-response","113","882177","0.0-2.0-4.0-0.30","6102c81e911700cf7ba5f6bd","C3","batch3","spm_show_trial_num","null","<p class=block-text>Trial 55 out of 60</p>","null","","","","","","","","","","","","","","","","","","","","","","","","","",""
"","","","","","image-button-response","114","971796","0.0-2.0-4.0-1.30","6102c81e911700cf7ba5f6bd","C3","batch3","spm_respsonse","89617.60000000149","img/question_5_7.jpeg","0","mat_55","1","1","1","89617.60000000149","","","","","","","","","","","","","","","","","","","","",""
"","","","","","html-keyboard-response","115","972914","0.0-2.0-4.0-0.31","6102c81e911700cf7ba5f6bd","C3","batch3","spm_show_trial_num","null","<p class=block-text>Trial 56 out of 60</p>","null","","","","","","","","","","","","","","","","","","","","","","","","","",""
"","","","","","image-button-response","116","986763","0.0-2.0-4.0-1.31","6102c81e911700cf7ba5f6bd","C3","batch3","spm_respsonse","13847.39999999851","img/question_5_8.jpeg","0","mat_56","6","0","0","13847.39999999851","","","","","","","","","","","","","","","","","","","","",""
"","","","","","html-keyboard-response","117","987816","0.0-2.0-4.0-0.32","6102c81e911700cf7ba5f6bd","C3","batch3","spm_show_trial_num","null","<p class=block-text>Trial 57 out of 60</p>","null","","","","","","","","","","","","","","","","","","","","","","","","","",""
"","","","","","image-button-response","118","996650","0.0-2.0-4.0-1.32","6102c81e911700cf7ba5f6bd","C3","batch3","spm_respsonse","8831.89999999851","img/question_5_9.jpeg","0","mat_57","3","0","0","8831.89999999851","","","","","","","","","","","","","","","","","","","","",""
"","","","","","html-keyboard-response","119","997703","0.0-2.0-4.0-0.33","6102c81e911700cf7ba5f6bd","C3","batch3","spm_show_trial_num","null","<p class=block-text>Trial 58 out of 60</p>","null","","","","","","","","","","","","","","","","","","","","","","","","","",""
"","","","","","image-button-response","120","1099227","0.0-2.0-4.0-1.33","6102c81e911700cf7ba5f6bd","C3","batch3","spm_respsonse","101522","img/question_5_10.jpeg","5","mat_58","2","0","0","101522","","","","","","","","","","","","","","","","","","","","",""
"","","","","","html-keyboard-response","121","1100279","0.0-2.0-4.0-0.34","6102c81e911700cf7ba5f6bd","C3","batch3","spm_show_trial_num","null","<p class=block-text>Trial 59 out of 60</p>","null","","","","","","","","","","","","","","","","","","","","","","","","","",""
"","","","","","image-button-response","122","1179947","0.0-2.0-4.0-1.34","6102c81e911700cf7ba5f6bd","C3","batch3","spm_respsonse","79666.30000000075","img/question_5_11.jpeg","4","mat_59","4","0","0","79666.30000000075","","","","","","","","","","","","","","","","","","","","",""
"","","","","","html-keyboard-response","123","1180999","0.0-2.0-4.0-0.35","6102c81e911700cf7ba5f6bd","C3","batch3","spm_show_trial_num","null","<p class=block-text>Trial 60 out of 60</p>","null","","","","","","","","","","","","","","","","","","","","","","","","","",""
"","","","","","image-button-response","124","1219156","0.0-2.0-4.0-1.35","6102c81e911700cf7ba5f6bd","C3","batch3","spm_respsonse","38155.79999999702","img/question_5_12.jpeg","1","mat_60","5","0","0","38155.79999999702","","","","","","","","","","","","","","","","","","","","",""
"","","","","","html-button-response","125","1226558","0.0-2.0-5.0","6102c81e911700cf7ba5f6bd","C3","batch3","spm_goodbye","7148.5","<p class= block-text>This concludes the Standard Progressive Matrix game. Thank you for your responses!<br> When you are ready, click the button continue</p>","0","","","","","","","","","","","","","","","","","","","","","","","","","",""
"true","","","","","fullscreen","126","1232409","0.0-3.0-0.0","6102c81e911700cf7ba5f6bd","C3","batch3","","","","","","","","","","","","","","","","","","","","","","","","","","","","","",""
"","","","","","instructions","127","1332371","0.0-3.0-1.0-0.0-0.0","6102c81e911700cf7ba5f6bd","C3","batch3","tol-instructions","99960.80000000075","","","","","","","","[{""page_index"":0,""viewing_time"":28536.300000000745},{""page_index"":1,""viewing_time"":14201.199999999255},{""page_index"":2,""viewing_time"":9199.599999997765},{""page_index"":3,""viewing_time"":11705.5},{""page_index"":4,""viewing_time"":14495},{""page_index"":5,""viewing_time"":16159.10000000149},{""page_index"":6,""viewing_time"":5663.60000000149}]","","","","","","","","","","","","","","","","","","","",""
"","","","","","html-button-response","128","1334268","0.0-3.0-1.0-1.0-0.0","6102c81e911700cf7ba5f6bd","C3","batch3","tol_enter_quiz","1895.6000000014901","<p class=block-text> Let's answer a few questions <br>","0","","","","","","","","","","","","","","","","","","","","","","","","","",""
"","","","","","html-button-response","129","1348876","0.0-3.0-1.0-1.0-1.0","6102c81e911700cf7ba5f6bd","C3","batch3","tol_quiz","14607","<p class = block-text>True or False: You can only move the ball on top of a peg. <br></p>","1","","","false","","","","","","","","","","","","","","","","","","","","","","",""
"","","","","","html-button-response","130","1351493","0.0-3.0-1.0-1.0-2.0","6102c81e911700cf7ba5f6bd","C3","batch3","tol_quiz_feedback","2614.39999999851","<p class = block-text>Incorrect. Remember, you can only move the ball on top of a peg.</p>","0","","","","","","","","","","","","","","","","","","","","","","","","","",""
"","","","","","html-button-response","131","1356755","0.0-3.0-1.0-1.0-3.0","6102c81e911700cf7ba5f6bd","C3","batch3","tol_quiz","5261.20000000298","<p class = block-text>True or False: You should try to match your board with the target board with fewest moves possible. <br></p>","0","","","true","","","","","","","","","","","","","","","","","","","","","","",""
"","","","","","html-button-response","132","1357731","0.0-3.0-1.0-1.0-4.0","6102c81e911700cf7ba5f6bd","C3","batch3","tol_quiz_feedback","974.8999999985099","<p class = block-text>Correct! </p>","0","","","","","","","","","","","","","","","","","","","","","","","","","",""
"","","","","","html-button-response","133","1360764","0.0-3.0-1.0-2.0-0.0","6102c81e911700cf7ba5f6bd","C3","batch3","","3031.699999999255","<p class = block-text>You made too many incorrect choices.</p><p class = block-text>You will now repeat the instructions and quiz</p>","0","","","","","","","","","","","","","","","","","","","","","","","","","",""
"","","","","","instructions","134","1368799","0.0-3.0-1.1-0.1-0.1","6102c81e911700cf7ba5f6bd","C3","batch3","tol-instructions","8033","","","","","","","","[{""page_index"":0,""viewing_time"":1677},{""page_index"":1,""viewing_time"":920.4000000022352},{""page_index"":2,""viewing_time"":903.6999999992549},{""page_index"":3,""viewing_time"":639.1999999992549},{""page_index"":4,""viewing_time"":623.1999999992549},{""page_index"":5,""viewing_time"":897.5},{""page_index"":6,""viewing_time"":2369.400000002235}]","","","","","","","","","","","","","","","","","","","",""
"","","","","","html-button-response","135","1369947","0.0-3.0-1.1-1.1-0.1","6102c81e911700cf7ba5f6bd","C3","batch3","tol_enter_quiz","1146.800000000745","<p class=block-text> Let's answer a few questions <br>","0","","","","","","","","","","","","","","","","","","","","","","","","","",""
"","","","","","html-button-response","136","1380450","0.0-3.0-1.1-1.1-1.1","6102c81e911700cf7ba5f6bd","C3","batch3","tol_quiz","10502.699999999255","<p class = block-text>True or False: You can only move the ball on top of a peg. <br></p>","1","","","false","","","","","","","","","","","","","","","","","","","","","","",""
"","","","","","html-button-response","137","1382268","0.0-3.0-1.1-1.1-2.1","6102c81e911700cf7ba5f6bd","C3","batch3","tol_quiz_feedback","1815.8999999985099","<p class = block-text>Incorrect. Remember, you can only move the ball on top of a peg.</p>","0","","","","","","","","","","","","","","","","","","","","","","","","","",""
"","","","","","html-button-response","138","1386580","0.0-3.0-1.1-1.1-3.1","6102c81e911700cf7ba5f6bd","C3","batch3","tol_quiz","4311","<p class = block-text>True or False: You should try to match your board with the target board with fewest moves possible. <br></p>","0","","","true","","","","","","","","","","","","","","","","","","","","","","",""
"","","","","","html-button-response","139","1387507","0.0-3.0-1.1-1.1-4.1","6102c81e911700cf7ba5f6bd","C3","batch3","tol_quiz_feedback","925.4000000022352","<p class = block-text>Correct! </p>","0","","","","","","","","","","","","","","","","","","","","","","","","","",""
"","","","","","html-button-response","140","1389364","0.0-3.0-1.1-2.1-0.1","6102c81e911700cf7ba5f6bd","C3","batch3","","1856.3999999985099","<p class = block-text>You made too many incorrect choices.</p><p class = block-text>You will now repeat the instructions and quiz</p>","0","","","","","","","","","","","","","","","","","","","","","","","","","",""
"","","","","","instructions","141","1395067","0.0-3.0-1.2-0.2-0.2","6102c81e911700cf7ba5f6bd","C3","batch3","tol-instructions","5702.300000000745","","","","","","","","[{""page_index"":0,""viewing_time"":903.5999999977648},{""page_index"":1,""viewing_time"":591},{""page_index"":2,""viewing_time"":488.4000000022352},{""page_index"":3,""viewing_time"":695},{""page_index"":4,""viewing_time"":640.6999999992549},{""page_index"":5,""viewing_time"":815},{""page_index"":6,""viewing_time"":1568}]","","","","","","","","","","","","","","","","","","","",""
"","","","","","html-button-response","142","1395699","0.0-3.0-1.2-1.2-0.2","6102c81e911700cf7ba5f6bd","C3","batch3","tol_enter_quiz","630.2000000029802","<p class=block-text> Let's answer a few questions <br>","0","","","","","","","","","","","","","","","","","","","","","","","","","",""
"","","","","","html-button-response","143","1396426","0.0-3.0-1.2-1.2-1.2","6102c81e911700cf7ba5f6bd","C3","batch3","tol_quiz","725.8999999985099","<p class = block-text>True or False: You can only move the ball on top of a peg. <br></p>","0","","","true","","","","","","","","","","","","","","","","","","","","","","",""
"","","","","","html-button-response","144","1397354","0.0-3.0-1.2-1.2-2.2","6102c81e911700cf7ba5f6bd","C3","batch3","tol_quiz_feedback","927.3000000007451","<p class = block-text>Correct! You can only move the ball on top of a peg.</p>","0","","","","","","","","","","","","","","","","","","","","","","","","","",""
"","","","","","html-button-response","145","1398225","0.0-3.0-1.2-1.2-3.2","6102c81e911700cf7ba5f6bd","C3","batch3","tol_quiz","869.2000000029802","<p class = block-text>True or False: You should try to match your board with the target board with fewest moves possible. <br></p>","0","","","true","","","","","","","","","","","","","","","","","","","","","","",""
"","","","","","html-button-response","146","1399026","0.0-3.0-1.2-1.2-4.2","6102c81e911700cf7ba5f6bd","C3","batch3","tol_quiz_feedback","800.6000000014901","<p class = block-text>Correct! </p>","0","","","","","","","","","","","","","","","","","","","","","","","","","",""
"","","","","","html-button-response","147","1400579","0.0-3.0-2.0","6102c81e911700cf7ba5f6bd","C3","batch3","","1551.800000000745","<p class=block-text> Now that you've understood the game, let's practice a few easier examples before we start!<br> <br>","0","","","","","","","","","","","","","","","","","","","","","","","","","",""
"","","","","","single-stim-button","148","1403140","0.0-3.0-3.0-0.0","6102c81e911700cf7ba5f6bd","C3","batch3","tol_practice","2559","","","","","","","","","tol_peg_2","2559","2559","0","[[1,2,0],[0,0],[0]]","1","[[1,2,0],[0,0],[3]]","practice","2559","","","","","","","","","","",""
"","","","","","single-stim-button","149","1405187","0.0-3.0-3.0-1.0","6102c81e911700cf7ba5f6bd","C3","batch3","tol_practice","2046","","","","","","","","","tol_peg_3","2046","2046","0","[[1,2,0],[0,0],[3]]","1","[[1,2,0],[0,0],[3]]","practice","2046","","","","","","","","","","",""
"","","","","","poldrack-single-stim","150","1406205","0.0-3.0-4.0","6102c81e911700cf7ba5f6bd","C3","batch3","tol_feedback","-1","","","","","true","","","","","1000","1000","500","","","","","","-1","none","true","","0","","","","","",""
"","","","","","single-stim-button","151","1414131","0.0-3.0-5.0-0.0","6102c81e911700cf7ba5f6bd","C3","batch3","tol_practice","7925","","","","","","","","","tol_peg_2","7925","7925","0","[[1,2,0],[0,0],[0]]","2","[[0,0,0],[3,1],[2]]","practice","7925","","","","","","","","","","",""
"","","","","","single-stim-button","152","1421803","0.0-3.0-5.0-1.0","6102c81e911700cf7ba5f6bd","C3","batch3","tol_practice","7670","","","","","","","","","tol_peg_2","7670","7670","0","[[1,2,0],[3,0],[0]]","2","[[0,0,0],[3,1],[2]]","practice","7670","","","","","","","","","","",""
"","","","","","single-stim-button","153","1429205","0.0-3.0-5.1-0.1","6102c81e911700cf7ba5f6bd","C3","batch3","tol_practice","7402","","","","","","","","","tol_peg_1","7402","7402","0","[[1,0,0],[3,0],[0]]","3","[[0,0,0],[3,1],[2]]","practice","7402","","","","","","","","","","",""
"","","","","","single-stim-button","154","1430243","0.0-3.0-5.1-1.1","6102c81e911700cf7ba5f6bd","C3","batch3","tol_practice","1037","","","","","","","","","tol_peg_3","1037","1037","0","[[1,0,0],[3,0],[2]]","3","[[0,0,0],[3,1],[2]]","practice","1037","","","","","","","","","","",""
"","","","","","single-stim-button","155","1431545","0.0-3.0-5.2-0.2","6102c81e911700cf7ba5f6bd","C3","batch3","tol_practice","1300","","","","","","","","","tol_peg_1","1300","1300","0","[[0,0,0],[3,0],[2]]","4","[[0,0,0],[3,1],[2]]","practice","1300","","","","","","","","","","",""
"","","","","","single-stim-button","156","1439084","0.0-3.0-5.2-1.2","6102c81e911700cf7ba5f6bd","C3","batch3","tol_practice","7537","","","","","","","","","tol_peg_1","7537","7537","0","[[1,0,0],[3,0],[2]]","4","[[0,0,0],[3,1],[2]]","practice","7537","","","","","","","","","","",""
"","","","","","single-stim-button","157","1445210","0.0-3.0-5.3-0.3","6102c81e911700cf7ba5f6bd","C3","batch3","tol_practice","6125","","","","","","","","","tol_peg_3","6125","6125","0","[[1,0,0],[3,0],[0]]","5","[[0,0,0],[3,1],[2]]","practice","6125","","","","","","","","","","",""
"","","","","","single-stim-button","158","1449004","0.0-3.0-5.3-1.3","6102c81e911700cf7ba5f6bd","C3","batch3","tol_practice","3792","","","","","","","","","tol_peg_1","3792","3792","0","[[1,2,0],[3,0],[0]]","5","[[0,0,0],[3,1],[2]]","practice","3792","","","","","","","","","","",""
"","","","","","single-stim-button","159","1449844","0.0-3.0-5.4-0.4","6102c81e911700cf7ba5f6bd","C3","batch3","tol_practice","840","","","","","","","","","tol_peg_2","840","840","0","[[1,2,0],[0,0],[0]]","6","[[0,0,0],[3,1],[2]]","practice","840","","","","","","","","","","",""
"","","","","","single-stim-button","160","1450557","0.0-3.0-5.4-1.4","6102c81e911700cf7ba5f6bd","C3","batch3","tol_practice","712","","","","","","","","","tol_peg_3","712","712","0","[[1,2,0],[0,0],[3]]","6","[[0,0,0],[3,1],[2]]","practice","712","","","","","","","","","","",""
"","","","","","single-stim-button","161","1451259","0.0-3.0-5.5-0.5","6102c81e911700cf7ba5f6bd","C3","batch3","tol_practice","700","","","","","","","","","tol_peg_1","700","700","0","[[1,0,0],[0,0],[3]]","7","[[0,0,0],[3,1],[2]]","practice","700","","","","","","","","","","",""
"","","","","","single-stim-button","162","1451986","0.0-3.0-5.5-1.5","6102c81e911700cf7ba5f6bd","C3","batch3","tol_practice","727","","","","","","","","","tol_peg_2","727","727","0","[[1,0,0],[2,0],[3]]","7","[[0,0,0],[3,1],[2]]","practice","727","","","","","","","","","","",""
"","","","","","single-stim-button","163","1453939","0.0-3.0-5.6-0.6","6102c81e911700cf7ba5f6bd","C3","batch3","tol_practice","1952","","","","","","","","","tol_peg_1","1952","1952","0","[[0,0,0],[2,0],[3]]","8","[[0,0,0],[3,1],[2]]","practice","1952","","","","","","","","","","",""
"","","","","","single-stim-button","164","1454651","0.0-3.0-5.6-1.6","6102c81e911700cf7ba5f6bd","C3","batch3","tol_practice","710","","","","","","","","","tol_peg_2","710","710","0","[[0,0,0],[2,1],[3]]","8","[[0,0,0],[3,1],[2]]","practice","710","","","","","","","","","","",""
"","","","","","single-stim-button","165","1455244","0.0-3.0-5.7-0.7","6102c81e911700cf7ba5f6bd","C3","batch3","tol_practice","592","","","","","","","","","tol_peg_3","592","592","0","[[0,0,0],[2,1],[0]]","9","[[0,0,0],[3,1],[2]]","practice","592","","","","","","","","","","",""
"","","","","","single-stim-button","166","1456147","0.0-3.0-5.7-1.7","6102c81e911700cf7ba5f6bd","C3","batch3","tol_practice","902","","","","","","","","","tol_peg_1","902","902","0","[[3,0,0],[2,1],[0]]","9","[[0,0,0],[3,1],[2]]","practice","902","","","","","","","","","","",""
"","","","","","single-stim-button","167","1456668","0.0-3.0-5.8-0.8","6102c81e911700cf7ba5f6bd","C3","batch3","tol_practice","520","","","","","","","","","tol_peg_2","520","520","0","[[3,0,0],[2,0],[0]]","10","[[0,0,0],[3,1],[2]]","practice","520","","","","","","","","","","",""
"","","","","","single-stim-button","168","1457614","0.0-3.0-5.8-1.8","6102c81e911700cf7ba5f6bd","C3","batch3","tol_practice","945","","","","","","","","","tol_peg_1","945","945","0","[[3,1,0],[2,0],[0]]","10","[[0,0,0],[3,1],[2]]","practice","945","","","","","","","","","","",""
"","","","","","single-stim-button","169","1467428","0.0-3.0-5.9-0.9","6102c81e911700cf7ba5f6bd","C3","batch3","tol_practice","9814","","","","","","","","","tol_peg_2","9814","9814","0","[[3,1,0],[0,0],[0]]","11","[[0,0,0],[3,1],[2]]","practice","9814","","","","","","","","","","",""
"","","","","","single-stim-button","170","1470011","0.0-3.0-5.9-1.9","6102c81e911700cf7ba5f6bd","C3","batch3","tol_practice","2581","","","","","","","","","tol_peg_3","2581","2581","0","[[3,1,0],[0,0],[2]]","11","[[0,0,0],[3,1],[2]]","practice","2581","","","","","","","","","","",""
"","","","","","single-stim-button","171","1471795","0.0-3.0-5.10-0.10","6102c81e911700cf7ba5f6bd","C3","batch3","tol_practice","1784","","","","","","","","","tol_peg_1","1784","1784","0","[[3,0,0],[0,0],[2]]","12","[[0,0,0],[3,1],[2]]","practice","1784","","","","","","","","","","",""
"","","","","","single-stim-button","172","1474043","0.0-3.0-5.10-1.10","6102c81e911700cf7ba5f6bd","C3","batch3","tol_practice","2248","","","","","","","","","tol_peg_2","2248","2248","0","[[3,0,0],[1,0],[2]]","12","[[0,0,0],[3,1],[2]]","practice","2248","","","","","","","","","","",""
"","","","","","single-stim-button","173","1475011","0.0-3.0-5.11-0.11","6102c81e911700cf7ba5f6bd","C3","batch3","tol_practice","966","","","","","","","","","tol_peg_1","966","966","0","[[0,0,0],[1,0],[2]]","13","[[0,0,0],[3,1],[2]]","practice","966","","","","","","","","","","",""
"","","","","","single-stim-button","174","1476083","0.0-3.0-5.11-1.11","6102c81e911700cf7ba5f6bd","C3","batch3","tol_practice","1072","","","","","","","","","tol_peg_2","1072","1072","0","[[0,0,0],[1,3],[2]]","13","[[0,0,0],[3,1],[2]]","practice","1072","","","","","","","","","","",""
"","","","","","single-stim-button","175","1476683","0.0-3.0-5.12-0.12","6102c81e911700cf7ba5f6bd","C3","batch3","tol_practice","599","","","","","","","","","tol_peg_3","599","599","0","[[0,0,0],[1,3],[0]]","14","[[0,0,0],[3,1],[2]]","practice","599","","","","","","","","","","",""
"","","","","","single-stim-button","176","1477484","0.0-3.0-5.12-1.12","6102c81e911700cf7ba5f6bd","C3","batch3","tol_practice","800","","","","","","","","","tol_peg_1","800","800","0","[[2,0,0],[1,3],[0]]","14","[[0,0,0],[3,1],[2]]","practice","800","","","","","","","","","","",""
"","","","","","single-stim-button","177","1477982","0.0-3.0-5.13-0.13","6102c81e911700cf7ba5f6bd","C3","batch3","tol_practice","497","","","","","","","","","tol_peg_2","497","497","0","[[2,0,0],[1,0],[0]]","15","[[0,0,0],[3,1],[2]]","practice","497","","","","","","","","","","",""
"","","","","","single-stim-button","178","1478459","0.0-3.0-5.13-1.13","6102c81e911700cf7ba5f6bd","C3","batch3","tol_practice","476","","","","","","","","","tol_peg_3","476","476","0","[[2,0,0],[1,0],[3]]","15","[[0,0,0],[3,1],[2]]","practice","476","","","","","","","","","","",""
"","","","","","single-stim-button","179","1479699","0.0-3.0-5.14-0.14","6102c81e911700cf7ba5f6bd","C3","batch3","tol_practice","1239","","","","","","","","","tol_peg_2","1239","1239","0","[[2,0,0],[0,0],[3]]","16","[[0,0,0],[3,1],[2]]","practice","1239","","","","","","","","","","",""
"","","","","","single-stim-button","180","1480836","0.0-3.0-5.14-1.14","6102c81e911700cf7ba5f6bd","C3","batch3","tol_practice","1137","","","","","","","","","tol_peg_1","1137","1137","0","[[2,1,0],[0,0],[3]]","16","[[0,0,0],[3,1],[2]]","practice","1137","","","","","","","","","","",""
"","","","","","single-stim-button","181","1481405","0.0-3.0-5.15-0.15","6102c81e911700cf7ba5f6bd","C3","batch3","tol_practice","567","","","","","","","","","tol_peg_3","567","567","0","[[2,1,0],[0,0],[0]]","17","[[0,0,0],[3,1],[2]]","practice","567","","","","","","","","","","",""
"","","","","","single-stim-button","182","1481979","0.0-3.0-5.15-1.15","6102c81e911700cf7ba5f6bd","C3","batch3","tol_practice","573","","","","","","","","","tol_peg_2","573","573","0","[[2,1,0],[3,0],[0]]","17","[[0,0,0],[3,1],[2]]","practice","573","","","","","","","","","","",""
"","","","","","single-stim-button","183","1482628","0.0-3.0-5.16-0.16","6102c81e911700cf7ba5f6bd","C3","batch3","tol_practice","648","","","","","","","","","tol_peg_1","648","648","0","[[2,0,0],[3,0],[0]]","18","[[0,0,0],[3,1],[2]]","practice","648","","","","","","","","","","",""
"","","","","","single-stim-button","184","1483843","0.0-3.0-5.16-1.16","6102c81e911700cf7ba5f6bd","C3","batch3","tol_practice","1215","","","","","","","","","tol_peg_2","1215","1215","0","[[2,0,0],[3,1],[0]]","18","[[0,0,0],[3,1],[2]]","practice","1215","","","","","","","","","","",""
"","","","","","single-stim-button","185","1484292","0.0-3.0-5.17-0.17","6102c81e911700cf7ba5f6bd","C3","batch3","tol_practice","447","","","","","","","","","tol_peg_1","447","447","0","[[0,0,0],[3,1],[0]]","19","[[0,0,0],[3,1],[2]]","practice","447","","","","","","","","","","",""
"","","","","","single-stim-button","186","1485005","0.0-3.0-5.17-1.17","6102c81e911700cf7ba5f6bd","C3","batch3","tol_practice","712","","","","","","","","","tol_peg_3","712","712","0","[[0,0,0],[3,1],[2]]","19","[[0,0,0],[3,1],[2]]","practice","712","","","","","","","","","","",""
"","","","","","poldrack-single-stim","187","1486007","0.0-3.0-6.0","6102c81e911700cf7ba5f6bd","C3","batch3","tol_feedback","-1","","","","","true","","","","","1000","1000","500","","","","","","-1","none","true","","0","","","","","",""
"","","","","","single-stim-button","188","1489811","0.0-3.0-7.0-0.0","6102c81e911700cf7ba5f6bd","C3","batch3","tol_practice","3803","","","","","","","","","tol_peg_2","3803","3803","0","[[1,2,0],[0,0],[0]]","20","[[1,0,0],[2,0],[3]]","practice","3803","","","","","","","","","","",""
"","","","","","single-stim-button","189","1490387","0.0-3.0-7.0-1.0","6102c81e911700cf7ba5f6bd","C3","batch3","tol_practice","574","","","","","","","","","tol_peg_3","574","574","0","[[1,2,0],[0,0],[3]]","20","[[1,0,0],[2,0],[3]]","practice","574","","","","","","","","","","",""
"","","","","","single-stim-button","190","1490995","0.0-3.0-7.1-0.1","6102c81e911700cf7ba5f6bd","C3","batch3","tol_practice","607","","","","","","","","","tol_peg_1","607","607","0","[[1,0,0],[0,0],[3]]","21","[[1,0,0],[2,0],[3]]","practice","607","","","","","","","","","","",""
"","","","","","single-stim-button","191","1491803","0.0-3.0-7.1-1.1","6102c81e911700cf7ba5f6bd","C3","batch3","tol_practice","808","","","","","","","","","tol_peg_2","808","808","0","[[1,0,0],[2,0],[3]]","21","[[1,0,0],[2,0],[3]]","practice","808","","","","","","","","","","",""
"","","","","","poldrack-single-stim","192","1492816","0.0-3.0-8.0","6102c81e911700cf7ba5f6bd","C3","batch3","tol_feedback","-1","","","","","true","","","","","1000","1000","500","","","","","","-1","none","true","","0","","","","","",""
"","","","","","html-button-response","193","1499077","0.0-3.0-9.0","6102c81e911700cf7ba5f6bd","C3","batch3","tol_instruction","6260.099999997765","<div class = centerbox><p class = center-block-text>Great job! You are done with practice trials<br>You are about to start official trials.<br> <br> Problem <strong>1</strong> out of 25 problems</p></div>","0","","","","","","","","","","","","","","","","","","","","","","","","","",""
"","","","","","single-stim-button","194","1507251","0.0-3.0-10.0-0.0","6102c81e911700cf7ba5f6bd","C3","batch3","tol_tohand","7173","","","","","","","","","tol_peg_2","7173","7173","0","[[1,2,0],[0,0],[0]]","1","[[1,3,0],[2,0],[0]]","0","0","","","","","","3","","","","",""
"","","","","","single-stim-button","195","1507739","0.0-3.0-10.0-1.0","6102c81e911700cf7ba5f6bd","C3","batch3","tol_toboard","486","","","","","","","","","tol_peg_3","486","486","0","[[1,2,0],[0,0],[3]]","1","[[1,3,0],[2,0],[0]]","0","0","","","","","","3","","","","",""
"","","","","","single-stim-button","196","1508290","0.0-3.0-10.1-0.1","6102c81e911700cf7ba5f6bd","C3","batch3","tol_tohand","551","","","","","","","","","tol_peg_1","551","551","0","[[1,0,0],[0,0],[3]]","2","[[1,3,0],[2,0],[0]]","0","0","","","","","","3","","","","",""
"","","","","","single-stim-button","197","1508875","0.0-3.0-10.1-1.1","6102c81e911700cf7ba5f6bd","C3","batch3","tol_toboard","583","","","","","","","","","tol_peg_2","583","583","0","[[1,0,0],[2,0],[3]]","2","[[1,3,0],[2,0],[0]]","0","0","","","","","","3","","","","",""
"","","","","","single-stim-button","198","1509666","0.0-3.0-10.2-0.2","6102c81e911700cf7ba5f6bd","C3","batch3","tol_tohand","791","","","","","","","","","tol_peg_3","791","791","0","[[1,0,0],[2,0],[0]]","3","[[1,3,0],[2,0],[0]]","0","0","","","","","","3","","","","",""
"","","","","","single-stim-button","199","1510466","0.0-3.0-10.2-1.2","6102c81e911700cf7ba5f6bd","C3","batch3","tol_toboard","799","","","","","","","","","tol_peg_1","799","799","0","[[1,3,0],[2,0],[0]]","3","[[1,3,0],[2,0],[0]]","0","0","","","","","","3","","","","",""
"","","","","","poldrack-single-stim","200","1511476","0.0-3.0-11.0","6102c81e911700cf7ba5f6bd","C3","batch3","tol_feedback","-1","","","","","true","","","","","1000","1000","500","","","","","","-1","none","true","7173","8515","","","","","",""
"","","","","","html-button-response","201","1512603","0.0-3.0-12.0","6102c81e911700cf7ba5f6bd","C3","batch3","tol_trial_num","1125.199999999255","<div class = centerbox><p class = center-block-text>problem <strong>2</strong> out of 25 problems</p></div>","0","","","","","","","","","","","","","","","","","","","","","","","","","",""
"","","","","","single-stim-button","202","1525249","0.0-3.0-13.0-0.0","6102c81e911700cf7ba5f6bd","C3","batch3","tol_tohand","12645","","","","","","","","","tol_peg_1","12645","12645","0","[[1,0,0],[3,0],[0]]","1","[[2,1,3],[0,0],[0]]","1","0","","","","","","5","","","","",""
"","","","","","single-stim-button","203","1525826","0.0-3.0-13.0-1.0","6102c81e911700cf7ba5f6bd","C3","batch3","tol_toboard","577","","","","","","","","","tol_peg_2","577","577","0","[[1,0,0],[3,2],[0]]","1","[[2,1,3],[0,0],[0]]","1","0","","","","","","5","","","","",""
"","","","","","single-stim-button","204","1526603","0.0-3.0-13.1-0.1","6102c81e911700cf7ba5f6bd","C3","batch3","tol_tohand","775","","","","","","","","","tol_peg_1","775","775","0","[[0,0,0],[3,2],[0]]","2","[[2,1,3],[0,0],[0]]","1","0","","","","","","5","","","","",""
"","","","","","single-stim-button","205","1527163","0.0-3.0-13.1-1.1","6102c81e911700cf7ba5f6bd","C3","batch3","tol_toboard","559","","","","","","","","","tol_peg_3","559","559","0","[[0,0,0],[3,2],[1]]","2","[[2,1,3],[0,0],[0]]","1","0","","","","","","5","","","","",""
"","","","","","single-stim-button","206","1528043","0.0-3.0-13.2-0.2","6102c81e911700cf7ba5f6bd","C3","batch3","tol_tohand","880","","","","","","","","","tol_peg_2","880","880","0","[[0,0,0],[3,0],[1]]","3","[[2,1,3],[0,0],[0]]","1","0","","","","","","5","","","","",""
"","","","","","single-stim-button","207","1528683","0.0-3.0-13.2-1.2","6102c81e911700cf7ba5f6bd","C3","batch3","tol_toboard","638","","","","","","","","","tol_peg_1","638","638","0","[[2,0,0],[3,0],[1]]","3","[[2,1,3],[0,0],[0]]","1","0","","","","","","5","","","","",""
"","","","","","single-stim-button","208","1529627","0.0-3.0-13.3-0.3","6102c81e911700cf7ba5f6bd","C3","batch3","tol_tohand","942","","","","","","","","","tol_peg_3","942","942","0","[[2,0,0],[3,0],[0]]","4","[[2,1,3],[0,0],[0]]","1","0","","","","","","5","","","","",""
"","","","","","single-stim-button","209","1530163","0.0-3.0-13.3-1.3","6102c81e911700cf7ba5f6bd","C3","batch3","tol_toboard","535","","","","","","","","","tol_peg_1","535","535","0","[[2,1,0],[3,0],[0]]","4","[[2,1,3],[0,0],[0]]","1","0","","","","","","5","","","","",""
"","","","","","single-stim-button","210","1530683","0.0-3.0-13.4-0.4","6102c81e911700cf7ba5f6bd","C3","batch3","tol_tohand","520","","","","","","","","","tol_peg_2","520","520","0","[[2,1,0],[0,0],[0]]","5","[[2,1,3],[0,0],[0]]","1","0","","","","","","5","","","","",""
"","","","","","single-stim-button","211","1531363","0.0-3.0-13.4-1.4","6102c81e911700cf7ba5f6bd","C3","batch3","tol_toboard","680","","","","","","","","","tol_peg_1","680","680","0","[[2,1,3],[0,0],[0]]","5","[[2,1,3],[0,0],[0]]","1","0","","","","","","5","","","","",""
"","","","","","poldrack-single-stim","212","1532365","0.0-3.0-14.0","6102c81e911700cf7ba5f6bd","C3","batch3","tol_feedback","-1","","","","","true","","","","","1000","1000","500","","","","","","-1","none","true","12645","15762","","","","","",""
"","","","","","html-button-response","213","1533090","0.0-3.0-15.0","6102c81e911700cf7ba5f6bd","C3","batch3","tol_trial_num","724.3000000007451","<div class = centerbox><p class = center-block-text>problem <strong>3</strong> out of 25 problems</p></div>","0","","","","","","","","","","","","","","","","","","","","","","","","","",""
"","","","","","single-stim-button","214","1552660","0.0-3.0-16.0-0.0","6102c81e911700cf7ba5f6bd","C3","batch3","tol_tohand","19568","","","","","","","","","tol_peg_1","19568","19568","0","[[2,0,0],[0,0],[1]]","1","[[1,2,0],[3,0],[0]]","2","0","","","","","","4","","","","",""
"","","","","","single-stim-button","215","1553251","0.0-3.0-16.0-1.0","6102c81e911700cf7ba5f6bd","C3","batch3","tol_toboard","591","","","","","","","","","tol_peg_2","591","591","0","[[2,0,0],[3,0],[1]]","1","[[1,2,0],[3,0],[0]]","2","0","","","","","","4","","","","",""
"","","","","","single-stim-button","216","1559206","0.0-3.0-16.1-0.1","6102c81e911700cf7ba5f6bd","C3","batch3","tol_tohand","5953","","","","","","","","","tol_peg_1","5953","5953","0","[[0,0,0],[3,0],[1]]","2","[[1,2,0],[3,0],[0]]","2","0","","","","","","4","","","","",""
"","","","","","single-stim-button","217","1559971","0.0-3.0-16.1-1.1","6102c81e911700cf7ba5f6bd","C3","batch3","tol_toboard","764","","","","","","","","","tol_peg_2","764","764","0","[[0,0,0],[3,2],[1]]","2","[[1,2,0],[3,0],[0]]","2","0","","","","","","4","","","","",""
"","","","","","single-stim-button","218","1560587","0.0-3.0-16.2-0.2","6102c81e911700cf7ba5f6bd","C3","batch3","tol_tohand","615","","","","","","","","","tol_peg_3","615","615","0","[[0,0,0],[3,2],[0]]","3","[[1,2,0],[3,0],[0]]","2","0","","","","","","4","","","","",""
"","","","","","single-stim-button","219","1561332","0.0-3.0-16.2-1.2","6102c81e911700cf7ba5f6bd","C3","batch3","tol_toboard","744","","","","","","","","","tol_peg_1","744","744","0","[[1,0,0],[3,2],[0]]","3","[[1,2,0],[3,0],[0]]","2","0","","","","","","4","","","","",""
"","","","","","single-stim-button","220","1561902","0.0-3.0-16.3-0.3","6102c81e911700cf7ba5f6bd","C3","batch3","tol_tohand","568","","","","","","","","","tol_peg_2","568","568","0","[[1,0,0],[3,0],[0]]","4","[[1,2,0],[3,0],[0]]","2","0","","","","","","4","","","","",""
"","","","","","single-stim-button","221","1562699","0.0-3.0-16.3-1.3","6102c81e911700cf7ba5f6bd","C3","batch3","tol_toboard","797","","","","","","","","","tol_peg_1","797","797","0","[[1,2,0],[3,0],[0]]","4","[[1,2,0],[3,0],[0]]","2","0","","","","","","4","","","","",""
"","","","","","poldrack-single-stim","222","1563707","0.0-3.0-17.0","6102c81e911700cf7ba5f6bd","C3","batch3","tol_feedback","-1","","","","","true","","","","","1000","1000","500","","","","","","-1","none","true","19568","26704","","","","","",""
"","","","","","html-button-response","223","1564379","0.0-3.0-18.0","6102c81e911700cf7ba5f6bd","C3","batch3","tol_trial_num","671.3000000007451","<div class = centerbox><p class = center-block-text>problem <strong>4</strong> out of 25 problems</p></div>","0","","","","","","","","","","","","","","","","","","","","","","","","","",""
"","","","","","single-stim-button","224","1569467","0.0-3.0-19.0-0.0","6102c81e911700cf7ba5f6bd","C3","batch3","tol_tohand","5087","","","","","","","","","tol_peg_2","5087","5087","0","[[3,0,0],[2,0],[0]]","1","[[3,0,0],[1,0],[2]]","3","0","","","","","","3","","","","",""
"","","","","","single-stim-button","225","1569899","0.0-3.0-19.0-1.0","6102c81e911700cf7ba5f6bd","C3","batch3","tol_toboard","431","","","","","","","","","tol_peg_1","431","431","0","[[3,1,0],[2,0],[0]]","1","[[3,0,0],[1,0],[2]]","3","0","","","","","","3","","","","",""
"","","","","","single-stim-button","226","1570315","0.0-3.0-19.1-0.1","6102c81e911700cf7ba5f6bd","C3","batch3","tol_tohand","416","","","","","","","","","tol_peg_2","416","416","0","[[3,1,0],[0,0],[0]]","2","[[3,0,0],[1,0],[2]]","3","0","","","","","","3","","","","",""
"","","","","","single-stim-button","227","1570723","0.0-3.0-19.1-1.1","6102c81e911700cf7ba5f6bd","C3","batch3","tol_toboard","408","","","","","","","","","tol_peg_3","408","408","0","[[3,1,0],[0,0],[2]]","2","[[3,0,0],[1,0],[2]]","3","0","","","","","","3","","","","",""
"","","","","","single-stim-button","228","1571827","0.0-3.0-19.2-0.2","6102c81e911700cf7ba5f6bd","C3","batch3","tol_tohand","1103","","","","","","","","","tol_peg_1","1103","1103","0","[[3,0,0],[0,0],[2]]","3","[[3,0,0],[1,0],[2]]","3","0","","","","","","3","","","","",""
"","","","","","single-stim-button","229","1572460","0.0-3.0-19.2-1.2","6102c81e911700cf7ba5f6bd","C3","batch3","tol_toboard","632","","","","","","","","","tol_peg_2","632","632","0","[[3,0,0],[1,0],[2]]","3","[[3,0,0],[1,0],[2]]","3","0","","","","","","3","","","","",""
"","","","","","poldrack-single-stim","230","1573463","0.0-3.0-20.0","6102c81e911700cf7ba5f6bd","C3","batch3","tol_feedback","-1","","","","","true","","","","","1000","1000","500","","","","","","-1","none","true","5087","6606","","","","","",""
"","","","","","html-button-response","231","1574179","0.0-3.0-21.0","6102c81e911700cf7ba5f6bd","C3","batch3","tol_trial_num","715.7000000029802","<div class = centerbox><p class = center-block-text>problem <strong>5</strong> out of 25 problems</p></div>","0","","","","","","","","","","","","","","","","","","","","","","","","","",""
"","","","","","single-stim-button","232","1579004","0.0-3.0-22.0-0.0","6102c81e911700cf7ba5f6bd","C3","batch3","tol_tohand","4823","","","","","","","","","tol_peg_2","4823","4823","0","[[1,0,0],[0,0],[3]]","1","[[0,0,0],[1,2],[3]]","4","0","","","","","","7","","","","",""
"","","","","","single-stim-button","233","1579555","0.0-3.0-22.0-1.0","6102c81e911700cf7ba5f6bd","C3","batch3","tol_toboard","551","","","","","","","","","tol_peg_1","551","551","0","[[1,2,0],[0,0],[3]]","1","[[0,0,0],[1,2],[3]]","4","0","","","","","","7","","","","",""
"","","","","","single-stim-button","234","1580277","0.0-3.0-22.1-0.1","6102c81e911700cf7ba5f6bd","C3","batch3","tol_tohand","721","","","","","","","","","tol_peg_3","721","721","0","[[1,2,0],[0,0],[0]]","2","[[0,0,0],[1,2],[3]]","4","0","","","","","","7","","","","",""
"","","","","","single-stim-button","235","1580803","0.0-3.0-22.1-1.1","6102c81e911700cf7ba5f6bd","C3","batch3","tol_toboard","526","","","","","","","","","tol_peg_2","526","526","0","[[1,2,0],[3,0],[0]]","2","[[0,0,0],[1,2],[3]]","4","0","","","","","","7","","","","",""
"","","","","","single-stim-button","236","1585571","0.0-3.0-22.2-0.2","6102c81e911700cf7ba5f6bd","C3","batch3","tol_tohand","4767","","","","","","","","","tol_peg_1","4767","4767","0","[[1,0,0],[3,0],[0]]","3","[[0,0,0],[1,2],[3]]","4","0","","","","","","7","","","","",""
"","","","","","single-stim-button","237","1586147","0.0-3.0-22.2-1.2","6102c81e911700cf7ba5f6bd","C3","batch3","tol_toboard","576","","","","","","","","","tol_peg_2","576","576","0","[[1,0,0],[3,2],[0]]","3","[[0,0,0],[1,2],[3]]","4","0","","","","","","7","","","","",""
"","","","","","single-stim-button","238","1590692","0.0-3.0-22.3-0.3","6102c81e911700cf7ba5f6bd","C3","batch3","tol_tohand","4544","","","","","","","","","tol_peg_2","4544","4544","0","[[1,0,0],[3,0],[0]]","4","[[0,0,0],[1,2],[3]]","4","0","","","","","","7","","","","",""
"","","","","","single-stim-button","239","1591307","0.0-3.0-22.3-1.3","6102c81e911700cf7ba5f6bd","C3","batch3","tol_toboard","615","","","","","","","","","tol_peg_3","615","615","0","[[1,0,0],[3,0],[2]]","4","[[0,0,0],[1,2],[3]]","4","0","","","","","","7","","","","",""
"","","","","","single-stim-button","240","1596611","0.0-3.0-22.4-0.4","6102c81e911700cf7ba5f6bd","C3","batch3","tol_tohand","5303","","","","","","","","","tol_peg_1","5303","5303","0","[[0,0,0],[3,0],[2]]","5","[[0,0,0],[1,2],[3]]","4","0","","","","","","7","","","","",""
"","","","","","single-stim-button","241","1597443","0.0-3.0-22.4-1.4","6102c81e911700cf7ba5f6bd","C3","batch3","tol_toboard","831","","","","","","","","","tol_peg_2","831","831","0","[[0,0,0],[3,1],[2]]","5","[[0,0,0],[1,2],[3]]","4","0","","","","","","7","","","","",""
"","","","","","single-stim-button","242","1597907","0.0-3.0-22.5-0.5","6102c81e911700cf7ba5f6bd","C3","batch3","tol_tohand","463","","","","","","","","","tol_peg_3","463","463","0","[[0,0,0],[3,1],[0]]","6","[[0,0,0],[1,2],[3]]","4","0","","","","","","7","","","","",""
"","","","","","single-stim-button","243","1600059","0.0-3.0-22.5-1.5","6102c81e911700cf7ba5f6bd","C3","batch3","tol_toboard","2151","","","","","","","","","tol_peg_1","2151","2151","0","[[2,0,0],[3,1],[0]]","6","[[0,0,0],[1,2],[3]]","4","0","","","","","","7","","","","",""
"","","","","","single-stim-button","244","1600644","0.0-3.0-22.6-0.6","6102c81e911700cf7ba5f6bd","C3","batch3","tol_tohand","585","","","","","","","","","tol_peg_2","585","585","0","[[2,0,0],[3,0],[0]]","7","[[0,0,0],[1,2],[3]]","4","0","","","","","","7","","","","",""
"","","","","","single-stim-button","245","1601680","0.0-3.0-22.6-1.6","6102c81e911700cf7ba5f6bd","C3","batch3","tol_toboard","1036","","","","","","","","","tol_peg_1","1036","1036","0","[[2,1,0],[3,0],[0]]","7","[[0,0,0],[1,2],[3]]","4","0","","","","","","7","","","","",""
"","","","","","single-stim-button","246","1602403","0.0-3.0-22.7-0.7","6102c81e911700cf7ba5f6bd","C3","batch3","tol_tohand","722","","","","","","","","","tol_peg_2","722","722","0","[[2,1,0],[0,0],[0]]","8","[[0,0,0],[1,2],[3]]","4","0","","","","","","7","","","","",""
"","","","","","single-stim-button","247","1603347","0.0-3.0-22.7-1.7","6102c81e911700cf7ba5f6bd","C3","batch3","tol_toboard","943","","","","","","","","","tol_peg_3","943","943","0","[[2,1,0],[0,0],[3]]","8","[[0,0,0],[1,2],[3]]","4","0","","","","","","7","","","","",""
"","","","","","single-stim-button","248","1604124","0.0-3.0-22.8-0.8","6102c81e911700cf7ba5f6bd","C3","batch3","tol_tohand","775","","","","","","","","","tol_peg_1","775","775","0","[[2,0,0],[0,0],[3]]","9","[[0,0,0],[1,2],[3]]","4","0","","","","","","7","","","","",""
"","","","","","single-stim-button","249","1604700","0.0-3.0-22.8-1.8","6102c81e911700cf7ba5f6bd","C3","batch3","tol_toboard","576","","","","","","","","","tol_peg_2","576","576","0","[[2,0,0],[1,0],[3]]","9","[[0,0,0],[1,2],[3]]","4","0","","","","","","7","","","","",""
"","","","","","single-stim-button","250","1605275","0.0-3.0-22.9-0.9","6102c81e911700cf7ba5f6bd","C3","batch3","tol_tohand","574","","","","","","","","","tol_peg_1","574","574","0","[[0,0,0],[1,0],[3]]","10","[[0,0,0],[1,2],[3]]","4","0","","","","","","7","","","","",""
"","","","","","single-stim-button","251","1605896","0.0-3.0-22.9-1.9","6102c81e911700cf7ba5f6bd","C3","batch3","tol_toboard","620","","","","","","","","","tol_peg_2","620","620","0","[[0,0,0],[1,2],[3]]","10","[[0,0,0],[1,2],[3]]","4","0","","","","","","7","","","","",""
"","","","","","poldrack-single-stim","252","1606911","0.0-3.0-23.0","6102c81e911700cf7ba5f6bd","C3","batch3","tol_feedback","-1","","","","","true","","","","","1000","1000","500","","","","","","-1","none","true","4823","23277","","","","","",""
"","","","","","html-button-response","253","1607676","0.0-3.0-24.0","6102c81e911700cf7ba5f6bd","C3","batch3","tol_trial_num","761.8000000007451","<div class = centerbox><p class = center-block-text>problem <strong>6</strong> out of 25 problems</p></div>","0","","","","","","","","","","","","","","","","","","","","","","","","","",""
"","","","","","single-stim-button","254","1619736","0.0-3.0-25.0-0.0","6102c81e911700cf7ba5f6bd","C3","batch3","tol_tohand","12058","","","","","","","","","tol_peg_2","12058","12058","0","[[0,0,0],[1,0],[3]]","1","[[1,0,0],[2,3],[0]]","5","0","","","","","","6","","","","",""
"","","","","","single-stim-button","255","1627876","0.0-3.0-25.0-1.0","6102c81e911700cf7ba5f6bd","C3","batch3","tol_toboard","8139","","","","","","","","","tol_peg_2","8139","8139","0","[[0,0,0],[1,2],[3]]","1","[[1,0,0],[2,3],[0]]","5","0","","","","","","6","","","","",""
"","","","","","single-stim-button","256","1628285","0.0-3.0-25.1-0.1","6102c81e911700cf7ba5f6bd","C3","batch3","tol_tohand","408","","","","","","","","","tol_peg_3","408","408","0","[[0,0,0],[1,2],[0]]","2","[[1,0,0],[2,3],[0]]","5","0","","","","","","6","","","","",""
"","","","","","single-stim-button","257","1629036","0.0-3.0-25.1-1.1","6102c81e911700cf7ba5f6bd","C3","batch3","tol_toboard","750","","","","","","","","","tol_peg_1","750","750","0","[[3,0,0],[1,2],[0]]","2","[[1,0,0],[2,3],[0]]","5","0","","","","","","6","","","","",""
"","","","","","single-stim-button","258","1629612","0.0-3.0-25.2-0.2","6102c81e911700cf7ba5f6bd","C3","batch3","tol_tohand","575","","","","","","","","","tol_peg_2","575","575","0","[[3,0,0],[1,0],[0]]","3","[[1,0,0],[2,3],[0]]","5","0","","","","","","6","","","","",""
"","","","","","single-stim-button","259","1630187","0.0-3.0-25.2-1.2","6102c81e911700cf7ba5f6bd","C3","batch3","tol_toboard","574","","","","","","","","","tol_peg_1","574","574","0","[[3,2,0],[1,0],[0]]","3","[[1,0,0],[2,3],[0]]","5","0","","","","","","6","","","","",""
"","","","","","single-stim-button","260","1630635","0.0-3.0-25.3-0.3","6102c81e911700cf7ba5f6bd","C3","batch3","tol_tohand","448","","","","","","","","","tol_peg_2","448","448","0","[[3,2,0],[0,0],[0]]","4","[[1,0,0],[2,3],[0]]","5","0","","","","","","6","","","","",""
"","","","","","single-stim-button","261","1634919","0.0-3.0-25.3-1.3","6102c81e911700cf7ba5f6bd","C3","batch3","tol_toboard","4280","","","","","","","","","tol_peg_2","4280","4280","0","[[3,2,0],[1,0],[0]]","4","[[1,0,0],[2,3],[0]]","5","0","","","","","","6","","","","",""
"","","","","","single-stim-button","262","1636588","0.0-3.0-25.4-0.4","6102c81e911700cf7ba5f6bd","C3","batch3","tol_tohand","1667","","","","","","","","","tol_peg_2","1667","1667","0","[[3,2,0],[0,0],[0]]","5","[[1,0,0],[2,3],[0]]","5","0","","","","","","6","","","","",""
"","","","","","single-stim-button","263","1637387","0.0-3.0-25.4-1.4","6102c81e911700cf7ba5f6bd","C3","batch3","tol_toboard","798","","","","","","","","","tol_peg_3","798","798","0","[[3,2,0],[0,0],[1]]","5","[[1,0,0],[2,3],[0]]","5","0","","","","","","6","","","","",""
"","","","","","single-stim-button","264","1638004","0.0-3.0-25.5-0.5","6102c81e911700cf7ba5f6bd","C3","batch3","tol_tohand","617","","","","","","","","","tol_peg_1","617","617","0","[[3,0,0],[0,0],[1]]","6","[[1,0,0],[2,3],[0]]","5","0","","","","","","6","","","","",""
"","","","","","single-stim-button","265","1638675","0.0-3.0-25.5-1.5","6102c81e911700cf7ba5f6bd","C3","batch3","tol_toboard","670","","","","","","","","","tol_peg_2","670","670","0","[[3,0,0],[2,0],[1]]","6","[[1,0,0],[2,3],[0]]","5","0","","","","","","6","","","","",""
"","","","","","single-stim-button","266","1639227","0.0-3.0-25.6-0.6","6102c81e911700cf7ba5f6bd","C3","batch3","tol_tohand","552","","","","","","","","","tol_peg_1","552","552","0","[[0,0,0],[2,0],[1]]","7","[[1,0,0],[2,3],[0]]","5","0","","","","","","6","","","","",""
"","","","","","single-stim-button","267","1640997","0.0-3.0-25.6-1.6","6102c81e911700cf7ba5f6bd","C3","batch3","tol_toboard","1769","","","","","","","","","tol_peg_2","1769","1769","0","[[0,0,0],[2,3],[1]]","7","[[1,0,0],[2,3],[0]]","5","0","","","","","","6","","","","",""
"","","","","","single-stim-button","268","1643172","0.0-3.0-25.7-0.7","6102c81e911700cf7ba5f6bd","C3","batch3","tol_tohand","2174","","","","","","","","","tol_peg_3","2174","2174","0","[[0,0,0],[2,3],[0]]","8","[[1,0,0],[2,3],[0]]","5","0","","","","","","6","","","","",""
"","","","","","single-stim-button","269","1644836","0.0-3.0-25.7-1.7","6102c81e911700cf7ba5f6bd","C3","batch3","tol_toboard","1663","","","","","","","","","tol_peg_1","1663","1663","0","[[1,0,0],[2,3],[0]]","8","[[1,0,0],[2,3],[0]]","5","0","","","","","","6","","","","",""
"","","","","","poldrack-single-stim","270","1645838","0.0-3.0-26.0","6102c81e911700cf7ba5f6bd","C3","batch3","tol_feedback","-1","","","","","true","","","","","1000","1000","500","","","","","","-1","none","true","12058","18499","","","","","",""
"","","","","","html-button-response","271","1649052","0.0-3.0-27.0","6102c81e911700cf7ba5f6bd","C3","batch3","tol_trial_num","3212.89999999851","<div class = centerbox><p class = center-block-text>problem <strong>7</strong> out of 25 problems</p></div>","0","","","","","","","","","","","","","","","","","","","","","","","","","",""
"","","","","","single-stim-button","272","1665244","0.0-3.0-28.0-0.0","6102c81e911700cf7ba5f6bd","C3","batch3","tol_tohand","16189","","","","","","","","","tol_peg_3","16189","16189","0","[[2,1,0],[0,0],[0]]","1","[[1,2,0],[3,0],[0]]","6","0","","","","","","5","","","","",""
"","","","","","single-stim-button","273","1665851","0.0-3.0-28.0-1.0","6102c81e911700cf7ba5f6bd","C3","batch3","tol_toboard","606","","","","","","","","","tol_peg_2","606","606","0","[[2,1,0],[3,0],[0]]","1","[[1,2,0],[3,0],[0]]","6","0","","","","","","5","","","","",""
"","","","","","single-stim-button","274","1667195","0.0-3.0-28.1-0.1","6102c81e911700cf7ba5f6bd","C3","batch3","tol_tohand","1343","","","","","","","","","tol_peg_1","1343","1343","0","[[2,0,0],[3,0],[0]]","2","[[1,2,0],[3,0],[0]]","6","0","","","","","","5","","","","",""
"","","","","","single-stim-button","275","1670580","0.0-3.0-28.1-1.1","6102c81e911700cf7ba5f6bd","C3","batch3","tol_toboard","3384","","","","","","","","","tol_peg_3","3384","3384","0","[[2,0,0],[3,0],[1]]","2","[[1,2,0],[3,0],[0]]","6","0","","","","","","5","","","","",""
"","","","","","single-stim-button","276","1671123","0.0-3.0-28.2-0.2","6102c81e911700cf7ba5f6bd","C3","batch3","tol_tohand","542","","","","","","","","","tol_peg_1","542","542","0","[[0,0,0],[3,0],[1]]","3","[[1,2,0],[3,0],[0]]","6","0","","","","","","5","","","","",""
"","","","","","single-stim-button","277","1672548","0.0-3.0-28.2-1.2","6102c81e911700cf7ba5f6bd","C3","batch3","tol_toboard","1424","","","","","","","","","tol_peg_2","1424","1424","0","[[0,0,0],[3,2],[1]]","3","[[1,2,0],[3,0],[0]]","6","0","","","","","","5","","","","",""
"","","","","","single-stim-button","278","1673139","0.0-3.0-28.3-0.3","6102c81e911700cf7ba5f6bd","C3","batch3","tol_tohand","590","","","","","","","","","tol_peg_3","590","590","0","[[0,0,0],[3,2],[0]]","4","[[1,2,0],[3,0],[0]]","6","0","","","","","","5","","","","",""
"","","","","","single-stim-button","279","1673668","0.0-3.0-28.3-1.3","6102c81e911700cf7ba5f6bd","C3","batch3","tol_toboard","529","","","","","","","","","tol_peg_1","529","529","0","[[1,0,0],[3,2],[0]]","4","[[1,2,0],[3,0],[0]]","6","0","","","","","","5","","","","",""
"","","","","","single-stim-button","280","1674083","0.0-3.0-28.4-0.4","6102c81e911700cf7ba5f6bd","C3","batch3","tol_tohand","415","","","","","","","","","tol_peg_2","415","415","0","[[1,0,0],[3,0],[0]]","5","[[1,2,0],[3,0],[0]]","6","0","","","","","","5","","","","",""
"","","","","","single-stim-button","281","1674635","0.0-3.0-28.4-1.4","6102c81e911700cf7ba5f6bd","C3","batch3","tol_toboard","550","","","","","","","","","tol_peg_1","550","550","0","[[1,2,0],[3,0],[0]]","5","[[1,2,0],[3,0],[0]]","6","0","","","","","","5","","","","",""
"","","","","","poldrack-single-stim","282","1675636","0.0-3.0-29.0","6102c81e911700cf7ba5f6bd","C3","batch3","tol_feedback","-1","","","","","true","","","","","1000","1000","500","","","","","","-1","none","true","16189","19079","","","","","",""
"","","","","","html-button-response","283","1676524","0.0-3.0-30.0","6102c81e911700cf7ba5f6bd","C3","batch3","tol_trial_num","887.3999999985099","<div class = centerbox><p class = center-block-text>problem <strong>8</strong> out of 25 problems</p></div>","0","","","","","","","","","","","","","","","","","","","","","","","","","",""
"","","","","","single-stim-button","284","1682323","0.0-3.0-31.0-0.0","6102c81e911700cf7ba5f6bd","C3","batch3","tol_tohand","5798","","","","","","","","","tol_peg_3","5798","5798","0","[[0,0,0],[2,3],[0]]","1","[[1,2,0],[3,0],[0]]","7","0","","","","","","4","","","","",""
"","","","","","single-stim-button","285","1682875","0.0-3.0-31.0-1.0","6102c81e911700cf7ba5f6bd","C3","batch3","tol_toboard","552","","","","","","","","","tol_peg_1","552","552","0","[[1,0,0],[2,3],[0]]","1","[[1,2,0],[3,0],[0]]","7","0","","","","","","4","","","","",""
"","","","","","single-stim-button","286","1683337","0.0-3.0-31.1-0.1","6102c81e911700cf7ba5f6bd","C3","batch3","tol_tohand","460","","","","","","","","","tol_peg_2","460","460","0","[[1,0,0],[2,0],[0]]","2","[[1,2,0],[3,0],[0]]","7","0","","","","","","4","","","","",""
"","","","","","single-stim-button","287","1683723","0.0-3.0-31.1-1.1","6102c81e911700cf7ba5f6bd","C3","batch3","tol_toboard","383","","","","","","","","","tol_peg_3","383","383","0","[[1,0,0],[2,0],[3]]","2","[[1,2,0],[3,0],[0]]","7","0","","","","","","4","","","","",""
"","","","","","single-stim-button","288","1684235","0.0-3.0-31.2-0.2","6102c81e911700cf7ba5f6bd","C3","batch3","tol_tohand","512","","","","","","","","","tol_peg_2","512","512","0","[[1,0,0],[0,0],[3]]","3","[[1,2,0],[3,0],[0]]","7","0","","","","","","4","","","","",""
"","","","","","single-stim-button","289","1684683","0.0-3.0-31.2-1.2","6102c81e911700cf7ba5f6bd","C3","batch3","tol_toboard","447","","","","","","","","","tol_peg_1","447","447","0","[[1,2,0],[0,0],[3]]","3","[[1,2,0],[3,0],[0]]","7","0","","","","","","4","","","","",""
"","","","","","single-stim-button","290","1685587","0.0-3.0-31.3-0.3","6102c81e911700cf7ba5f6bd","C3","batch3","tol_tohand","903","","","","","","","","","tol_peg_3","903","903","0","[[1,2,0],[0,0],[0]]","4","[[1,2,0],[3,0],[0]]","7","0","","","","","","4","","","","",""
"","","","","","single-stim-button","291","1686138","0.0-3.0-31.3-1.3","6102c81e911700cf7ba5f6bd","C3","batch3","tol_toboard","551","","","","","","","","","tol_peg_2","551","551","0","[[1,2,0],[3,0],[0]]","4","[[1,2,0],[3,0],[0]]","7","0","","","","","","4","","","","",""
"","","","","","poldrack-single-stim","292","1687148","0.0-3.0-32.0","6102c81e911700cf7ba5f6bd","C3","batch3","tol_feedback","-1","","","","","true","","","","","1000","1000","500","","","","","","-1","none","true","5798","7673","","","","","",""
"","","","","","html-button-response","293","1688052","0.0-3.0-33.0","6102c81e911700cf7ba5f6bd","C3","batch3","tol_trial_num","902.1999999992549","<div class = centerbox><p class = center-block-text>problem <strong>9</strong> out of 25 problems</p></div>","0","","","","","","","","","","","","","","","","","","","","","","","","","",""
"","","","","","single-stim-button","294","1707565","0.0-3.0-34.0-0.0","6102c81e911700cf7ba5f6bd","C3","batch3","tol_tohand","19513","","","","","","","","","tol_peg_3","19513","19513","0","[[3,2,0],[0,0],[0]]","1","[[2,1,0],[3,0],[0]]","8","0","","","","","","6","","","","",""
"","","","","","single-stim-button","295","1708107","0.0-3.0-34.0-1.0","6102c81e911700cf7ba5f6bd","C3","batch3","tol_toboard","542","","","","","","","","","tol_peg_2","542","542","0","[[3,2,0],[1,0],[0]]","1","[[2,1,0],[3,0],[0]]","8","0","","","","","","6","","","","",""
"","","","","","single-stim-button","296","1708597","0.0-3.0-34.1-0.1","6102c81e911700cf7ba5f6bd","C3","batch3","tol_tohand","488","","","","","","","","","tol_peg_1","488","488","0","[[3,0,0],[1,0],[0]]","2","[[2,1,0],[3,0],[0]]","8","0","","","","","","6","","","","",""
"","","","","","single-stim-button","297","1709021","0.0-3.0-34.1-1.1","6102c81e911700cf7ba5f6bd","C3","batch3","tol_toboard","423","","","","","","","","","tol_peg_2","423","423","0","[[3,0,0],[1,2],[0]]","2","[[2,1,0],[3,0],[0]]","8","0","","","","","","6","","","","",""
"","","","","","single-stim-button","298","1710075","0.0-3.0-34.2-0.2","6102c81e911700cf7ba5f6bd","C3","batch3","tol_tohand","1054","","","","","","","","","tol_peg_1","1054","1054","0","[[0,0,0],[1,2],[0]]","3","[[2,1,0],[3,0],[0]]","8","0","","","","","","6","","","","",""
"","","","","","single-stim-button","299","1710741","0.0-3.0-34.2-1.2","6102c81e911700cf7ba5f6bd","C3","batch3","tol_toboard","664","","","","","","","","","tol_peg_3","664","664","0","[[0,0,0],[1,2],[3]]","3","[[2,1,0],[3,0],[0]]","8","0","","","","","","6","","","","",""
"","","","","","single-stim-button","300","1711164","0.0-3.0-34.3-0.3","6102c81e911700cf7ba5f6bd","C3","batch3","tol_tohand","423","","","","","","","","","tol_peg_2","423","423","0","[[0,0,0],[1,0],[3]]","4","[[2,1,0],[3,0],[0]]","8","0","","","","","","6","","","","",""
"","","","","","single-stim-button","301","1711908","0.0-3.0-34.3-1.3","6102c81e911700cf7ba5f6bd","C3","batch3","tol_toboard","744","","","","","","","","","tol_peg_1","744","744","0","[[2,0,0],[1,0],[3]]","4","[[2,1,0],[3,0],[0]]","8","0","","","","","","6","","","","",""
"","","","","","single-stim-button","302","1712364","0.0-3.0-34.4-0.4","6102c81e911700cf7ba5f6bd","C3","batch3","tol_tohand","456","","","","","","","","","tol_peg_2","456","456","0","[[2,0,0],[0,0],[3]]","5","[[2,1,0],[3,0],[0]]","8","0","","","","","","6","","","","",""
"","","","","","single-stim-button","303","1712925","0.0-3.0-34.4-1.4","6102c81e911700cf7ba5f6bd","C3","batch3","tol_toboard","560","","","","","","","","","tol_peg_1","560","560","0","[[2,1,0],[0,0],[3]]","5","[[2,1,0],[3,0],[0]]","8","0","","","","","","6","","","","",""
"","","","","","single-stim-button","304","1713557","0.0-3.0-34.5-0.5","6102c81e911700cf7ba5f6bd","C3","batch3","tol_tohand","632","","","","","","","","","tol_peg_3","632","632","0","[[2,1,0],[0,0],[0]]","6","[[2,1,0],[3,0],[0]]","8","0","","","","","","6","","","","",""
"","","","","","single-stim-button","305","1714116","0.0-3.0-34.5-1.5","6102c81e911700cf7ba5f6bd","C3","batch3","tol_toboard","558","","","","","","","","","tol_peg_2","558","558","0","[[2,1,0],[3,0],[0]]","6","[[2,1,0],[3,0],[0]]","8","0","","","","","","6","","","","",""
"","","","","","poldrack-single-stim","306","1715120","0.0-3.0-35.0","6102c81e911700cf7ba5f6bd","C3","batch3","tol_feedback","-1","","","","","true","","","","","1000","1000","500","","","","","","-1","none","true","19513","22566","","","","","",""
"","","","","","html-button-response","307","1715859","0.0-3.0-36.0","6102c81e911700cf7ba5f6bd","C3","batch3","tol_trial_num","738.5","<div class = centerbox><p class = center-block-text>problem <strong>10</strong> out of 25 problems</p></div>","0","","","","","","","","","","","","","","","","","","","","","","","","","",""
"","","","","","single-stim-button","308","1726507","0.0-3.0-37.0-0.0","6102c81e911700cf7ba5f6bd","C3","batch3","tol_tohand","10647","","","","","","","","","tol_peg_2","10647","10647","0","[[3,0,0],[0,0],[2]]","1","[[3,0,0],[2,1],[0]]","9","0","","","","","","3","","","","",""
"","","","","","single-stim-button","309","1727317","0.0-3.0-37.0-1.0","6102c81e911700cf7ba5f6bd","C3","batch3","tol_toboard","809","","","","","","","","","tol_peg_1","809","809","0","[[3,1,0],[0,0],[2]]","1","[[3,0,0],[2,1],[0]]","9","0","","","","","","3","","","","",""
"","","","","","single-stim-button","310","1727918","0.0-3.0-37.1-0.1","6102c81e911700cf7ba5f6bd","C3","batch3","tol_tohand","591","","","","","","","","","tol_peg_3","591","591","0","[[3,1,0],[0,0],[0]]","2","[[3,0,0],[2,1],[0]]","9","0","","","","","","3","","","","",""
"","","","","","single-stim-button","311","1728606","0.0-3.0-37.1-1.1","6102c81e911700cf7ba5f6bd","C3","batch3","tol_toboard","688","","","","","","","","","tol_peg_2","688","688","0","[[3,1,0],[2,0],[0]]","2","[[3,0,0],[2,1],[0]]","9","0","","","","","","3","","","","",""
"","","","","","single-stim-button","312","1729216","0.0-3.0-37.2-0.2","6102c81e911700cf7ba5f6bd","C3","batch3","tol_tohand","609","","","","","","","","","tol_peg_1","609","609","0","[[3,0,0],[2,0],[0]]","3","[[3,0,0],[2,1],[0]]","9","0","","","","","","3","","","","",""
"","","","","","single-stim-button","313","1729821","0.0-3.0-37.2-1.2","6102c81e911700cf7ba5f6bd","C3","batch3","tol_toboard","603","","","","","","","","","tol_peg_2","603","603","0","[[3,0,0],[2,1],[0]]","3","[[3,0,0],[2,1],[0]]","9","0","","","","","","3","","","","",""
"","","","","","poldrack-single-stim","314","1730856","0.0-3.0-38.0","6102c81e911700cf7ba5f6bd","C3","batch3","tol_feedback","-1","","","","","true","","","","","1000","1000","500","","","","","","-1","none","true","10647","11847","","","","","",""
"","","","","","html-button-response","315","1731612","0.0-3.0-39.0","6102c81e911700cf7ba5f6bd","C3","batch3","tol_trial_num","755.8999999985099","<div class = centerbox><p class = center-block-text>problem <strong>11</strong> out of 25 problems</p></div>","0","","","","","","","","","","","","","","","","","","","","","","","","","",""
"","","","","","single-stim-button","316","1788908","0.0-3.0-40.0-0.0","6102c81e911700cf7ba5f6bd","C3","batch3","tol_tohand","57294","","","","","","","","","tol_peg_1","57294","57294","0","[[1,0,0],[3,0],[0]]","1","[[2,0,0],[1,3],[0]]","10","0","","","","","","6","","","","",""
"","","","","","single-stim-button","317","1789355","0.0-3.0-40.0-1.0","6102c81e911700cf7ba5f6bd","C3","batch3","tol_toboard","446","","","","","","","","","tol_peg_2","446","446","0","[[1,0,0],[3,2],[0]]","1","[[2,0,0],[1,3],[0]]","10","0","","","","","","6","","","","",""
"","","","","","single-stim-button","318","1789876","0.0-3.0-40.1-0.1","6102c81e911700cf7ba5f6bd","C3","batch3","tol_tohand","520","","","","","","","","","tol_peg_1","520","520","0","[[0,0,0],[3,2],[0]]","2","[[2,0,0],[1,3],[0]]","10","0","","","","","","6","","","","",""
"","","","","","single-stim-button","319","1790475","0.0-3.0-40.1-1.1","6102c81e911700cf7ba5f6bd","C3","batch3","tol_toboard","599","","","","","","","","","tol_peg_3","599","599","0","[[0,0,0],[3,2],[1]]","2","[[2,0,0],[1,3],[0]]","10","0","","","","","","6","","","","",""
"","","","","","single-stim-button","320","1790996","0.0-3.0-40.2-0.2","6102c81e911700cf7ba5f6bd","C3","batch3","tol_tohand","521","","","","","","","","","tol_peg_2","521","521","0","[[0,0,0],[3,0],[1]]","3","[[2,0,0],[1,3],[0]]","10","0","","","","","","6","","","","",""
"","","","","","single-stim-button","321","1791580","0.0-3.0-40.2-1.2","6102c81e911700cf7ba5f6bd","C3","batch3","tol_toboard","583","","","","","","","","","tol_peg_1","583","583","0","[[2,0,0],[3,0],[1]]","3","[[2,0,0],[1,3],[0]]","10","0","","","","","","6","","","","",""
"","","","","","single-stim-button","322","1793496","0.0-3.0-40.3-0.3","6102c81e911700cf7ba5f6bd","C3","batch3","tol_tohand","1915","","","","","","","","","tol_peg_2","1915","1915","0","[[2,0,0],[0,0],[1]]","4","[[2,0,0],[1,3],[0]]","10","0","","","","","","6","","","","",""
"","","","","","single-stim-button","323","1793883","0.0-3.0-40.3-1.3","6102c81e911700cf7ba5f6bd","C3","batch3","tol_toboard","385","","","","","","","","","tol_peg_1","385","385","0","[[2,3,0],[0,0],[1]]","4","[[2,0,0],[1,3],[0]]","10","0","","","","","","6","","","","",""
"","","","","","single-stim-button","324","1794431","0.0-3.0-40.4-0.4","6102c81e911700cf7ba5f6bd","C3","batch3","tol_tohand","547","","","","","","","","","tol_peg_3","547","547","0","[[2,3,0],[0,0],[0]]","5","[[2,0,0],[1,3],[0]]","10","0","","","","","","6","","","","",""
"","","","","","single-stim-button","325","1794916","0.0-3.0-40.4-1.4","6102c81e911700cf7ba5f6bd","C3","batch3","tol_toboard","483","","","","","","","","","tol_peg_2","483","483","0","[[2,3,0],[1,0],[0]]","5","[[2,0,0],[1,3],[0]]","10","0","","","","","","6","","","","",""
"","","","","","single-stim-button","326","1795290","0.0-3.0-40.5-0.5","6102c81e911700cf7ba5f6bd","C3","batch3","tol_tohand","373","","","","","","","","","tol_peg_1","373","373","0","[[2,0,0],[1,0],[0]]","6","[[2,0,0],[1,3],[0]]","10","0","","","","","","6","","","","",""
"","","","","","single-stim-button","327","1795644","0.0-3.0-40.5-1.5","6102c81e911700cf7ba5f6bd","C3","batch3","tol_toboard","353","","","","","","","","","tol_peg_2","353","353","0","[[2,0,0],[1,3],[0]]","6","[[2,0,0],[1,3],[0]]","10","0","","","","","","6","","","","",""
"","","","","","poldrack-single-stim","328","1796646","0.0-3.0-41.0","6102c81e911700cf7ba5f6bd","C3","batch3","tol_feedback","-1","","","","","true","","","","","1000","1000","500","","","","","","-1","none","true","57294","61170","","","","","",""
"","","","","","html-button-response","329","1797386","0.0-3.0-42.0","6102c81e911700cf7ba5f6bd","C3","batch3","tol_trial_num","739.6999999992549","<div class = centerbox><p class = center-block-text>problem <strong>12</strong> out of 25 problems</p></div>","0","","","","","","","","","","","","","","","","","","","","","","","","","",""
"","","","","","single-stim-button","330","1811660","0.0-3.0-43.0-0.0","6102c81e911700cf7ba5f6bd","C3","batch3","tol_tohand","14272","","","","","","","","","tol_peg_1","14272","14272","0","[[1,0,0],[3,0],[0]]","1","[[2,3,0],[0,0],[1]]","11","0","","","","","","4","","","","",""
"","","","","","single-stim-button","331","1812300","0.0-3.0-43.0-1.0","6102c81e911700cf7ba5f6bd","C3","batch3","tol_toboard","639","","","","","","","","","tol_peg_2","639","639","0","[[1,0,0],[3,2],[0]]","1","[[2,3,0],[0,0],[1]]","11","0","","","","","","4","","","","",""
"","","","","","single-stim-button","332","1813059","0.0-3.0-43.1-0.1","6102c81e911700cf7ba5f6bd","C3","batch3","tol_tohand","758","","","","","","","","","tol_peg_1","758","758","0","[[0,0,0],[3,2],[0]]","2","[[2,3,0],[0,0],[1]]","11","0","","","","","","4","","","","",""
"","","","","","single-stim-button","333","1814011","0.0-3.0-43.1-1.1","6102c81e911700cf7ba5f6bd","C3","batch3","tol_toboard","951","","","","","","","","","tol_peg_3","951","951","0","[[0,0,0],[3,2],[1]]","2","[[2,3,0],[0,0],[1]]","11","0","","","","","","4","","","","",""
"","","","","","single-stim-button","334","1814619","0.0-3.0-43.2-0.2","6102c81e911700cf7ba5f6bd","C3","batch3","tol_tohand","608","","","","","","","","","tol_peg_2","608","608","0","[[0,0,0],[3,0],[1]]","3","[[2,3,0],[0,0],[1]]","11","0","","","","","","4","","","","",""
"","","","","","single-stim-button","335","1815235","0.0-3.0-43.2-1.2","6102c81e911700cf7ba5f6bd","C3","batch3","tol_toboard","615","","","","","","","","","tol_peg_1","615","615","0","[[2,0,0],[3,0],[1]]","3","[[2,3,0],[0,0],[1]]","11","0","","","","","","4","","","","",""
"","","","","","single-stim-button","336","1815651","0.0-3.0-43.3-0.3","6102c81e911700cf7ba5f6bd","C3","batch3","tol_tohand","415","","","","","","","","","tol_peg_2","415","415","0","[[2,0,0],[0,0],[1]]","4","[[2,3,0],[0,0],[1]]","11","0","","","","","","4","","","","",""
"","","","","","single-stim-button","337","1816211","0.0-3.0-43.3-1.3","6102c81e911700cf7ba5f6bd","C3","batch3","tol_toboard","560","","","","","","","","","tol_peg_1","560","560","0","[[2,3,0],[0,0],[1]]","4","[[2,3,0],[0,0],[1]]","11","0","","","","","","4","","","","",""
"","","","","","poldrack-single-stim","338","1817212","0.0-3.0-44.0","6102c81e911700cf7ba5f6bd","C3","batch3","tol_feedback","-1","","","","","true","","","","","1000","1000","500","","","","","","-1","none","true","14272","16053","","","","","",""
"","","","","","html-button-response","339","1818027","0.0-3.0-45.0","6102c81e911700cf7ba5f6bd","C3","batch3","tol_trial_num","813.8999999985099","<div class = centerbox><p class = center-block-text>problem <strong>13</strong> out of 25 problems</p></div>","0","","","","","","","","","","","","","","","","","","","","","","","","","",""
"","","","","","single-stim-button","340","1829075","0.0-3.0-46.0-0.0","6102c81e911700cf7ba5f6bd","C3","batch3","tol_tohand","11047","","","","","","","","","tol_peg_1","11047","11047","0","[[1,0,0],[3,0],[0]]","1","[[0,0,0],[2,3],[1]]","12","0","","","","","","4","","","","",""
"","","","","","single-stim-button","341","1829683","0.0-3.0-46.0-1.0","6102c81e911700cf7ba5f6bd","C3","batch3","tol_toboard","607","","","","","","","","","tol_peg_2","607","607","0","[[1,0,0],[3,2],[0]]","1","[[0,0,0],[2,3],[1]]","12","0","","","","","","4","","","","",""
"","","","","","single-stim-button","342","1830275","0.0-3.0-46.1-0.1","6102c81e911700cf7ba5f6bd","C3","batch3","tol_tohand","591","","","","","","","","","tol_peg_1","591","591","0","[[0,0,0],[3,2],[0]]","2","[[0,0,0],[2,3],[1]]","12","0","","","","","","4","","","","",""
"","","","","","single-stim-button","343","1831011","0.0-3.0-46.1-1.1","6102c81e911700cf7ba5f6bd","C3","batch3","tol_toboard","736","","","","","","","","","tol_peg_3","736","736","0","[[0,0,0],[3,2],[1]]","2","[[0,0,0],[2,3],[1]]","12","0","","","","","","4","","","","",""
"","","","","","single-stim-button","344","1831580","0.0-3.0-46.2-0.2","6102c81e911700cf7ba5f6bd","C3","batch3","tol_tohand","568","","","","","","","","","tol_peg_2","568","568","0","[[0,0,0],[3,0],[1]]","3","[[0,0,0],[2,3],[1]]","12","0","","","","","","4","","","","",""
"","","","","","single-stim-button","345","1832588","0.0-3.0-46.2-1.2","6102c81e911700cf7ba5f6bd","C3","batch3","tol_toboard","1007","","","","","","","","","tol_peg_1","1007","1007","0","[[2,0,0],[3,0],[1]]","3","[[0,0,0],[2,3],[1]]","12","0","","","","","","4","","","","",""
"","","","","","single-stim-button","346","1838332","0.0-3.0-46.3-0.3","6102c81e911700cf7ba5f6bd","C3","batch3","tol_tohand","5743","","","","","","","","","tol_peg_3","5743","5743","0","[[2,0,0],[3,0],[0]]","4","[[0,0,0],[2,3],[1]]","12","0","","","","","","4","","","","",""
"","","","","","single-stim-button","347","1838803","0.0-3.0-46.3-1.3","6102c81e911700cf7ba5f6bd","C3","batch3","tol_toboard","471","","","","","","","","","tol_peg_2","471","471","0","[[2,0,0],[3,1],[0]]","4","[[0,0,0],[2,3],[1]]","12","0","","","","","","4","","","","",""
"","","","","","single-stim-button","348","1839300","0.0-3.0-46.4-0.4","6102c81e911700cf7ba5f6bd","C3","batch3","tol_tohand","496","","","","","","","","","tol_peg_1","496","496","0","[[0,0,0],[3,1],[0]]","5","[[0,0,0],[2,3],[1]]","12","0","","","","","","4","","","","",""
"","","","","","single-stim-button","349","1839788","0.0-3.0-46.4-1.4","6102c81e911700cf7ba5f6bd","C3","batch3","tol_toboard","488","","","","","","","","","tol_peg_3","488","488","0","[[0,0,0],[3,1],[2]]","5","[[0,0,0],[2,3],[1]]","12","0","","","","","","4","","","","",""
