"success","timeout","failed_images","failed_audio","failed_video","trial_type","trial_index","time_elapsed","internal_node_id","subject_id","study_id","session_id","view_history","rt","task","stimulus","response","correct","mouse_click","stim_duration","block_duration","timing_post_trial","current_position","tol_num_moves_made","tol_target","tol_problem_id","tol_rt","key_press","possible_responses","tol_correct","preplanning","tol_rt_per_trial","tol_min_moves","answer","item","fiar_detect_rt","fiar_detect_correct","total_correct_fiar_detect","post_trial_gap","choices","spm_correct","spm_rt"
"true","false","[]","[]","[]","preload","0","1331","0.0-0.0","6103633e0fd9cc6d809eab4d","D2","batch4","","","","","","","","","","","","","","","","","","","","","","","","","","","","","",""
"true","","","","","fullscreen","1","13928","0.0-1.0-0.0","6103633e0fd9cc6d809eab4d","D2","batch4","","","","","","","","","","","","","","","","","","","","","","","","","","","","","",""
"true","","","","","fullscreen","2","16315","0.0-2.0-0.0","6103633e0fd9cc6d809eab4d","D2","batch4","","","","","","","","","","","","","","","","","","","","","","","","","","","","","",""
"","","","","","instructions","3","55118","0.0-2.0-1.0-0.0-0.0","6103633e0fd9cc6d809eab4d","D2","batch4","[{""page_index"":0,""viewing_time"":7664.299999982119},{""page_index"":1,""viewing_time"":5493.300000011921},{""page_index"":2,""viewing_time"":3640.4000000059605},{""page_index"":3,""viewing_time"":6847.899999976158},{""page_index"":4,""viewing_time"":4252.9000000059605},{""page_index"":5,""viewing_time"":7687.5},{""page_index"":6,""viewing_time"":3214.9000000059605}]","38801.79999998212","tol-instructions","","","","","","","","","","","","","","","","","","","","","","","","","","",""
"","","","","","html-button-response","4","56055","0.0-2.0-1.0-1.0-0.0","6103633e0fd9cc6d809eab4d","D2","batch4","","934.0999999940395","tol_enter_quiz","<p class=block-text> Let's answer a few questions <br>","0","","","","","","","","","","","","","","","","","","","","","","","","",""
"","","","","","html-button-response","5","65988","0.0-2.0-1.0-1.0-1.0","6103633e0fd9cc6d809eab4d","D2","batch4","","9931.40000000596","tol_quiz","<p class = block-text>True or False: You can only move the ball on top of a peg. <br></p>","0","true","","","","","","","","","","","","","","","","","","","","","","","",""
"","","","","","html-button-response","6","66945","0.0-2.0-1.0-1.0-2.0","6103633e0fd9cc6d809eab4d","D2","batch4","","954.0999999940395","tol_quiz_feedback","<p class = block-text>Correct! You can only move the ball on top of a peg.</p>","0","","","","","","","","","","","","","","","","","","","","","","","","",""
"","","","","","html-button-response","7","69109","0.0-2.0-1.0-1.0-3.0","6103633e0fd9cc6d809eab4d","D2","batch4","","2159.9000000059605","tol_quiz","<p class = block-text>True or False: You should try to match your board with the target board with fewest moves possible. <br></p>","0","true","","","","","","","","","","","","","","","","","","","","","","","",""
"","","","","","html-button-response","8","69682","0.0-2.0-1.0-1.0-4.0","6103633e0fd9cc6d809eab4d","D2","batch4","","571.2000000178814","tol_quiz_feedback","<p class = block-text>Correct! </p>","0","","","","","","","","","","","","","","","","","","","","","","","","",""
"","","","","","html-button-response","9","71164","0.0-2.0-2.0","6103633e0fd9cc6d809eab4d","D2","batch4","","1479.4000000059605","","<p class=block-text> Now that you've understood the game, let's practice a few easier examples before we start!<br> <br>","0","","","","","","","","","","","","","","","","","","","","","","","","",""
"","","","","","single-stim-button","10","72822","0.0-2.0-3.0-0.0","6103633e0fd9cc6d809eab4d","D2","batch4","","1655","tol_practice","","","","tol_peg_2","1655","1655","0","[[1,2,0],[0,0],[0]]","1","[[1,2,0],[0,0],[3]]","practice","1655","","","","","","","","","","","","","","",""
"","","","","","single-stim-button","11","73541","0.0-2.0-3.0-1.0","6103633e0fd9cc6d809eab4d","D2","batch4","","717","tol_practice","","","","tol_peg_3","717","717","0","[[1,2,0],[0,0],[3]]","1","[[1,2,0],[0,0],[3]]","practice","717","","","","","","","","","","","","","","",""
"","","","","","poldrack-single-stim","12","74550","0.0-2.0-4.0","6103633e0fd9cc6d809eab4d","D2","batch4","","-1","tol_feedback","","","true","","1000","1000","500","","","","","","-1","none","true","","0","","","","","","","","","",""
"","","","","","single-stim-button","13","77203","0.0-2.0-5.0-0.0","6103633e0fd9cc6d809eab4d","D2","batch4","","2651","tol_practice","","","","tol_peg_1","2651","2651","0","[[1,0,0],[3,0],[0]]","2","[[0,0,0],[3,1],[2]]","practice","2651","","","","","","","","","","","","","","",""
"","","","","","single-stim-button","14","77995","0.0-2.0-5.0-1.0","6103633e0fd9cc6d809eab4d","D2","batch4","","791","tol_practice","","","","tol_peg_3","791","791","0","[[1,0,0],[3,0],[2]]","2","[[0,0,0],[3,1],[2]]","practice","791","","","","","","","","","","","","","","",""
"","","","","","single-stim-button","15","78734","0.0-2.0-5.1-0.1","6103633e0fd9cc6d809eab4d","D2","batch4","","736","tol_practice","","","","tol_peg_1","736","736","0","[[0,0,0],[3,0],[2]]","3","[[0,0,0],[3,1],[2]]","practice","736","","","","","","","","","","","","","","",""
"","","","","","single-stim-button","16","79358","0.0-2.0-5.1-1.1","6103633e0fd9cc6d809eab4d","D2","batch4","","622","tol_practice","","","","tol_peg_2","622","622","0","[[0,0,0],[3,1],[2]]","3","[[0,0,0],[3,1],[2]]","practice","622","","","","","","","","","","","","","","",""
"","","","","","poldrack-single-stim","17","80373","0.0-2.0-6.0","6103633e0fd9cc6d809eab4d","D2","batch4","","-1","tol_feedback","","","true","","1000","1000","500","","","","","","-1","none","true","","0","","","","","","","","","",""
"","","","","","single-stim-button","18","86680","0.0-2.0-7.0-0.0","6103633e0fd9cc6d809eab4d","D2","batch4","","6307","tol_practice","","","","tol_peg_2","6307","6307","0","[[1,2,0],[0,0],[0]]","4","[[1,0,0],[2,0],[3]]","practice","6307","","","","","","","","","","","","","","",""
"","","","","","single-stim-button","19","87355","0.0-2.0-7.0-1.0","6103633e0fd9cc6d809eab4d","D2","batch4","","674","tol_practice","","","","tol_peg_3","674","674","0","[[1,2,0],[0,0],[3]]","4","[[1,0,0],[2,0],[3]]","practice","674","","","","","","","","","","","","","","",""
"","","","","","single-stim-button","20","88061","0.0-2.0-7.1-0.1","6103633e0fd9cc6d809eab4d","D2","batch4","","704","tol_practice","","","","tol_peg_1","704","704","0","[[1,0,0],[0,0],[3]]","5","[[1,0,0],[2,0],[3]]","practice","704","","","","","","","","","","","","","","",""
"","","","","","single-stim-button","21","88949","0.0-2.0-7.1-1.1","6103633e0fd9cc6d809eab4d","D2","batch4","","888","tol_practice","","","","tol_peg_2","888","888","0","[[1,0,0],[2,0],[3]]","5","[[1,0,0],[2,0],[3]]","practice","888","","","","","","","","","","","","","","",""
"","","","","","poldrack-single-stim","22","89956","0.0-2.0-8.0","6103633e0fd9cc6d809eab4d","D2","batch4","","-1","tol_feedback","","","true","","1000","1000","500","","","","","","-1","none","true","","0","","","","","","","","","",""
"","","","","","html-button-response","23","92842","0.0-2.0-9.0","6103633e0fd9cc6d809eab4d","D2","batch4","","2884.699999988079","tol_instruction","<div class = centerbox><p class = center-block-text>Great job! You are done with practice trials<br>You are about to start official trials.<br> <br> Problem <strong>1</strong> out of 25 problems</p></div>","0","","","","","","","","","","","","","","","","","","","","","","","","",""
"","","","","","single-stim-button","24","98413","0.0-2.0-10.0-0.0","6103633e0fd9cc6d809eab4d","D2","batch4","","4564","tol_tohand","","","","tol_peg_1","4564","4564","0","[[1,0,0],[3,0],[0]]","1","[[1,3,0],[2,0],[0]]","0","0","","","","","","3","","","","","","","","",""
"","","","","","single-stim-button","25","99205","0.0-2.0-10.0-1.0","6103633e0fd9cc6d809eab4d","D2","batch4","","790","tol_toboard","","","","tol_peg_3","790","790","0","[[1,0,0],[3,0],[2]]","1","[[1,3,0],[2,0],[0]]","0","0","","","","","","3","","","","","","","","",""
"","","","","","single-stim-button","26","99874","0.0-2.0-10.1-0.1","6103633e0fd9cc6d809eab4d","D2","batch4","","668","tol_tohand","","","","tol_peg_2","668","668","0","[[1,0,0],[0,0],[2]]","2","[[1,3,0],[2,0],[0]]","0","0","","","","","","3","","","","","","","","",""
"","","","","","single-stim-button","27","101027","0.0-2.0-10.1-1.1","6103633e0fd9cc6d809eab4d","D2","batch4","","1151","tol_toboard","","","","tol_peg_1","1151","1151","0","[[1,3,0],[0,0],[2]]","2","[[1,3,0],[2,0],[0]]","0","0","","","","","","3","","","","","","","","",""
"","","","","","single-stim-button","28","101688","0.0-2.0-10.2-0.2","6103633e0fd9cc6d809eab4d","D2","batch4","","661","tol_tohand","","","","tol_peg_3","661","661","0","[[1,3,0],[0,0],[0]]","3","[[1,3,0],[2,0],[0]]","0","0","","","","","","3","","","","","","","","",""
"","","","","","single-stim-button","29","102375","0.0-2.0-10.2-1.2","6103633e0fd9cc6d809eab4d","D2","batch4","","686","tol_toboard","","","","tol_peg_2","686","686","0","[[1,3,0],[2,0],[0]]","3","[[1,3,0],[2,0],[0]]","0","0","","","","","","3","","","","","","","","",""
"","","","","","poldrack-single-stim","30","103385","0.0-2.0-11.0","6103633e0fd9cc6d809eab4d","D2","batch4","","-1","tol_feedback","","","true","","1000","1000","500","","","","","","-1","none","true","4564","5893","","","","","","","","","",""
"","","","","","html-button-response","31","104410","0.0-2.0-12.0","6103633e0fd9cc6d809eab4d","D2","batch4","","1023.7000000178814","tol_trial_num","<div class = centerbox><p class = center-block-text>problem <strong>2</strong> out of 25 problems</p></div>","0","","","","","","","","","","","","","","","","","","","","","","","","",""
"","","","","","single-stim-button","32","108945","0.0-2.0-13.0-0.0","6103633e0fd9cc6d809eab4d","D2","batch4","","4532","tol_tohand","","","","tol_peg_1","4532","4532","0","[[1,0,0],[3,0],[0]]","1","[[2,1,3],[0,0],[0]]","1","0","","","","","","5","","","","","","","","",""
"","","","","","single-stim-button","33","109786","0.0-2.0-13.0-1.0","6103633e0fd9cc6d809eab4d","D2","batch4","","839","tol_toboard","","","","tol_peg_3","839","839","0","[[1,0,0],[3,0],[2]]","1","[[2,1,3],[0,0],[0]]","1","0","","","","","","5","","","","","","","","",""
"","","","","","single-stim-button","34","110817","0.0-2.0-13.1-0.1","6103633e0fd9cc6d809eab4d","D2","batch4","","1029","tol_tohand","","","","tol_peg_1","1029","1029","0","[[0,0,0],[3,0],[2]]","2","[[2,1,3],[0,0],[0]]","1","0","","","","","","5","","","","","","","","",""
"","","","","","single-stim-button","35","111705","0.0-2.0-13.1-1.1","6103633e0fd9cc6d809eab4d","D2","batch4","","888","tol_toboard","","","","tol_peg_2","888","888","0","[[0,0,0],[3,1],[2]]","2","[[2,1,3],[0,0],[0]]","1","0","","","","","","5","","","","","","","","",""
"","","","","","single-stim-button","36","112344","0.0-2.0-13.2-0.2","6103633e0fd9cc6d809eab4d","D2","batch4","","637","tol_tohand","","","","tol_peg_3","637","637","0","[[0,0,0],[3,1],[0]]","3","[[2,1,3],[0,0],[0]]","1","0","","","","","","5","","","","","","","","",""
"","","","","","single-stim-button","37","113215","0.0-2.0-13.2-1.2","6103633e0fd9cc6d809eab4d","D2","batch4","","870","tol_toboard","","","","tol_peg_1","870","870","0","[[2,0,0],[3,1],[0]]","3","[[2,1,3],[0,0],[0]]","1","0","","","","","","5","","","","","","","","",""
"","","","","","single-stim-button","38","114186","0.0-2.0-13.3-0.3","6103633e0fd9cc6d809eab4d","D2","batch4","","970","tol_tohand","","","","tol_peg_2","970","970","0","[[2,0,0],[3,0],[0]]","4","[[2,1,3],[0,0],[0]]","1","0","","","","","","5","","","","","","","","",""
"","","","","","single-stim-button","39","115091","0.0-2.0-13.3-1.3","6103633e0fd9cc6d809eab4d","D2","batch4","","904","tol_toboard","","","","tol_peg_1","904","904","0","[[2,1,0],[3,0],[0]]","4","[[2,1,3],[0,0],[0]]","1","0","","","","","","5","","","","","","","","",""
"","","","","","single-stim-button","40","115598","0.0-2.0-13.4-0.4","6103633e0fd9cc6d809eab4d","D2","batch4","","506","tol_tohand","","","","tol_peg_2","506","506","0","[[2,1,0],[0,0],[0]]","5","[[2,1,3],[0,0],[0]]","1","0","","","","","","5","","","","","","","","",""
"","","","","","single-stim-button","41","116235","0.0-2.0-13.4-1.4","6103633e0fd9cc6d809eab4d","D2","batch4","","636","tol_toboard","","","","tol_peg_1","636","636","0","[[2,1,3],[0,0],[0]]","5","[[2,1,3],[0,0],[0]]","1","0","","","","","","5","","","","","","","","",""
"","","","","","poldrack-single-stim","42","117245","0.0-2.0-14.0","6103633e0fd9cc6d809eab4d","D2","batch4","","-1","tol_feedback","","","true","","1000","1000","500","","","","","","-1","none","true","4532","7674","","","","","","","","","",""
"","","","","","html-button-response","43","118371","0.0-2.0-15.0","6103633e0fd9cc6d809eab4d","D2","batch4","","1124.2000000178814","tol_trial_num","<div class = centerbox><p class = center-block-text>problem <strong>3</strong> out of 25 problems</p></div>","0","","","","","","","","","","","","","","","","","","","","","","","","",""
"","","","","","single-stim-button","44","121194","0.0-2.0-16.0-0.0","6103633e0fd9cc6d809eab4d","D2","batch4","","2820","tol_tohand","","","","tol_peg_1","2820","2820","0","[[2,0,0],[0,0],[1]]","1","[[1,2,0],[3,0],[0]]","2","0","","","","","","4","","","","","","","","",""
"","","","","","single-stim-button","45","122449","0.0-2.0-16.0-1.0","6103633e0fd9cc6d809eab4d","D2","batch4","","1254","tol_toboard","","","","tol_peg_2","1254","1254","0","[[2,0,0],[3,0],[1]]","1","[[1,2,0],[3,0],[0]]","2","0","","","","","","4","","","","","","","","",""
"","","","","","single-stim-button","46","123041","0.0-2.0-16.1-0.1","6103633e0fd9cc6d809eab4d","D2","batch4","","591","tol_tohand","","","","tol_peg_1","591","591","0","[[0,0,0],[3,0],[1]]","2","[[1,2,0],[3,0],[0]]","2","0","","","","","","4","","","","","","","","",""
"","","","","","single-stim-button","47","123729","0.0-2.0-16.1-1.1","6103633e0fd9cc6d809eab4d","D2","batch4","","687","tol_toboard","","","","tol_peg_2","687","687","0","[[0,0,0],[3,2],[1]]","2","[[1,2,0],[3,0],[0]]","2","0","","","","","","4","","","","","","","","",""
"","","","","","single-stim-button","48","124317","0.0-2.0-16.2-0.2","6103633e0fd9cc6d809eab4d","D2","batch4","","586","tol_tohand","","","","tol_peg_3","586","586","0","[[0,0,0],[3,2],[0]]","3","[[1,2,0],[3,0],[0]]","2","0","","","","","","4","","","","","","","","",""
"","","","","","single-stim-button","49","124905","0.0-2.0-16.2-1.2","6103633e0fd9cc6d809eab4d","D2","batch4","","588","tol_toboard","","","","tol_peg_1","588","588","0","[[1,0,0],[3,2],[0]]","3","[[1,2,0],[3,0],[0]]","2","0","","","","","","4","","","","","","","","",""
"","","","","","single-stim-button","50","125476","0.0-2.0-16.3-0.3","6103633e0fd9cc6d809eab4d","D2","batch4","","570","tol_tohand","","","","tol_peg_2","570","570","0","[[1,0,0],[3,0],[0]]","4","[[1,2,0],[3,0],[0]]","2","0","","","","","","4","","","","","","","","",""
"","","","","","single-stim-button","51","125982","0.0-2.0-16.3-1.3","6103633e0fd9cc6d809eab4d","D2","batch4","","505","tol_toboard","","","","tol_peg_1","505","505","0","[[1,2,0],[3,0],[0]]","4","[[1,2,0],[3,0],[0]]","2","0","","","","","","4","","","","","","","","",""
"","","","","","poldrack-single-stim","52","126989","0.0-2.0-17.0","6103633e0fd9cc6d809eab4d","D2","batch4","","-1","tol_feedback","","","true","","1000","1000","500","","","","","","-1","none","true","2820","4567","","","","","","","","","",""
"","","","","","html-button-response","53","127986","0.0-2.0-18.0","6103633e0fd9cc6d809eab4d","D2","batch4","","995.9000000059605","tol_trial_num","<div class = centerbox><p class = center-block-text>problem <strong>4</strong> out of 25 problems</p></div>","0","","","","","","","","","","","","","","","","","","","","","","","","",""
"","","","","","single-stim-button","54","130771","0.0-2.0-19.0-0.0","6103633e0fd9cc6d809eab4d","D2","batch4","","2784","tol_tohand","","","","tol_peg_2","2784","2784","0","[[3,0,0],[2,0],[0]]","1","[[3,0,0],[1,0],[2]]","3","0","","","","","","3","","","","","","","","",""
"","","","","","single-stim-button","55","131415","0.0-2.0-19.0-1.0","6103633e0fd9cc6d809eab4d","D2","batch4","","643","tol_toboard","","","","tol_peg_1","643","643","0","[[3,1,0],[2,0],[0]]","1","[[3,0,0],[1,0],[2]]","3","0","","","","","","3","","","","","","","","",""
"","","","","","single-stim-button","56","131987","0.0-2.0-19.1-0.1","6103633e0fd9cc6d809eab4d","D2","batch4","","570","tol_tohand","","","","tol_peg_2","570","570","0","[[3,1,0],[0,0],[0]]","2","[[3,0,0],[1,0],[2]]","3","0","","","","","","3","","","","","","","","",""
"","","","","","single-stim-button","57","132576","0.0-2.0-19.1-1.1","6103633e0fd9cc6d809eab4d","D2","batch4","","589","tol_toboard","","","","tol_peg_3","589","589","0","[[3,1,0],[0,0],[2]]","2","[[3,0,0],[1,0],[2]]","3","0","","","","","","3","","","","","","","","",""
"","","","","","single-stim-button","58","133364","0.0-2.0-19.2-0.2","6103633e0fd9cc6d809eab4d","D2","batch4","","787","tol_tohand","","","","tol_peg_1","787","787","0","[[3,0,0],[0,0],[2]]","3","[[3,0,0],[1,0],[2]]","3","0","","","","","","3","","","","","","","","",""
"","","","","","single-stim-button","59","133802","0.0-2.0-19.2-1.2","6103633e0fd9cc6d809eab4d","D2","batch4","","437","tol_toboard","","","","tol_peg_2","437","437","0","[[3,0,0],[1,0],[2]]","3","[[3,0,0],[1,0],[2]]","3","0","","","","","","3","","","","","","","","",""
"","","","","","poldrack-single-stim","60","134805","0.0-2.0-20.0","6103633e0fd9cc6d809eab4d","D2","batch4","","-1","tol_feedback","","","true","","1000","1000","500","","","","","","-1","none","true","2784","4141","","","","","","","","","",""
"","","","","","html-button-response","61","135825","0.0-2.0-21.0","6103633e0fd9cc6d809eab4d","D2","batch4","","1018.0999999940395","tol_trial_num","<div class = centerbox><p class = center-block-text>problem <strong>5</strong> out of 25 problems</p></div>","0","","","","","","","","","","","","","","","","","","","","","","","","",""
"","","","","","single-stim-button","62","146482","0.0-2.0-22.0-0.0","6103633e0fd9cc6d809eab4d","D2","batch4","","10656","tol_tohand","","","","tol_peg_3","10656","10656","0","[[1,0,0],[2,0],[0]]","1","[[0,0,0],[1,2],[3]]","4","0","","","","","","7","","","","","","","","",""
"","","","","","single-stim-button","63","153957","0.0-2.0-22.0-1.0","6103633e0fd9cc6d809eab4d","D2","batch4","","7474","tol_toboard","","","","tol_peg_3","7474","7474","0","[[1,0,0],[2,0],[3]]","1","[[0,0,0],[1,2],[3]]","4","0","","","","","","7","","","","","","","","",""
"","","","","","single-stim-button","64","154509","0.0-2.0-22.1-0.1","6103633e0fd9cc6d809eab4d","D2","batch4","","550","tol_tohand","","","","tol_peg_1","550","550","0","[[0,0,0],[2,0],[3]]","2","[[0,0,0],[1,2],[3]]","4","0","","","","","","7","","","","","","","","",""
"","","","","","single-stim-button","65","155227","0.0-2.0-22.1-1.1","6103633e0fd9cc6d809eab4d","D2","batch4","","717","tol_toboard","","","","tol_peg_2","717","717","0","[[0,0,0],[2,1],[3]]","2","[[0,0,0],[1,2],[3]]","4","0","","","","","","7","","","","","","","","",""
"","","","","","single-stim-button","66","155714","0.0-2.0-22.2-0.2","6103633e0fd9cc6d809eab4d","D2","batch4","","486","tol_tohand","","","","tol_peg_3","486","486","0","[[0,0,0],[2,1],[0]]","3","[[0,0,0],[1,2],[3]]","4","0","","","","","","7","","","","","","","","",""
"","","","","","single-stim-button","67","156342","0.0-2.0-22.2-1.2","6103633e0fd9cc6d809eab4d","D2","batch4","","627","tol_toboard","","","","tol_peg_1","627","627","0","[[3,0,0],[2,1],[0]]","3","[[0,0,0],[1,2],[3]]","4","0","","","","","","7","","","","","","","","",""
"","","","","","single-stim-button","68","157548","0.0-2.0-22.3-0.3","6103633e0fd9cc6d809eab4d","D2","batch4","","1205","tol_tohand","","","","tol_peg_2","1205","1205","0","[[3,0,0],[2,0],[0]]","4","[[0,0,0],[1,2],[3]]","4","0","","","","","","7","","","","","","","","",""
"","","","","","single-stim-button","69","158112","0.0-2.0-22.3-1.3","6103633e0fd9cc6d809eab4d","D2","batch4","","563","tol_toboard","","","","tol_peg_3","563","563","0","[[3,0,0],[2,0],[1]]","4","[[0,0,0],[1,2],[3]]","4","0","","","","","","7","","","","","","","","",""
"","","","","","single-stim-button","70","158579","0.0-2.0-22.4-0.4","6103633e0fd9cc6d809eab4d","D2","batch4","","466","tol_tohand","","","","tol_peg_2","466","466","0","[[3,0,0],[0,0],[1]]","5","[[0,0,0],[1,2],[3]]","4","0","","","","","","7","","","","","","","","",""
"","","","","","single-stim-button","71","159118","0.0-2.0-22.4-1.4","6103633e0fd9cc6d809eab4d","D2","batch4","","537","tol_toboard","","","","tol_peg_1","537","537","0","[[3,2,0],[0,0],[1]]","5","[[0,0,0],[1,2],[3]]","4","0","","","","","","7","","","","","","","","",""
"","","","","","single-stim-button","72","159903","0.0-2.0-22.5-0.5","6103633e0fd9cc6d809eab4d","D2","batch4","","784","tol_tohand","","","","tol_peg_3","784","784","0","[[3,2,0],[0,0],[0]]","6","[[0,0,0],[1,2],[3]]","4","0","","","","","","7","","","","","","","","",""
"","","","","","single-stim-button","73","160393","0.0-2.0-22.5-1.5","6103633e0fd9cc6d809eab4d","D2","batch4","","490","tol_toboard","","","","tol_peg_2","490","490","0","[[3,2,0],[1,0],[0]]","6","[[0,0,0],[1,2],[3]]","4","0","","","","","","7","","","","","","","","",""
"","","","","","single-stim-button","74","160915","0.0-2.0-22.6-0.6","6103633e0fd9cc6d809eab4d","D2","batch4","","521","tol_tohand","","","","tol_peg_1","521","521","0","[[3,0,0],[1,0],[0]]","7","[[0,0,0],[1,2],[3]]","4","0","","","","","","7","","","","","","","","",""
"","","","","","single-stim-button","75","161837","0.0-2.0-22.6-1.6","6103633e0fd9cc6d809eab4d","D2","batch4","","920","tol_toboard","","","","tol_peg_2","920","920","0","[[3,0,0],[1,2],[0]]","7","[[0,0,0],[1,2],[3]]","4","0","","","","","","7","","","","","","","","",""
"","","","","","single-stim-button","76","162276","0.0-2.0-22.7-0.7","6103633e0fd9cc6d809eab4d","D2","batch4","","438","tol_tohand","","","","tol_peg_1","438","438","0","[[0,0,0],[1,2],[0]]","8","[[0,0,0],[1,2],[3]]","4","0","","","","","","7","","","","","","","","",""
"","","","","","single-stim-button","77","163131","0.0-2.0-22.7-1.7","6103633e0fd9cc6d809eab4d","D2","batch4","","854","tol_toboard","","","","tol_peg_3","854","854","0","[[0,0,0],[1,2],[3]]","8","[[0,0,0],[1,2],[3]]","4","0","","","","","","7","","","","","","","","",""
"","","","","","poldrack-single-stim","78","164139","0.0-2.0-23.0","6103633e0fd9cc6d809eab4d","D2","batch4","","-1","tol_feedback","","","true","","1000","1000","500","","","","","","-1","none","true","10656","15106","","","","","","","","","",""
"","","","","","html-button-response","79","165002","0.0-2.0-24.0","6103633e0fd9cc6d809eab4d","D2","batch4","","861.5","tol_trial_num","<div class = centerbox><p class = center-block-text>problem <strong>6</strong> out of 25 problems</p></div>","0","","","","","","","","","","","","","","","","","","","","","","","","",""
"","","","","","single-stim-button","80","179762","0.0-2.0-25.0-0.0","6103633e0fd9cc6d809eab4d","D2","batch4","","14758","tol_tohand","","","","tol_peg_2","14758","14758","0","[[0,0,0],[1,0],[3]]","1","[[1,0,0],[2,3],[0]]","5","0","","","","","","6","","","","","","","","",""
"","","","","","single-stim-button","81","181549","0.0-2.0-25.0-1.0","6103633e0fd9cc6d809eab4d","D2","batch4","","1787","tol_toboard","","","","tol_peg_1","1787","1787","0","[[2,0,0],[1,0],[3]]","1","[[1,0,0],[2,3],[0]]","5","0","","","","","","6","","","","","","","","",""
"","","","","","single-stim-button","82","182143","0.0-2.0-25.1-0.1","6103633e0fd9cc6d809eab4d","D2","batch4","","593","tol_tohand","","","","tol_peg_3","593","593","0","[[2,0,0],[1,0],[0]]","2","[[1,0,0],[2,3],[0]]","5","0","","","","","","6","","","","","","","","",""
"","","","","","single-stim-button","83","189717","0.0-2.0-25.1-1.1","6103633e0fd9cc6d809eab4d","D2","batch4","","7572","tol_toboard","","","","tol_peg_3","7572","7572","0","[[2,0,0],[1,0],[3]]","2","[[1,0,0],[2,3],[0]]","5","0","","","","","","6","","","","","","","","",""
"","","","","","single-stim-button","84","190381","0.0-2.0-25.2-0.2","6103633e0fd9cc6d809eab4d","D2","batch4","","663","tol_tohand","","","","tol_peg_2","663","663","0","[[2,0,0],[0,0],[3]]","3","[[1,0,0],[2,3],[0]]","5","0","","","","","","6","","","","","","","","",""
"","","","","","single-stim-button","85","191585","0.0-2.0-25.2-1.2","6103633e0fd9cc6d809eab4d","D2","batch4","","1202","tol_toboard","","","","tol_peg_1","1202","1202","0","[[2,1,0],[0,0],[3]]","3","[[1,0,0],[2,3],[0]]","5","0","","","","","","6","","","","","","","","",""
"","","","","","single-stim-button","86","192025","0.0-2.0-25.3-0.3","6103633e0fd9cc6d809eab4d","D2","batch4","","439","tol_tohand","","","","tol_peg_3","439","439","0","[[2,1,0],[0,0],[0]]","4","[[1,0,0],[2,3],[0]]","5","0","","","","","","6","","","","","","","","",""
"","","","","","single-stim-button","87","192379","0.0-2.0-25.3-1.3","6103633e0fd9cc6d809eab4d","D2","batch4","","354","tol_toboard","","","","tol_peg_2","354","354","0","[[2,1,0],[3,0],[0]]","4","[[1,0,0],[2,3],[0]]","5","0","","","","","","6","","","","","","","","",""
"","","","","","single-stim-button","88","195517","0.0-2.0-25.4-0.4","6103633e0fd9cc6d809eab4d","D2","batch4","","3137","tol_tohand","","","","tol_peg_1","3137","3137","0","[[2,0,0],[3,0],[0]]","5","[[1,0,0],[2,3],[0]]","5","0","","","","","","6","","","","","","","","",""
"","","","","","single-stim-button","89","196293","0.0-2.0-25.4-1.4","6103633e0fd9cc6d809eab4d","D2","batch4","","774","tol_toboard","","","","tol_peg_2","774","774","0","[[2,0,0],[3,1],[0]]","5","[[1,0,0],[2,3],[0]]","5","0","","","","","","6","","","","","","","","",""
"","","","","","single-stim-button","90","196848","0.0-2.0-25.5-0.5","6103633e0fd9cc6d809eab4d","D2","batch4","","554","tol_tohand","","","","tol_peg_1","554","554","0","[[0,0,0],[3,1],[0]]","6","[[1,0,0],[2,3],[0]]","5","0","","","","","","6","","","","","","","","",""
"","","","","","single-stim-button","91","197421","0.0-2.0-25.5-1.5","6103633e0fd9cc6d809eab4d","D2","batch4","","571","tol_toboard","","","","tol_peg_3","571","571","0","[[0,0,0],[3,1],[2]]","6","[[1,0,0],[2,3],[0]]","5","0","","","","","","6","","","","","","","","",""
"","","","","","single-stim-button","92","197842","0.0-2.0-25.6-0.6","6103633e0fd9cc6d809eab4d","D2","batch4","","421","tol_tohand","","","","tol_peg_2","421","421","0","[[0,0,0],[3,0],[2]]","7","[[1,0,0],[2,3],[0]]","5","0","","","","","","6","","","","","","","","",""
"","","","","","single-stim-button","93","198881","0.0-2.0-25.6-1.6","6103633e0fd9cc6d809eab4d","D2","batch4","","1038","tol_toboard","","","","tol_peg_1","1038","1038","0","[[1,0,0],[3,0],[2]]","7","[[1,0,0],[2,3],[0]]","5","0","","","","","","6","","","","","","","","",""
"","","","","","single-stim-button","94","199393","0.0-2.0-25.7-0.7","6103633e0fd9cc6d809eab4d","D2","batch4","","510","tol_tohand","","","","tol_peg_2","510","510","0","[[1,0,0],[0,0],[2]]","8","[[1,0,0],[2,3],[0]]","5","0","","","","","","6","","","","","","","","",""
"","","","","","single-stim-button","95","199964","0.0-2.0-25.7-1.7","6103633e0fd9cc6d809eab4d","D2","batch4","","570","tol_toboard","","","","tol_peg_1","570","570","0","[[1,3,0],[0,0],[2]]","8","[[1,0,0],[2,3],[0]]","5","0","","","","","","6","","","","","","","","",""
"","","","","","single-stim-button","96","200453","0.0-2.0-25.8-0.8","6103633e0fd9cc6d809eab4d","D2","batch4","","487","tol_tohand","","","","tol_peg_3","487","487","0","[[1,3,0],[0,0],[0]]","9","[[1,0,0],[2,3],[0]]","5","0","","","","","","6","","","","","","","","",""
"","","","","","single-stim-button","97","200888","0.0-2.0-25.8-1.8","6103633e0fd9cc6d809eab4d","D2","batch4","","435","tol_toboard","","","","tol_peg_2","435","435","0","[[1,3,0],[2,0],[0]]","9","[[1,0,0],[2,3],[0]]","5","0","","","","","","6","","","","","","","","",""
"","","","","","single-stim-button","98","201359","0.0-2.0-25.9-0.9","6103633e0fd9cc6d809eab4d","D2","batch4","","470","tol_tohand","","","","tol_peg_1","470","470","0","[[1,0,0],[2,0],[0]]","10","[[1,0,0],[2,3],[0]]","5","0","","","","","","6","","","","","","","","",""
"","","","","","single-stim-button","99","202214","0.0-2.0-25.9-1.9","6103633e0fd9cc6d809eab4d","D2","batch4","","854","tol_toboard","","","","tol_peg_2","854","854","0","[[1,0,0],[2,3],[0]]","10","[[1,0,0],[2,3],[0]]","5","0","","","","","","6","","","","","","","","",""
"","","","","","poldrack-single-stim","100","203222","0.0-2.0-26.0","6103633e0fd9cc6d809eab4d","D2","batch4","","-1","tol_feedback","","","true","","1000","1000","500","","","","","","-1","none","true","14758","22032","","","","","","","","","",""
"","","","","","html-button-response","101","204129","0.0-2.0-27.0","6103633e0fd9cc6d809eab4d","D2","batch4","","905.5999999940395","tol_trial_num","<div class = centerbox><p class = center-block-text>problem <strong>7</strong> out of 25 problems</p></div>","0","","","","","","","","","","","","","","","","","","","","","","","","",""
"","","","","","single-stim-button","102","206932","0.0-2.0-28.0-0.0","6103633e0fd9cc6d809eab4d","D2","batch4","","2801","tol_tohand","","","","tol_peg_3","2801","2801","0","[[2,1,0],[0,0],[0]]","1","[[1,2,0],[3,0],[0]]","6","0","","","","","","5","","","","","","","","",""
"","","","","","single-stim-button","103","207758","0.0-2.0-28.0-1.0","6103633e0fd9cc6d809eab4d","D2","batch4","","825","tol_toboard","","","","tol_peg_2","825","825","0","[[2,1,0],[3,0],[0]]","1","[[1,2,0],[3,0],[0]]","6","0","","","","","","5","","","","","","","","",""
"","","","","","single-stim-button","104","210929","0.0-2.0-28.1-0.1","6103633e0fd9cc6d809eab4d","D2","batch4","","3171","tol_tohand","","","","tol_peg_1","3171","3171","0","[[2,0,0],[3,0],[0]]","2","[[1,2,0],[3,0],[0]]","6","0","","","","","","5","","","","","","","","",""
"","","","","","single-stim-button","105","214119","0.0-2.0-28.1-1.1","6103633e0fd9cc6d809eab4d","D2","batch4","","3188","tol_toboard","","","","tol_peg_3","3188","3188","0","[[2,0,0],[3,0],[1]]","2","[[1,2,0],[3,0],[0]]","6","0","","","","","","5","","","","","","","","",""
"","","","","","single-stim-button","106","214813","0.0-2.0-28.2-0.2","6103633e0fd9cc6d809eab4d","D2","batch4","","694","tol_tohand","","","","tol_peg_1","694","694","0","[[0,0,0],[3,0],[1]]","3","[[1,2,0],[3,0],[0]]","6","0","","","","","","5","","","","","","","","",""
"","","","","","single-stim-button","107","215530","0.0-2.0-28.2-1.2","6103633e0fd9cc6d809eab4d","D2","batch4","","716","tol_toboard","","","","tol_peg_2","716","716","0","[[0,0,0],[3,2],[1]]","3","[[1,2,0],[3,0],[0]]","6","0","","","","","","5","","","","","","","","",""
"","","","","","single-stim-button","108","216117","0.0-2.0-28.3-0.3","6103633e0fd9cc6d809eab4d","D2","batch4","","586","tol_tohand","","","","tol_peg_3","586","586","0","[[0,0,0],[3,2],[0]]","4","[[1,2,0],[3,0],[0]]","6","0","","","","","","5","","","","","","","","",""
"","","","","","single-stim-button","109","216874","0.0-2.0-28.3-1.3","6103633e0fd9cc6d809eab4d","D2","batch4","","755","tol_toboard","","","","tol_peg_1","755","755","0","[[1,0,0],[3,2],[0]]","4","[[1,2,0],[3,0],[0]]","6","0","","","","","","5","","","","","","","","",""
"","","","","","single-stim-button","110","217379","0.0-2.0-28.4-0.4","6103633e0fd9cc6d809eab4d","D2","batch4","","505","tol_tohand","","","","tol_peg_2","505","505","0","[[1,0,0],[3,0],[0]]","5","[[1,2,0],[3,0],[0]]","6","0","","","","","","5","","","","","","","","",""
"","","","","","single-stim-button","111","217934","0.0-2.0-28.4-1.4","6103633e0fd9cc6d809eab4d","D2","batch4","","554","tol_toboard","","","","tol_peg_1","554","554","0","[[1,2,0],[3,0],[0]]","5","[[1,2,0],[3,0],[0]]","6","0","","","","","","5","","","","","","","","",""
"","","","","","poldrack-single-stim","112","218940","0.0-2.0-29.0","6103633e0fd9cc6d809eab4d","D2","batch4","","-1","tol_feedback","","","true","","1000","1000","500","","","","","","-1","none","true","2801","7757","","","","","","","","","",""
"","","","","","html-button-response","113","219582","0.0-2.0-30.0","6103633e0fd9cc6d809eab4d","D2","batch4","","641.0999999940395","tol_trial_num","<div class = centerbox><p class = center-block-text>problem <strong>8</strong> out of 25 problems</p></div>","0","","","","","","","","","","","","","","","","","","","","","","","","",""
"","","","","","single-stim-button","114","222761","0.0-2.0-31.0-0.0","6103633e0fd9cc6d809eab4d","D2","batch4","","3176","tol_tohand","","","","tol_peg_3","3176","3176","0","[[0,0,0],[2,3],[0]]","1","[[1,2,0],[3,0],[0]]","7","0","","","","","","4","","","","","","","","",""
"","","","","","single-stim-button","115","223446","0.0-2.0-31.0-1.0","6103633e0fd9cc6d809eab4d","D2","batch4","","684","tol_toboard","","","","tol_peg_1","684","684","0","[[1,0,0],[2,3],[0]]","1","[[1,2,0],[3,0],[0]]","7","0","","","","","","4","","","","","","","","",""
"","","","","","single-stim-button","116","224185","0.0-2.0-31.1-0.1","6103633e0fd9cc6d809eab4d","D2","batch4","","738","tol_tohand","","","","tol_peg_2","738","738","0","[[1,0,0],[2,0],[0]]","2","[[1,2,0],[3,0],[0]]","7","0","","","","","","4","","","","","","","","",""
"","","","","","single-stim-button","117","225822","0.0-2.0-31.1-1.1","6103633e0fd9cc6d809eab4d","D2","batch4","","1637","tol_toboard","","","","tol_peg_3","1637","1637","0","[[1,0,0],[2,0],[3]]","2","[[1,2,0],[3,0],[0]]","7","0","","","","","","4","","","","","","","","",""
"","","","","","single-stim-button","118","226198","0.0-2.0-31.2-0.2","6103633e0fd9cc6d809eab4d","D2","batch4","","375","tol_tohand","","","","tol_peg_2","375","375","0","[[1,0,0],[0,0],[3]]","3","[[1,2,0],[3,0],[0]]","7","0","","","","","","4","","","","","","","","",""
"","","","","","single-stim-button","119","226887","0.0-2.0-31.2-1.2","6103633e0fd9cc6d809eab4d","D2","batch4","","687","tol_toboard","","","","tol_peg_1","687","687","0","[[1,2,0],[0,0],[3]]","3","[[1,2,0],[3,0],[0]]","7","0","","","","","","4","","","","","","","","",""
"","","","","","single-stim-button","120","227426","0.0-2.0-31.3-0.3","6103633e0fd9cc6d809eab4d","D2","batch4","","537","tol_tohand","","","","tol_peg_3","537","537","0","[[1,2,0],[0,0],[0]]","4","[[1,2,0],[3,0],[0]]","7","0","","","","","","4","","","","","","","","",""
"","","","","","single-stim-button","121","227782","0.0-2.0-31.3-1.3","6103633e0fd9cc6d809eab4d","D2","batch4","","354","tol_toboard","","","","tol_peg_2","354","354","0","[[1,2,0],[3,0],[0]]","4","[[1,2,0],[3,0],[0]]","7","0","","","","","","4","","","","","","","","",""
"","","","","","poldrack-single-stim","122","228790","0.0-2.0-32.0","6103633e0fd9cc6d809eab4d","D2","batch4","","-1","tol_feedback","","","true","","1000","1000","500","","","","","","-1","none","true","3176","4826","","","","","","","","","",""
"","","","","","html-button-response","123","229840","0.0-2.0-33.0","6103633e0fd9cc6d809eab4d","D2","batch4","","1049","tol_trial_num","<div class = centerbox><p class = center-block-text>problem <strong>9</strong> out of 25 problems</p></div>","0","","","","","","","","","","","","","","","","","","","","","","","","",""
"","","","","","single-stim-button","124","236199","0.0-2.0-34.0-0.0","6103633e0fd9cc6d809eab4d","D2","batch4","","6357","tol_tohand","","","","tol_peg_1","6357","6357","0","[[3,0,0],[0,0],[1]]","1","[[2,1,0],[3,0],[0]]","8","0","","","","","","6","","","","","","","","",""
"","","","","","single-stim-button","125","236648","0.0-2.0-34.0-1.0","6103633e0fd9cc6d809eab4d","D2","batch4","","449","tol_toboard","","","","tol_peg_2","449","449","0","[[3,0,0],[2,0],[1]]","1","[[2,1,0],[3,0],[0]]","8","0","","","","","","6","","","","","","","","",""
"","","","","","single-stim-button","126","237054","0.0-2.0-34.1-0.1","6103633e0fd9cc6d809eab4d","D2","batch4","","405","tol_tohand","","","","tol_peg_3","405","405","0","[[3,0,0],[2,0],[0]]","2","[[2,1,0],[3,0],[0]]","8","0","","","","","","6","","","","","","","","",""
"","","","","","single-stim-button","127","237407","0.0-2.0-34.1-1.1","6103633e0fd9cc6d809eab4d","D2","batch4","","352","tol_toboard","","","","tol_peg_2","352","352","0","[[3,0,0],[2,1],[0]]","2","[[2,1,0],[3,0],[0]]","8","0","","","","","","6","","","","","","","","",""
"","","","","","single-stim-button","128","238679","0.0-2.0-34.2-0.2","6103633e0fd9cc6d809eab4d","D2","batch4","","1270","tol_tohand","","","","tol_peg_1","1270","1270","0","[[0,0,0],[2,1],[0]]","3","[[2,1,0],[3,0],[0]]","8","0","","","","","","6","","","","","","","","",""
"","","","","","single-stim-button","129","241433","0.0-2.0-34.2-1.2","6103633e0fd9cc6d809eab4d","D2","batch4","","2753","tol_toboard","","","","tol_peg_3","2753","2753","0","[[0,0,0],[2,1],[3]]","3","[[2,1,0],[3,0],[0]]","8","0","","","","","","6","","","","","","","","",""
"","","","","","single-stim-button","130","243423","0.0-2.0-34.3-0.3","6103633e0fd9cc6d809eab4d","D2","batch4","","1988","tol_tohand","","","","tol_peg_2","1988","1988","0","[[0,0,0],[2,0],[3]]","4","[[2,1,0],[3,0],[0]]","8","0","","","","","","6","","","","","","","","",""
"","","","","","single-stim-button","131","243869","0.0-2.0-34.3-1.3","6103633e0fd9cc6d809eab4d","D2","batch4","","445","tol_toboard","","","","tol_peg_1","445","445","0","[[1,0,0],[2,0],[3]]","4","[[2,1,0],[3,0],[0]]","8","0","","","","","","6","","","","","","","","",""
"","","","","","single-stim-button","132","244441","0.0-2.0-34.4-0.4","6103633e0fd9cc6d809eab4d","D2","batch4","","571","tol_tohand","","","","tol_peg_2","571","571","0","[[1,0,0],[0,0],[3]]","5","[[2,1,0],[3,0],[0]]","8","0","","","","","","6","","","","","","","","",""
"","","","","","single-stim-button","133","245297","0.0-2.0-34.4-1.4","6103633e0fd9cc6d809eab4d","D2","batch4","","855","tol_toboard","","","","tol_peg_1","855","855","0","[[1,2,0],[0,0],[3]]","5","[[2,1,0],[3,0],[0]]","8","0","","","","","","6","","","","","","","","",""
"","","","","","single-stim-button","134","245784","0.0-2.0-34.5-0.5","6103633e0fd9cc6d809eab4d","D2","batch4","","486","tol_tohand","","","","tol_peg_3","486","486","0","[[1,2,0],[0,0],[0]]","6","[[2,1,0],[3,0],[0]]","8","0","","","","","","6","","","","","","","","",""
"","","","","","single-stim-button","135","246189","0.0-2.0-34.5-1.5","6103633e0fd9cc6d809eab4d","D2","batch4","","404","tol_toboard","","","","tol_peg_2","404","404","0","[[1,2,0],[3,0],[0]]","6","[[2,1,0],[3,0],[0]]","8","0","","","","","","6","","","","","","","","",""
"","","","","","single-stim-button","136","246626","0.0-2.0-34.6-0.6","6103633e0fd9cc6d809eab4d","D2","batch4","","436","tol_tohand","","","","tol_peg_1","436","436","0","[[1,0,0],[3,0],[0]]","7","[[2,1,0],[3,0],[0]]","8","0","","","","","","6","","","","","","","","",""
"","","","","","single-stim-button","137","247146","0.0-2.0-34.6-1.6","6103633e0fd9cc6d809eab4d","D2","batch4","","519","tol_toboard","","","","tol_peg_3","519","519","0","[[1,0,0],[3,0],[2]]","7","[[2,1,0],[3,0],[0]]","8","0","","","","","","6","","","","","","","","",""
"","","","","","single-stim-button","138","247635","0.0-2.0-34.7-0.7","6103633e0fd9cc6d809eab4d","D2","batch4","","488","tol_tohand","","","","tol_peg_1","488","488","0","[[0,0,0],[3,0],[2]]","8","[[2,1,0],[3,0],[0]]","8","0","","","","","","6","","","","","","","","",""
"","","","","","single-stim-button","139","248074","0.0-2.0-34.7-1.7","6103633e0fd9cc6d809eab4d","D2","batch4","","438","tol_toboard","","","","tol_peg_2","438","438","0","[[0,0,0],[3,1],[2]]","8","[[2,1,0],[3,0],[0]]","8","0","","","","","","6","","","","","","","","",""
"","","","","","single-stim-button","140","248511","0.0-2.0-34.8-0.8","6103633e0fd9cc6d809eab4d","D2","batch4","","435","tol_tohand","","","","tol_peg_3","435","435","0","[[0,0,0],[3,1],[0]]","9","[[2,1,0],[3,0],[0]]","8","0","","","","","","6","","","","","","","","",""
"","","","","","single-stim-button","141","249175","0.0-2.0-34.8-1.8","6103633e0fd9cc6d809eab4d","D2","batch4","","664","tol_toboard","","","","tol_peg_1","664","664","0","[[2,0,0],[3,1],[0]]","9","[[2,1,0],[3,0],[0]]","8","0","","","","","","6","","","","","","","","",""
"","","","","","single-stim-button","142","249814","0.0-2.0-34.9-0.9","6103633e0fd9cc6d809eab4d","D2","batch4","","637","tol_tohand","","","","tol_peg_2","637","637","0","[[2,0,0],[3,0],[0]]","10","[[2,1,0],[3,0],[0]]","8","0","","","","","","6","","","","","","","","",""
"","","","","","single-stim-button","143","250937","0.0-2.0-34.9-1.9","6103633e0fd9cc6d809eab4d","D2","batch4","","1121","tol_toboard","","","","tol_peg_1","1121","1121","0","[[2,1,0],[3,0],[0]]","10","[[2,1,0],[3,0],[0]]","8","0","","","","","","6","","","","","","","","",""
"","","","","","poldrack-single-stim","144","251948","0.0-2.0-35.0","6103633e0fd9cc6d809eab4d","D2","batch4","","-1","tol_feedback","","","true","","1000","1000","500","","","","","","-1","none","true","6357","13073","","","","","","","","","",""
"","","","","","html-button-response","145","252930","0.0-2.0-36.0","6103633e0fd9cc6d809eab4d","D2","batch4","","980.5999999940395","tol_trial_num","<div class = centerbox><p class = center-block-text>problem <strong>10</strong> out of 25 problems</p></div>","0","","","","","","","","","","","","","","","","","","","","","","","","",""
"","","","","","single-stim-button","146","255636","0.0-2.0-37.0-0.0","6103633e0fd9cc6d809eab4d","D2","batch4","","2705","tol_tohand","","","","tol_peg_3","2705","2705","0","[[3,0,0],[1,0],[0]]","1","[[3,0,0],[2,1],[0]]","9","0","","","","","","3","","","","","","","","",""
"","","","","","single-stim-button","147","258725","0.0-2.0-37.0-1.0","6103633e0fd9cc6d809eab4d","D2","batch4","","3087","tol_toboard","","","","tol_peg_3","3087","3087","0","[[3,0,0],[1,0],[2]]","1","[[3,0,0],[2,1],[0]]","9","0","","","","","","3","","","","","","","","",""
"","","","","","single-stim-button","148","259198","0.0-2.0-37.1-0.1","6103633e0fd9cc6d809eab4d","D2","batch4","","473","tol_tohand","","","","tol_peg_2","473","473","0","[[3,0,0],[0,0],[2]]","2","[[3,0,0],[2,1],[0]]","9","0","","","","","","3","","","","","","","","",""
"","","","","","single-stim-button","149","259648","0.0-2.0-37.1-1.1","6103633e0fd9cc6d809eab4d","D2","batch4","","449","tol_toboard","","","","tol_peg_1","449","449","0","[[3,1,0],[0,0],[2]]","2","[[3,0,0],[2,1],[0]]","9","0","","","","","","3","","","","","","","","",""
"","","","","","single-stim-button","150","260588","0.0-2.0-37.2-0.2","6103633e0fd9cc6d809eab4d","D2","batch4","","938","tol_tohand","","","","tol_peg_3","938","938","0","[[3,1,0],[0,0],[0]]","3","[[3,0,0],[2,1],[0]]","9","0","","","","","","3","","","","","","","","",""
"","","","","","single-stim-button","151","261060","0.0-2.0-37.2-1.2","6103633e0fd9cc6d809eab4d","D2","batch4","","471","tol_toboard","","","","tol_peg_2","471","471","0","[[3,1,0],[2,0],[0]]","3","[[3,0,0],[2,1],[0]]","9","0","","","","","","3","","","","","","","","",""
"","","","","","single-stim-button","152","261550","0.0-2.0-37.3-0.3","6103633e0fd9cc6d809eab4d","D2","batch4","","489","tol_tohand","","","","tol_peg_1","489","489","0","[[3,0,0],[2,0],[0]]","4","[[3,0,0],[2,1],[0]]","9","0","","","","","","3","","","","","","","","",""
"","","","","","single-stim-button","153","261988","0.0-2.0-37.3-1.3","6103633e0fd9cc6d809eab4d","D2","batch4","","436","tol_toboard","","","","tol_peg_2","436","436","0","[[3,0,0],[2,1],[0]]","4","[[3,0,0],[2,1],[0]]","9","0","","","","","","3","","","","","","","","",""
"","","","","","poldrack-single-stim","154","262995","0.0-2.0-38.0","6103633e0fd9cc6d809eab4d","D2","batch4","","-1","tol_feedback","","","true","","1000","1000","500","","","","","","-1","none","true","2705","4605","","","","","","","","","",""
"","","","","","html-button-response","155","263675","0.0-2.0-39.0","6103633e0fd9cc6d809eab4d","D2","batch4","","677.6000000238419","tol_trial_num","<div class = centerbox><p class = center-block-text>problem <strong>11</strong> out of 25 problems</p></div>","0","","","","","","","","","","","","","","","","","","","","","","","","",""
"","","","","","single-stim-button","156","266257","0.0-2.0-40.0-0.0","6103633e0fd9cc6d809eab4d","D2","batch4","","2581","tol_tohand","","","","tol_peg_2","2581","2581","0","[[1,2,0],[0,0],[0]]","1","[[2,0,0],[1,3],[0]]","10","0","","","","","","6","","","","","","","","",""
"","","","","","single-stim-button","157","266697","0.0-2.0-40.0-1.0","6103633e0fd9cc6d809eab4d","D2","batch4","","438","tol_toboard","","","","tol_peg_3","438","438","0","[[1,2,0],[0,0],[3]]","1","[[2,0,0],[1,3],[0]]","10","0","","","","","","6","","","","","","","","",""
"","","","","","single-stim-button","158","268202","0.0-2.0-40.1-0.1","6103633e0fd9cc6d809eab4d","D2","batch4","","1503","tol_tohand","","","","tol_peg_1","1503","1503","0","[[1,0,0],[0,0],[3]]","2","[[2,0,0],[1,3],[0]]","10","0","","","","","","6","","","","","","","","",""
"","","","","","single-stim-button","159","272657","0.0-2.0-40.1-1.1","6103633e0fd9cc6d809eab4d","D2","batch4","","4453","tol_toboard","","","","tol_peg_2","4453","4453","0","[[1,0,0],[2,0],[3]]","2","[[2,0,0],[1,3],[0]]","10","0","","","","","","6","","","","","","","","",""
"","","","","","single-stim-button","160","273055","0.0-2.0-40.2-0.2","6103633e0fd9cc6d809eab4d","D2","batch4","","396","tol_tohand","","","","tol_peg_1","396","396","0","[[0,0,0],[2,0],[3]]","3","[[2,0,0],[1,3],[0]]","10","0","","","","","","6","","","","","","","","",""
"","","","","","single-stim-button","161","273424","0.0-2.0-40.2-1.2","6103633e0fd9cc6d809eab4d","D2","batch4","","369","tol_toboard","","","","tol_peg_2","369","369","0","[[0,0,0],[2,1],[3]]","3","[[2,0,0],[1,3],[0]]","10","0","","","","","","6","","","","","","","","",""
"","","","","","single-stim-button","162","273880","0.0-2.0-40.3-0.3","6103633e0fd9cc6d809eab4d","D2","batch4","","455","tol_tohand","","","","tol_peg_3","455","455","0","[[0,0,0],[2,1],[0]]","4","[[2,0,0],[1,3],[0]]","10","0","","","","","","6","","","","","","","","",""
"","","","","","single-stim-button","163","275485","0.0-2.0-40.3-1.3","6103633e0fd9cc6d809eab4d","D2","batch4","","1603","tol_toboard","","","","tol_peg_1","1603","1603","0","[[3,0,0],[2,1],[0]]","4","[[2,0,0],[1,3],[0]]","10","0","","","","","","6","","","","","","","","",""
"","","","","","single-stim-button","164","276062","0.0-2.0-40.4-0.4","6103633e0fd9cc6d809eab4d","D2","batch4","","575","tol_tohand","","","","tol_peg_2","575","575","0","[[3,0,0],[2,0],[0]]","5","[[2,0,0],[1,3],[0]]","10","0","","","","","","6","","","","","","","","",""
"","","","","","single-stim-button","165","279266","0.0-2.0-40.4-1.4","6103633e0fd9cc6d809eab4d","D2","batch4","","3204","tol_toboard","","","","tol_peg_1","3204","3204","0","[[3,1,0],[2,0],[0]]","5","[[2,0,0],[1,3],[0]]","10","0","","","","","","6","","","","","","","","",""
"","","","","","single-stim-button","166","279858","0.0-2.0-40.5-0.5","6103633e0fd9cc6d809eab4d","D2","batch4","","590","tol_tohand","","","","tol_peg_2","590","590","0","[[3,1,0],[0,0],[0]]","6","[[2,0,0],[1,3],[0]]","10","0","","","","","","6","","","","","","","","",""
"","","","","","single-stim-button","167","280364","0.0-2.0-40.5-1.5","6103633e0fd9cc6d809eab4d","D2","batch4","","504","tol_toboard","","","","tol_peg_3","504","504","0","[[3,1,0],[0,0],[2]]","6","[[2,0,0],[1,3],[0]]","10","0","","","","","","6","","","","","","","","",""
"","","","","","single-stim-button","168","280817","0.0-2.0-40.6-0.6","6103633e0fd9cc6d809eab4d","D2","batch4","","453","tol_tohand","","","","tol_peg_1","453","453","0","[[3,0,0],[0,0],[2]]","7","[[2,0,0],[1,3],[0]]","10","0","","","","","","6","","","","","","","","",""
"","","","","","single-stim-button","169","281670","0.0-2.0-40.6-1.6","6103633e0fd9cc6d809eab4d","D2","batch4","","852","tol_toboard","","","","tol_peg_2","852","852","0","[[3,0,0],[1,0],[2]]","7","[[2,0,0],[1,3],[0]]","10","0","","","","","","6","","","","","","","","",""
"","","","","","single-stim-button","170","282059","0.0-2.0-40.7-0.7","6103633e0fd9cc6d809eab4d","D2","batch4","","388","tol_tohand","","","","tol_peg_1","388","388","0","[[0,0,0],[1,0],[2]]","8","[[2,0,0],[1,3],[0]]","10","0","","","","","","6","","","","","","","","",""
"","","","","","single-stim-button","171","282429","0.0-2.0-40.7-1.7","6103633e0fd9cc6d809eab4d","D2","batch4","","368","tol_toboard","","","","tol_peg_2","368","368","0","[[0,0,0],[1,3],[2]]","8","[[2,0,0],[1,3],[0]]","10","0","","","","","","6","","","","","","","","",""
"","","","","","single-stim-button","172","282835","0.0-2.0-40.8-0.8","6103633e0fd9cc6d809eab4d","D2","batch4","","405","tol_tohand","","","","tol_peg_3","405","405","0","[[0,0,0],[1,3],[0]]","9","[[2,0,0],[1,3],[0]]","10","0","","","","","","6","","","","","","","","",""
"","","","","","single-stim-button","173","283441","0.0-2.0-40.8-1.8","6103633e0fd9cc6d809eab4d","D2","batch4","","606","tol_toboard","","","","tol_peg_1","606","606","0","[[2,0,0],[1,3],[0]]","9","[[2,0,0],[1,3],[0]]","10","0","","","","","","6","","","","","","","","",""
"","","","","","poldrack-single-stim","174","284450","0.0-2.0-41.0","6103633e0fd9cc6d809eab4d","D2","batch4","","-1","tol_feedback","","","true","","1000","1000","500","","","","","","-1","none","true","2581","7346","","","","","","","","","",""
"","","","","","html-button-response","175","285583","0.0-2.0-42.0","6103633e0fd9cc6d809eab4d","D2","batch4","","1131","tol_trial_num","<div class = centerbox><p class = center-block-text>problem <strong>12</strong> out of 25 problems</p></div>","0","","","","","","","","","","","","","","","","","","","","","","","","",""
"","","","","","single-stim-button","176","293836","0.0-2.0-43.0-0.0","6103633e0fd9cc6d809eab4d","D2","batch4","","8251","tol_tohand","","","","tol_peg_1","8251","8251","0","[[1,0,0],[3,0],[0]]","1","[[2,3,0],[0,0],[1]]","11","0","","","","","","4","","","","","","","","",""
"","","","","","single-stim-button","177","294286","0.0-2.0-43.0-1.0","6103633e0fd9cc6d809eab4d","D2","batch4","","449","tol_toboard","","","","tol_peg_3","449","449","0","[[1,0,0],[3,0],[2]]","1","[[2,3,0],[0,0],[1]]","11","0","","","","","","4","","","","","","","","",""
"","","","","","single-stim-button","178","294975","0.0-2.0-43.1-0.1","6103633e0fd9cc6d809eab4d","D2","batch4","","688","tol_tohand","","","","tol_peg_2","688","688","0","[[1,0,0],[0,0],[2]]","2","[[2,3,0],[0,0],[1]]","11","0","","","","","","4","","","","","","","","",""
"","","","","","single-stim-button","179","297063","0.0-2.0-43.1-1.1","6103633e0fd9cc6d809eab4d","D2","batch4","","2086","tol_toboard","","","","tol_peg_2","2086","2086","0","[[1,0,0],[3,0],[2]]","2","[[2,3,0],[0,0],[1]]","11","0","","","","","","4","","","","","","","","",""
"","","","","","single-stim-button","180","298255","0.0-2.0-43.2-0.2","6103633e0fd9cc6d809eab4d","D2","batch4","","1190","tol_tohand","","","","tol_peg_1","1190","1190","0","[[0,0,0],[3,0],[2]]","3","[[2,3,0],[0,0],[1]]","11","0","","","","","","4","","","","","","","","",""
"","","","","","single-stim-button","181","298974","0.0-2.0-43.2-1.2","6103633e0fd9cc6d809eab4d","D2","batch4","","718","tol_toboard","","","","tol_peg_2","718","718","0","[[0,0,0],[3,1],[2]]","3","[[2,3,0],[0,0],[1]]","11","0","","","","","","4","","","","","","","","",""
"","","","","","single-stim-button","182","299380","0.0-2.0-43.3-0.3","6103633e0fd9cc6d809eab4d","D2","batch4","","404","tol_tohand","","","","tol_peg_3","404","404","0","[[0,0,0],[3,1],[0]]","4","[[2,3,0],[0,0],[1]]","11","0","","","","","","4","","","","","","","","",""
"","","","","","single-stim-button","183","299835","0.0-2.0-43.3-1.3","6103633e0fd9cc6d809eab4d","D2","batch4","","454","tol_toboard","","","","tol_peg_1","454","454","0","[[2,0,0],[3,1],[0]]","4","[[2,3,0],[0,0],[1]]","11","0","","","","","","4","","","","","","","","",""
"","","","","","single-stim-button","184","300777","0.0-2.0-43.4-0.4","6103633e0fd9cc6d809eab4d","D2","batch4","","940","tol_tohand","","","","tol_peg_2","940","940","0","[[2,0,0],[3,0],[0]]","5","[[2,3,0],[0,0],[1]]","11","0","","","","","","4","","","","","","","","",""
"","","","","","single-stim-button","185","301264","0.0-2.0-43.4-1.4","6103633e0fd9cc6d809eab4d","D2","batch4","","485","tol_toboard","","","","tol_peg_3","485","485","0","[[2,0,0],[3,0],[1]]","5","[[2,3,0],[0,0],[1]]","11","0","","","","","","4","","","","","","","","",""
"","","","","","single-stim-button","186","301736","0.0-2.0-43.5-0.5","6103633e0fd9cc6d809eab4d","D2","batch4","","471","tol_tohand","","","","tol_peg_2","471","471","0","[[2,0,0],[0,0],[1]]","6","[[2,3,0],[0,0],[1]]","11","0","","","","","","4","","","","","","","","",""
"","","","","","single-stim-button","187","302242","0.0-2.0-43.5-1.5","6103633e0fd9cc6d809eab4d","D2","batch4","","504","tol_toboard","","","","tol_peg_1","504","504","0","[[2,3,0],[0,0],[1]]","6","[[2,3,0],[0,0],[1]]","11","0","","","","","","4","","","","","","","","",""
"","","","","","poldrack-single-stim","188","303247","0.0-2.0-44.0","6103633e0fd9cc6d809eab4d","D2","batch4","","-1","tol_feedback","","","true","","1000","1000","500","","","","","","-1","none","true","8251","11944","","","","","","","","","",""
"","","","","","html-button-response","189","303828","0.0-2.0-45.0","6103633e0fd9cc6d809eab4d","D2","batch4","","579.6999999880791","tol_trial_num","<div class = centerbox><p class = center-block-text>problem <strong>13</strong> out of 25 problems</p></div>","0","","","","","","","","","","","","","","","","","","","","","","","","",""
"","","","","","single-stim-button","190","312749","0.0-2.0-46.0-0.0","6103633e0fd9cc6d809eab4d","D2","batch4","","8920","tol_tohand","","","","tol_peg_1","8920","8920","0","[[1,0,0],[3,0],[0]]","1","[[0,0,0],[2,3],[1]]","12","0","","","","","","4","","","","","","","","",""
"","","","","","single-stim-button","191","313223","0.0-2.0-46.0-1.0","6103633e0fd9cc6d809eab4d","D2","batch4","","472","tol_toboard","","","","tol_peg_3","472","472","0","[[1,0,0],[3,0],[2]]","1","[[0,0,0],[2,3],[1]]","12","0","","","","","","4","","","","","","","","",""
"","","","","","single-stim-button","192","313659","0.0-2.0-46.1-0.1","6103633e0fd9cc6d809eab4d","D2","batch4","","435","tol_tohand","","","","tol_peg_1","435","435","0","[[0,0,0],[3,0],[2]]","2","[[0,0,0],[2,3],[1]]","12","0","","","","","","4","","","","","","","","",""
"","","","","","single-stim-button","193","314165","0.0-2.0-46.1-1.1","6103633e0fd9cc6d809eab4d","D2","batch4","","505","tol_toboard","","","","tol_peg_2","505","505","0","[[0,0,0],[3,1],[2]]","2","[[0,0,0],[2,3],[1]]","12","0","","","","","","4","","","","","","","","",""
"","","","","","single-stim-button","194","314670","0.0-2.0-46.2-0.2","6103633e0fd9cc6d809eab4d","D2","batch4","","505","tol_tohand","","","","tol_peg_3","505","505","0","[[0,0,0],[3,1],[0]]","3","[[0,0,0],[2,3],[1]]","12","0","","","","","","4","","","","","","","","",""
"","","","","","single-stim-button","195","315168","0.0-2.0-46.2-1.2","6103633e0fd9cc6d809eab4d","D2","batch4","","497","tol_toboard","","","","tol_peg_1","497","497","0","[[2,0,0],[3,1],[0]]","3","[[0,0,0],[2,3],[1]]","12","0","","","","","","4","","","","","","","","",""
"","","","","","single-stim-button","196","315691","0.0-2.0-46.3-0.3","6103633e0fd9cc6d809eab4d","D2","batch4","","521","tol_tohand","","","","tol_peg_2","521","521","0","[[2,0,0],[3,0],[0]]","4","[[0,0,0],[2,3],[1]]","12","0","","","","","","4","","","","","","","","",""
"","","","","","single-stim-button","197","316131","0.0-2.0-46.3-1.3","6103633e0fd9cc6d809eab4d","D2","batch4","","440","tol_toboard","","","","tol_peg_3","440","440","0","[[2,0,0],[3,0],[1]]","4","[[0,0,0],[2,3],[1]]","12","0","","","","","","4","","","","","","","","",""
"","","","","","single-stim-button","198","317051","0.0-2.0-46.4-0.4","6103633e0fd9cc6d809eab4d","D2","batch4","","918","tol_tohand","","","","tol_peg_2","918","918","0","[[2,0,0],[0,0],[1]]","5","[[0,0,0],[2,3],[1]]","12","0","","","","","","4","","","","","","","","",""
"","","","","","single-stim-button","199","319736","0.0-2.0-46.4-1.4","6103633e0fd9cc6d809eab4d","D2","batch4","","2683","tol_toboard","","","","tol_peg_2","2683","2683","0","[[2,0,0],[3,0],[1]]","5","[[0,0,0],[2,3],[1]]","12","0","","","","","","4","","","","","","","","",""
"","","","","","single-stim-button","200","320198","0.0-2.0-46.5-0.5","6103633e0fd9cc6d809eab4d","D2","batch4","","461","tol_tohand","","","","tol_peg_3","461","461","0","[[2,0,0],[3,0],[0]]","6","[[0,0,0],[2,3],[1]]","12","0","","","","","","4","","","","","","","","",""
"","","","","","single-stim-button","201","320722","0.0-2.0-46.5-1.5","6103633e0fd9cc6d809eab4d","D2","batch4","","523","tol_toboard","","","","tol_peg_2","523","523","0","[[2,0,0],[3,1],[0]]","6","[[0,0,0],[2,3],[1]]","12","0","","","","","","4","","","","","","","","",""
"","","","","","single-stim-button","202","322634","0.0-2.0-46.6-0.6","6103633e0fd9cc6d809eab4d","D2","batch4","","1911","tol_tohand","","","","tol_peg_1","1911","1911","0","[[0,0,0],[3,1],[0]]","7","[[0,0,0],[2,3],[1]]","12","0","","","","","","4","","","","","","","","",""
"","","","","","single-stim-button","203","323706","0.0-2.0-46.6-1.6","6103633e0fd9cc6d809eab4d","D2","batch4","","1070","tol_toboard","","","","tol_peg_3","1070","1070","0","[[0,0,0],[3,1],[2]]","7","[[0,0,0],[2,3],[1]]","12","0","","","","","","4","","","","","","","","",""
"","","","","","single-stim-button","204","324114","0.0-2.0-46.7-0.7","6103633e0fd9cc6d809eab4d","D2","batch4","","407","tol_tohand","","","","tol_peg_2","407","407","0","[[0,0,0],[3,0],[2]]","8","[[0,0,0],[2,3],[1]]","12","0","","","","","","4","","","","","","","","",""
"","","","","","single-stim-button","205","324598","0.0-2.0-46.7-1.7","6103633e0fd9cc6d809eab4d","D2","batch4","","483","tol_toboard","","","","tol_peg_1","483","483","0","[[1,0,0],[3,0],[2]]","8","[[0,0,0],[2,3],[1]]","12","0","","","","","","4","","","","","","","","",""
"","","","","","single-stim-button","206","325103","0.0-2.0-46.8-0.8","6103633e0fd9cc6d809eab4d","D2","batch4","","504","tol_tohand","","","","tol_peg_2","504","504","0","[[1,0,0],[0,0],[2]]","9","[[0,0,0],[2,3],[1]]","12","0","","","","","","4","","","","","","","","",""
"","","","","","single-stim-button","207","326011","0.0-2.0-46.8-1.8","6103633e0fd9cc6d809eab4d","D2","batch4","","906","tol_toboard","","","","tol_peg_1","906","906","0","[[1,3,0],[0,0],[2]]","9","[[0,0,0],[2,3],[1]]","12","0","","","","","","4","","","","","","","","",""
"","","","","","single-stim-button","208","326533","0.0-2.0-46.9-0.9","6103633e0fd9cc6d809eab4d","D2","batch4","","520","tol_tohand","","","","tol_peg_3","520","520","0","[[1,3,0],[0,0],[0]]","10","[[0,0,0],[2,3],[1]]","12","0","","","","","","4","","","","","","","","",""
"","","","","","single-stim-button","209","327789","0.0-2.0-46.9-1.9","6103633e0fd9cc6d809eab4d","D2","batch4","","1255","tol_toboard","","","","tol_peg_2","1255","1255","0","[[1,3,0],[2,0],[0]]","10","[[0,0,0],[2,3],[1]]","12","0","","","","","","4","","","","","","","","",""
"","","","","","single-stim-button","210","328229","0.0-2.0-46.10-0.10","6103633e0fd9cc6d809eab4d","D2","batch4","","439","tol_tohand","","","","tol_peg_1","439","439","0","[[1,0,0],[2,0],[0]]","11","[[0,0,0],[2,3],[1]]","12","0","","","","","","4","","","","","","","","",""
"","","","","","single-stim-button","211","328647","0.0-2.0-46.10-1.10","6103633e0fd9cc6d809eab4d","D2","batch4","","417","tol_toboard","","","","tol_peg_2","417","417","0","[[1,0,0],[2,3],[0]]","11","[[0,0,0],[2,3],[1]]","12","0","","","","","","4","","","","","","","","",""
"","","","","","single-stim-button","212","329335","0.0-2.0-46.11-0.11","6103633e0fd9cc6d809eab4d","D2","batch4","","687","tol_tohand","","","","tol_peg_1","687","687","0","[[0,0,0],[2,3],[0]]","12","[[0,0,0],[2,3],[1]]","12","0","","","","","","4","","","","","","","","",""
"","","","","","single-stim-button","213","329908","0.0-2.0-46.11-1.11","6103633e0fd9cc6d809eab4d","D2","batch4","","572","tol_toboard","","","","tol_peg_3","572","572","0","[[0,0,0],[2,3],[1]]","12","[[0,0,0],[2,3],[1]]","12","0","","","","","","4","","","","","","","","",""
"","","","","","poldrack-single-stim","214","330914","0.0-2.0-47.0","6103633e0fd9cc6d809eab4d","D2","batch4","","-1","tol_feedback","","","true","","1000","1000","500","","","","","","-1","none","true","8920","16228","","","","","","","","","",""
"","","","","","html-button-response","215","333374","0.0-2.0-48.0","6103633e0fd9cc6d809eab4d","D2","batch4","","2458.5","attention_check","<p class = block-text>How many balls are in your board<br></p>","1","true","","","","","","","","","","","","","","","","","","","","","","","",""
"","","","","","html-button-response","216","334183","0.0-2.0-49.0","6103633e0fd9cc6d809eab4d","D2","batch4","","807.1000000238419","tol_trial_num","<div class = centerbox><p class = center-block-text>problem <strong>14</strong> out of 25 problems</p></div>","0","","","","","","","","","","","","","","","","","","","","","","","","",""
"","","","","","single-stim-button","217","338403","0.0-2.0-50.0-0.0","6103633e0fd9cc6d809eab4d","D2","batch4","","4219","tol_tohand","","","","tol_peg_1","4219","4219","0","[[2,0,0],[3,0],[0]]","1","[[1,2,0],[3,0],[0]]","13","0","","","","","","4","","","","","","","","",""
"","","","","","single-stim-button","218","339060","0.0-2.0-50.0-1.0","6103633e0fd9cc6d809eab4d","D2","batch4","","656","tol_toboard","","","","tol_peg_3","656","656","0","[[2,0,0],[3,0],[1]]","1","[[1,2,0],[3,0],[0]]","13","0","","","","","","4","","","","","","","","",""
"","","","","","single-stim-button","219","340499","0.0-2.0-50.1-0.1","6103633e0fd9cc6d809eab4d","D2","batch4","","1438","tol_tohand","","","","tol_peg_1","1438","1438","0","[[0,0,0],[3,0],[1]]","2","[[1,2,0],[3,0],[0]]","13","0","","","","","","4","","","","","","","","",""
"","","","","","single-stim-button","220","340922","0.0-2.0-50.1-1.1","6103633e0fd9cc6d809eab4d","D2","batch4","","421","tol_toboard","","","","tol_peg_2","421","421","0","[[0,0,0],[3,2],[1]]","2","[[1,2,0],[3,0],[0]]","13","0","","","","","","4","","","","","","","","",""
"","","","","","single-stim-button","221","341309","0.0-2.0-50.2-0.2","6103633e0fd9cc6d809eab4d","D2","batch4","","387","tol_tohand","","","","tol_peg_3","387","387","0","[[0,0,0],[3,2],[0]]","3","[[1,2,0],[3,0],[0]]","13","0","","","","","","4","","","","","","","","",""
"","","","","","single-stim-button","222","341780","0.0-2.0-50.2-1.2","6103633e0fd9cc6d809eab4d","D2","batch4","","469","tol_toboard","","","","tol_peg_1","469","469","0","[[1,0,0],[3,2],[0]]","3","[[1,2,0],[3,0],[0]]","13","0","","","","","","4","","","","","","","","",""
"","","","","","single-stim-button","223","342252","0.0-2.0-50.3-0.3","6103633e0fd9cc6d809eab4d","D2","batch4","","471","tol_tohand","","","","tol_peg_2","471","471","0","[[1,0,0],[3,0],[0]]","4","[[1,2,0],[3,0],[0]]","13","0","","","","","","4","","","","","","","","",""
"","","","","","single-stim-button","224","342709","0.0-2.0-50.3-1.3","6103633e0fd9cc6d809eab4d","D2","batch4","","454","tol_toboard","","","","tol_peg_1","454","454","0","[[1,2,0],[3,0],[0]]","4","[[1,2,0],[3,0],[0]]","13","0","","","","","","4","","","","","","","","",""
"","","","","","poldrack-single-stim","225","343715","0.0-2.0-51.0","6103633e0fd9cc6d809eab4d","D2","batch4","","-1","tol_feedback","","","true","","1000","1000","500","","","","","","-1","none","true","4219","6515","","","","","","","","","",""
"","","","","","html-button-response","226","345018","0.0-2.0-52.0","6103633e0fd9cc6d809eab4d","D2","batch4","","1301.5","tol_trial_num","<div class = centerbox><p class = center-block-text>problem <strong>15</strong> out of 25 problems</p></div>","0","","","","","","","","","","","","","","","","","","","","","","","","",""
"","","","","","single-stim-button","227","348023","0.0-2.0-53.0-0.0","6103633e0fd9cc6d809eab4d","D2","batch4","","3005","tol_tohand","","","","tol_peg_1","3005","3005","0","[[1,0,0],[3,0],[0]]","1","[[2,0,0],[3,0],[1]]","14","0","","","","","","3","","","","","","","","",""
"","","","","","single-stim-button","228","348709","0.0-2.0-53.0-1.0","6103633e0fd9cc6d809eab4d","D2","batch4","","685","tol_toboard","","","","tol_peg_2","685","685","0","[[1,0,0],[3,2],[0]]","1","[[2,0,0],[3,0],[1]]","14","0","","","","","","3","","","","","","","","",""
"","","","","","single-stim-button","229","349133","0.0-2.0-53.1-0.1","6103633e0fd9cc6d809eab4d","D2","batch4","","422","tol_tohand","","","","tol_peg_1","422","422","0","[[0,0,0],[3,2],[0]]","2","[[2,0,0],[3,0],[1]]","14","0","","","","","","3","","","","","","","","",""
"","","","","","single-stim-button","230","349632","0.0-2.0-53.1-1.1","6103633e0fd9cc6d809eab4d","D2","batch4","","498","tol_toboard","","","","tol_peg_3","498","498","0","[[0,0,0],[3,2],[1]]","2","[[2,0,0],[3,0],[1]]","14","0","","","","","","3","","","","","","","","",""
"","","","","","single-stim-button","231","350036","0.0-2.0-53.2-0.2","6103633e0fd9cc6d809eab4d","D2","batch4","","403","tol_tohand","","","","tol_peg_2","403","403","0","[[0,0,0],[3,0],[1]]","3","[[2,0,0],[3,0],[1]]","14","0","","","","","","3","","","","","","","","",""
"","","","","","single-stim-button","232","350490","0.0-2.0-53.2-1.2","6103633e0fd9cc6d809eab4d","D2","batch4","","453","tol_toboard","","","","tol_peg_1","453","453","0","[[2,0,0],[3,0],[1]]","3","[[2,0,0],[3,0],[1]]","14","0","","","","","","3","","","","","","","","",""
"","","","","","poldrack-single-stim","233","351503","0.0-2.0-54.0","6103633e0fd9cc6d809eab4d","D2","batch4","","-1","tol_feedback","","","true","","1000","1000","500","","","","","","-1","none","true","3005","3830","","","","","","","","","",""
"","","","","","html-button-response","234","352299","0.0-2.0-55.0","6103633e0fd9cc6d809eab4d","D2","batch4","","795.2999999821186","tol_trial_num","<div class = centerbox><p class = center-block-text>problem <strong>16</strong> out of 25 problems</p></div>","0","","","","","","","","","","","","","","","","","","","","","","","","",""
"","","","","","single-stim-button","235","360035","0.0-2.0-56.0-0.0","6103633e0fd9cc6d809eab4d","D2","batch4","","7734","tol_tohand","","","","tol_peg_3","7734","7734","0","[[0,0,0],[2,3],[0]]","1","[[2,3,0],[1,0],[0]]","15","0","","","","","","7","","","","","","","","",""
"","","","","","single-stim-button","236","361383","0.0-2.0-56.0-1.0","6103633e0fd9cc6d809eab4d","D2","batch4","","1346","tol_toboard","","","","tol_peg_1","1346","1346","0","[[1,0,0],[2,3],[0]]","1","[[2,3,0],[1,0],[0]]","15","0","","","","","","7","","","","","","","","",""
"","","","","","single-stim-button","237","361775","0.0-2.0-56.1-0.1","6103633e0fd9cc6d809eab4d","D2","batch4","","392","tol_tohand","","","","tol_peg_2","392","392","0","[[1,0,0],[2,0],[0]]","2","[[2,3,0],[1,0],[0]]","15","0","","","","","","7","","","","","","","","",""
"","","","","","single-stim-button","238","362198","0.0-2.0-56.1-1.1","6103633e0fd9cc6d809eab4d","D2","batch4","","422","tol_toboard","","","","tol_peg_1","422","422","0","[[1,3,0],[2,0],[0]]","2","[[2,3,0],[1,0],[0]]","15","0","","","","","","7","","","","","","","","",""
"","","","","","single-stim-button","239","362623","0.0-2.0-56.2-0.2","6103633e0fd9cc6d809eab4d","D2","batch4","","422","tol_tohand","","","","tol_peg_2","422","422","0","[[1,3,0],[0,0],[0]]","3","[[2,3,0],[1,0],[0]]","15","0","","","","","","7","","","","","","","","",""
"","","","","","single-stim-button","240","363043","0.0-2.0-56.2-1.2","6103633e0fd9cc6d809eab4d","D2","batch4","","419","tol_toboard","","","","tol_peg_3","419","419","0","[[1,3,0],[0,0],[2]]","3","[[2,3,0],[1,0],[0]]","15","0","","","","","","7","","","","","","","","",""
"","","","","","single-stim-button","241","363581","0.0-2.0-56.3-0.3","6103633e0fd9cc6d809eab4d","D2","batch4","","537","tol_tohand","","","","tol_peg_1","537","537","0","[[1,0,0],[0,0],[2]]","4","[[2,3,0],[1,0],[0]]","15","0","","","","","","7","","","","","","","","",""
"","","","","","single-stim-button","242","364871","0.0-2.0-56.3-1.3","6103633e0fd9cc6d809eab4d","D2","batch4","","1288","tol_toboard","","","","tol_peg_2","1288","1288","0","[[1,0,0],[3,0],[2]]","4","[[2,3,0],[1,0],[0]]","15","0","","","","","","7","","","","","","","","",""
"","","","","","single-stim-button","243","365226","0.0-2.0-56.4-0.4","6103633e0fd9cc6d809eab4d","D2","batch4","","354","tol_tohand","","","","tol_peg_1","354","354","0","[[0,0,0],[3,0],[2]]","5","[[2,3,0],[1,0],[0]]","15","0","","","","","","7","","","","","","","","",""
"","","","","","single-stim-button","244","365582","0.0-2.0-56.4-1.4","6103633e0fd9cc6d809eab4d","D2","batch4","","355","tol_toboard","","","","tol_peg_2","355","355","0","[[0,0,0],[3,1],[2]]","5","[[2,3,0],[1,0],[0]]","15","0","","","","","","7","","","","","","","","",""
"","","","","","single-stim-button","245","366002","0.0-2.0-56.5-0.5","6103633e0fd9cc6d809eab4d","D2","batch4","","419","tol_tohand","","","","tol_peg_3","419","419","0","[[0,0,0],[3,1],[0]]","6","[[2,3,0],[1,0],[0]]","15","0","","","","","","7","","","","","","","","",""
"","","","","","single-stim-button","246","366564","0.0-2.0-56.5-1.5","6103633e0fd9cc6d809eab4d","D2","batch4","","560","tol_toboard","","","","tol_peg_1","560","560","0","[[2,0,0],[3,1],[0]]","6","[[2,3,0],[1,0],[0]]","15","0","","","","","","7","","","","","","","","",""
"","","","","","single-stim-button","247","367103","0.0-2.0-56.6-0.6","6103633e0fd9cc6d809eab4d","D2","batch4","","538","tol_tohand","","","","tol_peg_2","538","538","0","[[2,0,0],[3,0],[0]]","7","[[2,3,0],[1,0],[0]]","15","0","","","","","","7","","","","","","","","",""
"","","","","","single-stim-button","248","367710","0.0-2.0-56.6-1.6","6103633e0fd9cc6d809eab4d","D2","batch4","","605","tol_toboard","","","","tol_peg_3","605","605","0","[[2,0,0],[3,0],[1]]","7","[[2,3,0],[1,0],[0]]","15","0","","","","","","7","","","","","","","","",""
"","","","","","single-stim-button","249","368130","0.0-2.0-56.7-0.7","6103633e0fd9cc6d809eab4d","D2","batch4","","419","tol_tohand","","","","tol_peg_2","419","419","0","[[2,0,0],[0,0],[1]]","8","[[2,3,0],[1,0],[0]]","15","0","","","","","","7","","","","","","","","",""
"","","","","","single-stim-button","250","368572","0.0-2.0-56.7-1.7","6103633e0fd9cc6d809eab4d","D2","batch4","","441","tol_toboard","","","","tol_peg_1","441","441","0","[[2,3,0],[0,0],[1]]","8","[[2,3,0],[1,0],[0]]","15","0","","","","","","7","","","","","","","","",""
"","","","","","single-stim-button","251","370408","0.0-2.0-56.8-0.8","6103633e0fd9cc6d809eab4d","D2","batch4","","1834","tol_tohand","","","","tol_peg_3","1834","1834","0","[[2,3,0],[0,0],[0]]","9","[[2,3,0],[1,0],[0]]","15","0","","","","","","7","","","","","","","","",""
"","","","","","single-stim-button","252","370747","0.0-2.0-56.8-1.8","6103633e0fd9cc6d809eab4d","D2","batch4","","337","tol_toboard","","","","tol_peg_2","337","337","0","[[2,3,0],[1,0],[0]]","9","[[2,3,0],[1,0],[0]]","15","0","","","","","","7","","","","","","","","",""
"","","","","","poldrack-single-stim","253","371755","0.0-2.0-57.0","6103633e0fd9cc6d809eab4d","D2","batch4","","-1","tol_feedback","","","true","","1000","1000","500","","","","","","-1","none","true","7734","12649","","","","","","","","","",""
"","","","","","html-button-response","254","418624","0.0-2.0-58.0","6103633e0fd9cc6d809eab4d","D2","batch4","","46866.40000000596","tol_trial_num","<div class = centerbox><p class = center-block-text>problem <strong>17</strong> out of 25 problems</p></div>","0","","","","","","","","","","","","","","","","","","","","","","","","",""
"","","","","","single-stim-button","255","421908","0.0-2.0-59.0-0.0","6103633e0fd9cc6d809eab4d","D2","batch4","","3283","tol_tohand","","","","tol_peg_1","3283","3283","0","[[1,0,0],[3,0],[0]]","1","[[3,1,0],[2,0],[0]]","16","0","","","","","","5","","","","","","","","",""
"","","","","","single-stim-button","256","424596","0.0-2.0-59.0-1.0","6103633e0fd9cc6d809eab4d","D2","batch4","","2688","tol_toboard","","","","tol_peg_2","2688","2688","0","[[1,0,0],[3,2],[0]]","1","[[3,1,0],[2,0],[0]]","16","0","","","","","","5","","","","","","","","",""
"","","","","","single-stim-button","257","425020","0.0-2.0-59.1-0.1","6103633e0fd9cc6d809eab4d","D2","batch4","","423","tol_tohand","","","","tol_peg_1","423","423","0","[[0,0,0],[3,2],[0]]","2","[[3,1,0],[2,0],[0]]","16","0","","","","","","5","","","","","","","","",""
"","","","","","single-stim-button","258","429293","0.0-2.0-59.1-1.1","6103633e0fd9cc6d809eab4d","D2","batch4","","4271","tol_toboard","","","","tol_peg_1","4271","4271","0","[[1,0,0],[3,2],[0]]","2","[[3,1,0],[2,0],[0]]","16","0","","","","","","5","","","","","","","","",""
"","","","","","single-stim-button","259","429726","0.0-2.0-59.2-0.2","6103633e0fd9cc6d809eab4d","D2","batch4","","432","tol_tohand","","","","tol_peg_2","432","432","0","[[1,0,0],[3,0],[0]]","3","[[3,1,0],[2,0],[0]]","16","0","","","","","","5","","","","","","","","",""
"","","","","","single-stim-button","260","430127","0.0-2.0-59.2-1.2","6103633e0fd9cc6d809eab4d","D2","batch4","","400","tol_toboard","","","","tol_peg_3","400","400","0","[[1,0,0],[3,0],[2]]","3","[[3,1,0],[2,0],[0]]","16","0","","","","","","5","","","","","","","","",""
"","","","","","single-stim-button","261","433116","0.0-2.0-59.3-0.3","6103633e0fd9cc6d809eab4d","D2","batch4","","2987","tol_tohand","","","","tol_peg_1","2987","2987","0","[[0,0,0],[3,0],[2]]","4","[[3,1,0],[2,0],[0]]","16","0","","","","","","5","","","","","","","","",""
"","","","","","single-stim-button","262","433541","0.0-2.0-59.3-1.3","6103633e0fd9cc6d809eab4d","D2","batch4","","425","tol_toboard","","","","tol_peg_2","425","425","0","[[0,0,0],[3,1],[2]]","4","[[3,1,0],[2,0],[0]]","16","0","","","","","","5","","","","","","","","",""
"","","","","","single-stim-button","263","434630","0.0-2.0-59.4-0.4","6103633e0fd9cc6d809eab4d","D2","batch4","","1088","tol_tohand","","","","tol_peg_3","1088","1088","0","[[0,0,0],[3,1],[0]]","5","[[3,1,0],[2,0],[0]]","16","0","","","","","","5","","","","","","","","",""
"","","","","","single-stim-button","264","436019","0.0-2.0-59.4-1.4","6103633e0fd9cc6d809eab4d","D2","batch4","","1387","tol_toboard","","","","tol_peg_1","1387","1387","0","[[2,0,0],[3,1],[0]]","5","[[3,1,0],[2,0],[0]]","16","0","","","","","","5","","","","","","","","",""
"","","","","","single-stim-button","265","436489","0.0-2.0-59.5-0.5","6103633e0fd9cc6d809eab4d","D2","batch4","","469","tol_tohand","","","","tol_peg_2","469","469","0","[[2,0,0],[3,0],[0]]","6","[[3,1,0],[2,0],[0]]","16","0","","","","","","5","","","","","","","","",""
"","","","","","single-stim-button","266","436890","0.0-2.0-59.5-1.5","6103633e0fd9cc6d809eab4d","D2","batch4","","399","tol_toboard","","","","tol_peg_3","399","399","0","[[2,0,0],[3,0],[1]]","6","[[3,1,0],[2,0],[0]]","16","0","","","","","","5","","","","","","","","",""
"","","","","","single-stim-button","267","441984","0.0-2.0-59.6-0.6","6103633e0fd9cc6d809eab4d","D2","batch4","","5094","tol_tohand","","","","tol_peg_2","5094","5094","0","[[2,0,0],[0,0],[1]]","7","[[3,1,0],[2,0],[0]]","16","0","","","","","","5","","","","","","","","",""
"","","","","","single-stim-button","268","442832","0.0-2.0-59.6-1.6","6103633e0fd9cc6d809eab4d","D2","batch4","","845","tol_toboard","","","","tol_peg_1","845","845","0","[[2,3,0],[0,0],[1]]","7","[[3,1,0],[2,0],[0]]","16","0","","","","","","5","","","","","","","","",""
"","","","","","single-stim-button","269","444006","0.0-2.0-59.7-0.7","6103633e0fd9cc6d809eab4d","D2","batch4","","1173","tol_tohand","","","","tol_peg_3","1173","1173","0","[[2,3,0],[0,0],[0]]","8","[[3,1,0],[2,0],[0]]","16","0","","","","","","5","","","","","","","","",""
"","","","","","single-stim-button","270","444465","0.0-2.0-59.7-1.7","6103633e0fd9cc6d809eab4d","D2","batch4","","457","tol_toboard","","","","tol_peg_2","457","457","0","[[2,3,0],[1,0],[0]]","8","[[3,1,0],[2,0],[0]]","16","0","","","","","","5","","","","","","","","",""
"","","","","","single-stim-button","271","446004","0.0-2.0-59.8-0.8","6103633e0fd9cc6d809eab4d","D2","batch4","","1538","tol_tohand","","","","tol_peg_1","1538","1538","0","[[2,0,0],[1,0],[0]]","9","[[3,1,0],[2,0],[0]]","16","0","","","","","","5","","","","","","","","",""
"","","","","","single-stim-button","272","446529","0.0-2.0-59.8-1.8","6103633e0fd9cc6d809eab4d","D2","batch4","","525","tol_toboard","","","","tol_peg_2","525","525","0","[[2,0,0],[1,3],[0]]","9","[[3,1,0],[2,0],[0]]","16","0","","","","","","5","","","","","","","","",""
"","","","","","single-stim-button","273","447050","0.0-2.0-59.9-0.9","6103633e0fd9cc6d809eab4d","D2","batch4","","519","tol_tohand","","","","tol_peg_1","519","519","0","[[0,0,0],[1,3],[0]]","10","[[3,1,0],[2,0],[0]]","16","0","","","","","","5","","","","","","","","",""
"","","","","","single-stim-button","274","447789","0.0-2.0-59.9-1.9","6103633e0fd9cc6d809eab4d","D2","batch4","","738","tol_toboard","","","","tol_peg_3","738","738","0","[[0,0,0],[1,3],[2]]","10","[[3,1,0],[2,0],[0]]","16","0","","","","","","5","","","","","","","","",""
"","","","","","single-stim-button","275","448772","0.0-2.0-59.10-0.10","6103633e0fd9cc6d809eab4d","D2","batch4","","983","tol_tohand","","","","tol_peg_2","983","983","0","[[0,0,0],[1,0],[2]]","11","[[3,1,0],[2,0],[0]]","16","0","","","","","","5","","","","","","","","",""
"","","","","","single-stim-button","276","449244","0.0-2.0-59.10-1.10","6103633e0fd9cc6d809eab4d","D2","batch4","","471","tol_toboard","","","","tol_peg_1","471","471","0","[[3,0,0],[1,0],[2]]","11","[[3,1,0],[2,0],[0]]","16","0","","","","","","5","","","","","","","","",""
"","","","","","single-stim-button","277","449648","0.0-2.0-59.11-0.11","6103633e0fd9cc6d809eab4d","D2","batch4","","403","tol_tohand","","","","tol_peg_2","403","403","0","[[3,0,0],[0,0],[2]]","12","[[3,1,0],[2,0],[0]]","16","0","","","","","","5","","","","","","","","",""
"","","","","","single-stim-button","278","450038","0.0-2.0-59.11-1.11","6103633e0fd9cc6d809eab4d","D2","batch4","","388","tol_toboard","","","","tol_peg_1","388","388","0","[[3,1,0],[0,0],[2]]","12","[[3,1,0],[2,0],[0]]","16","0","","","","","","5","","","","","","","","",""
"","","","","","single-stim-button","279","450609","0.0-2.0-59.12-0.12","6103633e0fd9cc6d809eab4d","D2","batch4","","571","tol_tohand","","","","tol_peg_3","571","571","0","[[3,1,0],[0,0],[0]]","13","[[3,1,0],[2,0],[0]]","16","0","","","","","","5","","","","","","","","",""
"","","","","","single-stim-button","280","450994","0.0-2.0-59.12-1.12","6103633e0fd9cc6d809eab4d","D2","batch4","","383","tol_toboard","","","","tol_peg_2","383","383","0","[[3,1,0],[2,0],[0]]","13","[[3,1,0],[2,0],[0]]","16","0","","","","","","5","","","","","","","","",""
"","","","","","poldrack-single-stim","281","452008","0.0-2.0-60.0","6103633e0fd9cc6d809eab4d","D2","batch4","","-1","tol_feedback","","","true","","1000","1000","500","","","","","","-1","none","true","3283","18963","","","","","","","","","",""
"","","","","","html-button-response","282","452936","0.0-2.0-61.0","6103633e0fd9cc6d809eab4d","D2","batch4","","927.4000000059605","tol_trial_num","<div class = centerbox><p class = center-block-text>problem <strong>18</strong> out of 25 problems</p></div>","0","","","","","","","","","","","","","","","","","","","","","","","","",""
"","","","","","single-stim-button","283","455771","0.0-2.0-62.0-0.0","6103633e0fd9cc6d809eab4d","D2","batch4","","2832","tol_tohand","","","","tol_peg_1","2832","2832","0","[[1,0,0],[3,0],[0]]","1","[[3,0,0],[2,0],[1]]","17","0","","","","","","5","","","","","","","","",""
"","","","","","single-stim-button","284","464452","0.0-2.0-62.0-1.0","6103633e0fd9cc6d809eab4d","D2","batch4","","8679","tol_toboard","","","","tol_peg_1","8679","8679","0","[[1,2,0],[3,0],[0]]","1","[[3,0,0],[2,0],[1]]","17","0","","","","","","5","","","","","","","","",""
"","","","","","single-stim-button","285","464896","0.0-2.0-62.1-0.1","6103633e0fd9cc6d809eab4d","D2","batch4","","443","tol_tohand","","","","tol_peg_2","443","443","0","[[1,2,0],[0,0],[0]]","2","[[3,0,0],[2,0],[1]]","17","0","","","","","","5","","","","","","","","",""
"","","","","","single-stim-button","286","465547","0.0-2.0-62.1-1.1","6103633e0fd9cc6d809eab4d","D2","batch4","","649","tol_toboard","","","","tol_peg_3","649","649","0","[[1,2,0],[0,0],[3]]","2","[[3,0,0],[2,0],[1]]","17","0","","","","","","5","","","","","","","","",""
"","","","","","single-stim-button","287","466019","0.0-2.0-62.2-0.2","6103633e0fd9cc6d809eab4d","D2","batch4","","470","tol_tohand","","","","tol_peg_1","470","470","0","[[1,0,0],[0,0],[3]]","3","[[3,0,0],[2,0],[1]]","17","0","","","","","","5","","","","","","","","",""
"","","","","","single-stim-button","288","466508","0.0-2.0-62.2-1.2","6103633e0fd9cc6d809eab4d","D2","batch4","","488","tol_toboard","","","","tol_peg_2","488","488","0","[[1,0,0],[2,0],[3]]","3","[[3,0,0],[2,0],[1]]","17","0","","","","","","5","","","","","","","","",""
"","","","","","single-stim-button","289","466981","0.0-2.0-62.3-0.3","6103633e0fd9cc6d809eab4d","D2","batch4","","471","tol_tohand","","","","tol_peg_1","471","471","0","[[0,0,0],[2,0],[3]]","4","[[3,0,0],[2,0],[1]]","17","0","","","","","","5","","","","","","","","",""
"","","","","","single-stim-button","290","467434","0.0-2.0-62.3-1.3","6103633e0fd9cc6d809eab4d","D2","batch4","","452","tol_toboard","","","","tol_peg_2","452","452","0","[[0,0,0],[2,1],[3]]","4","[[3,0,0],[2,0],[1]]","17","0","","","","","","5","","","","","","","","",""
"","","","","","single-stim-button","291","467840","0.0-2.0-62.4-0.4","6103633e0fd9cc6d809eab4d","D2","batch4","","405","tol_tohand","","","","tol_peg_3","405","405","0","[[0,0,0],[2,1],[0]]","5","[[3,0,0],[2,0],[1]]","17","0","","","","","","5","","","","","","","","",""
"","","","","","single-stim-button","292","468296","0.0-2.0-62.4-1.4","6103633e0fd9cc6d809eab4d","D2","batch4","","455","tol_toboard","","","","tol_peg_1","455","455","0","[[3,0,0],[2,1],[0]]","5","[[3,0,0],[2,0],[1]]","17","0","","","","","","5","","","","","","","","",""
"","","","","","single-stim-button","293","468734","0.0-2.0-62.5-0.5","6103633e0fd9cc6d809eab4d","D2","batch4","","437","tol_tohand","","","","tol_peg_2","437","437","0","[[3,0,0],[2,0],[0]]","6","[[3,0,0],[2,0],[1]]","17","0","","","","","","5","","","","","","","","",""
"","","","","","single-stim-button","294","469189","0.0-2.0-62.5-1.5","6103633e0fd9cc6d809eab4d","D2","batch4","","453","tol_toboard","","","","tol_peg_3","453","453","0","[[3,0,0],[2,0],[1]]","6","[[3,0,0],[2,0],[1]]","17","0","","","","","","5","","","","","","","","",""
"","","","","","poldrack-single-stim","295","470196","0.0-2.0-63.0","6103633e0fd9cc6d809eab4d","D2","batch4","","-1","tol_feedback","","","true","","1000","1000","500","","","","","","-1","none","true","2832","5058","","","","","","","","","",""
"","","","","","html-button-response","296","471033","0.0-2.0-64.0","6103633e0fd9cc6d809eab4d","D2","batch4","","834.9000000059605","tol_trial_num","<div class = centerbox><p class = center-block-text>problem <strong>19</strong> out of 25 problems</p></div>","0","","","","","","","","","","","","","","","","","","","","","","","","",""
"","","","","","single-stim-button","297","473769","0.0-2.0-65.0-0.0","6103633e0fd9cc6d809eab4d","D2","batch4","","2732","tol_tohand","","","","tol_peg_2","2732","2732","0","[[1,2,0],[0,0],[0]]","1","[[0,0,0],[1,2],[3]]","18","0","","","","","","7","","","","","","","","",""
"","","","","","single-stim-button","298","474228","0.0-2.0-65.0-1.0","6103633e0fd9cc6d809eab4d","D2","batch4","","458","tol_toboard","","","","tol_peg_3","458","458","0","[[1,2,0],[0,0],[3]]","1","[[0,0,0],[1,2],[3]]","18","0","","","","","","7","","","","","","","","",""
"","","","","","single-stim-button","299","478983","0.0-2.0-65.1-0.1","6103633e0fd9cc6d809eab4d","D2","batch4","","4754","tol_tohand","","","","tol_peg_1","4754","4754","0","[[1,0,0],[0,0],[3]]","2","[[0,0,0],[1,2],[3]]","18","0","","","","","","7","","","","","","","","",""
"","","","","","single-stim-button","300","479493","0.0-2.0-65.1-1.1","6103633e0fd9cc6d809eab4d","D2","batch4","","508","tol_toboard","","","","tol_peg_2","508","508","0","[[1,0,0],[2,0],[3]]","2","[[0,0,0],[1,2],[3]]","18","0","","","","","","7","","","","","","","","",""
"","","","","","single-stim-button","301","480501","0.0-2.0-65.2-0.2","6103633e0fd9cc6d809eab4d","D2","batch4","","1007","tol_tohand","","","","tol_peg_3","1007","1007","0","[[1,0,0],[2,0],[0]]","3","[[0,0,0],[1,2],[3]]","18","0","","","","","","7","","","","","","","","",""
"","","","","","single-stim-button","302","482307","0.0-2.0-65.2-1.2","6103633e0fd9cc6d809eab4d","D2","batch4","","1804","tol_toboard","","","","tol_peg_3","1804","1804","0","[[1,0,0],[2,0],[3]]","3","[[0,0,0],[1,2],[3]]","18","0","","","","","","7","","","","","","","","",""
"","","","","","single-stim-button","303","483381","0.0-2.0-65.3-0.3","6103633e0fd9cc6d809eab4d","D2","batch4","","1074","tol_tohand","","","","tol_peg_1","1074","1074","0","[[0,0,0],[2,0],[3]]","4","[[0,0,0],[1,2],[3]]","18","0","","","","","","7","","","","","","","","",""
"","","","","","single-stim-button","304","483739","0.0-2.0-65.3-1.3","6103633e0fd9cc6d809eab4d","D2","batch4","","356","tol_toboard","","","","tol_peg_2","356","356","0","[[0,0,0],[2,1],[3]]","4","[[0,0,0],[1,2],[3]]","18","0","","","","","","7","","","","","","","","",""
"","","","","","single-stim-button","305","484094","0.0-2.0-65.4-0.4","6103633e0fd9cc6d809eab4d","D2","batch4","","354","tol_tohand","","","","tol_peg_3","354","354","0","[[0,0,0],[2,1],[0]]","5","[[0,0,0],[1,2],[3]]","18","0","","","","","","7","","","","","","","","",""
"","","","","","single-stim-button","306","485651","0.0-2.0-65.4-1.4","6103633e0fd9cc6d809eab4d","D2","batch4","","1555","tol_toboard","","","","tol_peg_1","1555","1555","0","[[3,0,0],[2,1],[0]]","5","[[0,0,0],[1,2],[3]]","18","0","","","","","","7","","","","","","","","",""
"","","","","","single-stim-button","307","486207","0.0-2.0-65.5-0.5","6103633e0fd9cc6d809eab4d","D2","batch4","","555","tol_tohand","","","","tol_peg_2","555","555","0","[[3,0,0],[2,0],[0]]","6","[[0,0,0],[1,2],[3]]","18","0","","","","","","7","","","","","","","","",""
"","","","","","single-stim-button","308","486609","0.0-2.0-65.5-1.5","6103633e0fd9cc6d809eab4d","D2","batch4","","401","tol_toboard","","","","tol_peg_3","401","401","0","[[3,0,0],[2,0],[1]]","6","[[0,0,0],[1,2],[3]]","18","0","","","","","","7","","","","","","","","",""
"","","","","","single-stim-button","309","487015","0.0-2.0-65.6-0.6","6103633e0fd9cc6d809eab4d","D2","batch4","","405","tol_tohand","","","","tol_peg_2","405","405","0","[[3,0,0],[0,0],[1]]","7","[[0,0,0],[1,2],[3]]","18","0","","","","","","7","","","","","","","","",""
"","","","","","single-stim-button","310","487387","0.0-2.0-65.6-1.6","6103633e0fd9cc6d809eab4d","D2","batch4","","371","tol_toboard","","","","tol_peg_1","371","371","0","[[3,2,0],[0,0],[1]]","7","[[0,0,0],[1,2],[3]]","18","0","","","","","","7","","","","","","","","",""
"","","","","","single-stim-button","311","487810","0.0-2.0-65.7-0.7","6103633e0fd9cc6d809eab4d","D2","batch4","","421","tol_tohand","","","","tol_peg_3","421","421","0","[[3,2,0],[0,0],[0]]","8","[[0,0,0],[1,2],[3]]","18","0","","","","","","7","","","","","","","","",""
"","","","","","single-stim-button","312","488616","0.0-2.0-65.7-1.7","6103633e0fd9cc6d809eab4d","D2","batch4","","804","tol_toboard","","","","tol_peg_2","804","804","0","[[3,2,0],[1,0],[0]]","8","[[0,0,0],[1,2],[3]]","18","0","","","","","","7","","","","","","","","",""
"","","","","","single-stim-button","313","489572","0.0-2.0-65.8-0.8","6103633e0fd9cc6d809eab4d","D2","batch4","","953","tol_tohand","","","","tol_peg_1","953","953","0","[[3,0,0],[1,0],[0]]","9","[[0,0,0],[1,2],[3]]","18","0","","","","","","7","","","","","","","","",""
"","","","","","single-stim-button","314","489945","0.0-2.0-65.8-1.8","6103633e0fd9cc6d809eab4d","D2","batch4","","372","tol_toboard","","","","tol_peg_2","372","372","0","[[3,0,0],[1,2],[0]]","9","[[0,0,0],[1,2],[3]]","18","0","","","","","","7","","","","","","","","",""
"","","","","","single-stim-button","315","490449","0.0-2.0-65.9-0.9","6103633e0fd9cc6d809eab4d","D2","batch4","","501","tol_tohand","","","","tol_peg_1","501","501","0","[[0,0,0],[1,2],[0]]","10","[[0,0,0],[1,2],[3]]","18","0","","","","","","7","","","","","","","","",""
"","","","","","single-stim-button","316","491257","0.0-2.0-65.9-1.9","6103633e0fd9cc6d809eab4d","D2","batch4","","807","tol_toboard","","","","tol_peg_3","807","807","0","[[0,0,0],[1,2],[3]]","10","[[0,0,0],[1,2],[3]]","18","0","","","","","","7","","","","","","","","",""
"","","","","","poldrack-single-stim","317","492264","0.0-2.0-66.0","6103633e0fd9cc6d809eab4d","D2","batch4","","-1","tol_feedback","","","true","","1000","1000","500","","","","","","-1","none","true","2732","12756","","","","","","","","","",""
"","","","","","html-button-response","318","493028","0.0-2.0-67.0","6103633e0fd9cc6d809eab4d","D2","batch4","","762.6999999880791","tol_trial_num","<div class = centerbox><p class = center-block-text>problem <strong>20</strong> out of 25 problems</p></div>","0","","","","","","","","","","","","","","","","","","","","","","","","",""
"","","","","","single-stim-button","319","505122","0.0-2.0-68.0-0.0","6103633e0fd9cc6d809eab4d","D2","batch4","","12093","tol_tohand","","","","tol_peg_1","12093","12093","0","[[1,0,0],[3,0],[0]]","1","[[2,1,0],[0,0],[3]]","19","0","","","","","","5","","","","","","","","",""
"","","","","","single-stim-button","320","505697","0.0-2.0-68.0-1.0","6103633e0fd9cc6d809eab4d","D2","batch4","","573","tol_toboard","","","","tol_peg_3","573","573","0","[[1,0,0],[3,0],[2]]","1","[[2,1,0],[0,0],[3]]","19","0","","","","","","5","","","","","","","","",""
"","","","","","single-stim-button","321","506819","0.0-2.0-68.1-0.1","6103633e0fd9cc6d809eab4d","D2","batch4","","1121","tol_tohand","","","","tol_peg_1","1121","1121","0","[[0,0,0],[3,0],[2]]","2","[[2,1,0],[0,0],[3]]","19","0","","","","","","5","","","","","","","","",""
"","","","","","single-stim-button","322","507359","0.0-2.0-68.1-1.1","6103633e0fd9cc6d809eab4d","D2","batch4","","539","tol_toboard","","","","tol_peg_2","539","539","0","[[0,0,0],[3,1],[2]]","2","[[2,1,0],[0,0],[3]]","19","0","","","","","","5","","","","","","","","",""
"","","","","","single-stim-button","323","507810","0.0-2.0-68.2-0.2","6103633e0fd9cc6d809eab4d","D2","batch4","","449","tol_tohand","","","","tol_peg_3","449","449","0","[[0,0,0],[3,1],[0]]","3","[[2,1,0],[0,0],[3]]","19","0","","","","","","5","","","","","","","","",""
"","","","","","single-stim-button","324","508683","0.0-2.0-68.2-1.2","6103633e0fd9cc6d809eab4d","D2","batch4","","871","tol_toboard","","","","tol_peg_1","871","871","0","[[2,0,0],[3,1],[0]]","3","[[2,1,0],[0,0],[3]]","19","0","","","","","","5","","","","","","","","",""
"","","","","","single-stim-button","325","509120","0.0-2.0-68.3-0.3","6103633e0fd9cc6d809eab4d","D2","batch4","","436","tol_tohand","","","","tol_peg_2","436","436","0","[[2,0,0],[3,0],[0]]","4","[[2,1,0],[0,0],[3]]","19","0","","","","","","5","","","","","","","","",""
"","","","","","single-stim-button","326","509543","0.0-2.0-68.3-1.3","6103633e0fd9cc6d809eab4d","D2","batch4","","421","tol_toboard","","","","tol_peg_1","421","421","0","[[2,1,0],[3,0],[0]]","4","[[2,1,0],[0,0],[3]]","19","0","","","","","","5","","","","","","","","",""
"","","","","","single-stim-button","327","509964","0.0-2.0-68.4-0.4","6103633e0fd9cc6d809eab4d","D2","batch4","","421","tol_tohand","","","","tol_peg_2","421","421","0","[[2,1,0],[0,0],[0]]","5","[[2,1,0],[0,0],[3]]","19","0","","","","","","5","","","","","","","","",""
"","","","","","single-stim-button","328","510972","0.0-2.0-68.4-1.4","6103633e0fd9cc6d809eab4d","D2","batch4","","1007","tol_toboard","","","","tol_peg_3","1007","1007","0","[[2,1,0],[0,0],[3]]","5","[[2,1,0],[0,0],[3]]","19","0","","","","","","5","","","","","","","","",""
"","","","","","poldrack-single-stim","329","511979","0.0-2.0-69.0","6103633e0fd9cc6d809eab4d","D2","batch4","","-1","tol_feedback","","","true","","1000","1000","500","","","","","","-1","none","true","12093","14520","","","","","","","","","",""
"","","","","","html-button-response","330","512466","0.0-2.0-70.0","6103633e0fd9cc6d809eab4d","D2","batch4","","485.80000001192093","tol_trial_num","<div class = centerbox><p class = center-block-text>problem <strong>21</strong> out of 25 problems</p></div>","0","","","","","","","","","","","","","","","","","","","","","","","","",""
"","","","","","single-stim-button","331","520120","0.0-2.0-71.0-0.0","6103633e0fd9cc6d809eab4d","D2","batch4","","7653","tol_tohand","","","","tol_peg_1","7653","7653","0","[[1,0,0],[3,0],[0]]","1","[[3,2,0],[0,0],[1]]","20","0","","","","","","6","","","","","","","","",""
"","","","","","single-stim-button","332","520528","0.0-2.0-71.0-1.0","6103633e0fd9cc6d809eab4d","D2","batch4","","406","tol_toboard","","","","tol_peg_2","406","406","0","[[1,0,0],[3,2],[0]]","1","[[3,2,0],[0,0],[1]]","20","0","","","","","","6","","","","","","","","",""
"","","","","","single-stim-button","333","520930","0.0-2.0-71.1-0.1","6103633e0fd9cc6d809eab4d","D2","batch4","","402","tol_tohand","","","","tol_peg_1","402","402","0","[[0,0,0],[3,2],[0]]","2","[[3,2,0],[0,0],[1]]","20","0","","","","","","6","","","","","","","","",""
"","","","","","single-stim-button","334","521352","0.0-2.0-71.1-1.1","6103633e0fd9cc6d809eab4d","D2","batch4","","420","tol_toboard","","","","tol_peg_3","420","420","0","[[0,0,0],[3,2],[1]]","2","[[3,2,0],[0,0],[1]]","20","0","","","","","","6","","","","","","","","",""
"","","","","","single-stim-button","335","522387","0.0-2.0-71.2-0.2","6103633e0fd9cc6d809eab4d","D2","batch4","","1034","tol_tohand","","","","tol_peg_2","1034","1034","0","[[0,0,0],[3,0],[1]]","3","[[3,2,0],[0,0],[1]]","20","0","","","","","","6","","","","","","","","",""
"","","","","","single-stim-button","336","526093","0.0-2.0-71.2-1.2","6103633e0fd9cc6d809eab4d","D2","batch4","","3705","tol_toboard","","","","tol_peg_2","3705","3705","0","[[0,0,0],[3,2],[1]]","3","[[3,2,0],[0,0],[1]]","20","0","","","","","","6","","","","","","","","",""
"","","","","","single-stim-button","337","526485","0.0-2.0-71.3-0.3","6103633e0fd9cc6d809eab4d","D2","batch4","","391","tol_tohand","","","","tol_peg_3","391","391","0","[[0,0,0],[3,2],[0]]","4","[[3,2,0],[0,0],[1]]","20","0","","","","","","6","","","","","","","","",""
"","","","","","single-stim-button","338","527289","0.0-2.0-71.3-1.3","6103633e0fd9cc6d809eab4d","D2","batch4","","803","tol_toboard","","","","tol_peg_1","803","803","0","[[1,0,0],[3,2],[0]]","4","[[3,2,0],[0,0],[1]]","20","0","","","","","","6","","","","","","","","",""
"","","","","","single-stim-button","339","527813","0.0-2.0-71.4-0.4","6103633e0fd9cc6d809eab4d","D2","batch4","","523","tol_tohand","","","","tol_peg_2","523","523","0","[[1,0,0],[3,0],[0]]","5","[[3,2,0],[0,0],[1]]","20","0","","","","","","6","","","","","","","","",""
"","","","","","single-stim-button","340","528269","0.0-2.0-71.4-1.4","6103633e0fd9cc6d809eab4d","D2","batch4","","455","tol_toboard","","","","tol_peg_3","455","455","0","[[1,0,0],[3,0],[2]]","5","[[3,2,0],[0,0],[1]]","20","0","","","","","","6","","","","","","","","",""
"","","","","","single-stim-button","341","528643","0.0-2.0-71.5-0.5","6103633e0fd9cc6d809eab4d","D2","batch4","","372","tol_tohand","","","","tol_peg_2","372","372","0","[[1,0,0],[0,0],[2]]","6","[[3,2,0],[0,0],[1]]","20","0","","","","","","6","","","","","","","","",""
"","","","","","single-stim-button","342","529015","0.0-2.0-71.5-1.5","6103633e0fd9cc6d809eab4d","D2","batch4","","370","tol_toboard","","","","tol_peg_1","370","370","0","[[1,3,0],[0,0],[2]]","6","[[3,2,0],[0,0],[1]]","20","0","","","","","","6","","","","","","","","",""
"","","","","","single-stim-button","343","530869","0.0-2.0-71.6-0.6","6103633e0fd9cc6d809eab4d","D2","batch4","","1852","tol_tohand","","","","tol_peg_3","1852","1852","0","[[1,3,0],[0,0],[0]]","7","[[3,2,0],[0,0],[1]]","20","0","","","","","","6","","","","","","","","",""
"","","","","","single-stim-button","344","531724","0.0-2.0-71.6-1.6","6103633e0fd9cc6d809eab4d","D2","batch4","","854","tol_toboard","","","","tol_peg_2","854","854","0","[[1,3,0],[2,0],[0]]","7","[[3,2,0],[0,0],[1]]","20","0","","","","","","6","","","","","","","","",""
"","","","","","single-stim-button","345","532164","0.0-2.0-71.7-0.7","6103633e0fd9cc6d809eab4d","D2","batch4","","439","tol_tohand","","","","tol_peg_1","439","439","0","[[1,0,0],[2,0],[0]]","8","[[3,2,0],[0,0],[1]]","20","0","","","","","","6","","","","","","","","",""
"","","","","","single-stim-button","346","533068","0.0-2.0-71.7-1.7","6103633e0fd9cc6d809eab4d","D2","batch4","","902","tol_toboard","","","","tol_peg_2","902","902","0","[[1,0,0],[2,3],[0]]","8","[[3,2,0],[0,0],[1]]","20","0","","","","","","6","","","","","","","","",""
"","","","","","single-stim-button","347","533506","0.0-2.0-71.8-0.8","6103633e0fd9cc6d809eab4d","D2","batch4","","436","tol_tohand","","","","tol_peg_1","436","436","0","[[0,0,0],[2,3],[0]]","9","[[3,2,0],[0,0],[1]]","20","0","","","","","","6","","","","","","","","",""
"","","","","","single-stim-button","348","533912","0.0-2.0-71.8-1.8","6103633e0fd9cc6d809eab4d","D2","batch4","","405","tol_toboard","","","","tol_peg_3","405","405","0","[[0,0,0],[2,3],[1]]","9","[[3,2,0],[0,0],[1]]","20","0","","","","","","6","","","","","","","","",""
"","","","","","single-stim-button","349","534399","0.0-2.0-71.9-0.9","6103633e0fd9cc6d809eab4d","D2","batch4","","486","tol_tohand","","","","tol_peg_2","486","486","0","[[0,0,0],[2,0],[1]]","10","[[3,2,0],[0,0],[1]]","20","0","","","","","","6","","","","","","","","",""
"","","","","","single-stim-button","350","535371","0.0-2.0-71.9-1.9","6103633e0fd9cc6d809eab4d","D2","batch4","","971","tol_toboard","","","","tol_peg_1","971","971","0","[[3,0,0],[2,0],[1]]","10","[[3,2,0],[0,0],[1]]","20","0","","","","","","6","","","","","","","","",""
"","","","","","single-stim-button","351","535762","0.0-2.0-71.10-0.10","6103633e0fd9cc6d809eab4d","D2","batch4","","389","tol_tohand","","","","tol_peg_2","389","389","0","[[3,0,0],[0,0],[1]]","11","[[3,2,0],[0,0],[1]]","20","0","","","","","","6","","","","","","","","",""
"","","","","","single-stim-button","352","536218","0.0-2.0-71.10-1.10","6103633e0fd9cc6d809eab4d","D2","batch4","","454","tol_toboard","","","","tol_peg_1","454","454","0","[[3,2,0],[0,0],[1]]","11","[[3,2,0],[0,0],[1]]","20","0","","","","","","6","","","","","","","","",""
"","","","","","poldrack-single-stim","353","537229","0.0-2.0-72.0","6103633e0fd9cc6d809eab4d","D2","batch4","","-1","tol_feedback","","","true","","1000","1000","500","","","","","","-1","none","true","7653","13977","","","","","","","","","",""
"","","","","","html-button-response","354","538062","0.0-2.0-73.0","6103633e0fd9cc6d809eab4d","D2","batch4","","830.8000000119209","tol_trial_num","<div class = centerbox><p class = center-block-text>problem <strong>22</strong> out of 25 problems</p></div>","0","","","","","","","","","","","","","","","","","","","","","","","","",""
"","","","","","single-stim-button","355","543881","0.0-2.0-74.0-0.0","6103633e0fd9cc6d809eab4d","D2","batch4","","5818","tol_tohand","","","","tol_peg_2","5818","5818","0","[[1,0,0],[2,0],[0]]","1","[[0,0,0],[1,2],[3]]","21","0","","","","","","6","","","","","","","","",""
"","","","","","single-stim-button","356","545074","0.0-2.0-74.0-1.0","6103633e0fd9cc6d809eab4d","D2","batch4","","1192","tol_toboard","","","","tol_peg_1","1192","1192","0","[[1,3,0],[2,0],[0]]","1","[[0,0,0],[1,2],[3]]","21","0","","","","","","6","","","","","","","","",""
