"success","timeout","failed_images","failed_audio","failed_video","trial_type","trial_index","time_elapsed","internal_node_id","subject_id","study_id","session_id","view_history","rt","stimulus","response","task","correct","answer","item","fiar_detect_rt","fiar_detect_correct","total_correct_fiar_detect","post_trial_gap","choices","mouse_click","stim_duration","block_duration","timing_post_trial","current_position","tol_num_moves_made","tol_target","tol_problem_id","tol_rt","key_press","possible_responses","tol_correct","preplanning","tol_rt_per_trial","tol_min_moves","spm_correct","spm_rt"
"true","false","[]","[]","[]","preload","0","637","0.0-0.0","61057dd06e49aef52b182f19","D2","batch4","","","","","","","","","","","","","","","","","","","","","","","","","","","","","",""
"true","","","","","fullscreen","1","8288","0.0-1.0-0.0","61057dd06e49aef52b182f19","D2","batch4","","","","","","","","","","","","","","","","","","","","","","","","","","","","","",""
"true","","","","","fullscreen","2","13112","0.0-2.0-0.0","61057dd06e49aef52b182f19","D2","batch4","","","","","","","","","","","","","","","","","","","","","","","","","","","","","",""
"","","","","","instructions","3","60601","0.0-2.0-1.0-0.0","61057dd06e49aef52b182f19","D2","batch4","[{""page_index"":0,""viewing_time"":25434.39999961853},{""page_index"":1,""viewing_time"":22051.60000038147}]","47486.599999427795","","","","","","","","","","","","","","","","","","","","","","","","","","","",""
"","","","","","html-button-response","4","61807","0.0-2.0-1.0-1.0-0.0","61057dd06e49aef52b182f19","D2","batch4","","1203.9000005722046","<p class=block-text> Let's answer a few questions <br>","0","pattern_enter_quiz","","","","","","","","","","","","","","","","","","","","","","","","",""
"","","","","","html-button-response","5","64153","0.0-2.0-1.0-1.0-1.0","61057dd06e49aef52b182f19","D2","batch4","","2343.8999996185303","<p class = block-text>True or False: You will have as much time as you want to make each choice. <br></p>","1","pattern_quiz","true","","","","","","","","","","","","","","","","","","","","","","","",""
"","","","","","html-button-response","6","65435","0.0-2.0-1.0-1.0-2.0","61057dd06e49aef52b182f19","D2","batch4","","1280","<p class = block-text>Correct! You should make your choice <strong> as fast as you can</strong>.</p>","0","pattern_quiz_feedback","","","","","","","","","","","","","","","","","","","","","","","","",""
"","","","","","html-button-response","7","69147","0.0-2.0-1.0-1.0-3.0","61057dd06e49aef52b182f19","D2","batch4","","3709.8999996185303","<p class = block-text>True or False: You will look for 4 pieces in black or white color connected in a row either horizontally, vertically or diagonally. <br></p>","0","pattern_quiz","true","","","","","","","","","","","","","","","","","","","","","","","",""
"","","","","","html-button-response","8","70573","0.0-2.0-1.0-1.0-4.0","61057dd06e49aef52b182f19","D2","batch4","","1425.0999994277954","<p class = block-text>Correct! </p>","0","pattern_quiz_feedback","","","","","","","","","","","","","","","","","","","","","","","","",""
"","","","","","html-button-response","9","72546","0.0-2.0-2.0","61057dd06e49aef52b182f19","D2","batch4","","1970","<p class=block-text> Now that you've understood the game, let's do a few practice trials before we start!<br> <br>","0","pattern_enter_practice","","","","","","","","","","","","","","","","","","","","","","","","",""
"","","","","","image-keyboard-response","10","74181","0.0-2.0-3.0-0.0","61057dd06e49aef52b182f19","D2","batch4","","1630.3999996185303","stim/prac_no_18_1.png","j","pattern_practice","true","j","","","","","","","","","","","","","","","","","","","","","","",""
"","","","","","html-keyboard-response","11","75192","0.0-2.0-3.0-1.0","61057dd06e49aef52b182f19","D2","batch4","","null","<p style=""font-size:30px;color:green;"">Correct!</p>","null","pattern_feedback","","","","","","","","","","","","","","","","","","","","","","","","",""
"","","","","","image-keyboard-response","12","75900","0.0-2.0-3.0-0.1","61057dd06e49aef52b182f19","D2","batch4","","705","stim/prac_yes_20_dia_b1.png","f","pattern_practice","true","f","","","","","","","","","","","","","","","","","","","","","","",""
"","","","","","html-keyboard-response","13","76912","0.0-2.0-3.0-1.1","61057dd06e49aef52b182f19","D2","batch4","","null","<p style=""font-size:30px;color:green;"">Correct!</p>","null","pattern_feedback","","","","","","","","","","","","","","","","","","","","","","","","",""
"","","","","","image-keyboard-response","14","77606","0.0-2.0-3.0-0.2","61057dd06e49aef52b182f19","D2","batch4","","692.8999996185303","stim/prac_yes_16_ver_w1.png","f","pattern_practice","true","f","","","","","","","","","","","","","","","","","","","","","","",""
"","","","","","html-keyboard-response","15","78616","0.0-2.0-3.0-1.2","61057dd06e49aef52b182f19","D2","batch4","","null","<p style=""font-size:30px;color:green;"">Correct!</p>","null","pattern_feedback","","","","","","","","","","","","","","","","","","","","","","","","",""
"","","","","","image-keyboard-response","16","79775","0.0-2.0-3.0-0.3","61057dd06e49aef52b182f19","D2","batch4","","1156.3000001907349","stim/prac_no_16_1.png","j","pattern_practice","true","j","","","","","","","","","","","","","","","","","","","","","","",""
"","","","","","html-keyboard-response","17","80788","0.0-2.0-3.0-1.3","61057dd06e49aef52b182f19","D2","batch4","","null","<p style=""font-size:30px;color:green;"">Correct!</p>","null","pattern_feedback","","","","","","","","","","","","","","","","","","","","","","","","",""
"","","","","","image-keyboard-response","18","83952","0.0-2.0-3.0-0.4","61057dd06e49aef52b182f19","D2","batch4","","3162.199999809265","stim/prac_yes_18_hor_w1.png","f","pattern_practice","true","f","","","","","","","","","","","","","","","","","","","","","","",""
"","","","","","html-keyboard-response","19","84969","0.0-2.0-3.0-1.4","61057dd06e49aef52b182f19","D2","batch4","","null","<p style=""font-size:30px;color:green;"">Correct!</p>","null","pattern_feedback","","","","","","","","","","","","","","","","","","","","","","","","",""
"","","","","","html-button-response","20","88813","0.0-2.0-4.0","61057dd06e49aef52b182f19","D2","batch4","","3841.5999994277954","<p class=block-text> Good job! You are done with practice trials!<br>
        You responded correctly on 100% of the trials.<br>
        Press the button below to start official trials. Now you won't see any feedback about your response</p>","0","pattern_enter_official_trials","","","","","","","","","","","","","","","","","","","","","","","","",""
"","","","","","html-keyboard-response","21","89616","0.0-2.0-5.0-0.0","61057dd06e49aef52b182f19","D2","batch4","","null","<p class=block-text>Trial 1 out of 78</p>","null","pattern_show_trial_num","","","","","","","","","","","","","","","","","","","","","","","","",""
"","","","","","image-keyboard-response","22","93110","0.0-2.0-5.0-1.0","61057dd06e49aef52b182f19","D2","batch4","","3490.6000003814697","stim/no_51_1.png","f","pattern_response","false","j","pattern_31","3490.6000003814697","false","0","","","","","","","","","","","","","","","","","","",""
"","","","","","html-keyboard-response","23","94424","0.0-2.0-5.0-0.1","61057dd06e49aef52b182f19","D2","batch4","","null","<p class=block-text>Trial 2 out of 78</p>","null","pattern_show_trial_num","","","","","","","","","","","","","","","","","","","","","","","","",""
"","","","","","image-keyboard-response","24","95224","0.0-2.0-5.0-1.1","61057dd06e49aef52b182f19","D2","batch4","","797.1999998092651","stim/yes_39_hor_w1_w.png","j","pattern_response","false","f","pattern_62","797.1999998092651","false","0","","","","","","","","","","","","","","","","","","",""
"","","","","","html-keyboard-response","25","96535","0.0-2.0-5.0-0.2","61057dd06e49aef52b182f19","D2","batch4","","null","<p class=block-text>Trial 3 out of 78</p>","null","pattern_show_trial_num","","","","","","","","","","","","","","","","","","","","","","","","",""
"","","","","","image-keyboard-response","26","97568","0.0-2.0-5.0-1.2","61057dd06e49aef52b182f19","D2","batch4","","1029.6999998092651","stim/no_12_1.png","j","pattern_response","true","j","pattern_01","1029.6999998092651","true","1","","","","","","","","","","","","","","","","","","",""
"","","","","","html-keyboard-response","27","98880","0.0-2.0-5.0-0.3","61057dd06e49aef52b182f19","D2","batch4","","null","<p class=block-text>Trial 4 out of 78</p>","null","pattern_show_trial_num","","","","","","","","","","","","","","","","","","","","","","","","",""
"","","","","","image-keyboard-response","28","101834","0.0-2.0-5.0-1.3","61057dd06e49aef52b182f19","D2","batch4","","2951","stim/no_43_2_b.png","j","pattern_response","true","j","pattern_23","2951","true","2","","","","","","","","","","","","","","","","","","",""
"","","","","","html-keyboard-response","29","103144","0.0-2.0-5.0-0.4","61057dd06e49aef52b182f19","D2","batch4","","null","<p class=block-text>Trial 5 out of 78</p>","null","pattern_show_trial_num","","","","","","","","","","","","","","","","","","","","","","","","",""
"","","","","","image-keyboard-response","30","104026","0.0-2.0-5.0-1.4","61057dd06e49aef52b182f19","D2","batch4","","878.6999998092651","stim/yes_37_hor_w1_w.png","f","pattern_response","true","f","pattern_60","878.6999998092651","true","3","","","","","","","","","","","","","","","","","","",""
"","","","","","html-keyboard-response","31","105336","0.0-2.0-5.0-0.5","61057dd06e49aef52b182f19","D2","batch4","","null","<p class=block-text>Trial 6 out of 78</p>","null","pattern_show_trial_num","","","","","","","","","","","","","","","","","","","","","","","","",""
"","","","","","image-keyboard-response","32","106277","0.0-2.0-5.0-1.5","61057dd06e49aef52b182f19","D2","batch4","","937.8999996185303","stim/no_15_1_w.png","j","pattern_response","true","j","pattern_03","937.8999996185303","true","4","","","","","","","","","","","","","","","","","","",""
"","","","","","html-keyboard-response","33","107592","0.0-2.0-5.0-0.6","61057dd06e49aef52b182f19","D2","batch4","","null","<p class=block-text>Trial 7 out of 78</p>","null","pattern_show_trial_num","","","","","","","","","","","","","","","","","","","","","","","","",""
"","","","","","image-keyboard-response","34","108493","0.0-2.0-5.0-1.6","61057dd06e49aef52b182f19","D2","batch4","","897.9000005722046","stim/yes_30_ver_b1_b.png","f","pattern_response","true","f","pattern_54","897.9000005722046","true","5","","","","","","","","","","","","","","","","","","",""
"","","","","","html-keyboard-response","35","109808","0.0-2.0-5.0-0.7","61057dd06e49aef52b182f19","D2","batch4","","null","<p class=block-text>Trial 8 out of 78</p>","null","pattern_show_trial_num","","","","","","","","","","","","","","","","","","","","","","","","",""
"","","","","","image-keyboard-response","36","114165","0.0-2.0-5.0-1.7","61057dd06e49aef52b182f19","D2","batch4","","4354.300000190735","stim/no_53_1_b.png","j","pattern_response","true","j","pattern_33","4354.300000190735","true","6","","","","","","","","","","","","","","","","","","",""
"","","","","","html-keyboard-response","37","115484","0.0-2.0-5.0-0.8","61057dd06e49aef52b182f19","D2","batch4","","null","<p class=block-text>Trial 9 out of 78</p>","null","pattern_show_trial_num","","","","","","","","","","","","","","","","","","","","","","","","",""
"","","","","","image-keyboard-response","38","117867","0.0-2.0-5.0-1.8","61057dd06e49aef52b182f19","D2","batch4","","2380.300000190735","stim/no_28_2.png","j","pattern_response","true","j","pattern_11","2380.300000190735","true","7","","","","","","","","","","","","","","","","","","",""
"","","","","","html-keyboard-response","39","119184","0.0-2.0-5.0-0.9","61057dd06e49aef52b182f19","D2","batch4","","null","<p class=block-text>Trial 10 out of 78</p>","null","pattern_show_trial_num","","","","","","","","","","","","","","","","","","","","","","","","",""
"","","","","","image-keyboard-response","40","119936","0.0-2.0-5.0-1.9","61057dd06e49aef52b182f19","D2","batch4","","749.6999998092651","stim/yes_26_dia_w2_w.png","f","pattern_response","true","f","pattern_50","749.6999998092651","true","8","","","","","","","","","","","","","","","","","","",""
"","","","","","html-keyboard-response","41","121248","0.0-2.0-5.0-0.10","61057dd06e49aef52b182f19","D2","batch4","","null","<p class=block-text>Trial 11 out of 78</p>","null","pattern_show_trial_num","","","","","","","","","","","","","","","","","","","","","","","","",""
"","","","","","image-keyboard-response","42","125431","0.0-2.0-5.0-1.10","61057dd06e49aef52b182f19","D2","batch4","","4180","stim/yes_63_dia_b1.png","j","pattern_response","false","f","pattern_78","4180","false","8","","","","","","","","","","","","","","","","","","",""
"","","","","","html-keyboard-response","43","126744","0.0-2.0-5.0-0.11","61057dd06e49aef52b182f19","D2","batch4","","null","<p class=block-text>Trial 12 out of 78</p>","null","pattern_show_trial_num","","","","","","","","","","","","","","","","","","","","","","","","",""
"","","","","","image-keyboard-response","44","128314","0.0-2.0-5.0-1.11","61057dd06e49aef52b182f19","D2","batch4","","1565.8000001907349","stim/no_30_1_b.png","j","pattern_response","true","j","pattern_13","1565.8000001907349","true","9","","","","","","","","","","","","","","","","","","",""
"","","","","","html-keyboard-response","45","129624","0.0-2.0-5.0-0.12","61057dd06e49aef52b182f19","D2","batch4","","null","<p class=block-text>Trial 13 out of 78</p>","null","pattern_show_trial_num","","","","","","","","","","","","","","","","","","","","","","","","",""
"","","","","","image-keyboard-response","46","132658","0.0-2.0-5.0-1.12","61057dd06e49aef52b182f19","D2","batch4","","3030.5","stim/yes_44_ver_w1_w.png","j","pattern_response","false","f","pattern_66","3030.5","false","9","","","","","","","","","","","","","","","","","","",""
"","","","","","html-keyboard-response","47","133969","0.0-2.0-5.0-0.13","61057dd06e49aef52b182f19","D2","batch4","","null","<p class=block-text>Trial 14 out of 78</p>","null","pattern_show_trial_num","","","","","","","","","","","","","","","","","","","","","","","","",""
"","","","","","image-keyboard-response","48","137468","0.0-2.0-5.0-1.13","61057dd06e49aef52b182f19","D2","batch4","","3496.5","stim/no_67_1.png","j","pattern_response","true","j","pattern_39","3496.5","true","10","","","","","","","","","","","","","","","","","","",""
"","","","","","html-keyboard-response","49","138788","0.0-2.0-5.0-0.14","61057dd06e49aef52b182f19","D2","batch4","","null","<p class=block-text>Trial 15 out of 78</p>","null","pattern_show_trial_num","","","","","","","","","","","","","","","","","","","","","","","","",""
"","","","","","image-keyboard-response","50","141143","0.0-2.0-5.0-1.14","61057dd06e49aef52b182f19","D2","batch4","","2353.1000003814697","stim/yes_42_dia_w1_w.png","j","pattern_response","false","f","pattern_64","2353.1000003814697","false","10","","","","","","","","","","","","","","","","","","",""
"","","","","","html-keyboard-response","51","142456","0.0-2.0-5.0-0.15","61057dd06e49aef52b182f19","D2","batch4","","null","<p class=block-text>Trial 16 out of 78</p>","null","pattern_show_trial_num","","","","","","","","","","","","","","","","","","","","","","","","",""
"","","","","","image-keyboard-response","52","143743","0.0-2.0-5.0-1.15","61057dd06e49aef52b182f19","D2","batch4","","1283.3999996185303","stim/no_25_1_b.png","j","pattern_response","true","j","pattern_09","1283.3999996185303","true","11","","","","","","","","","","","","","","","","","","",""
"","","","","","html-keyboard-response","53","145056","0.0-2.0-5.0-0.16","61057dd06e49aef52b182f19","D2","batch4","","null","<p class=block-text>Trial 17 out of 78</p>","null","pattern_show_trial_num","","","","","","","","","","","","","","","","","","","","","","","","",""
"","","","","","image-keyboard-response","54","146761","0.0-2.0-5.0-1.16","61057dd06e49aef52b182f19","D2","batch4","","1701.8000001907349","stim/no_33_1_b.png","j","pattern_response","true","j","pattern_15","1701.8000001907349","true","12","","","","","","","","","","","","","","","","","","",""
"","","","","","html-keyboard-response","55","148072","0.0-2.0-5.0-0.17","61057dd06e49aef52b182f19","D2","batch4","","null","<p class=block-text>Trial 18 out of 78</p>","null","pattern_show_trial_num","","","","","","","","","","","","","","","","","","","","","","","","",""
"","","","","","image-keyboard-response","56","151244","0.0-2.0-5.0-1.17","61057dd06e49aef52b182f19","D2","batch4","","3169.1000003814697","stim/yes_58_dia_w1_w.png","j","pattern_response","false","f","pattern_76","3169.1000003814697","false","12","","","","","","","","","","","","","","","","","","",""
"","","","","","html-keyboard-response","57","152560","0.0-2.0-5.0-0.18","61057dd06e49aef52b182f19","D2","batch4","","null","<p class=block-text>Trial 19 out of 78</p>","null","pattern_show_trial_num","","","","","","","","","","","","","","","","","","","","","","","","",""
"","","","","","image-keyboard-response","58","153268","0.0-2.0-5.0-1.18","61057dd06e49aef52b182f19","D2","batch4","","703.8999996185303","stim/no_18_1_b.png","j","pattern_response","true","j","pattern_05","703.8999996185303","true","13","","","","","","","","","","","","","","","","","","",""
"","","","","","html-keyboard-response","59","154576","0.0-2.0-5.0-0.19","61057dd06e49aef52b182f19","D2","batch4","","null","<p class=block-text>Trial 20 out of 78</p>","null","pattern_show_trial_num","","","","","","","","","","","","","","","","","","","","","","","","",""
"","","","","","image-keyboard-response","60","155285","0.0-2.0-5.0-1.19","61057dd06e49aef52b182f19","D2","batch4","","705.9000005722046","stim/yes_15_dia_b1u_b.png","f","pattern_response","true","f","pattern_44","705.9000005722046","true","14","","","","","","","","","","","","","","","","","","",""
"","","","","","html-keyboard-response","61","156592","0.0-2.0-5.0-0.20","61057dd06e49aef52b182f19","D2","batch4","","null","<p class=block-text>Trial 21 out of 78</p>","null","pattern_show_trial_num","","","","","","","","","","","","","","","","","","","","","","","","",""
"","","","","","image-keyboard-response","62","157662","0.0-2.0-5.0-1.20","61057dd06e49aef52b182f19","D2","batch4","","1067.1000003814697","stim/no_22_1_b.png","j","pattern_response","true","j","pattern_07","1067.1000003814697","true","15","","","","","","","","","","","","","","","","","","",""
"","","","","","html-keyboard-response","63","158979","0.0-2.0-5.0-0.21","61057dd06e49aef52b182f19","D2","batch4","","null","<p class=block-text>Trial 22 out of 78</p>","null","pattern_show_trial_num","","","","","","","","","","","","","","","","","","","","","","","","",""
"","","","","","image-keyboard-response","64","159888","0.0-2.0-5.0-1.21","61057dd06e49aef52b182f19","D2","batch4","","907","stim/yes_23_ver_b1.png","f","pattern_response","true","f","pattern_48","907","true","16","","","","","","","","","","","","","","","","","","",""
"","","","","","html-keyboard-response","65","161201","0.0-2.0-5.0-0.22","61057dd06e49aef52b182f19","D2","batch4","","null","<p class=block-text>Trial 23 out of 78</p>","null","pattern_show_trial_num","","","","","","","","","","","","","","","","","","","","","","","","",""
"","","","","","image-keyboard-response","66","164985","0.0-2.0-5.0-1.22","61057dd06e49aef52b182f19","D2","batch4","","3781.699999809265","stim/no_45_1_w.png","j","pattern_response","true","j","pattern_25","3781.699999809265","true","17","","","","","","","","","","","","","","","","","","",""
"","","","","","html-keyboard-response","67","166297","0.0-2.0-5.0-0.23","61057dd06e49aef52b182f19","D2","batch4","","null","<p class=block-text>Trial 24 out of 78</p>","null","pattern_show_trial_num","","","","","","","","","","","","","","","","","","","","","","","","",""
"","","","","","image-keyboard-response","68","171453","0.0-2.0-5.0-1.23","61057dd06e49aef52b182f19","D2","batch4","","5153.10000038147","stim/no_58_1_w.png","j","pattern_response","true","j","pattern_35","5153.10000038147","true","18","","","","","","","","","","","","","","","","","","",""
"","","","","","html-keyboard-response","69","172769","0.0-2.0-5.0-0.24","61057dd06e49aef52b182f19","D2","batch4","","null","<p class=block-text>Trial 25 out of 78</p>","null","pattern_show_trial_num","","","","","","","","","","","","","","","","","","","","","","","","",""
"","","","","","image-keyboard-response","70","175112","0.0-2.0-5.0-1.24","61057dd06e49aef52b182f19","D2","batch4","","2340.5","stim/no_36_1_b.png","j","pattern_response","true","j","pattern_17","2340.5","true","19","","","","","","","","","","","","","","","","","","",""
"","","","","","html-keyboard-response","71","176424","0.0-2.0-5.0-0.25","61057dd06e49aef52b182f19","D2","batch4","","null","<p class=block-text>Trial 26 out of 78</p>","null","pattern_show_trial_num","","","","","","","","","","","","","","","","","","","","","","","","",""
"","","","","","image-keyboard-response","72","177096","0.0-2.0-5.0-1.25","61057dd06e49aef52b182f19","D2","batch4","","668.3000001907349","stim/yes_12_hor_w1_w.png","f","pattern_response","true","f","pattern_42","668.3000001907349","true","20","","","","","","","","","","","","","","","","","","",""
"","","","","","html-keyboard-response","73","178408","0.0-2.0-5.0-0.26","61057dd06e49aef52b182f19","D2","batch4","","null","<p class=block-text>Trial 27 out of 78</p>","null","pattern_show_trial_num","","","","","","","","","","","","","","","","","","","","","","","","",""
"","","","","","image-keyboard-response","74","180314","0.0-2.0-5.0-1.26","61057dd06e49aef52b182f19","D2","batch4","","1904.5","stim/yes_51_dia_b1.png","f","pattern_response","true","f","pattern_72","1904.5","true","21","","","","","","","","","","","","","","","","","","",""
"","","","","","html-keyboard-response","75","181624","0.0-2.0-5.0-0.27","61057dd06e49aef52b182f19","D2","batch4","","null","<p class=block-text>Trial 28 out of 78</p>","null","pattern_show_trial_num","","","","","","","","","","","","","","","","","","","","","","","","",""
"","","","","","image-keyboard-response","76","182681","0.0-2.0-5.0-1.27","61057dd06e49aef52b182f19","D2","batch4","","1054.5","stim/yes_46_ver_b1_b.png","f","pattern_response","true","f","pattern_68","1054.5","true","22","","","","","","","","","","","","","","","","","","",""
"","","","","","html-keyboard-response","77","183995","0.0-2.0-5.0-0.28","61057dd06e49aef52b182f19","D2","batch4","","null","<p class=block-text>Trial 29 out of 78</p>","null","pattern_show_trial_num","","","","","","","","","","","","","","","","","","","","","","","","",""
"","","","","","image-keyboard-response","78","187591","0.0-2.0-5.0-1.28","61057dd06e49aef52b182f19","D2","batch4","","3594.199999809265","stim/no_47_1_b.png","j","pattern_response","true","j","pattern_27","3594.199999809265","true","23","","","","","","","","","","","","","","","","","","",""
"","","","","","html-keyboard-response","79","188904","0.0-2.0-5.0-0.29","61057dd06e49aef52b182f19","D2","batch4","","null","<p class=block-text>Trial 30 out of 78</p>","null","pattern_show_trial_num","","","","","","","","","","","","","","","","","","","","","","","","",""
"","","","","","image-keyboard-response","80","189687","0.0-2.0-5.0-1.29","61057dd06e49aef52b182f19","D2","batch4","","780.8000001907349","stim/yes_17_ver_b1_b.png","f","pattern_response","true","f","pattern_46","780.8000001907349","true","24","","","","","","","","","","","","","","","","","","",""
"","","","","","html-keyboard-response","81","191001","0.0-2.0-5.0-0.30","61057dd06e49aef52b182f19","D2","batch4","","null","<p class=block-text>Trial 31 out of 78</p>","null","pattern_show_trial_num","","","","","","","","","","","","","","","","","","","","","","","","",""
"","","","","","image-keyboard-response","82","194040","0.0-2.0-5.0-1.30","61057dd06e49aef52b182f19","D2","batch4","","3036.300000190735","stim/no_37_2_w.png","j","pattern_response","true","j","pattern_19","3036.300000190735","true","25","","","","","","","","","","","","","","","","","","",""
"","","","","","html-keyboard-response","83","195353","0.0-2.0-5.0-0.31","61057dd06e49aef52b182f19","D2","batch4","","null","<p class=block-text>Trial 32 out of 78</p>","null","pattern_show_trial_num","","","","","","","","","","","","","","","","","","","","","","","","",""
"","","","","","image-keyboard-response","84","196266","0.0-2.0-5.0-1.31","61057dd06e49aef52b182f19","D2","batch4","","909.7000007629395","stim/yes_36_ver_w1_w.png","f","pattern_response","true","f","pattern_58","909.7000007629395","true","26","","","","","","","","","","","","","","","","","","",""
"","","","","","html-keyboard-response","85","197576","0.0-2.0-5.0-0.32","61057dd06e49aef52b182f19","D2","batch4","","null","<p class=block-text>Trial 33 out of 78</p>","null","pattern_show_trial_num","","","","","","","","","","","","","","","","","","","","","","","","",""
"","","","","","image-keyboard-response","86","199803","0.0-2.0-5.0-1.32","61057dd06e49aef52b182f19","D2","batch4","","2223.699999809265","stim/no_49_2_b.png","j","pattern_response","true","j","pattern_29","2223.699999809265","true","27","","","","","","","","","","","","","","","","","","",""
"","","","","","html-keyboard-response","87","201113","0.0-2.0-5.0-0.33","61057dd06e49aef52b182f19","D2","batch4","","null","<p class=block-text>Trial 34 out of 78</p>","null","pattern_show_trial_num","","","","","","","","","","","","","","","","","","","","","","","","",""
"","","","","","image-keyboard-response","88","201829","0.0-2.0-5.0-1.33","61057dd06e49aef52b182f19","D2","batch4","","712.7999992370605","stim/yes_29_hor_b1_b.png","f","pattern_response","true","f","pattern_52","712.7999992370605","true","28","","","","","","","","","","","","","","","","","","",""
"","","","","","html-keyboard-response","89","203145","0.0-2.0-5.0-0.34","61057dd06e49aef52b182f19","D2","batch4","","null","<p class=block-text>Trial 35 out of 78</p>","null","pattern_show_trial_num","","","","","","","","","","","","","","","","","","","","","","","","",""
"","","","","","image-keyboard-response","90","204123","0.0-2.0-5.0-1.34","61057dd06e49aef52b182f19","D2","batch4","","976.0999994277954","stim/yes_33_dia_w1_w.png","f","pattern_response","true","f","pattern_56","976.0999994277954","true","29","","","","","","","","","","","","","","","","","","",""
"","","","","","html-keyboard-response","91","205441","0.0-2.0-5.0-0.35","61057dd06e49aef52b182f19","D2","batch4","","null","<p class=block-text>Trial 36 out of 78</p>","null","pattern_show_trial_num","","","","","","","","","","","","","","","","","","","","","","","","",""
"","","","","","image-keyboard-response","92","207632","0.0-2.0-5.0-1.35","61057dd06e49aef52b182f19","D2","batch4","","2188.5","stim/no_39_1_w.png","j","pattern_response","true","j","pattern_21","2188.5","true","30","","","","","","","","","","","","","","","","","","",""
"","","","","","html-keyboard-response","93","208944","0.0-2.0-5.0-0.36","61057dd06e49aef52b182f19","D2","batch4","","null","<p class=block-text>Trial 37 out of 78</p>","null","pattern_show_trial_num","","","","","","","","","","","","","","","","","","","","","","","","",""
"","","","","","image-keyboard-response","94","209737","0.0-2.0-5.0-1.36","61057dd06e49aef52b182f19","D2","batch4","","791.5","stim/yes_53_ver_b1_b.png","f","pattern_response","true","f","pattern_74","791.5","true","31","","","","","","","","","","","","","","","","","","",""
"","","","","","html-keyboard-response","95","211049","0.0-2.0-5.0-0.37","61057dd06e49aef52b182f19","D2","batch4","","null","<p class=block-text>Trial 38 out of 78</p>","null","pattern_show_trial_num","","","","","","","","","","","","","","","","","","","","","","","","",""
"","","","","","image-keyboard-response","96","211936","0.0-2.0-5.0-1.37","61057dd06e49aef52b182f19","D2","batch4","","885.3999996185303","stim/yes_70_ver_b1.png","f","pattern_response","true","f","pattern_80","885.3999996185303","true","32","","","","","","","","","","","","","","","","","","",""
"","","","","","html-keyboard-response","97","213249","0.0-2.0-5.0-0.38","61057dd06e49aef52b182f19","D2","batch4","","null","<p class=block-text>Trial 39 out of 78</p>","null","pattern_show_trial_num","","","","","","","","","","","","","","","","","","","","","","","","",""
"","","","","","image-keyboard-response","98","214315","0.0-2.0-5.0-1.38","61057dd06e49aef52b182f19","D2","batch4","","1063.5","stim/yes_49_hor_w1_b.png","f","pattern_response","true","f","pattern_70","1063.5","true","33","","","","","","","","","","","","","","","","","","",""
"","","","","","image-keyboard-response","99","217963","0.0-2.0-6.0","61057dd06e49aef52b182f19","D2","batch4","","3145","stim/empty_board.png","j","attention_check","true","j","","","","","500","[""f"",""j""]","","","","","","","","","","","","","","","","",""
"","","","","","html-keyboard-response","100","218769","0.0-2.0-7.0-0.0","61057dd06e49aef52b182f19","D2","batch4","","null","<p class=block-text>Trial 40 out of 78</p>","null","pattern_show_trial_num","","","","","","","","","","","","","","","","","","","","","","","","",""
"","","","","","image-keyboard-response","101","222761","0.0-2.0-7.0-1.0","61057dd06e49aef52b182f19","D2","batch4","","3989.5","stim/no_62_1_w.png","j","pattern_response","true","j","pattern_36","3989.5","true","34","","","","","","","","","","","","","","","","","","",""
"","","","","","html-keyboard-response","102","224073","0.0-2.0-7.0-0.1","61057dd06e49aef52b182f19","D2","batch4","","null","<p class=block-text>Trial 41 out of 78</p>","null","pattern_show_trial_num","","","","","","","","","","","","","","","","","","","","","","","","",""
"","","","","","image-keyboard-response","103","226770","0.0-2.0-7.0-1.1","61057dd06e49aef52b182f19","D2","batch4","","2693.2999992370605","stim/yes_40_dia_b1_b.png","j","pattern_response","false","f","pattern_63","2693.2999992370605","false","34","","","","","","","","","","","","","","","","","","",""
"","","","","","html-keyboard-response","104","228080","0.0-2.0-7.0-0.2","61057dd06e49aef52b182f19","D2","batch4","","null","<p class=block-text>Trial 42 out of 78</p>","null","pattern_show_trial_num","","","","","","","","","","","","","","","","","","","","","","","","",""
"","","","","","image-keyboard-response","105","229603","0.0-2.0-7.0-1.2","61057dd06e49aef52b182f19","D2","batch4","","1519.5","stim/no_32_1_w.png","j","pattern_response","true","j","pattern_14","1519.5","true","35","","","","","","","","","","","","","","","","","","",""
"","","","","","html-keyboard-response","106","230912","0.0-2.0-7.0-0.3","61057dd06e49aef52b182f19","D2","batch4","","null","<p class=block-text>Trial 43 out of 78</p>","null","pattern_show_trial_num","","","","","","","","","","","","","","","","","","","","","","","","",""
"","","","","","image-keyboard-response","107","231796","0.0-2.0-7.0-1.3","61057dd06e49aef52b182f19","D2","batch4","","882.2999992370605","stim/no_17_1_w.png","j","pattern_response","true","j","pattern_04","882.2999992370605","true","36","","","","","","","","","","","","","","","","","","",""
"","","","","","html-keyboard-response","108","233113","0.0-2.0-7.0-0.4","61057dd06e49aef52b182f19","D2","batch4","","null","<p class=block-text>Trial 44 out of 78</p>","null","pattern_show_trial_num","","","","","","","","","","","","","","","","","","","","","","","","",""
"","","","","","image-keyboard-response","109","235980","0.0-2.0-7.0-1.4","61057dd06e49aef52b182f19","D2","batch4","","2865.300000190735","stim/no_55_1_w.png","j","pattern_response","true","j","pattern_34","2865.300000190735","true","37","","","","","","","","","","","","","","","","","","",""
"","","","","","html-keyboard-response","110","237297","0.0-2.0-7.0-0.5","61057dd06e49aef52b182f19","D2","batch4","","null","<p class=block-text>Trial 45 out of 78</p>","null","pattern_show_trial_num","","","","","","","","","","","","","","","","","","","","","","","","",""
"","","","","","image-keyboard-response","111","237895","0.0-2.0-7.0-1.5","61057dd06e49aef52b182f19","D2","batch4","","595.7000007629395","stim/yes_14_hor_b1_w.png","f","pattern_response","true","f","pattern_43","595.7000007629395","true","38","","","","","","","","","","","","","","","","","","",""
"","","","","","html-keyboard-response","112","239208","0.0-2.0-7.0-0.6","61057dd06e49aef52b182f19","D2","batch4","","null","<p class=block-text>Trial 46 out of 78</p>","null","pattern_show_trial_num","","","","","","","","","","","","","","","","","","","","","","","","",""
"","","","","","image-keyboard-response","113","242799","0.0-2.0-7.0-1.6","61057dd06e49aef52b182f19","D2","batch4","","3588.4000005722046","stim/no_44_1.png","j","pattern_response","true","j","pattern_24","3588.4000005722046","true","39","","","","","","","","","","","","","","","","","","",""
"","","","","","html-keyboard-response","114","244113","0.0-2.0-7.0-0.7","61057dd06e49aef52b182f19","D2","batch4","","null","<p class=block-text>Trial 47 out of 78</p>","null","pattern_show_trial_num","","","","","","","","","","","","","","","","","","","","","","","","",""
"","","","","","image-keyboard-response","115","244911","0.0-2.0-7.0-1.7","61057dd06e49aef52b182f19","D2","batch4","","796.5","stim/yes_17_dia_w1.png","f","pattern_response","true","f","pattern_45","796.5","true","40","","","","","","","","","","","","","","","","","","",""
"","","","","","html-keyboard-response","116","246225","0.0-2.0-7.0-0.8","61057dd06e49aef52b182f19","D2","batch4","","null","<p class=block-text>Trial 48 out of 78</p>","null","pattern_show_trial_num","","","","","","","","","","","","","","","","","","","","","","","","",""
"","","","","","image-keyboard-response","117","247245","0.0-2.0-7.0-1.8","61057dd06e49aef52b182f19","D2","batch4","","1017.6999998092651","stim/yes_43_ver_w1_w.png","f","pattern_response","true","f","pattern_65","1017.6999998092651","true","41","","","","","","","","","","","","","","","","","","",""
"","","","","","html-keyboard-response","118","248561","0.0-2.0-7.0-0.9","61057dd06e49aef52b182f19","D2","batch4","","null","<p class=block-text>Trial 49 out of 78</p>","null","pattern_show_trial_num","","","","","","","","","","","","","","","","","","","","","","","","",""
"","","","","","image-keyboard-response","119","251845","0.0-2.0-7.0-1.9","61057dd06e49aef52b182f19","D2","batch4","","3281.5","stim/no_42_1_w.png","j","pattern_response","true","j","pattern_22","3281.5","true","42","","","","","","","","","","","","","","","","","","",""
"","","","","","html-keyboard-response","120","253162","0.0-2.0-7.0-0.10","61057dd06e49aef52b182f19","D2","batch4","","null","<p class=block-text>Trial 50 out of 78</p>","null","pattern_show_trial_num","","","","","","","","","","","","","","","","","","","","","","","","",""
"","","","","","image-keyboard-response","121","255278","0.0-2.0-7.0-1.10","61057dd06e49aef52b182f19","D2","batch4","","2113.5999994277954","stim/yes_38_hor_b1_b.png","f","pattern_response","true","f","pattern_61","2113.5999994277954","true","43","","","","","","","","","","","","","","","","","","",""
"","","","","","html-keyboard-response","122","256593","0.0-2.0-7.0-0.11","61057dd06e49aef52b182f19","D2","batch4","","null","<p class=block-text>Trial 51 out of 78</p>","null","pattern_show_trial_num","","","","","","","","","","","","","","","","","","","","","","","","",""
"","","","","","image-keyboard-response","123","258905","0.0-2.0-7.0-1.11","61057dd06e49aef52b182f19","D2","batch4","","2310.2999992370605","stim/no_46_1_b.png","j","pattern_response","true","j","pattern_26","2310.2999992370605","true","44","","","","","","","","","","","","","","","","","","",""
"","","","","","html-keyboard-response","124","260216","0.0-2.0-7.0-0.12","61057dd06e49aef52b182f19","D2","batch4","","null","<p class=block-text>Trial 52 out of 78</p>","null","pattern_show_trial_num","","","","","","","","","","","","","","","","","","","","","","","","",""
"","","","","","image-keyboard-response","125","261570","0.0-2.0-7.0-1.12","61057dd06e49aef52b182f19","D2","batch4","","1351.0999994277954","stim/no_26_1_w.png","j","pattern_response","true","j","pattern_10","1351.0999994277954","true","45","","","","","","","","","","","","","","","","","","",""
"","","","","","html-keyboard-response","126","262881","0.0-2.0-7.0-0.13","61057dd06e49aef52b182f19","D2","batch4","","null","<p class=block-text>Trial 53 out of 78</p>","null","pattern_show_trial_num","","","","","","","","","","","","","","","","","","","","","","","","",""
"","","","","","image-keyboard-response","127","266038","0.0-2.0-7.0-1.13","61057dd06e49aef52b182f19","D2","batch4","","3154.199999809265","stim/yes_50_dia_w1.png","j","pattern_response","false","f","pattern_71","3154.199999809265","false","45","","","","","","","","","","","","","","","","","","",""
"","","","","","html-keyboard-response","128","267353","0.0-2.0-7.0-0.14","61057dd06e49aef52b182f19","D2","batch4","","null","<p class=block-text>Trial 54 out of 78</p>","null","pattern_show_trial_num","","","","","","","","","","","","","","","","","","","","","","","","",""
"","","","","","image-keyboard-response","129","268356","0.0-2.0-7.0-1.14","61057dd06e49aef52b182f19","D2","batch4","","1000","stim/no_29_1_b.png","j","pattern_response","true","j","pattern_12","1000","true","46","","","","","","","","","","","","","","","","","","",""
"","","","","","html-keyboard-response","130","269673","0.0-2.0-7.0-0.15","61057dd06e49aef52b182f19","D2","batch4","","null","<p class=block-text>Trial 55 out of 78</p>","null","pattern_show_trial_num","","","","","","","","","","","","","","","","","","","","","","","","",""
"","","","","","image-keyboard-response","131","270916","0.0-2.0-7.0-1.15","61057dd06e49aef52b182f19","D2","batch4","","1241.3000001907349","stim/yes_60_ver_b1_b.png","f","pattern_response","true","f","pattern_77","1241.3000001907349","true","47","","","","","","","","","","","","","","","","","","",""
"","","","","","html-keyboard-response","132","272233","0.0-2.0-7.0-0.16","61057dd06e49aef52b182f19","D2","batch4","","null","<p class=block-text>Trial 56 out of 78</p>","null","pattern_show_trial_num","","","","","","","","","","","","","","","","","","","","","","","","",""
"","","","","","image-keyboard-response","133","273185","0.0-2.0-7.0-1.16","61057dd06e49aef52b182f19","D2","batch4","","948.9000005722046","stim/yes_52_ver_w1.png","f","pattern_response","true","f","pattern_73","948.9000005722046","true","48","","","","","","","","","","","","","","","","","","",""
"","","","","","html-keyboard-response","134","274496","0.0-2.0-7.0-0.17","61057dd06e49aef52b182f19","D2","batch4","","null","<p class=block-text>Trial 57 out of 78</p>","null","pattern_show_trial_num","","","","","","","","","","","","","","","","","","","","","","","","",""
"","","","","","image-keyboard-response","135","275288","0.0-2.0-7.0-1.17","61057dd06e49aef52b182f19","D2","batch4","","789.5999994277954","stim/yes_29_ver_w1.png","f","pattern_response","true","f","pattern_53","789.5999994277954","true","49","","","","","","","","","","","","","","","","","","",""
"","","","","","html-keyboard-response","136","276601","0.0-2.0-7.0-0.18","61057dd06e49aef52b182f19","D2","batch4","","null","<p class=block-text>Trial 58 out of 78</p>","null","pattern_show_trial_num","","","","","","","","","","","","","","","","","","","","","","","","",""
"","","","","","image-keyboard-response","137","279955","0.0-2.0-7.0-1.18","61057dd06e49aef52b182f19","D2","batch4","","3352","stim/no_50_1.png","j","pattern_response","true","j","pattern_30","3352","true","50","","","","","","","","","","","","","","","","","","",""
"","","","","","html-keyboard-response","138","281265","0.0-2.0-7.0-0.19","61057dd06e49aef52b182f19","D2","batch4","","null","<p class=block-text>Trial 59 out of 78</p>","null","pattern_show_trial_num","","","","","","","","","","","","","","","","","","","","","","","","",""
"","","","","","image-keyboard-response","139","282014","0.0-2.0-7.0-1.19","61057dd06e49aef52b182f19","D2","batch4","","745.6999998092651","stim/yes_35_dia_b1.png","f","pattern_response","true","f","pattern_57","745.6999998092651","true","51","","","","","","","","","","","","","","","","","","",""
"","","","","","html-keyboard-response","140","283329","0.0-2.0-7.0-0.20","61057dd06e49aef52b182f19","D2","batch4","","null","<p class=block-text>Trial 60 out of 78</p>","null","pattern_show_trial_num","","","","","","","","","","","","","","","","","","","","","","","","",""
"","","","","","image-keyboard-response","141","285527","0.0-2.0-7.0-1.20","61057dd06e49aef52b182f19","D2","batch4","","2196.300000190735","stim/yes_37_dia_w1.png","j","pattern_response","false","f","pattern_59","2196.300000190735","false","51","","","","","","","","","","","","","","","","","","",""
"","","","","","html-keyboard-response","142","286841","0.0-2.0-7.0-0.21","61057dd06e49aef52b182f19","D2","batch4","","null","<p class=block-text>Trial 61 out of 78</p>","null","pattern_show_trial_num","","","","","","","","","","","","","","","","","","","","","","","","",""
"","","","","","image-keyboard-response","143","291563","0.0-2.0-7.0-1.21","61057dd06e49aef52b182f19","D2","batch4","","4719.199999809265","stim/no_36_2_w.png","j","pattern_response","true","j","pattern_18","4719.199999809265","true","52","","","","","","","","","","","","","","","","","","",""
"","","","","","html-keyboard-response","144","292877","0.0-2.0-7.0-0.22","61057dd06e49aef52b182f19","D2","batch4","","null","<p class=block-text>Trial 62 out of 78</p>","null","pattern_show_trial_num","","","","","","","","","","","","","","","","","","","","","","","","",""
"","","","","","image-keyboard-response","145","293805","0.0-2.0-7.0-1.22","61057dd06e49aef52b182f19","D2","batch4","","925","stim/no_23_1.png","f","pattern_response","false","j","pattern_08","925","false","52","","","","","","","","","","","","","","","","","","",""
"","","","","","html-keyboard-response","146","295121","0.0-2.0-7.0-0.23","61057dd06e49aef52b182f19","D2","batch4","","null","<p class=block-text>Trial 63 out of 78</p>","null","pattern_show_trial_num","","","","","","","","","","","","","","","","","","","","","","","","",""
"","","","","","image-keyboard-response","147","296772","0.0-2.0-7.0-1.23","61057dd06e49aef52b182f19","D2","batch4","","1649.6000003814697","stim/no_34_1_b.png","j","pattern_response","true","j","pattern_16","1649.6000003814697","true","53","","","","","","","","","","","","","","","","","","",""
"","","","","","html-keyboard-response","148","298089","0.0-2.0-7.0-0.24","61057dd06e49aef52b182f19","D2","batch4","","null","<p class=block-text>Trial 64 out of 78</p>","null","pattern_show_trial_num","","","","","","","","","","","","","","","","","","","","","","","","",""
"","","","","","image-keyboard-response","149","298846","0.0-2.0-7.0-1.24","61057dd06e49aef52b182f19","D2","batch4","","753.5999994277954","stim/yes_28_ver_b1.png","f","pattern_response","true","f","pattern_51","753.5999994277954","true","54","","","","","","","","","","","","","","","","","","",""
"","","","","","html-keyboard-response","150","300161","0.0-2.0-7.0-0.25","61057dd06e49aef52b182f19","D2","batch4","","null","<p class=block-text>Trial 65 out of 78</p>","null","pattern_show_trial_num","","","","","","","","","","","","","","","","","","","","","","","","",""
"","","","","","image-keyboard-response","151","303569","0.0-2.0-7.0-1.25","61057dd06e49aef52b182f19","D2","batch4","","3405.2000007629395","stim/yes_48_dia_w1_w.png","f","pattern_response","true","f","pattern_69","3405.2000007629395","true","55","","","","","","","","","","","","","","","","","","",""
"","","","","","html-keyboard-response","152","304881","0.0-2.0-7.0-0.26","61057dd06e49aef52b182f19","D2","batch4","","null","<p class=block-text>Trial 66 out of 78</p>","null","pattern_show_trial_num","","","","","","","","","","","","","","","","","","","","","","","","",""
"","","","","","image-keyboard-response","153","305794","0.0-2.0-7.0-1.26","61057dd06e49aef52b182f19","D2","batch4","","910.0999994277954","stim/yes_55_hor_w1_w.png","f","pattern_response","true","f","pattern_75","910.0999994277954","true","56","","","","","","","","","","","","","","","","","","",""
"","","","","","html-keyboard-response","154","307105","0.0-2.0-7.0-0.27","61057dd06e49aef52b182f19","D2","batch4","","null","<p class=block-text>Trial 67 out of 78</p>","null","pattern_show_trial_num","","","","","","","","","","","","","","","","","","","","","","","","",""
"","","","","","image-keyboard-response","155","307746","0.0-2.0-7.0-1.27","61057dd06e49aef52b182f19","D2","batch4","","639.1999998092651","stim/yes_22_ver_w1.png","f","pattern_response","true","f","pattern_47","639.1999998092651","true","57","","","","","","","","","","","","","","","","","","",""
"","","","","","html-keyboard-response","156","309057","0.0-2.0-7.0-0.28","61057dd06e49aef52b182f19","D2","batch4","","null","<p class=block-text>Trial 68 out of 78</p>","null","pattern_show_trial_num","","","","","","","","","","","","","","","","","","","","","","","","",""
"","","","","","image-keyboard-response","157","312140","0.0-2.0-7.0-1.28","61057dd06e49aef52b182f19","D2","batch4","","3080.5","stim/no_52_1.png","j","pattern_response","true","j","pattern_32","3080.5","true","58","","","","","","","","","","","","","","","","","","",""
"","","","","","html-keyboard-response","158","313457","0.0-2.0-7.0-0.29","61057dd06e49aef52b182f19","D2","batch4","","null","<p class=block-text>Trial 69 out of 78</p>","null","pattern_show_trial_num","","","","","","","","","","","","","","","","","","","","","","","","",""
"","","","","","image-keyboard-response","159","314621","0.0-2.0-7.0-1.29","61057dd06e49aef52b182f19","D2","batch4","","1161.8000001907349","stim/yes_45_hor_b2_b.png","f","pattern_response","true","f","pattern_67","1161.8000001907349","true","59","","","","","","","","","","","","","","","","","","",""
"","","","","","html-keyboard-response","160","315937","0.0-2.0-7.0-0.30","61057dd06e49aef52b182f19","D2","batch4","","null","<p class=block-text>Trial 70 out of 78</p>","null","pattern_show_trial_num","","","","","","","","","","","","","","","","","","","","","","","","",""
"","","","","","image-keyboard-response","161","316736","0.0-2.0-7.0-1.30","61057dd06e49aef52b182f19","D2","batch4","","797.5","stim/no_13_2_b.png","j","pattern_response","true","j","pattern_02","797.5","true","60","","","","","","","","","","","","","","","","","","",""
"","","","","","html-keyboard-response","162","318049","0.0-2.0-7.0-0.31","61057dd06e49aef52b182f19","D2","batch4","","null","<p class=block-text>Trial 71 out of 78</p>","null","pattern_show_trial_num","","","","","","","","","","","","","","","","","","","","","","","","",""
"","","","","","image-keyboard-response","163","322610","0.0-2.0-7.0-1.31","61057dd06e49aef52b182f19","D2","batch4","","4558.199999809265","stim/no_70_2.png","j","pattern_response","true","j","pattern_40","4558.199999809265","true","61","","","","","","","","","","","","","","","","","","",""
"","","","","","html-keyboard-response","164","323921","0.0-2.0-7.0-0.32","61057dd06e49aef52b182f19","D2","batch4","","null","<p class=block-text>Trial 72 out of 78</p>","null","pattern_show_trial_num","","","","","","","","","","","","","","","","","","","","","","","","",""
"","","","","","image-keyboard-response","165","327134","0.0-2.0-7.0-1.32","61057dd06e49aef52b182f19","D2","batch4","","3205.6000003814697","stim/no_48_1_w.png","j","pattern_response","true","j","pattern_28","3205.6000003814697","true","62","","","","","","","","","","","","","","","","","","",""
"","","","","","html-keyboard-response","166","328449","0.0-2.0-7.0-0.33","61057dd06e49aef52b182f19","D2","batch4","","null","<p class=block-text>Trial 73 out of 78</p>","null","pattern_show_trial_num","","","","","","","","","","","","","","","","","","","","","","","","",""
"","","","","","image-keyboard-response","167","329157","0.0-2.0-7.0-1.33","61057dd06e49aef52b182f19","D2","batch4","","705","stim/yes_25_hor_b1_b.png","f","pattern_response","true","f","pattern_49","705","true","63","","","","","","","","","","","","","","","","","","",""
"","","","","","html-keyboard-response","168","330465","0.0-2.0-7.0-0.34","61057dd06e49aef52b182f19","D2","batch4","","null","<p class=block-text>Trial 74 out of 78</p>","null","pattern_show_trial_num","","","","","","","","","","","","","","","","","","","","","","","","",""
"","","","","","image-keyboard-response","169","331254","0.0-2.0-7.0-1.34","61057dd06e49aef52b182f19","D2","batch4","","786.6999998092651","stim/yes_67_hor_b1.png","f","pattern_response","true","f","pattern_79","786.6999998092651","true","64","","","","","","","","","","","","","","","","","","",""
"","","","","","html-keyboard-response","170","332569","0.0-2.0-7.0-0.35","61057dd06e49aef52b182f19","D2","batch4","","null","<p class=block-text>Trial 75 out of 78</p>","null","pattern_show_trial_num","","","","","","","","","","","","","","","","","","","","","","","","",""
"","","","","","image-keyboard-response","171","333910","0.0-2.0-7.0-1.35","61057dd06e49aef52b182f19","D2","batch4","","1338.8999996185303","stim/no_20_1_w.png","j","pattern_response","true","j","pattern_06","1338.8999996185303","true","65","","","","","","","","","","","","","","","","","","",""
"","","","","","html-keyboard-response","172","335224","0.0-2.0-7.0-0.36","61057dd06e49aef52b182f19","D2","batch4","","null","<p class=block-text>Trial 76 out of 78</p>","null","pattern_show_trial_num","","","","","","","","","","","","","","","","","","","","","","","","",""
"","","","","","image-keyboard-response","173","338807","0.0-2.0-7.0-1.36","61057dd06e49aef52b182f19","D2","batch4","","3581.3999996185303","stim/no_65_1_b.png","j","pattern_response","true","j","pattern_38","3581.3999996185303","true","66","","","","","","","","","","","","","","","","","","",""
"","","","","","html-keyboard-response","174","340121","0.0-2.0-7.0-0.37","61057dd06e49aef52b182f19","D2","batch4","","null","<p class=block-text>Trial 77 out of 78</p>","null","pattern_show_trial_num","","","","","","","","","","","","","","","","","","","","","","","","",""
"","","","","","image-keyboard-response","175","343043","0.0-2.0-7.0-1.37","61057dd06e49aef52b182f19","D2","batch4","","2919.4000005722046","stim/no_38_1_b.png","j","pattern_response","true","j","pattern_20","2919.4000005722046","true","67","","","","","","","","","","","","","","","","","","",""
"","","","","","html-keyboard-response","176","344353","0.0-2.0-7.0-0.38","61057dd06e49aef52b182f19","D2","batch4","","null","<p class=block-text>Trial 78 out of 78</p>","null","pattern_show_trial_num","","","","","","","","","","","","","","","","","","","","","","","","",""
"","","","","","image-keyboard-response","177","345285","0.0-2.0-7.0-1.38","61057dd06e49aef52b182f19","D2","batch4","","929.8000001907349","stim/yes_31_hor_b1.png","f","pattern_response","true","f","pattern_55","929.8000001907349","true","68","","","","","","","","","","","","","","","","","","",""
"","","","","","html-button-response","178","349023","0.0-2.0-8.0","61057dd06e49aef52b182f19","D2","batch4","","3225.699999809265","<p class = block-text>This concludes the 4-in-a-row detection game.Thank you for your responses!<br>
            You responded correctly on 87% of the trials.<br>
            When you are ready, press ""Continue"" button to continue </p>","0","","","","","","","","","","","","","","","","","","","","","","","","","",""
"true","","","","","fullscreen","179","351827","0.0-3.0-0.0","61057dd06e49aef52b182f19","D2","batch4","","","","","","","","","","","","","","","","","","","","","","","","","","","","","",""
"","","","","","instructions","180","406974","0.0-3.0-1.0-0.0-0.0","61057dd06e49aef52b182f19","D2","batch4","[{""page_index"":0,""viewing_time"":14865},{""page_index"":1,""viewing_time"":7890.699999809265},{""page_index"":2,""viewing_time"":4580.800000190735},{""page_index"":3,""viewing_time"":8063},{""page_index"":4,""viewing_time"":4551},{""page_index"":5,""viewing_time"":12360.10000038147},{""page_index"":6,""viewing_time"":2835.199999809265}]","55146.199999809265","","","tol-instructions","","","","","","","","","","","","","","","","","","","","","","","","",""
"","","","","","html-button-response","181","408235","0.0-3.0-1.0-1.0-0.0","61057dd06e49aef52b182f19","D2","batch4","","1259.1999998092651","<p class=block-text> Let's answer a few questions <br>","0","tol_enter_quiz","","","","","","","","","","","","","","","","","","","","","","","","",""
"","","","","","html-button-response","182","411790","0.0-3.0-1.0-1.0-1.0","61057dd06e49aef52b182f19","D2","batch4","","3551.6000003814697","<p class = block-text>True or False: You can only move the ball on top of a peg. <br></p>","0","tol_quiz","true","","","","","","","","","","","","","","","","","","","","","","","",""
"","","","","","html-button-response","183","413228","0.0-3.0-1.0-1.0-2.0","61057dd06e49aef52b182f19","D2","batch4","","1436.6999998092651","<p class = block-text>Correct! You can only move the ball on top of a peg.</p>","0","tol_quiz_feedback","","","","","","","","","","","","","","","","","","","","","","","","",""
"","","","","","html-button-response","184","416583","0.0-3.0-1.0-1.0-3.0","61057dd06e49aef52b182f19","D2","batch4","","3352.6000003814697","<p class = block-text>True or False: You should try to match your board with the target board with fewest moves possible. <br></p>","0","tol_quiz","true","","","","","","","","","","","","","","","","","","","","","","","",""
"","","","","","html-button-response","185","417384","0.0-3.0-1.0-1.0-4.0","61057dd06e49aef52b182f19","D2","batch4","","799.5","<p class = block-text>Correct! </p>","0","tol_quiz_feedback","","","","","","","","","","","","","","","","","","","","","","","","",""
"","","","","","html-button-response","186","418750","0.0-3.0-2.0","61057dd06e49aef52b182f19","D2","batch4","","1363.8999996185303","<p class=block-text> Now that you've understood the game, let's practice a few easier examples before we start!<br> <br>","0","","","","","","","","","","","","","","","","","","","","","","","","","",""
"","","","","","single-stim-button","187","420964","0.0-3.0-3.0-0.0","61057dd06e49aef52b182f19","D2","batch4","","2210","","","tol_practice","","","","","","","","","tol_peg_2","2210","2210","0","[[1,2,0],[0,0],[0]]","1","[[1,2,0],[0,0],[3]]","practice","2210","","","","","","","",""
"","","","","","single-stim-button","188","422733","0.0-3.0-3.0-1.0","61057dd06e49aef52b182f19","D2","batch4","","1768","","","tol_practice","","","","","","","","","tol_peg_3","1768","1768","0","[[1,2,0],[0,0],[3]]","1","[[1,2,0],[0,0],[3]]","practice","1768","","","","","","","",""
"","","","","","poldrack-single-stim","189","423737","0.0-3.0-4.0","61057dd06e49aef52b182f19","D2","batch4","","-1","","","tol_feedback","true","","","","","","","","","1000","1000","500","","","","","","-1","none","true","","0","","",""
"","","","","","single-stim-button","190","427443","0.0-3.0-5.0-0.0","61057dd06e49aef52b182f19","D2","batch4","","3704","","","tol_practice","","","","","","","","","tol_peg_1","3704","3704","0","[[1,0,0],[3,0],[0]]","2","[[0,0,0],[3,1],[2]]","practice","3704","","","","","","","",""
"","","","","","single-stim-button","191","428694","0.0-3.0-5.0-1.0","61057dd06e49aef52b182f19","D2","batch4","","1251","","","tol_practice","","","","","","","","","tol_peg_3","1251","1251","0","[[1,0,0],[3,0],[2]]","2","[[0,0,0],[3,1],[2]]","practice","1251","","","","","","","",""
"","","","","","single-stim-button","192","429467","0.0-3.0-5.1-0.1","61057dd06e49aef52b182f19","D2","batch4","","771","","","tol_practice","","","","","","","","","tol_peg_1","771","771","0","[[0,0,0],[3,0],[2]]","3","[[0,0,0],[3,1],[2]]","practice","771","","","","","","","",""
"","","","","","single-stim-button","193","430104","0.0-3.0-5.1-1.1","61057dd06e49aef52b182f19","D2","batch4","","636","","","tol_practice","","","","","","","","","tol_peg_2","636","636","0","[[0,0,0],[3,1],[2]]","3","[[0,0,0],[3,1],[2]]","practice","636","","","","","","","",""
"","","","","","poldrack-single-stim","194","431109","0.0-3.0-6.0","61057dd06e49aef52b182f19","D2","batch4","","-1","","","tol_feedback","true","","","","","","","","","1000","1000","500","","","","","","-1","none","true","","0","","",""
"","","","","","single-stim-button","195","434154","0.0-3.0-7.0-0.0","61057dd06e49aef52b182f19","D2","batch4","","3044","","","tol_practice","","","","","","","","","tol_peg_2","3044","3044","0","[[1,2,0],[0,0],[0]]","4","[[1,0,0],[2,0],[3]]","practice","3044","","","","","","","",""
"","","","","","single-stim-button","196","435024","0.0-3.0-7.0-1.0","61057dd06e49aef52b182f19","D2","batch4","","868","","","tol_practice","","","","","","","","","tol_peg_3","868","868","0","[[1,2,0],[0,0],[3]]","4","[[1,0,0],[2,0],[3]]","practice","868","","","","","","","",""
"","","","","","single-stim-button","197","435788","0.0-3.0-7.1-0.1","61057dd06e49aef52b182f19","D2","batch4","","764","","","tol_practice","","","","","","","","","tol_peg_1","764","764","0","[[1,0,0],[0,0],[3]]","5","[[1,0,0],[2,0],[3]]","practice","764","","","","","","","",""
"","","","","","single-stim-button","198","436688","0.0-3.0-7.1-1.1","61057dd06e49aef52b182f19","D2","batch4","","899","","","tol_practice","","","","","","","","","tol_peg_2","899","899","0","[[1,0,0],[2,0],[3]]","5","[[1,0,0],[2,0],[3]]","practice","899","","","","","","","",""
"","","","","","poldrack-single-stim","199","437698","0.0-3.0-8.0","61057dd06e49aef52b182f19","D2","batch4","","-1","","","tol_feedback","true","","","","","","","","","1000","1000","500","","","","","","-1","none","true","","0","","",""
"","","","","","html-button-response","200","439997","0.0-3.0-9.0","61057dd06e49aef52b182f19","D2","batch4","","2297.699999809265","<div class = centerbox><p class = center-block-text>Great job! You are done with practice trials<br>You are about to start official trials.<br> <br> Problem <strong>1</strong> out of 25 problems</p></div>","0","tol_instruction","","","","","","","","","","","","","","","","","","","","","","","","",""
"","","","","","single-stim-button","201","448682","0.0-3.0-10.0-0.0","61057dd06e49aef52b182f19","D2","batch4","","7681","","","tol_tohand","","","","","","","","","tol_peg_1","7681","7681","0","[[1,0,0],[3,0],[0]]","1","[[1,3,0],[2,0],[0]]","0","0","","","","","","3","",""
"","","","","","single-stim-button","202","450175","0.0-3.0-10.0-1.0","61057dd06e49aef52b182f19","D2","batch4","","1491","","","tol_toboard","","","","","","","","","tol_peg_3","1491","1491","0","[[1,0,0],[3,0],[2]]","1","[[1,3,0],[2,0],[0]]","0","0","","","","","","3","",""
"","","","","","single-stim-button","203","451158","0.0-3.0-10.1-0.1","61057dd06e49aef52b182f19","D2","batch4","","982","","","tol_tohand","","","","","","","","","tol_peg_2","982","982","0","[[1,0,0],[0,0],[2]]","2","[[1,3,0],[2,0],[0]]","0","0","","","","","","3","",""
"","","","","","single-stim-button","204","451854","0.0-3.0-10.1-1.1","61057dd06e49aef52b182f19","D2","batch4","","694","","","tol_toboard","","","","","","","","","tol_peg_1","694","694","0","[[1,3,0],[0,0],[2]]","2","[[1,3,0],[2,0],[0]]","0","0","","","","","","3","",""
"","","","","","single-stim-button","205","452537","0.0-3.0-10.2-0.2","61057dd06e49aef52b182f19","D2","batch4","","682","","","tol_tohand","","","","","","","","","tol_peg_3","682","682","0","[[1,3,0],[0,0],[0]]","3","[[1,3,0],[2,0],[0]]","0","0","","","","","","3","",""
"","","","","","single-stim-button","206","453166","0.0-3.0-10.2-1.2","61057dd06e49aef52b182f19","D2","batch4","","629","","","tol_toboard","","","","","","","","","tol_peg_2","629","629","0","[[1,3,0],[2,0],[0]]","3","[[1,3,0],[2,0],[0]]","0","0","","","","","","3","",""
"","","","","","poldrack-single-stim","207","454170","0.0-3.0-11.0","61057dd06e49aef52b182f19","D2","batch4","","-1","","","tol_feedback","true","","","","","","","","","1000","1000","500","","","","","","-1","none","true","7681","9345","","",""
"","","","","","html-button-response","208","455355","0.0-3.0-12.0","61057dd06e49aef52b182f19","D2","batch4","","1183.8000001907349","<div class = centerbox><p class = center-block-text>problem <strong>2</strong> out of 25 problems</p></div>","0","tol_trial_num","","","","","","","","","","","","","","","","","","","","","","","","",""
"","","","","","single-stim-button","209","460645","0.0-3.0-13.0-0.0","61057dd06e49aef52b182f19","D2","batch4","","5288","","","tol_tohand","","","","","","","","","tol_peg_1","5288","5288","0","[[1,0,0],[3,0],[0]]","1","[[2,1,3],[0,0],[0]]","1","0","","","","","","5","",""
"","","","","","single-stim-button","210","462071","0.0-3.0-13.0-1.0","61057dd06e49aef52b182f19","D2","batch4","","1426","","","tol_toboard","","","","","","","","","tol_peg_3","1426","1426","0","[[1,0,0],[3,0],[2]]","1","[[2,1,3],[0,0],[0]]","1","0","","","","","","5","",""
"","","","","","single-stim-button","211","463349","0.0-3.0-13.1-0.1","61057dd06e49aef52b182f19","D2","batch4","","1276","","","tol_tohand","","","","","","","","","tol_peg_1","1276","1276","0","[[0,0,0],[3,0],[2]]","2","[[2,1,3],[0,0],[0]]","1","0","","","","","","5","",""
"","","","","","single-stim-button","212","466365","0.0-3.0-13.1-1.1","61057dd06e49aef52b182f19","D2","batch4","","3016","","","tol_toboard","","","","","","","","","tol_peg_2","3016","3016","0","[[0,0,0],[3,1],[2]]","2","[[2,1,3],[0,0],[0]]","1","0","","","","","","5","",""
"","","","","","single-stim-button","213","467086","0.0-3.0-13.2-0.2","61057dd06e49aef52b182f19","D2","batch4","","719","","","tol_tohand","","","","","","","","","tol_peg_3","719","719","0","[[0,0,0],[3,1],[0]]","3","[[2,1,3],[0,0],[0]]","1","0","","","","","","5","",""
"","","","","","single-stim-button","214","468878","0.0-3.0-13.2-1.2","61057dd06e49aef52b182f19","D2","batch4","","1790","","","tol_toboard","","","","","","","","","tol_peg_1","1790","1790","0","[[2,0,0],[3,1],[0]]","3","[[2,1,3],[0,0],[0]]","1","0","","","","","","5","",""
"","","","","","single-stim-button","215","469643","0.0-3.0-13.3-0.3","61057dd06e49aef52b182f19","D2","batch4","","763","","","tol_tohand","","","","","","","","","tol_peg_2","763","763","0","[[2,0,0],[3,0],[0]]","4","[[2,1,3],[0,0],[0]]","1","0","","","","","","5","",""
"","","","","","single-stim-button","216","470692","0.0-3.0-13.3-1.3","61057dd06e49aef52b182f19","D2","batch4","","1048","","","tol_toboard","","","","","","","","","tol_peg_1","1048","1048","0","[[2,1,0],[3,0],[0]]","4","[[2,1,3],[0,0],[0]]","1","0","","","","","","5","",""
"","","","","","single-stim-button","217","471165","0.0-3.0-13.4-0.4","61057dd06e49aef52b182f19","D2","batch4","","472","","","tol_tohand","","","","","","","","","tol_peg_2","472","472","0","[[2,1,0],[0,0],[0]]","5","[[2,1,3],[0,0],[0]]","1","0","","","","","","5","",""
"","","","","","single-stim-button","218","471758","0.0-3.0-13.4-1.4","61057dd06e49aef52b182f19","D2","batch4","","591","","","tol_toboard","","","","","","","","","tol_peg_1","591","591","0","[[2,1,3],[0,0],[0]]","5","[[2,1,3],[0,0],[0]]","1","0","","","","","","5","",""
"","","","","","poldrack-single-stim","219","472762","0.0-3.0-14.0","61057dd06e49aef52b182f19","D2","batch4","","-1","","","tol_feedback","true","","","","","","","","","1000","1000","500","","","","","","-1","none","true","5288","8518","","",""
"","","","","","html-button-response","220","475052","0.0-3.0-15.0","61057dd06e49aef52b182f19","D2","batch4","","2288.3999996185303","<div class = centerbox><p class = center-block-text>problem <strong>3</strong> out of 25 problems</p></div>","0","tol_trial_num","","","","","","","","","","","","","","","","","","","","","","","","",""
"","","","","","single-stim-button","221","478095","0.0-3.0-16.0-0.0","61057dd06e49aef52b182f19","D2","batch4","","3042","","","tol_tohand","","","","","","","","","tol_peg_1","3042","3042","0","[[2,0,0],[0,0],[1]]","1","[[1,2,0],[3,0],[0]]","2","0","","","","","","4","",""
"","","","","","single-stim-button","222","479281","0.0-3.0-16.0-1.0","61057dd06e49aef52b182f19","D2","batch4","","1184","","","tol_toboard","","","","","","","","","tol_peg_2","1184","1184","0","[[2,0,0],[3,0],[1]]","1","[[1,2,0],[3,0],[0]]","2","0","","","","","","4","",""
"","","","","","single-stim-button","223","480449","0.0-3.0-16.1-0.1","61057dd06e49aef52b182f19","D2","batch4","","1167","","","tol_tohand","","","","","","","","","tol_peg_1","1167","1167","0","[[0,0,0],[3,0],[1]]","2","[[1,2,0],[3,0],[0]]","2","0","","","","","","4","",""
"","","","","","single-stim-button","224","481964","0.0-3.0-16.1-1.1","61057dd06e49aef52b182f19","D2","batch4","","1514","","","tol_toboard","","","","","","","","","tol_peg_2","1514","1514","0","[[0,0,0],[3,2],[1]]","2","[[1,2,0],[3,0],[0]]","2","0","","","","","","4","",""
"","","","","","single-stim-button","225","482732","0.0-3.0-16.2-0.2","61057dd06e49aef52b182f19","D2","batch4","","768","","","tol_tohand","","","","","","","","","tol_peg_3","768","768","0","[[0,0,0],[3,2],[0]]","3","[[1,2,0],[3,0],[0]]","2","0","","","","","","4","",""
"","","","","","single-stim-button","226","483668","0.0-3.0-16.2-1.2","61057dd06e49aef52b182f19","D2","batch4","","934","","","tol_toboard","","","","","","","","","tol_peg_1","934","934","0","[[1,0,0],[3,2],[0]]","3","[[1,2,0],[3,0],[0]]","2","0","","","","","","4","",""
"","","","","","single-stim-button","227","484291","0.0-3.0-16.3-0.3","61057dd06e49aef52b182f19","D2","batch4","","622","","","tol_tohand","","","","","","","","","tol_peg_2","622","622","0","[[1,0,0],[3,0],[0]]","4","[[1,2,0],[3,0],[0]]","2","0","","","","","","4","",""
"","","","","","single-stim-button","228","484852","0.0-3.0-16.3-1.3","61057dd06e49aef52b182f19","D2","batch4","","560","","","tol_toboard","","","","","","","","","tol_peg_1","560","560","0","[[1,2,0],[3,0],[0]]","4","[[1,2,0],[3,0],[0]]","2","0","","","","","","4","",""
"","","","","","poldrack-single-stim","229","485860","0.0-3.0-17.0","61057dd06e49aef52b182f19","D2","batch4","","-1","","","tol_feedback","true","","","","","","","","","1000","1000","500","","","","","","-1","none","true","3042","5599","","",""
"","","","","","html-button-response","230","486982","0.0-3.0-18.0","61057dd06e49aef52b182f19","D2","batch4","","1120.3000001907349","<div class = centerbox><p class = center-block-text>problem <strong>4</strong> out of 25 problems</p></div>","0","tol_trial_num","","","","","","","","","","","","","","","","","","","","","","","","",""
"","","","","","single-stim-button","231","492090","0.0-3.0-19.0-0.0","61057dd06e49aef52b182f19","D2","batch4","","5107","","","tol_tohand","","","","","","","","","tol_peg_2","5107","5107","0","[[3,0,0],[2,0],[0]]","1","[[3,0,0],[1,0],[2]]","3","0","","","","","","3","",""
"","","","","","single-stim-button","232","492764","0.0-3.0-19.0-1.0","61057dd06e49aef52b182f19","D2","batch4","","673","","","tol_toboard","","","","","","","","","tol_peg_1","673","673","0","[[3,1,0],[2,0],[0]]","1","[[3,0,0],[1,0],[2]]","3","0","","","","","","3","",""
"","","","","","single-stim-button","233","493260","0.0-3.0-19.1-0.1","61057dd06e49aef52b182f19","D2","batch4","","494","","","tol_tohand","","","","","","","","","tol_peg_2","494","494","0","[[3,1,0],[0,0],[0]]","2","[[3,0,0],[1,0],[2]]","3","0","","","","","","3","",""
"","","","","","single-stim-button","234","493786","0.0-3.0-19.1-1.1","61057dd06e49aef52b182f19","D2","batch4","","525","","","tol_toboard","","","","","","","","","tol_peg_3","525","525","0","[[3,1,0],[0,0],[2]]","2","[[3,0,0],[1,0],[2]]","3","0","","","","","","3","",""
"","","","","","single-stim-button","235","494751","0.0-3.0-19.2-0.2","61057dd06e49aef52b182f19","D2","batch4","","965","","","tol_tohand","","","","","","","","","tol_peg_1","965","965","0","[[3,0,0],[0,0],[2]]","3","[[3,0,0],[1,0],[2]]","3","0","","","","","","3","",""
"","","","","","single-stim-button","236","495262","0.0-3.0-19.2-1.2","61057dd06e49aef52b182f19","D2","batch4","","510","","","tol_toboard","","","","","","","","","tol_peg_2","510","510","0","[[3,0,0],[1,0],[2]]","3","[[3,0,0],[1,0],[2]]","3","0","","","","","","3","",""
"","","","","","poldrack-single-stim","237","496268","0.0-3.0-20.0","61057dd06e49aef52b182f19","D2","batch4","","-1","","","tol_feedback","true","","","","","","","","","1000","1000","500","","","","","","-1","none","true","5107","6566","","",""
"","","","","","html-button-response","238","497093","0.0-3.0-21.0","61057dd06e49aef52b182f19","D2","batch4","","822.3000001907349","<div class = centerbox><p class = center-block-text>problem <strong>5</strong> out of 25 problems</p></div>","0","tol_trial_num","","","","","","","","","","","","","","","","","","","","","","","","",""
"","","","","","single-stim-button","239","499326","0.0-3.0-22.0-0.0","61057dd06e49aef52b182f19","D2","batch4","","2232","","","tol_tohand","","","","","","","","","tol_peg_2","2232","2232","0","[[1,0,0],[0,0],[3]]","1","[[0,0,0],[1,2],[3]]","4","0","","","","","","7","",""
"","","","","","single-stim-button","240","506968","0.0-3.0-22.0-1.0","61057dd06e49aef52b182f19","D2","batch4","","7642","","","tol_toboard","","","","","","","","","tol_peg_2","7642","7642","0","[[1,0,0],[2,0],[3]]","1","[[0,0,0],[1,2],[3]]","4","0","","","","","","7","",""
"","","","","","single-stim-button","241","513510","0.0-3.0-22.1-0.1","61057dd06e49aef52b182f19","D2","batch4","","6540","","","tol_tohand","","","","","","","","","tol_peg_3","6540","6540","0","[[1,0,0],[2,0],[0]]","2","[[0,0,0],[1,2],[3]]","4","0","","","","","","7","",""
"","","","","","single-stim-button","242","514948","0.0-3.0-22.1-1.1","61057dd06e49aef52b182f19","D2","batch4","","1437","","","tol_toboard","","","","","","","","","tol_peg_1","1437","1437","0","[[1,3,0],[2,0],[0]]","2","[[0,0,0],[1,2],[3]]","4","0","","","","","","7","",""
"","","","","","single-stim-button","243","516044","0.0-3.0-22.2-0.2","61057dd06e49aef52b182f19","D2","batch4","","1095","","","tol_tohand","","","","","","","","","tol_peg_2","1095","1095","0","[[1,3,0],[0,0],[0]]","3","[[0,0,0],[1,2],[3]]","4","0","","","","","","7","",""
"","","","","","single-stim-button","244","517687","0.0-3.0-22.2-1.2","61057dd06e49aef52b182f19","D2","batch4","","1641","","","tol_toboard","","","","","","","","","tol_peg_3","1641","1641","0","[[1,3,0],[0,0],[2]]","3","[[0,0,0],[1,2],[3]]","4","0","","","","","","7","",""
"","","","","","single-stim-button","245","522912","0.0-3.0-22.3-0.3","61057dd06e49aef52b182f19","D2","batch4","","5224","","","tol_tohand","","","","","","","","","tol_peg_3","5224","5224","0","[[1,3,0],[0,0],[0]]","4","[[0,0,0],[1,2],[3]]","4","0","","","","","","7","",""
"","","","","","single-stim-button","246","527143","0.0-3.0-22.3-1.3","61057dd06e49aef52b182f19","D2","batch4","","4231","","","tol_toboard","","","","","","","","","tol_peg_2","4231","4231","0","[[1,3,0],[2,0],[0]]","4","[[0,0,0],[1,2],[3]]","4","0","","","","","","7","",""
"","","","","","single-stim-button","247","527654","0.0-3.0-22.4-0.4","61057dd06e49aef52b182f19","D2","batch4","","510","","","tol_tohand","","","","","","","","","tol_peg_1","510","510","0","[[1,0,0],[2,0],[0]]","5","[[0,0,0],[1,2],[3]]","4","0","","","","","","7","",""
"","","","","","single-stim-button","248","530389","0.0-3.0-22.4-1.4","61057dd06e49aef52b182f19","D2","batch4","","2734","","","tol_toboard","","","","","","","","","tol_peg_3","2734","2734","0","[[1,0,0],[2,0],[3]]","5","[[0,0,0],[1,2],[3]]","4","0","","","","","","7","",""
"","","","","","single-stim-button","249","534126","0.0-3.0-22.5-0.5","61057dd06e49aef52b182f19","D2","batch4","","3737","","","tol_tohand","","","","","","","","","tol_peg_3","3737","3737","0","[[1,0,0],[2,0],[0]]","6","[[0,0,0],[1,2],[3]]","4","0","","","","","","7","",""
"","","","","","single-stim-button","250","534674","0.0-3.0-22.5-1.5","61057dd06e49aef52b182f19","D2","batch4","","546","","","tol_toboard","","","","","","","","","tol_peg_2","546","546","0","[[1,0,0],[2,3],[0]]","6","[[0,0,0],[1,2],[3]]","4","0","","","","","","7","",""
"","","","","","single-stim-button","251","535064","0.0-3.0-22.6-0.6","61057dd06e49aef52b182f19","D2","batch4","","389","","","tol_tohand","","","","","","","","","tol_peg_1","389","389","0","[[0,0,0],[2,3],[0]]","7","[[0,0,0],[1,2],[3]]","4","0","","","","","","7","",""
"","","","","","single-stim-button","252","535649","0.0-3.0-22.6-1.6","61057dd06e49aef52b182f19","D2","batch4","","583","","","tol_toboard","","","","","","","","","tol_peg_3","583","583","0","[[0,0,0],[2,3],[1]]","7","[[0,0,0],[1,2],[3]]","4","0","","","","","","7","",""
"","","","","","single-stim-button","253","537314","0.0-3.0-22.7-0.7","61057dd06e49aef52b182f19","D2","batch4","","1665","","","tol_tohand","","","","","","","","","tol_peg_2","1665","1665","0","[[0,0,0],[2,0],[1]]","8","[[0,0,0],[1,2],[3]]","4","0","","","","","","7","",""
"","","","","","single-stim-button","254","540014","0.0-3.0-22.7-1.7","61057dd06e49aef52b182f19","D2","batch4","","2699","","","tol_toboard","","","","","","","","","tol_peg_1","2699","2699","0","[[3,0,0],[2,0],[1]]","8","[[0,0,0],[1,2],[3]]","4","0","","","","","","7","",""
"","","","","","single-stim-button","255","540605","0.0-3.0-22.8-0.8","61057dd06e49aef52b182f19","D2","batch4","","590","","","tol_tohand","","","","","","","","","tol_peg_2","590","590","0","[[3,0,0],[0,0],[1]]","9","[[0,0,0],[1,2],[3]]","4","0","","","","","","7","",""
"","","","","","single-stim-button","256","541034","0.0-3.0-22.8-1.8","61057dd06e49aef52b182f19","D2","batch4","","427","","","tol_toboard","","","","","","","","","tol_peg_1","427","427","0","[[3,2,0],[0,0],[1]]","9","[[0,0,0],[1,2],[3]]","4","0","","","","","","7","",""
"","","","","","single-stim-button","257","541536","0.0-3.0-22.9-0.9","61057dd06e49aef52b182f19","D2","batch4","","502","","","tol_tohand","","","","","","","","","tol_peg_3","502","502","0","[[3,2,0],[0,0],[0]]","10","[[0,0,0],[1,2],[3]]","4","0","","","","","","7","",""
"","","","","","single-stim-button","258","542180","0.0-3.0-22.9-1.9","61057dd06e49aef52b182f19","D2","batch4","","643","","","tol_toboard","","","","","","","","","tol_peg_2","643","643","0","[[3,2,0],[1,0],[0]]","10","[[0,0,0],[1,2],[3]]","4","0","","","","","","7","",""
"","","","","","single-stim-button","259","542826","0.0-3.0-22.10-0.10","61057dd06e49aef52b182f19","D2","batch4","","644","","","tol_tohand","","","","","","","","","tol_peg_1","644","644","0","[[3,0,0],[1,0],[0]]","11","[[0,0,0],[1,2],[3]]","4","0","","","","","","7","",""
"","","","","","single-stim-button","260","543276","0.0-3.0-22.10-1.10","61057dd06e49aef52b182f19","D2","batch4","","449","","","tol_toboard","","","","","","","","","tol_peg_2","449","449","0","[[3,0,0],[1,2],[0]]","11","[[0,0,0],[1,2],[3]]","4","0","","","","","","7","",""
"","","","","","single-stim-button","261","543788","0.0-3.0-22.11-0.11","61057dd06e49aef52b182f19","D2","batch4","","511","","","tol_tohand","","","","","","","","","tol_peg_1","511","511","0","[[0,0,0],[1,2],[0]]","12","[[0,0,0],[1,2],[3]]","4","0","","","","","","7","",""
"","","","","","single-stim-button","262","544347","0.0-3.0-22.11-1.11","61057dd06e49aef52b182f19","D2","batch4","","558","","","tol_toboard","","","","","","","","","tol_peg_3","558","558","0","[[0,0,0],[1,2],[3]]","12","[[0,0,0],[1,2],[3]]","4","0","","","","","","7","",""
"","","","","","poldrack-single-stim","263","545353","0.0-3.0-23.0","61057dd06e49aef52b182f19","D2","batch4","","-1","","","tol_feedback","true","","","","","","","","","1000","1000","500","","","","","","-1","none","true","2232","23639","","",""
"","","","","","html-button-response","264","546492","0.0-3.0-24.0","61057dd06e49aef52b182f19","D2","batch4","","1137.2000007629395","<div class = centerbox><p class = center-block-text>problem <strong>6</strong> out of 25 problems</p></div>","0","tol_trial_num","","","","","","","","","","","","","","","","","","","","","","","","",""
"","","","","","single-stim-button","265","548607","0.0-3.0-25.0-0.0","61057dd06e49aef52b182f19","D2","batch4","","2114","","","tol_tohand","","","","","","","","","tol_peg_2","2114","2114","0","[[0,0,0],[1,0],[3]]","1","[[1,0,0],[2,3],[0]]","5","0","","","","","","6","",""
"","","","","","single-stim-button","266","551602","0.0-3.0-25.0-1.0","61057dd06e49aef52b182f19","D2","batch4","","2993","","","tol_toboard","","","","","","","","","tol_peg_2","2993","2993","0","[[0,0,0],[1,2],[3]]","1","[[1,0,0],[2,3],[0]]","5","0","","","","","","6","",""
"","","","","","single-stim-button","267","557661","0.0-3.0-25.1-0.1","61057dd06e49aef52b182f19","D2","batch4","","6058","","","tol_tohand","","","","","","","","","tol_peg_3","6058","6058","0","[[0,0,0],[1,2],[0]]","2","[[1,0,0],[2,3],[0]]","5","0","","","","","","6","",""
"","","","","","single-stim-button","268","559588","0.0-3.0-25.1-1.1","61057dd06e49aef52b182f19","D2","batch4","","1926","","","tol_toboard","","","","","","","","","tol_peg_1","1926","1926","0","[[3,0,0],[1,2],[0]]","2","[[1,0,0],[2,3],[0]]","5","0","","","","","","6","",""
"","","","","","single-stim-button","269","562769","0.0-3.0-25.2-0.2","61057dd06e49aef52b182f19","D2","batch4","","3180","","","tol_tohand","","","","","","","","","tol_peg_2","3180","3180","0","[[3,0,0],[1,0],[0]]","3","[[1,0,0],[2,3],[0]]","5","0","","","","","","6","",""
"","","","","","single-stim-button","270","572120","0.0-3.0-25.2-1.2","61057dd06e49aef52b182f19","D2","batch4","","9349","","","tol_toboard","","","","","","","","","tol_peg_2","9349","9349","0","[[3,0,0],[1,2],[0]]","3","[[1,0,0],[2,3],[0]]","5","0","","","","","","6","",""
"","","","","","single-stim-button","271","572623","0.0-3.0-25.3-0.3","61057dd06e49aef52b182f19","D2","batch4","","501","","","tol_tohand","","","","","","","","","tol_peg_1","501","501","0","[[0,0,0],[1,2],[0]]","4","[[1,0,0],[2,3],[0]]","5","0","","","","","","6","",""
"","","","","","single-stim-button","272","573382","0.0-3.0-25.3-1.3","61057dd06e49aef52b182f19","D2","batch4","","758","","","tol_toboard","","","","","","","","","tol_peg_3","758","758","0","[[0,0,0],[1,2],[3]]","4","[[1,0,0],[2,3],[0]]","5","0","","","","","","6","",""
"","","","","","single-stim-button","273","573936","0.0-3.0-25.4-0.4","61057dd06e49aef52b182f19","D2","batch4","","553","","","tol_tohand","","","","","","","","","tol_peg_2","553","553","0","[[0,0,0],[1,0],[3]]","5","[[1,0,0],[2,3],[0]]","5","0","","","","","","6","",""
"","","","","","single-stim-button","274","574625","0.0-3.0-25.4-1.4","61057dd06e49aef52b182f19","D2","batch4","","689","","","tol_toboard","","","","","","","","","tol_peg_1","689","689","0","[[2,0,0],[1,0],[3]]","5","[[1,0,0],[2,3],[0]]","5","0","","","","","","6","",""
"","","","","","single-stim-button","275","575377","0.0-3.0-25.5-0.5","61057dd06e49aef52b182f19","D2","batch4","","750","","","tol_tohand","","","","","","","","","tol_peg_2","750","750","0","[[2,0,0],[0,0],[3]]","6","[[1,0,0],[2,3],[0]]","5","0","","","","","","6","",""
"","","","","","single-stim-button","276","583325","0.0-3.0-25.5-1.5","61057dd06e49aef52b182f19","D2","batch4","","7947","","","tol_toboard","","","","","","","","","tol_peg_2","7947","7947","0","[[2,0,0],[1,0],[3]]","6","[[1,0,0],[2,3],[0]]","5","0","","","","","","6","",""
"","","","","","single-stim-button","277","583873","0.0-3.0-25.6-0.6","61057dd06e49aef52b182f19","D2","batch4","","547","","","tol_tohand","","","","","","","","","tol_peg_3","547","547","0","[[2,0,0],[1,0],[0]]","7","[[1,0,0],[2,3],[0]]","5","0","","","","","","6","",""
"","","","","","single-stim-button","278","584802","0.0-3.0-25.6-1.6","61057dd06e49aef52b182f19","D2","batch4","","927","","","tol_toboard","","","","","","","","","tol_peg_1","927","927","0","[[2,3,0],[1,0],[0]]","7","[[1,0,0],[2,3],[0]]","5","0","","","","","","6","",""
"","","","","","single-stim-button","279","585793","0.0-3.0-25.7-0.7","61057dd06e49aef52b182f19","D2","batch4","","990","","","tol_tohand","","","","","","","","","tol_peg_2","990","990","0","[[2,3,0],[0,0],[0]]","8","[[1,0,0],[2,3],[0]]","5","0","","","","","","6","",""
"","","","","","single-stim-button","280","588328","0.0-3.0-25.7-1.7","61057dd06e49aef52b182f19","D2","batch4","","2534","","","tol_toboard","","","","","","","","","tol_peg_3","2534","2534","0","[[2,3,0],[0,0],[1]]","8","[[1,0,0],[2,3],[0]]","5","0","","","","","","6","",""
"","","","","","single-stim-button","281","589797","0.0-3.0-25.8-0.8","61057dd06e49aef52b182f19","D2","batch4","","1467","","","tol_tohand","","","","","","","","","tol_peg_1","1467","1467","0","[[2,0,0],[0,0],[1]]","9","[[1,0,0],[2,3],[0]]","5","0","","","","","","6","",""
"","","","","","single-stim-button","282","592474","0.0-3.0-25.8-1.8","61057dd06e49aef52b182f19","D2","batch4","","2676","","","tol_toboard","","","","","","","","","tol_peg_2","2676","2676","0","[[2,0,0],[3,0],[1]]","9","[[1,0,0],[2,3],[0]]","5","0","","","","","","6","",""
"","","","","","single-stim-button","283","593502","0.0-3.0-25.9-0.9","61057dd06e49aef52b182f19","D2","batch4","","1026","","","tol_tohand","","","","","","","","","tol_peg_1","1026","1026","0","[[0,0,0],[3,0],[1]]","10","[[1,0,0],[2,3],[0]]","5","0","","","","","","6","",""
"","","","","","single-stim-button","284","594891","0.0-3.0-25.9-1.9","61057dd06e49aef52b182f19","D2","batch4","","1388","","","tol_toboard","","","","","","","","","tol_peg_2","1388","1388","0","[[0,0,0],[3,2],[1]]","10","[[1,0,0],[2,3],[0]]","5","0","","","","","","6","",""
"","","","","","single-stim-button","285","595392","0.0-3.0-25.10-0.10","61057dd06e49aef52b182f19","D2","batch4","","500","","","tol_tohand","","","","","","","","","tol_peg_3","500","500","0","[[0,0,0],[3,2],[0]]","11","[[1,0,0],[2,3],[0]]","5","0","","","","","","6","",""
"","","","","","single-stim-button","286","596155","0.0-3.0-25.10-1.10","61057dd06e49aef52b182f19","D2","batch4","","762","","","tol_toboard","","","","","","","","","tol_peg_1","762","762","0","[[1,0,0],[3,2],[0]]","11","[[1,0,0],[2,3],[0]]","5","0","","","","","","6","",""
"","","","","","single-stim-button","287","597162","0.0-3.0-25.11-0.11","61057dd06e49aef52b182f19","D2","batch4","","1006","","","tol_tohand","","","","","","","","","tol_peg_2","1006","1006","0","[[1,0,0],[3,0],[0]]","12","[[1,0,0],[2,3],[0]]","5","0","","","","","","6","",""
"","","","","","single-stim-button","288","598616","0.0-3.0-25.11-1.11","61057dd06e49aef52b182f19","D2","batch4","","1453","","","tol_toboard","","","","","","","","","tol_peg_3","1453","1453","0","[[1,0,0],[3,0],[2]]","12","[[1,0,0],[2,3],[0]]","5","0","","","","","","6","",""
"","","","","","single-stim-button","289","599824","0.0-3.0-25.12-0.12","61057dd06e49aef52b182f19","D2","batch4","","1207","","","tol_tohand","","","","","","","","","tol_peg_2","1207","1207","0","[[1,0,0],[0,0],[2]]","13","[[1,0,0],[2,3],[0]]","5","0","","","","","","6","",""
"","","","","","single-stim-button","290","600777","0.0-3.0-25.12-1.12","61057dd06e49aef52b182f19","D2","batch4","","951","","","tol_toboard","","","","","","","","","tol_peg_1","951","951","0","[[1,3,0],[0,0],[2]]","13","[[1,0,0],[2,3],[0]]","5","0","","","","","","6","",""
"","","","","","single-stim-button","291","602202","0.0-3.0-25.13-0.13","61057dd06e49aef52b182f19","D2","batch4","","1424","","","tol_tohand","","","","","","","","","tol_peg_3","1424","1424","0","[[1,3,0],[0,0],[0]]","14","[[1,0,0],[2,3],[0]]","5","0","","","","","","6","",""
"","","","","","single-stim-button","292","602741","0.0-3.0-25.13-1.13","61057dd06e49aef52b182f19","D2","batch4","","538","","","tol_toboard","","","","","","","","","tol_peg_2","538","538","0","[[1,3,0],[2,0],[0]]","14","[[1,0,0],[2,3],[0]]","5","0","","","","","","6","",""
"","","","","","single-stim-button","293","603259","0.0-3.0-25.14-0.14","61057dd06e49aef52b182f19","D2","batch4","","518","","","tol_tohand","","","","","","","","","tol_peg_1","518","518","0","[[1,0,0],[2,0],[0]]","15","[[1,0,0],[2,3],[0]]","5","0","","","","","","6","",""
"","","","","","single-stim-button","294","603874","0.0-3.0-25.14-1.14","61057dd06e49aef52b182f19","D2","batch4","","614","","","tol_toboard","","","","","","","","","tol_peg_2","614","614","0","[[1,0,0],[2,3],[0]]","15","[[1,0,0],[2,3],[0]]","5","0","","","","","","6","",""
"","","","","","poldrack-single-stim","295","604884","0.0-3.0-26.0","61057dd06e49aef52b182f19","D2","batch4","","-1","","","tol_feedback","true","","","","","","","","","1000","1000","500","","","","","","-1","none","true","2114","21841","","",""
"","","","","","html-button-response","296","606012","0.0-3.0-27.0","61057dd06e49aef52b182f19","D2","batch4","","1125.4000005722046","<div class = centerbox><p class = center-block-text>problem <strong>7</strong> out of 25 problems</p></div>","0","tol_trial_num","","","","","","","","","","","","","","","","","","","","","","","","",""
"","","","","","single-stim-button","297","610228","0.0-3.0-28.0-0.0","61057dd06e49aef52b182f19","D2","batch4","","4215","","","tol_tohand","","","","","","","","","tol_peg_3","4215","4215","0","[[2,1,0],[0,0],[0]]","1","[[1,2,0],[3,0],[0]]","6","0","","","","","","5","",""
"","","","","","single-stim-button","298","611074","0.0-3.0-28.0-1.0","61057dd06e49aef52b182f19","D2","batch4","","844","","","tol_toboard","","","","","","","","","tol_peg_2","844","844","0","[[2,1,0],[3,0],[0]]","1","[[1,2,0],[3,0],[0]]","6","0","","","","","","5","",""
"","","","","","single-stim-button","299","612237","0.0-3.0-28.1-0.1","61057dd06e49aef52b182f19","D2","batch4","","1162","","","tol_tohand","","","","","","","","","tol_peg_1","1162","1162","0","[[2,0,0],[3,0],[0]]","2","[[1,2,0],[3,0],[0]]","6","0","","","","","","5","",""
"","","","","","single-stim-button","300","613700","0.0-3.0-28.1-1.1","61057dd06e49aef52b182f19","D2","batch4","","1463","","","tol_toboard","","","","","","","","","tol_peg_3","1463","1463","0","[[2,0,0],[3,0],[1]]","2","[[1,2,0],[3,0],[0]]","6","0","","","","","","5","",""
"","","","","","single-stim-button","301","614472","0.0-3.0-28.2-0.2","61057dd06e49aef52b182f19","D2","batch4","","770","","","tol_tohand","","","","","","","","","tol_peg_1","770","770","0","[[0,0,0],[3,0],[1]]","3","[[1,2,0],[3,0],[0]]","6","0","","","","","","5","",""
"","","","","","single-stim-button","302","615026","0.0-3.0-28.2-1.2","61057dd06e49aef52b182f19","D2","batch4","","553","","","tol_toboard","","","","","","","","","tol_peg_2","553","553","0","[[0,0,0],[3,2],[1]]","3","[[1,2,0],[3,0],[0]]","6","0","","","","","","5","",""
"","","","","","single-stim-button","303","615502","0.0-3.0-28.3-0.3","61057dd06e49aef52b182f19","D2","batch4","","474","","","tol_tohand","","","","","","","","","tol_peg_3","474","474","0","[[0,0,0],[3,2],[0]]","4","[[1,2,0],[3,0],[0]]","6","0","","","","","","5","",""
"","","","","","single-stim-button","304","616015","0.0-3.0-28.3-1.3","61057dd06e49aef52b182f19","D2","batch4","","512","","","tol_toboard","","","","","","","","","tol_peg_1","512","512","0","[[1,0,0],[3,2],[0]]","4","[[1,2,0],[3,0],[0]]","6","0","","","","","","5","",""
"","","","","","single-stim-button","305","616520","0.0-3.0-28.4-0.4","61057dd06e49aef52b182f19","D2","batch4","","503","","","tol_tohand","","","","","","","","","tol_peg_2","503","503","0","[[1,0,0],[3,0],[0]]","5","[[1,2,0],[3,0],[0]]","6","0","","","","","","5","",""
"","","","","","single-stim-button","306","616953","0.0-3.0-28.4-1.4","61057dd06e49aef52b182f19","D2","batch4","","432","","","tol_toboard","","","","","","","","","tol_peg_1","432","432","0","[[1,2,0],[3,0],[0]]","5","[[1,2,0],[3,0],[0]]","6","0","","","","","","5","",""
"","","","","","poldrack-single-stim","307","617963","0.0-3.0-29.0","61057dd06e49aef52b182f19","D2","batch4","","-1","","","tol_feedback","true","","","","","","","","","1000","1000","500","","","","","","-1","none","true","4215","7124","","",""
"","","","","","html-button-response","308","618852","0.0-3.0-30.0","61057dd06e49aef52b182f19","D2","batch4","","887.1000003814697","<div class = centerbox><p class = center-block-text>problem <strong>8</strong> out of 25 problems</p></div>","0","tol_trial_num","","","","","","","","","","","","","","","","","","","","","","","","",""
"","","","","","single-stim-button","309","621807","0.0-3.0-31.0-0.0","61057dd06e49aef52b182f19","D2","batch4","","2953","","","tol_tohand","","","","","","","","","tol_peg_3","2953","2953","0","[[0,0,0],[2,3],[0]]","1","[[1,2,0],[3,0],[0]]","7","0","","","","","","4","",""
"","","","","","single-stim-button","310","622638","0.0-3.0-31.0-1.0","61057dd06e49aef52b182f19","D2","batch4","","831","","","tol_toboard","","","","","","","","","tol_peg_1","831","831","0","[[1,0,0],[2,3],[0]]","1","[[1,2,0],[3,0],[0]]","7","0","","","","","","4","",""
"","","","","","single-stim-button","311","623259","0.0-3.0-31.1-0.1","61057dd06e49aef52b182f19","D2","batch4","","620","","","tol_tohand","","","","","","","","","tol_peg_2","620","620","0","[[1,0,0],[2,0],[0]]","2","[[1,2,0],[3,0],[0]]","7","0","","","","","","4","",""
"","","","","","single-stim-button","312","623787","0.0-3.0-31.1-1.1","61057dd06e49aef52b182f19","D2","batch4","","526","","","tol_toboard","","","","","","","","","tol_peg_3","526","526","0","[[1,0,0],[2,0],[3]]","2","[[1,2,0],[3,0],[0]]","7","0","","","","","","4","",""
"","","","","","single-stim-button","313","624215","0.0-3.0-31.2-0.2","61057dd06e49aef52b182f19","D2","batch4","","426","","","tol_tohand","","","","","","","","","tol_peg_2","426","426","0","[[1,0,0],[0,0],[3]]","3","[[1,2,0],[3,0],[0]]","7","0","","","","","","4","",""
"","","","","","single-stim-button","314","624665","0.0-3.0-31.2-1.2","61057dd06e49aef52b182f19","D2","batch4","","448","","","tol_toboard","","","","","","","","","tol_peg_1","448","448","0","[[1,2,0],[0,0],[3]]","3","[[1,2,0],[3,0],[0]]","7","0","","","","","","4","",""
"","","","","","single-stim-button","315","625241","0.0-3.0-31.3-0.3","61057dd06e49aef52b182f19","D2","batch4","","574","","","tol_tohand","","","","","","","","","tol_peg_3","574","574","0","[[1,2,0],[0,0],[0]]","4","[[1,2,0],[3,0],[0]]","7","0","","","","","","4","",""
"","","","","","single-stim-button","316","625902","0.0-3.0-31.3-1.3","61057dd06e49aef52b182f19","D2","batch4","","660","","","tol_toboard","","","","","","","","","tol_peg_2","660","660","0","[[1,2,0],[3,0],[0]]","4","[[1,2,0],[3,0],[0]]","7","0","","","","","","4","",""
"","","","","","poldrack-single-stim","317","626905","0.0-3.0-32.0","61057dd06e49aef52b182f19","D2","batch4","","-1","","","tol_feedback","true","","","","","","","","","1000","1000","500","","","","","","-1","none","true","2953","4573","","",""
"","","","","","html-button-response","318","627867","0.0-3.0-33.0","61057dd06e49aef52b182f19","D2","batch4","","960.6000003814697","<div class = centerbox><p class = center-block-text>problem <strong>9</strong> out of 25 problems</p></div>","0","tol_trial_num","","","","","","","","","","","","","","","","","","","","","","","","",""
"","","","","","single-stim-button","319","637935","0.0-3.0-34.0-0.0","61057dd06e49aef52b182f19","D2","batch4","","10066","","","tol_tohand","","","","","","","","","tol_peg_3","10066","10066","0","[[3,2,0],[0,0],[0]]","1","[[2,1,0],[3,0],[0]]","8","0","","","","","","6","",""
"","","","","","single-stim-button","320","639102","0.0-3.0-34.0-1.0","61057dd06e49aef52b182f19","D2","batch4","","1166","","","tol_toboard","","","","","","","","","tol_peg_2","1166","1166","0","[[3,2,0],[1,0],[0]]","1","[[2,1,0],[3,0],[0]]","8","0","","","","","","6","",""
"","","","","","single-stim-button","321","640887","0.0-3.0-34.1-0.1","61057dd06e49aef52b182f19","D2","batch4","","1783","","","tol_tohand","","","","","","","","","tol_peg_1","1783","1783","0","[[3,0,0],[1,0],[0]]","2","[[2,1,0],[3,0],[0]]","8","0","","","","","","6","",""
"","","","","","single-stim-button","322","643023","0.0-3.0-34.1-1.1","61057dd06e49aef52b182f19","D2","batch4","","2136","","","tol_toboard","","","","","","","","","tol_peg_2","2136","2136","0","[[3,0,0],[1,2],[0]]","2","[[2,1,0],[3,0],[0]]","8","0","","","","","","6","",""
"","","","","","single-stim-button","323","644546","0.0-3.0-34.2-0.2","61057dd06e49aef52b182f19","D2","batch4","","1522","","","tol_tohand","","","","","","","","","tol_peg_1","1522","1522","0","[[0,0,0],[1,2],[0]]","3","[[2,1,0],[3,0],[0]]","8","0","","","","","","6","",""
"","","","","","single-stim-button","324","645147","0.0-3.0-34.2-1.2","61057dd06e49aef52b182f19","D2","batch4","","600","","","tol_toboard","","","","","","","","","tol_peg_3","600","600","0","[[0,0,0],[1,2],[3]]","3","[[2,1,0],[3,0],[0]]","8","0","","","","","","6","",""
"","","","","","single-stim-button","325","646061","0.0-3.0-34.3-0.3","61057dd06e49aef52b182f19","D2","batch4","","913","","","tol_tohand","","","","","","","","","tol_peg_2","913","913","0","[[0,0,0],[1,0],[3]]","4","[[2,1,0],[3,0],[0]]","8","0","","","","","","6","",""
"","","","","","single-stim-button","326","646587","0.0-3.0-34.3-1.3","61057dd06e49aef52b182f19","D2","batch4","","524","","","tol_toboard","","","","","","","","","tol_peg_1","524","524","0","[[2,0,0],[1,0],[3]]","4","[[2,1,0],[3,0],[0]]","8","0","","","","","","6","",""
"","","","","","single-stim-button","327","646993","0.0-3.0-34.4-0.4","61057dd06e49aef52b182f19","D2","batch4","","405","","","tol_tohand","","","","","","","","","tol_peg_2","405","405","0","[[2,0,0],[0,0],[3]]","5","[[2,1,0],[3,0],[0]]","8","0","","","","","","6","",""
"","","","","","single-stim-button","328","647402","0.0-3.0-34.4-1.4","61057dd06e49aef52b182f19","D2","batch4","","408","","","tol_toboard","","","","","","","","","tol_peg_1","408","408","0","[[2,1,0],[0,0],[3]]","5","[[2,1,0],[3,0],[0]]","8","0","","","","","","6","",""
"","","","","","single-stim-button","329","647973","0.0-3.0-34.5-0.5","61057dd06e49aef52b182f19","D2","batch4","","570","","","tol_tohand","","","","","","","","","tol_peg_3","570","570","0","[[2,1,0],[0,0],[0]]","6","[[2,1,0],[3,0],[0]]","8","0","","","","","","6","",""
"","","","","","single-stim-button","330","648603","0.0-3.0-34.5-1.5","61057dd06e49aef52b182f19","D2","batch4","","629","","","tol_toboard","","","","","","","","","tol_peg_2","629","629","0","[[2,1,0],[3,0],[0]]","6","[[2,1,0],[3,0],[0]]","8","0","","","","","","6","",""
"","","","","","poldrack-single-stim","331","649607","0.0-3.0-35.0","61057dd06e49aef52b182f19","D2","batch4","","-1","","","tol_feedback","true","","","","","","","","","1000","1000","500","","","","","","-1","none","true","10066","15259","","",""
"","","","","","html-button-response","332","650463","0.0-3.0-36.0","61057dd06e49aef52b182f19","D2","batch4","","854.6000003814697","<div class = centerbox><p class = center-block-text>problem <strong>10</strong> out of 25 problems</p></div>","0","tol_trial_num","","","","","","","","","","","","","","","","","","","","","","","","",""
"","","","","","single-stim-button","333","653696","0.0-3.0-37.0-0.0","61057dd06e49aef52b182f19","D2","batch4","","3231","","","tol_tohand","","","","","","","","","tol_peg_2","3231","3231","0","[[3,0,0],[0,0],[2]]","1","[[3,0,0],[2,1],[0]]","9","0","","","","","","3","",""
"","","","","","single-stim-button","334","654243","0.0-3.0-37.0-1.0","61057dd06e49aef52b182f19","D2","batch4","","547","","","tol_toboard","","","","","","","","","tol_peg_1","547","547","0","[[3,1,0],[0,0],[2]]","1","[[3,0,0],[2,1],[0]]","9","0","","","","","","3","",""
"","","","","","single-stim-button","335","654903","0.0-3.0-37.1-0.1","61057dd06e49aef52b182f19","D2","batch4","","659","","","tol_tohand","","","","","","","","","tol_peg_3","659","659","0","[[3,1,0],[0,0],[0]]","2","[[3,0,0],[2,1],[0]]","9","0","","","","","","3","",""
"","","","","","single-stim-button","336","655751","0.0-3.0-37.1-1.1","61057dd06e49aef52b182f19","D2","batch4","","847","","","tol_toboard","","","","","","","","","tol_peg_2","847","847","0","[[3,1,0],[2,0],[0]]","2","[[3,0,0],[2,1],[0]]","9","0","","","","","","3","",""
"","","","","","single-stim-button","337","656194","0.0-3.0-37.2-0.2","61057dd06e49aef52b182f19","D2","batch4","","442","","","tol_tohand","","","","","","","","","tol_peg_1","442","442","0","[[3,0,0],[2,0],[0]]","3","[[3,0,0],[2,1],[0]]","9","0","","","","","","3","",""
"","","","","","single-stim-button","338","656650","0.0-3.0-37.2-1.2","61057dd06e49aef52b182f19","D2","batch4","","455","","","tol_toboard","","","","","","","","","tol_peg_2","455","455","0","[[3,0,0],[2,1],[0]]","3","[[3,0,0],[2,1],[0]]","9","0","","","","","","3","",""
"","","","","","poldrack-single-stim","339","657662","0.0-3.0-38.0","61057dd06e49aef52b182f19","D2","batch4","","-1","","","tol_feedback","true","","","","","","","","","1000","1000","500","","","","","","-1","none","true","3231","4332","","",""
"","","","","","html-button-response","340","658556","0.0-3.0-39.0","61057dd06e49aef52b182f19","D2","batch4","","892.1999998092651","<div class = centerbox><p class = center-block-text>problem <strong>11</strong> out of 25 problems</p></div>","0","tol_trial_num","","","","","","","","","","","","","","","","","","","","","","","","",""
"","","","","","single-stim-button","341","662911","0.0-3.0-40.0-0.0","61057dd06e49aef52b182f19","D2","batch4","","4354","","","tol_tohand","","","","","","","","","tol_peg_2","4354","4354","0","[[1,2,0],[0,0],[0]]","1","[[2,0,0],[1,3],[0]]","10","0","","","","","","6","",""
"","","","","","single-stim-button","342","666521","0.0-3.0-40.0-1.0","61057dd06e49aef52b182f19","D2","batch4","","3608","","","tol_toboard","","","","","","","","","tol_peg_3","3608","3608","0","[[1,2,0],[0,0],[3]]","1","[[2,0,0],[1,3],[0]]","10","0","","","","","","6","",""
"","","","","","single-stim-button","343","668732","0.0-3.0-40.1-0.1","61057dd06e49aef52b182f19","D2","batch4","","2210","","","tol_tohand","","","","","","","","","tol_peg_1","2210","2210","0","[[1,0,0],[0,0],[3]]","2","[[2,0,0],[1,3],[0]]","10","0","","","","","","6","",""
"","","","","","single-stim-button","344","669746","0.0-3.0-40.1-1.1","61057dd06e49aef52b182f19","D2","batch4","","1012","","","tol_toboard","","","","","","","","","tol_peg_2","1012","1012","0","[[1,0,0],[2,0],[3]]","2","[[2,0,0],[1,3],[0]]","10","0","","","","","","6","",""
"","","","","","single-stim-button","345","671096","0.0-3.0-40.2-0.2","61057dd06e49aef52b182f19","D2","batch4","","1349","","","tol_tohand","","","","","","","","","tol_peg_1","1349","1349","0","[[0,0,0],[2,0],[3]]","3","[[2,0,0],[1,3],[0]]","10","0","","","","","","6","",""
"","","","","","single-stim-button","346","674275","0.0-3.0-40.2-1.2","61057dd06e49aef52b182f19","D2","batch4","","3178","","","tol_toboard","","","","","","","","","tol_peg_2","3178","3178","0","[[0,0,0],[2,1],[3]]","3","[[2,0,0],[1,3],[0]]","10","0","","","","","","6","",""
"","","","","","single-stim-button","347","675729","0.0-3.0-40.3-0.3","61057dd06e49aef52b182f19","D2","batch4","","1453","","","tol_tohand","","","","","","","","","tol_peg_2","1453","1453","0","[[0,0,0],[2,0],[3]]","4","[[2,0,0],[1,3],[0]]","10","0","","","","","","6","",""
"","","","","","single-stim-button","348","676419","0.0-3.0-40.3-1.3","61057dd06e49aef52b182f19","D2","batch4","","689","","","tol_toboard","","","","","","","","","tol_peg_1","689","689","0","[[1,0,0],[2,0],[3]]","4","[[2,0,0],[1,3],[0]]","10","0","","","","","","6","",""
"","","","","","single-stim-button","349","676899","0.0-3.0-40.4-0.4","61057dd06e49aef52b182f19","D2","batch4","","479","","","tol_tohand","","","","","","","","","tol_peg_2","479","479","0","[[1,0,0],[0,0],[3]]","5","[[2,0,0],[1,3],[0]]","10","0","","","","","","6","",""
