"success","timeout","failed_images","failed_audio","failed_video","trial_type","trial_index","time_elapsed","internal_node_id","subject_id","study_id","session_id","task","rt","stimulus","response","item","answer","correct","spm_correct","spm_rt","view_history","mouse_click","stim_duration","block_duration","timing_post_trial","current_position","tol_num_moves_made","tol_target","tol_problem_id","tol_rt","key_press","possible_responses","tol_correct","preplanning","tol_rt_per_trial","tol_min_moves","fiar_detect_rt","fiar_detect_correct","total_correct_fiar_detect","post_trial_gap","choices"
"true","false","[]","[]","[]","preload","0","1161","0.0-0.0","6105e13dc0f11571c132344e","F1","batch6","","","","","","","","","","","","","","","","","","","","","","","","","","","","","",""
"true","","","","","fullscreen","1","6340","0.0-1.0-0.0","6105e13dc0f11571c132344e","F1","batch6","","","","","","","","","","","","","","","","","","","","","","","","","","","","","",""
"true","","","","","fullscreen","2","10023","0.0-2.0-0.0","6105e13dc0f11571c132344e","F1","batch6","spm_fullscreen","","","","","","","","","","","","","","","","","","","","","","","","","","","","",""
"","","","","","html-button-response","3","23418","0.0-2.0-1.0","6105e13dc0f11571c132344e","F1","batch6","","13393","<p class = block-text><b>Instructions</b> <br>This is a widely used intelligence test in research. <br>In this test, a figure with a missing piece will be presented.<br>Below the figure are alternative pieces to complete the figure, only one of which is correct.<br> Different figures might involve different principles for obtaining the missing piece<br>Your job is to select the most logical piece to complete the figure.</p>","0","","","","","","","","","","","","","","","","","","","","","","","","","",""
"","","","","","html-keyboard-response","4","24221","0.0-2.0-2.0-0.0","6105e13dc0f11571c132344e","F1","batch6","spm_show_trial_num","null","<p class=block-text>Trial 1 out of 60</p>","null","","","","","","","","","","","","","","","","","","","","","","","","","",""
"","","","","","image-button-response","5","32136","0.0-2.0-2.0-1.0","6105e13dc0f11571c132344e","F1","batch6","spm_respsonse","7901","img/question_1_1.jpeg","3","mat_01","4","1","1","7901","","","","","","","","","","","","","","","","","","","","",""
"","","","","","html-keyboard-response","6","33191","0.0-2.0-2.0-0.1","6105e13dc0f11571c132344e","F1","batch6","spm_show_trial_num","null","<p class=block-text>Trial 2 out of 60</p>","null","","","","","","","","","","","","","","","","","","","","","","","","","",""
"","","","","","image-button-response","7","35869","0.0-2.0-2.0-1.1","6105e13dc0f11571c132344e","F1","batch6","spm_respsonse","2666","img/question_1_2.jpeg","4","mat_02","5","1","1","2666","","","","","","","","","","","","","","","","","","","","",""
"","","","","","html-keyboard-response","8","36922","0.0-2.0-2.0-0.2","6105e13dc0f11571c132344e","F1","batch6","spm_show_trial_num","null","<p class=block-text>Trial 3 out of 60</p>","null","","","","","","","","","","","","","","","","","","","","","","","","","",""
"","","","","","image-button-response","9","39753","0.0-2.0-2.0-1.2","6105e13dc0f11571c132344e","F1","batch6","spm_respsonse","2819","img/question_1_3.jpeg","0","mat_03","1","1","1","2819","","","","","","","","","","","","","","","","","","","","",""
"","","","","","html-keyboard-response","10","40806","0.0-2.0-2.0-0.3","6105e13dc0f11571c132344e","F1","batch6","spm_show_trial_num","null","<p class=block-text>Trial 4 out of 60</p>","null","","","","","","","","","","","","","","","","","","","","","","","","","",""
"","","","","","image-button-response","11","43185","0.0-2.0-2.0-1.3","6105e13dc0f11571c132344e","F1","batch6","spm_respsonse","2368","img/question_1_4.jpeg","1","mat_04","2","1","1","2368","","","","","","","","","","","","","","","","","","","","",""
"","","","","","html-keyboard-response","12","44239","0.0-2.0-2.0-0.4","6105e13dc0f11571c132344e","F1","batch6","spm_show_trial_num","null","<p class=block-text>Trial 5 out of 60</p>","null","","","","","","","","","","","","","","","","","","","","","","","","","",""
"","","","","","image-button-response","13","47618","0.0-2.0-2.0-1.4","6105e13dc0f11571c132344e","F1","batch6","spm_respsonse","3367","img/question_1_5.jpeg","5","mat_05","6","1","1","3367","","","","","","","","","","","","","","","","","","","","",""
"","","","","","html-keyboard-response","14","48672","0.0-2.0-2.0-0.5","6105e13dc0f11571c132344e","F1","batch6","spm_show_trial_num","null","<p class=block-text>Trial 6 out of 60</p>","null","","","","","","","","","","","","","","","","","","","","","","","","","",""
"","","","","","image-button-response","15","52135","0.0-2.0-2.0-1.5","6105e13dc0f11571c132344e","F1","batch6","spm_respsonse","3453","img/question_1_6.jpeg","2","mat_06","3","1","1","3453","","","","","","","","","","","","","","","","","","","","",""
"","","","","","html-keyboard-response","16","53189","0.0-2.0-2.0-0.6","6105e13dc0f11571c132344e","F1","batch6","spm_show_trial_num","null","<p class=block-text>Trial 7 out of 60</p>","null","","","","","","","","","","","","","","","","","","","","","","","","","",""
"","","","","","image-button-response","17","58537","0.0-2.0-2.0-1.6","6105e13dc0f11571c132344e","F1","batch6","spm_respsonse","5336","img/question_1_7.jpeg","5","mat_07","6","1","1","5336","","","","","","","","","","","","","","","","","","","","",""
"","","","","","html-keyboard-response","18","59590","0.0-2.0-2.0-0.7","6105e13dc0f11571c132344e","F1","batch6","spm_show_trial_num","null","<p class=block-text>Trial 8 out of 60</p>","null","","","","","","","","","","","","","","","","","","","","","","","","","",""
"","","","","","image-button-response","19","64636","0.0-2.0-2.0-1.7","6105e13dc0f11571c132344e","F1","batch6","spm_respsonse","5034","img/question_1_8.jpeg","1","mat_08","2","1","1","5034","","","","","","","","","","","","","","","","","","","","",""
"","","","","","html-keyboard-response","20","65689","0.0-2.0-2.0-0.8","6105e13dc0f11571c132344e","F1","batch6","spm_show_trial_num","null","<p class=block-text>Trial 9 out of 60</p>","null","","","","","","","","","","","","","","","","","","","","","","","","","",""
"","","","","","image-button-response","21","70936","0.0-2.0-2.0-1.8","6105e13dc0f11571c132344e","F1","batch6","spm_respsonse","5234.999999999985","img/question_1_9.jpeg","0","mat_09","1","1","1","5234.999999999985","","","","","","","","","","","","","","","","","","","","",""
"","","","","","html-keyboard-response","22","71990","0.0-2.0-2.0-0.9","6105e13dc0f11571c132344e","F1","batch6","spm_show_trial_num","null","<p class=block-text>Trial 10 out of 60</p>","null","","","","","","","","","","","","","","","","","","","","","","","","","",""
"","","","","","image-button-response","23","80420","0.0-2.0-2.0-1.9","6105e13dc0f11571c132344e","F1","batch6","spm_respsonse","8417","img/question_1_10.jpeg","2","mat_10","3","1","1","8417","","","","","","","","","","","","","","","","","","","","",""
"","","","","","html-keyboard-response","24","81473","0.0-2.0-2.0-0.10","6105e13dc0f11571c132344e","F1","batch6","spm_show_trial_num","null","<p class=block-text>Trial 11 out of 60</p>","null","","","","","","","","","","","","","","","","","","","","","","","","","",""
"","","","","","image-button-response","25","91817","0.0-2.0-2.0-1.10","6105e13dc0f11571c132344e","F1","batch6","spm_respsonse","10333.999999999985","img/question_1_11.jpeg","3","mat_11","4","1","1","10333.999999999985","","","","","","","","","","","","","","","","","","","","",""
"","","","","","html-keyboard-response","26","92870","0.0-2.0-2.0-0.11","6105e13dc0f11571c132344e","F1","batch6","spm_show_trial_num","null","<p class=block-text>Trial 12 out of 60</p>","null","","","","","","","","","","","","","","","","","","","","","","","","","",""
"","","","","","image-button-response","27","103736","0.0-2.0-2.0-1.11","6105e13dc0f11571c132344e","F1","batch6","spm_respsonse","10853","img/question_1_12.jpeg","4","mat_12","5","1","1","10853","","","","","","","","","","","","","","","","","","","","",""
"","","","","","html-keyboard-response","28","104789","0.0-2.0-2.0-0.12","6105e13dc0f11571c132344e","F1","batch6","spm_show_trial_num","null","<p class=block-text>Trial 13 out of 60</p>","null","","","","","","","","","","","","","","","","","","","","","","","","","",""
"","","","","","image-button-response","29","108036","0.0-2.0-2.0-1.12","6105e13dc0f11571c132344e","F1","batch6","spm_respsonse","3235","img/question_2_1.jpeg","1","mat_13","2","1","1","3235","","","","","","","","","","","","","","","","","","","","",""
"","","","","","html-keyboard-response","30","109090","0.0-2.0-2.0-0.13","6105e13dc0f11571c132344e","F1","batch6","spm_show_trial_num","null","<p class=block-text>Trial 14 out of 60</p>","null","","","","","","","","","","","","","","","","","","","","","","","","","",""
"","","","","","image-button-response","31","114670","0.0-2.0-2.0-1.13","6105e13dc0f11571c132344e","F1","batch6","spm_respsonse","5568","img/question_2_2.jpeg","5","mat_14","6","1","1","5568","","","","","","","","","","","","","","","","","","","","",""
"","","","","","html-keyboard-response","32","115723","0.0-2.0-2.0-0.14","6105e13dc0f11571c132344e","F1","batch6","spm_show_trial_num","null","<p class=block-text>Trial 15 out of 60</p>","null","","","","","","","","","","","","","","","","","","","","","","","","","",""
"","","","","","image-button-response","33","119386","0.0-2.0-2.0-1.14","6105e13dc0f11571c132344e","F1","batch6","spm_respsonse","3652","img/question_2_3.jpeg","0","mat_15","1","1","1","3652","","","","","","","","","","","","","","","","","","","","",""
"","","","","","html-keyboard-response","34","120440","0.0-2.0-2.0-0.15","6105e13dc0f11571c132344e","F1","batch6","spm_show_trial_num","null","<p class=block-text>Trial 16 out of 60</p>","null","","","","","","","","","","","","","","","","","","","","","","","","","",""
"","","","","","image-button-response","35","126636","0.0-2.0-2.0-1.15","6105e13dc0f11571c132344e","F1","batch6","spm_respsonse","6184.000000000015","img/question_2_4.jpeg","1","mat_16","2","1","1","6184.000000000015","","","","","","","","","","","","","","","","","","","","",""
"","","","","","html-keyboard-response","36","127690","0.0-2.0-2.0-0.16","6105e13dc0f11571c132344e","F1","batch6","spm_show_trial_num","null","<p class=block-text>Trial 17 out of 60</p>","null","","","","","","","","","","","","","","","","","","","","","","","","","",""
"","","","","","image-button-response","37","131585","0.0-2.0-2.0-1.16","6105e13dc0f11571c132344e","F1","batch6","spm_respsonse","3882","img/question_2_5.jpeg","0","mat_17","1","1","1","3882","","","","","","","","","","","","","","","","","","","","",""
"","","","","","html-keyboard-response","38","132638","0.0-2.0-2.0-0.17","6105e13dc0f11571c132344e","F1","batch6","spm_show_trial_num","null","<p class=block-text>Trial 18 out of 60</p>","null","","","","","","","","","","","","","","","","","","","","","","","","","",""
"","","","","","image-button-response","39","139152","0.0-2.0-2.0-1.17","6105e13dc0f11571c132344e","F1","batch6","spm_respsonse","6502","img/question_2_6.jpeg","2","mat_18","3","1","1","6502","","","","","","","","","","","","","","","","","","","","",""
"","","","","","html-keyboard-response","40","140206","0.0-2.0-2.0-0.18","6105e13dc0f11571c132344e","F1","batch6","spm_show_trial_num","null","<p class=block-text>Trial 19 out of 60</p>","null","","","","","","","","","","","","","","","","","","","","","","","","","",""
"","","","","","image-button-response","41","149570","0.0-2.0-2.0-1.18","6105e13dc0f11571c132344e","F1","batch6","spm_respsonse","9352","img/question_2_7.jpeg","4","mat_19","5","1","1","9352","","","","","","","","","","","","","","","","","","","","",""
"","","","","","html-keyboard-response","42","150624","0.0-2.0-2.0-0.19","6105e13dc0f11571c132344e","F1","batch6","spm_show_trial_num","null","<p class=block-text>Trial 20 out of 60</p>","null","","","","","","","","","","","","","","","","","","","","","","","","","",""
"","","","","","image-button-response","43","155754","0.0-2.0-2.0-1.19","6105e13dc0f11571c132344e","F1","batch6","spm_respsonse","5118","img/question_2_8.jpeg","5","mat_20","6","1","1","5118","","","","","","","","","","","","","","","","","","","","",""
"","","","","","html-keyboard-response","44","156807","0.0-2.0-2.0-0.20","6105e13dc0f11571c132344e","F1","batch6","spm_show_trial_num","null","<p class=block-text>Trial 21 out of 60</p>","null","","","","","","","","","","","","","","","","","","","","","","","","","",""
"","","","","","image-button-response","45","160570","0.0-2.0-2.0-1.20","6105e13dc0f11571c132344e","F1","batch6","spm_respsonse","3751","img/question_2_9.jpeg","3","mat_21","4","1","1","3751","","","","","","","","","","","","","","","","","","","","",""
"","","","","","html-keyboard-response","46","161623","0.0-2.0-2.0-0.21","6105e13dc0f11571c132344e","F1","batch6","spm_show_trial_num","null","<p class=block-text>Trial 22 out of 60</p>","null","","","","","","","","","","","","","","","","","","","","","","","","","",""
"","","","","","image-button-response","47","176721","0.0-2.0-2.0-1.21","6105e13dc0f11571c132344e","F1","batch6","spm_respsonse","15089","img/question_2_10.jpeg","2","mat_22","3","1","1","15089","","","","","","","","","","","","","","","","","","","","",""
"","","","","","html-keyboard-response","48","177775","0.0-2.0-2.0-0.22","6105e13dc0f11571c132344e","F1","batch6","spm_show_trial_num","null","<p class=block-text>Trial 23 out of 60</p>","null","","","","","","","","","","","","","","","","","","","","","","","","","",""
"","","","","","image-button-response","49","193587","0.0-2.0-2.0-1.22","6105e13dc0f11571c132344e","F1","batch6","spm_respsonse","15801","img/question_2_11.jpeg","3","mat_23","4","1","1","15801","","","","","","","","","","","","","","","","","","","","",""
"","","","","","html-keyboard-response","50","194640","0.0-2.0-2.0-0.23","6105e13dc0f11571c132344e","F1","batch6","spm_show_trial_num","null","<p class=block-text>Trial 24 out of 60</p>","null","","","","","","","","","","","","","","","","","","","","","","","","","",""
"","","","","","image-button-response","51","204586","0.0-2.0-2.0-1.23","6105e13dc0f11571c132344e","F1","batch6","spm_respsonse","9935","img/question_2_12.jpeg","4","mat_24","5","1","1","9935","","","","","","","","","","","","","","","","","","","","",""
"","","","","","html-button-response","52","206969","0.0-2.0-3.0","6105e13dc0f11571c132344e","F1","batch6","attention_check","2130","<p class = block-text>Attention check: Please choose 1<br></p>","0","","","true","","","","","","","","","","","","","","","","","","","","","","",""
"","","","","","html-keyboard-response","53","207772","0.0-2.0-4.0-0.0","6105e13dc0f11571c132344e","F1","batch6","spm_show_trial_num","null","<p class=block-text>Trial 25 out of 60</p>","null","","","","","","","","","","","","","","","","","","","","","","","","","",""
"","","","","","image-button-response","54","217620","0.0-2.0-4.0-1.0","6105e13dc0f11571c132344e","F1","batch6","spm_respsonse","9836.99999999997","img/question_3_1.jpeg","7","mat_25","8","1","1","9836.99999999997","","","","","","","","","","","","","","","","","","","","",""
"","","","","","html-keyboard-response","55","218673","0.0-2.0-4.0-0.1","6105e13dc0f11571c132344e","F1","batch6","spm_show_trial_num","null","<p class=block-text>Trial 26 out of 60</p>","null","","","","","","","","","","","","","","","","","","","","","","","","","",""
"","","","","","image-button-response","56","225853","0.0-2.0-4.0-1.1","6105e13dc0f11571c132344e","F1","batch6","spm_respsonse","7164.999999999971","img/question_3_2.jpeg","1","mat_26","2","1","1","7164.999999999971","","","","","","","","","","","","","","","","","","","","",""
"","","","","","html-keyboard-response","57","226906","0.0-2.0-4.0-0.2","6105e13dc0f11571c132344e","F1","batch6","spm_show_trial_num","null","<p class=block-text>Trial 27 out of 60</p>","null","","","","","","","","","","","","","","","","","","","","","","","","","",""
"","","","","","image-button-response","58","235319","0.0-2.0-4.0-1.2","6105e13dc0f11571c132344e","F1","batch6","spm_respsonse","8402.00000000003","img/question_3_3.jpeg","2","mat_27","3","1","1","8402.00000000003","","","","","","","","","","","","","","","","","","","","",""
"","","","","","html-keyboard-response","59","236372","0.0-2.0-4.0-0.3","6105e13dc0f11571c132344e","F1","batch6","spm_show_trial_num","null","<p class=block-text>Trial 28 out of 60</p>","null","","","","","","","","","","","","","","","","","","","","","","","","","",""
"","","","","","image-button-response","60","253655","0.0-2.0-4.0-1.3","6105e13dc0f11571c132344e","F1","batch6","spm_respsonse","17271","img/question_3_4.jpeg","7","mat_28","8","1","1","17271","","","","","","","","","","","","","","","","","","","","",""
"","","","","","html-keyboard-response","61","254708","0.0-2.0-4.0-0.4","6105e13dc0f11571c132344e","F1","batch6","spm_show_trial_num","null","<p class=block-text>Trial 29 out of 60</p>","null","","","","","","","","","","","","","","","","","","","","","","","","","",""
"","","","","","image-button-response","62","265753","0.0-2.0-4.0-1.4","6105e13dc0f11571c132344e","F1","batch6","spm_respsonse","11034","img/question_3_5.jpeg","6","mat_29","7","1","1","11034","","","","","","","","","","","","","","","","","","","","",""
"","","","","","html-keyboard-response","63","266808","0.0-2.0-4.0-0.5","6105e13dc0f11571c132344e","F1","batch6","spm_show_trial_num","null","<p class=block-text>Trial 30 out of 60</p>","null","","","","","","","","","","","","","","","","","","","","","","","","","",""
"","","","","","image-button-response","64","280620","0.0-2.0-4.0-1.5","6105e13dc0f11571c132344e","F1","batch6","spm_respsonse","13801","img/question_3_6.jpeg","3","mat_30","4","1","1","13801","","","","","","","","","","","","","","","","","","","","",""
"","","","","","html-keyboard-response","65","281674","0.0-2.0-4.0-0.6","6105e13dc0f11571c132344e","F1","batch6","spm_show_trial_num","null","<p class=block-text>Trial 31 out of 60</p>","null","","","","","","","","","","","","","","","","","","","","","","","","","",""
"","","","","","image-button-response","66","289904","0.0-2.0-4.0-1.6","6105e13dc0f11571c132344e","F1","batch6","spm_respsonse","8218","img/question_3_7.jpeg","4","mat_31","5","1","1","8218","","","","","","","","","","","","","","","","","","","","",""
"","","","","","html-keyboard-response","67","290957","0.0-2.0-4.0-0.7","6105e13dc0f11571c132344e","F1","batch6","spm_show_trial_num","null","<p class=block-text>Trial 32 out of 60</p>","null","","","","","","","","","","","","","","","","","","","","","","","","","",""
"","","","","","image-button-response","68","299003","0.0-2.0-4.0-1.7","6105e13dc0f11571c132344e","F1","batch6","spm_respsonse","8035","img/question_3_8.jpeg","0","mat_32","1","1","1","8035","","","","","","","","","","","","","","","","","","","","",""
"","","","","","html-keyboard-response","69","300057","0.0-2.0-4.0-0.8","6105e13dc0f11571c132344e","F1","batch6","spm_show_trial_num","null","<p class=block-text>Trial 33 out of 60</p>","null","","","","","","","","","","","","","","","","","","","","","","","","","",""
"","","","","","image-button-response","70","309336","0.0-2.0-4.0-1.8","6105e13dc0f11571c132344e","F1","batch6","spm_respsonse","9269","img/question_3_9.jpeg","0","mat_33","7","0","0","9269","","","","","","","","","","","","","","","","","","","","",""
"","","","","","html-keyboard-response","71","310389","0.0-2.0-4.0-0.9","6105e13dc0f11571c132344e","F1","batch6","spm_show_trial_num","null","<p class=block-text>Trial 34 out of 60</p>","null","","","","","","","","","","","","","","","","","","","","","","","","","",""
"","","","","","image-button-response","72","340421","0.0-2.0-4.0-1.9","6105e13dc0f11571c132344e","F1","batch6","spm_respsonse","30020","img/question_3_10.jpeg","7","mat_34","6","0","0","30020","","","","","","","","","","","","","","","","","","","","",""
"","","","","","html-keyboard-response","73","341474","0.0-2.0-4.0-0.10","6105e13dc0f11571c132344e","F1","batch6","spm_show_trial_num","null","<p class=block-text>Trial 35 out of 60</p>","null","","","","","","","","","","","","","","","","","","","","","","","","","",""
"","","","","","image-button-response","74","370135","0.0-2.0-4.0-1.10","6105e13dc0f11571c132344e","F1","batch6","spm_respsonse","28651","img/question_3_11.jpeg","0","mat_35","1","1","1","28651","","","","","","","","","","","","","","","","","","","","",""
"","","","","","html-keyboard-response","75","371188","0.0-2.0-4.0-0.11","6105e13dc0f11571c132344e","F1","batch6","spm_show_trial_num","null","<p class=block-text>Trial 36 out of 60</p>","null","","","","","","","","","","","","","","","","","","","","","","","","","",""
"","","","","","image-button-response","76","425737","0.0-2.0-4.0-1.11","6105e13dc0f11571c132344e","F1","batch6","spm_respsonse","54540","img/question_3_12.jpeg","1","mat_36","2","1","1","54540","","","","","","","","","","","","","","","","","","","","",""
"","","","","","html-keyboard-response","77","426791","0.0-2.0-4.0-0.12","6105e13dc0f11571c132344e","F1","batch6","spm_show_trial_num","null","<p class=block-text>Trial 37 out of 60</p>","null","","","","","","","","","","","","","","","","","","","","","","","","","",""
"","","","","","image-button-response","78","431370","0.0-2.0-4.0-1.12","6105e13dc0f11571c132344e","F1","batch6","spm_respsonse","4568","img/question_4_1.jpeg","2","mat_37","3","1","1","4568","","","","","","","","","","","","","","","","","","","","",""
"","","","","","html-keyboard-response","79","432423","0.0-2.0-4.0-0.13","6105e13dc0f11571c132344e","F1","batch6","spm_show_trial_num","null","<p class=block-text>Trial 38 out of 60</p>","null","","","","","","","","","","","","","","","","","","","","","","","","","",""
"","","","","","image-button-response","80","436819","0.0-2.0-4.0-1.13","6105e13dc0f11571c132344e","F1","batch6","spm_respsonse","4384.000000000058","img/question_4_2.jpeg","3","mat_38","4","1","1","4384.000000000058","","","","","","","","","","","","","","","","","","","","",""
"","","","","","html-keyboard-response","81","437872","0.0-2.0-4.0-0.14","6105e13dc0f11571c132344e","F1","batch6","spm_show_trial_num","null","<p class=block-text>Trial 39 out of 60</p>","null","","","","","","","","","","","","","","","","","","","","","","","","","",""
"","","","","","image-button-response","82","444986","0.0-2.0-4.0-1.14","6105e13dc0f11571c132344e","F1","batch6","spm_respsonse","7102","img/question_4_3.jpeg","2","mat_39","3","1","1","7102","","","","","","","","","","","","","","","","","","","","",""
"","","","","","html-keyboard-response","83","446039","0.0-2.0-4.0-0.15","6105e13dc0f11571c132344e","F1","batch6","spm_show_trial_num","null","<p class=block-text>Trial 40 out of 60</p>","null","","","","","","","","","","","","","","","","","","","","","","","","","",""
"","","","","","image-button-response","84","454720","0.0-2.0-4.0-1.15","6105e13dc0f11571c132344e","F1","batch6","spm_respsonse","8669","img/question_4_4.jpeg","6","mat_40","7","1","1","8669","","","","","","","","","","","","","","","","","","","","",""
"","","","","","html-keyboard-response","85","455773","0.0-2.0-4.0-0.16","6105e13dc0f11571c132344e","F1","batch6","spm_show_trial_num","null","<p class=block-text>Trial 41 out of 60</p>","null","","","","","","","","","","","","","","","","","","","","","","","","","",""
"","","","","","image-button-response","86","463119","0.0-2.0-4.0-1.16","6105e13dc0f11571c132344e","F1","batch6","spm_respsonse","7335","img/question_4_5.jpeg","7","mat_41","8","1","1","7335","","","","","","","","","","","","","","","","","","","","",""
"","","","","","html-keyboard-response","87","464172","0.0-2.0-4.0-0.17","6105e13dc0f11571c132344e","F1","batch6","spm_show_trial_num","null","<p class=block-text>Trial 42 out of 60</p>","null","","","","","","","","","","","","","","","","","","","","","","","","","",""
"","","","","","image-button-response","88","474802","0.0-2.0-4.0-1.17","6105e13dc0f11571c132344e","F1","batch6","spm_respsonse","10621.999999999942","img/question_4_6.jpeg","5","mat_42","6","1","1","10621.999999999942","","","","","","","","","","","","","","","","","","","","",""
"","","","","","html-keyboard-response","89","475856","0.0-2.0-4.0-0.18","6105e13dc0f11571c132344e","F1","batch6","spm_show_trial_num","null","<p class=block-text>Trial 43 out of 60</p>","null","","","","","","","","","","","","","","","","","","","","","","","","","",""
"","","","","","image-button-response","90","498838","0.0-2.0-4.0-1.18","6105e13dc0f11571c132344e","F1","batch6","spm_respsonse","22967.99999999994","img/question_4_7.jpeg","4","mat_43","5","1","1","22967.99999999994","","","","","","","","","","","","","","","","","","","","",""
"","","","","","html-keyboard-response","91","499892","0.0-2.0-4.0-0.19","6105e13dc0f11571c132344e","F1","batch6","spm_show_trial_num","null","<p class=block-text>Trial 44 out of 60</p>","null","","","","","","","","","","","","","","","","","","","","","","","","","",""
"","","","","","image-button-response","92","507804","0.0-2.0-4.0-1.19","6105e13dc0f11571c132344e","F1","batch6","spm_respsonse","7900","img/question_4_8.jpeg","3","mat_44","4","1","1","7900","","","","","","","","","","","","","","","","","","","","",""
"","","","","","html-keyboard-response","93","508858","0.0-2.0-4.0-0.20","6105e13dc0f11571c132344e","F1","batch6","spm_show_trial_num","null","<p class=block-text>Trial 45 out of 60</p>","null","","","","","","","","","","","","","","","","","","","","","","","","","",""
"","","","","","image-button-response","94","516188","0.0-2.0-4.0-1.20","6105e13dc0f11571c132344e","F1","batch6","spm_respsonse","7319.000000000058","img/question_4_9.jpeg","0","mat_45","1","1","1","7319.000000000058","","","","","","","","","","","","","","","","","","","","",""
"","","","","","html-keyboard-response","95","517242","0.0-2.0-4.0-0.21","6105e13dc0f11571c132344e","F1","batch6","spm_show_trial_num","null","<p class=block-text>Trial 46 out of 60</p>","null","","","","","","","","","","","","","","","","","","","","","","","","","",""
"","","","","","image-button-response","96","531623","0.0-2.0-4.0-1.21","6105e13dc0f11571c132344e","F1","batch6","spm_respsonse","14371","img/question_4_10.jpeg","1","mat_46","2","1","1","14371","","","","","","","","","","","","","","","","","","","","",""
"","","","","","html-keyboard-response","97","532676","0.0-2.0-4.0-0.22","6105e13dc0f11571c132344e","F1","batch6","spm_show_trial_num","null","<p class=block-text>Trial 47 out of 60</p>","null","","","","","","","","","","","","","","","","","","","","","","","","","",""
"","","","","","image-button-response","98","563574","0.0-2.0-4.0-1.22","6105e13dc0f11571c132344e","F1","batch6","spm_respsonse","30886","img/question_4_11.jpeg","1","mat_47","5","0","0","30886","","","","","","","","","","","","","","","","","","","","",""
"","","","","","html-keyboard-response","99","564627","0.0-2.0-4.0-0.23","6105e13dc0f11571c132344e","F1","batch6","spm_show_trial_num","null","<p class=block-text>Trial 48 out of 60</p>","null","","","","","","","","","","","","","","","","","","","","","","","","","",""
"","","","","","image-button-response","100","607606","0.0-2.0-4.0-1.23","6105e13dc0f11571c132344e","F1","batch6","spm_respsonse","42968","img/question_4_12.jpeg","6","mat_48","6","0","0","42968","","","","","","","","","","","","","","","","","","","","",""
"","","","","","html-keyboard-response","101","608660","0.0-2.0-4.0-0.24","6105e13dc0f11571c132344e","F1","batch6","spm_show_trial_num","null","<p class=block-text>Trial 49 out of 60</p>","null","","","","","","","","","","","","","","","","","","","","","","","","","",""
"","","","","","image-button-response","102","624123","0.0-2.0-4.0-1.24","6105e13dc0f11571c132344e","F1","batch6","spm_respsonse","15453.000000000116","img/question_5_1.jpeg","6","mat_49","7","1","1","15453.000000000116","","","","","","","","","","","","","","","","","","","","",""
"","","","","","html-keyboard-response","103","625178","0.0-2.0-4.0-0.25","6105e13dc0f11571c132344e","F1","batch6","spm_show_trial_num","null","<p class=block-text>Trial 50 out of 60</p>","null","","","","","","","","","","","","","","","","","","","","","","","","","",""
"","","","","","image-button-response","104","638007","0.0-2.0-4.0-1.25","6105e13dc0f11571c132344e","F1","batch6","spm_respsonse","12818","img/question_5_2.jpeg","5","mat_50","6","1","1","12818","","","","","","","","","","","","","","","","","","","","",""
"","","","","","html-keyboard-response","105","639060","0.0-2.0-4.0-0.26","6105e13dc0f11571c132344e","F1","batch6","spm_show_trial_num","null","<p class=block-text>Trial 51 out of 60</p>","null","","","","","","","","","","","","","","","","","","","","","","","","","",""
"","","","","","image-button-response","106","650739","0.0-2.0-4.0-1.26","6105e13dc0f11571c132344e","F1","batch6","spm_respsonse","11667","img/question_5_3.jpeg","7","mat_51","8","1","1","11667","","","","","","","","","","","","","","","","","","","","",""
"","","","","","html-keyboard-response","107","651792","0.0-2.0-4.0-0.27","6105e13dc0f11571c132344e","F1","batch6","spm_show_trial_num","null","<p class=block-text>Trial 52 out of 60</p>","null","","","","","","","","","","","","","","","","","","","","","","","","","",""
"","","","","","image-button-response","108","661805","0.0-2.0-4.0-1.27","6105e13dc0f11571c132344e","F1","batch6","spm_respsonse","10001","img/question_5_4.jpeg","1","mat_52","2","1","1","10001","","","","","","","","","","","","","","","","","","","","",""
"","","","","","html-keyboard-response","109","662859","0.0-2.0-4.0-0.28","6105e13dc0f11571c132344e","F1","batch6","spm_show_trial_num","null","<p class=block-text>Trial 53 out of 60</p>","null","","","","","","","","","","","","","","","","","","","","","","","","","",""
"","","","","","image-button-response","110","682022","0.0-2.0-4.0-1.28","6105e13dc0f11571c132344e","F1","batch6","spm_respsonse","19151.000000000116","img/question_5_5.jpeg","0","mat_53","1","1","1","19151.000000000116","","","","","","","","","","","","","","","","","","","","",""
"","","","","","html-keyboard-response","111","683076","0.0-2.0-4.0-0.29","6105e13dc0f11571c132344e","F1","batch6","spm_show_trial_num","null","<p class=block-text>Trial 54 out of 60</p>","null","","","","","","","","","","","","","","","","","","","","","","","","","",""
"","","","","","image-button-response","112","694822","0.0-2.0-4.0-1.29","6105e13dc0f11571c132344e","F1","batch6","spm_respsonse","11734.999999999884","img/question_5_6.jpeg","4","mat_54","5","1","1","11734.999999999884","","","","","","","","","","","","","","","","","","","","",""
"","","","","","html-keyboard-response","113","695876","0.0-2.0-4.0-0.30","6105e13dc0f11571c132344e","F1","batch6","spm_show_trial_num","null","<p class=block-text>Trial 55 out of 60</p>","null","","","","","","","","","","","","","","","","","","","","","","","","","",""
"","","","","","image-button-response","114","715319","0.0-2.0-4.0-1.30","6105e13dc0f11571c132344e","F1","batch6","spm_respsonse","19432","img/question_5_7.jpeg","0","mat_55","1","1","1","19432","","","","","","","","","","","","","","","","","","","","",""
"","","","","","html-keyboard-response","115","716372","0.0-2.0-4.0-0.31","6105e13dc0f11571c132344e","F1","batch6","spm_show_trial_num","null","<p class=block-text>Trial 56 out of 60</p>","null","","","","","","","","","","","","","","","","","","","","","","","","","",""
"","","","","","image-button-response","116","739589","0.0-2.0-4.0-1.31","6105e13dc0f11571c132344e","F1","batch6","spm_respsonse","23205","img/question_5_8.jpeg","5","mat_56","6","1","1","23205","","","","","","","","","","","","","","","","","","","","",""
"","","","","","html-keyboard-response","117","740642","0.0-2.0-4.0-0.32","6105e13dc0f11571c132344e","F1","batch6","spm_show_trial_num","null","<p class=block-text>Trial 57 out of 60</p>","null","","","","","","","","","","","","","","","","","","","","","","","","","",""
"","","","","","image-button-response","118","787536","0.0-2.0-4.0-1.32","6105e13dc0f11571c132344e","F1","batch6","spm_respsonse","46884","img/question_5_9.jpeg","7","mat_57","3","0","0","46884","","","","","","","","","","","","","","","","","","","","",""
"","","","","","html-keyboard-response","119","788591","0.0-2.0-4.0-0.33","6105e13dc0f11571c132344e","F1","batch6","spm_show_trial_num","null","<p class=block-text>Trial 58 out of 60</p>","null","","","","","","","","","","","","","","","","","","","","","","","","","",""
"","","","","","image-button-response","120","834307","0.0-2.0-4.0-1.33","6105e13dc0f11571c132344e","F1","batch6","spm_respsonse","45705","img/question_5_10.jpeg","0","mat_58","2","0","0","45705","","","","","","","","","","","","","","","","","","","","",""
"","","","","","html-keyboard-response","121","835361","0.0-2.0-4.0-0.34","6105e13dc0f11571c132344e","F1","batch6","spm_show_trial_num","null","<p class=block-text>Trial 59 out of 60</p>","null","","","","","","","","","","","","","","","","","","","","","","","","","",""
"","","","","","image-button-response","122","872723","0.0-2.0-4.0-1.34","6105e13dc0f11571c132344e","F1","batch6","spm_respsonse","37350","img/question_5_11.jpeg","2","mat_59","4","0","0","37350","","","","","","","","","","","","","","","","","","","","",""
"","","","","","html-keyboard-response","123","873778","0.0-2.0-4.0-0.35","6105e13dc0f11571c132344e","F1","batch6","spm_show_trial_num","null","<p class=block-text>Trial 60 out of 60</p>","null","","","","","","","","","","","","","","","","","","","","","","","","","",""
"","","","","","image-button-response","124","899191","0.0-2.0-4.0-1.35","6105e13dc0f11571c132344e","F1","batch6","spm_respsonse","25401","img/question_5_12.jpeg","0","mat_60","5","0","0","25401","","","","","","","","","","","","","","","","","","","","",""
"","","","","","html-button-response","125","901439","0.0-2.0-5.0","6105e13dc0f11571c132344e","F1","batch6","spm_goodbye","1993.9999999998836","<p class= block-text>This concludes the Standard Progressive Matrix game. Thank you for your responses!<br> When you are ready, click the button continue</p>","0","","","","","","","","","","","","","","","","","","","","","","","","","",""
"true","","","","","fullscreen","126","903522","0.0-3.0-0.0","6105e13dc0f11571c132344e","F1","batch6","","","","","","","","","","","","","","","","","","","","","","","","","","","","","",""
"","","","","","instructions","127","940303","0.0-3.0-1.0-0.0-0.0","6105e13dc0f11571c132344e","F1","batch6","tol-instructions","36780.00000000012","","","","","","","","[{""page_index"":0,""viewing_time"":10446},{""page_index"":1,""viewing_time"":5717},{""page_index"":2,""viewing_time"":3186},{""page_index"":3,""viewing_time"":4448},{""page_index"":4,""viewing_time"":1883},{""page_index"":5,""viewing_time"":8799},{""page_index"":6,""viewing_time"":2300}]","","","","","","","","","","","","","","","","","","","",""
"","","","","","html-button-response","128","941737","0.0-3.0-1.0-1.0-0.0","6105e13dc0f11571c132344e","F1","batch6","tol_enter_quiz","1432.0000000001164","<p class=block-text> Let's answer a few questions <br>","0","","","","","","","","","","","","","","","","","","","","","","","","","",""
"","","","","","html-button-response","129","946303","0.0-3.0-1.0-1.0-1.0","6105e13dc0f11571c132344e","F1","batch6","tol_quiz","4565.000000000116","<p class = block-text>True or False: You can only move the ball on top of a peg. <br></p>","0","","","true","","","","","","","","","","","","","","","","","","","","","","",""
"","","","","","html-button-response","130","948054","0.0-3.0-1.0-1.0-2.0","6105e13dc0f11571c132344e","F1","batch6","tol_quiz_feedback","1748","<p class = block-text>Correct! You can only move the ball on top of a peg.</p>","0","","","","","","","","","","","","","","","","","","","","","","","","","",""
"","","","","","html-button-response","131","951204","0.0-3.0-1.0-1.0-3.0","6105e13dc0f11571c132344e","F1","batch6","tol_quiz","3150","<p class = block-text>True or False: You should try to match your board with the target board with fewest moves possible. <br></p>","0","","","true","","","","","","","","","","","","","","","","","","","","","","",""
"","","","","","html-button-response","132","952120","0.0-3.0-1.0-1.0-4.0","6105e13dc0f11571c132344e","F1","batch6","tol_quiz_feedback","914","<p class = block-text>Correct! </p>","0","","","","","","","","","","","","","","","","","","","","","","","","","",""
"","","","","","html-button-response","133","954187","0.0-3.0-2.0","6105e13dc0f11571c132344e","F1","batch6","","2064","<p class=block-text> Now that you've understood the game, let's practice a few easier examples before we start!<br> <br>","0","","","","","","","","","","","","","","","","","","","","","","","","","",""
"","","","","","single-stim-button","134","960010","0.0-3.0-3.0-0.0","6105e13dc0f11571c132344e","F1","batch6","tol_practice","5821","","","","","","","","","tol_peg_2","5821","5821","0","[[1,2,0],[0,0],[0]]","1","[[1,2,0],[0,0],[3]]","practice","5821","","","","","","","","","","",""
"","","","","","single-stim-button","135","961505","0.0-3.0-3.0-1.0","6105e13dc0f11571c132344e","F1","batch6","tol_practice","1493","","","","","","","","","tol_peg_3","1493","1493","0","[[1,2,0],[0,0],[3]]","1","[[1,2,0],[0,0],[3]]","practice","1493","","","","","","","","","","",""
"","","","","","poldrack-single-stim","136","962511","0.0-3.0-4.0","6105e13dc0f11571c132344e","F1","batch6","tol_feedback","-1","","","","","true","","","","","1000","1000","500","","","","","","-1","none","true","","0","","","","","",""
"","","","","","single-stim-button","137","967987","0.0-3.0-5.0-0.0","6105e13dc0f11571c132344e","F1","batch6","tol_practice","5474","","","","","","","","","tol_peg_1","5474","5474","0","[[1,0,0],[3,0],[0]]","2","[[0,0,0],[3,1],[2]]","practice","5474","","","","","","","","","","",""
"","","","","","single-stim-button","138","970937","0.0-3.0-5.0-1.0","6105e13dc0f11571c132344e","F1","batch6","tol_practice","2948","","","","","","","","","tol_peg_3","2948","2948","0","[[1,0,0],[3,0],[2]]","2","[[0,0,0],[3,1],[2]]","practice","2948","","","","","","","","","","",""
"","","","","","single-stim-button","139","972003","0.0-3.0-5.1-0.1","6105e13dc0f11571c132344e","F1","batch6","tol_practice","1064","","","","","","","","","tol_peg_1","1064","1064","0","[[0,0,0],[3,0],[2]]","3","[[0,0,0],[3,1],[2]]","practice","1064","","","","","","","","","","",""
"","","","","","single-stim-button","140","972904","0.0-3.0-5.1-1.1","6105e13dc0f11571c132344e","F1","batch6","tol_practice","899","","","","","","","","","tol_peg_2","899","899","0","[[0,0,0],[3,1],[2]]","3","[[0,0,0],[3,1],[2]]","practice","899","","","","","","","","","","",""
"","","","","","poldrack-single-stim","141","973908","0.0-3.0-6.0","6105e13dc0f11571c132344e","F1","batch6","tol_feedback","-1","","","","","true","","","","","1000","1000","500","","","","","","-1","none","true","","0","","","","","",""
"","","","","","single-stim-button","142","977771","0.0-3.0-7.0-0.0","6105e13dc0f11571c132344e","F1","batch6","tol_practice","3861","","","","","","","","","tol_peg_2","3861","3861","0","[[1,2,0],[0,0],[0]]","4","[[1,0,0],[2,0],[3]]","practice","3861","","","","","","","","","","",""
"","","","","","single-stim-button","143","978987","0.0-3.0-7.0-1.0","6105e13dc0f11571c132344e","F1","batch6","tol_practice","1213","","","","","","","","","tol_peg_3","1213","1213","0","[[1,2,0],[0,0],[3]]","4","[[1,0,0],[2,0],[3]]","practice","1213","","","","","","","","","","",""
"","","","","","single-stim-button","144","979887","0.0-3.0-7.1-0.1","6105e13dc0f11571c132344e","F1","batch6","tol_practice","897","","","","","","","","","tol_peg_1","897","897","0","[[1,0,0],[0,0],[3]]","5","[[1,0,0],[2,0],[3]]","practice","897","","","","","","","","","","",""
"","","","","","single-stim-button","145","981021","0.0-3.0-7.1-1.1","6105e13dc0f11571c132344e","F1","batch6","tol_practice","1133","","","","","","","","","tol_peg_2","1133","1133","0","[[1,0,0],[2,0],[3]]","5","[[1,0,0],[2,0],[3]]","practice","1133","","","","","","","","","","",""
"","","","","","poldrack-single-stim","146","982025","0.0-3.0-8.0","6105e13dc0f11571c132344e","F1","batch6","tol_feedback","-1","","","","","true","","","","","1000","1000","500","","","","","","-1","none","true","","0","","","","","",""
"","","","","","html-button-response","147","985369","0.0-3.0-9.0","6105e13dc0f11571c132344e","F1","batch6","tol_instruction","3342","<div class = centerbox><p class = center-block-text>Great job! You are done with practice trials<br>You are about to start official trials.<br> <br> Problem <strong>1</strong> out of 25 problems</p></div>","0","","","","","","","","","","","","","","","","","","","","","","","","","",""
"","","","","","single-stim-button","148","999255","0.0-3.0-10.0-0.0","6105e13dc0f11571c132344e","F1","batch6","tol_tohand","12882","","","","","","","","","tol_peg_1","12882","12882","0","[[1,0,0],[3,0],[0]]","1","[[1,3,0],[2,0],[0]]","0","0","","","","","","3","","","","",""
"","","","","","single-stim-button","149","1001205","0.0-3.0-10.0-1.0","6105e13dc0f11571c132344e","F1","batch6","tol_toboard","1947","","","","","","","","","tol_peg_3","1947","1947","0","[[1,0,0],[3,0],[2]]","1","[[1,3,0],[2,0],[0]]","0","0","","","","","","3","","","","",""
"","","","","","single-stim-button","150","1001937","0.0-3.0-10.1-0.1","6105e13dc0f11571c132344e","F1","batch6","tol_tohand","730","","","","","","","","","tol_peg_2","730","730","0","[[1,0,0],[0,0],[2]]","2","[[1,3,0],[2,0],[0]]","0","0","","","","","","3","","","","",""
"","","","","","single-stim-button","151","1002841","0.0-3.0-10.1-1.1","6105e13dc0f11571c132344e","F1","batch6","tol_toboard","902","","","","","","","","","tol_peg_1","902","902","0","[[1,3,0],[0,0],[2]]","2","[[1,3,0],[2,0],[0]]","0","0","","","","","","3","","","","",""
"","","","","","single-stim-button","152","1003722","0.0-3.0-10.2-0.2","6105e13dc0f11571c132344e","F1","batch6","tol_tohand","879","","","","","","","","","tol_peg_3","879","879","0","[[1,3,0],[0,0],[0]]","3","[[1,3,0],[2,0],[0]]","0","0","","","","","","3","","","","",""
"","","","","","single-stim-button","153","1004454","0.0-3.0-10.2-1.2","6105e13dc0f11571c132344e","F1","batch6","tol_toboard","731","","","","","","","","","tol_peg_2","731","731","0","[[1,3,0],[2,0],[0]]","3","[[1,3,0],[2,0],[0]]","0","0","","","","","","3","","","","",""
"","","","","","poldrack-single-stim","154","1005458","0.0-3.0-11.0","6105e13dc0f11571c132344e","F1","batch6","tol_feedback","-1","","","","","true","","","","","1000","1000","500","","","","","","-1","none","true","12882","14491","","","","","",""
"","","","","","html-button-response","155","1006537","0.0-3.0-12.0","6105e13dc0f11571c132344e","F1","batch6","tol_trial_num","1078.0000000001164","<div class = centerbox><p class = center-block-text>problem <strong>2</strong> out of 25 problems</p></div>","0","","","","","","","","","","","","","","","","","","","","","","","","","",""
"","","","","","single-stim-button","156","1015688","0.0-3.0-13.0-0.0","6105e13dc0f11571c132344e","F1","batch6","tol_tohand","9149","","","","","","","","","tol_peg_1","9149","9149","0","[[1,0,0],[3,0],[0]]","1","[[2,1,3],[0,0],[0]]","1","0","","","","","","5","","","","",""
"","","","","","single-stim-button","157","1020020","0.0-3.0-13.0-1.0","6105e13dc0f11571c132344e","F1","batch6","tol_toboard","4330","","","","","","","","","tol_peg_2","4330","4330","0","[[1,0,0],[3,2],[0]]","1","[[2,1,3],[0,0],[0]]","1","0","","","","","","5","","","","",""
"","","","","","single-stim-button","158","1022237","0.0-3.0-13.1-0.1","6105e13dc0f11571c132344e","F1","batch6","tol_tohand","2214","","","","","","","","","tol_peg_1","2214","2214","0","[[0,0,0],[3,2],[0]]","2","[[2,1,3],[0,0],[0]]","1","0","","","","","","5","","","","",""
"","","","","","single-stim-button","159","1023803","0.0-3.0-13.1-1.1","6105e13dc0f11571c132344e","F1","batch6","tol_toboard","1565","","","","","","","","","tol_peg_3","1565","1565","0","[[0,0,0],[3,2],[1]]","2","[[2,1,3],[0,0],[0]]","1","0","","","","","","5","","","","",""
"","","","","","single-stim-button","160","1025004","0.0-3.0-13.2-0.2","6105e13dc0f11571c132344e","F1","batch6","tol_tohand","1199","","","","","","","","","tol_peg_2","1199","1199","0","[[0,0,0],[3,0],[1]]","3","[[2,1,3],[0,0],[0]]","1","0","","","","","","5","","","","",""
"","","","","","single-stim-button","161","1025921","0.0-3.0-13.2-1.2","6105e13dc0f11571c132344e","F1","batch6","tol_toboard","914","","","","","","","","","tol_peg_1","914","914","0","[[2,0,0],[3,0],[1]]","3","[[2,1,3],[0,0],[0]]","1","0","","","","","","5","","","","",""
"","","","","","single-stim-button","162","1026988","0.0-3.0-13.3-0.3","6105e13dc0f11571c132344e","F1","batch6","tol_tohand","1065","","","","","","","","","tol_peg_3","1065","1065","0","[[2,0,0],[3,0],[0]]","4","[[2,1,3],[0,0],[0]]","1","0","","","","","","5","","","","",""
"","","","","","single-stim-button","163","1027804","0.0-3.0-13.3-1.3","6105e13dc0f11571c132344e","F1","batch6","tol_toboard","813","","","","","","","","","tol_peg_1","813","813","0","[[2,1,0],[3,0],[0]]","4","[[2,1,3],[0,0],[0]]","1","0","","","","","","5","","","","",""
"","","","","","single-stim-button","164","1028603","0.0-3.0-13.4-0.4","6105e13dc0f11571c132344e","F1","batch6","tol_tohand","796","","","","","","","","","tol_peg_2","796","796","0","[[2,1,0],[0,0],[0]]","5","[[2,1,3],[0,0],[0]]","1","0","","","","","","5","","","","",""
"","","","","","single-stim-button","165","1029421","0.0-3.0-13.4-1.4","6105e13dc0f11571c132344e","F1","batch6","tol_toboard","815","","","","","","","","","tol_peg_1","815","815","0","[[2,1,3],[0,0],[0]]","5","[[2,1,3],[0,0],[0]]","1","0","","","","","","5","","","","",""
"","","","","","poldrack-single-stim","166","1030424","0.0-3.0-14.0","6105e13dc0f11571c132344e","F1","batch6","tol_feedback","-1","","","","","true","","","","","1000","1000","500","","","","","","-1","none","true","9149","14423","","","","","",""
"","","","","","html-button-response","167","1031586","0.0-3.0-15.0","6105e13dc0f11571c132344e","F1","batch6","tol_trial_num","1160","<div class = centerbox><p class = center-block-text>problem <strong>3</strong> out of 25 problems</p></div>","0","","","","","","","","","","","","","","","","","","","","","","","","","",""
"","","","","","single-stim-button","168","1035253","0.0-3.0-16.0-0.0","6105e13dc0f11571c132344e","F1","batch6","tol_tohand","3667","","","","","","","","","tol_peg_1","3667","3667","0","[[2,0,0],[0,0],[1]]","1","[[1,2,0],[3,0],[0]]","2","0","","","","","","4","","","","",""
"","","","","","single-stim-button","169","1036786","0.0-3.0-16.0-1.0","6105e13dc0f11571c132344e","F1","batch6","tol_toboard","1530","","","","","","","","","tol_peg_2","1530","1530","0","[[2,0,0],[3,0],[1]]","1","[[1,2,0],[3,0],[0]]","2","0","","","","","","4","","","","",""
"","","","","","single-stim-button","170","1041503","0.0-3.0-16.1-0.1","6105e13dc0f11571c132344e","F1","batch6","tol_tohand","4715","","","","","","","","","tol_peg_1","4715","4715","0","[[0,0,0],[3,0],[1]]","2","[[1,2,0],[3,0],[0]]","2","0","","","","","","4","","","","",""
"","","","","","single-stim-button","171","1042920","0.0-3.0-16.1-1.1","6105e13dc0f11571c132344e","F1","batch6","tol_toboard","1415","","","","","","","","","tol_peg_2","1415","1415","0","[[0,0,0],[3,2],[1]]","2","[[1,2,0],[3,0],[0]]","2","0","","","","","","4","","","","",""
"","","","","","single-stim-button","172","1043605","0.0-3.0-16.2-0.2","6105e13dc0f11571c132344e","F1","batch6","tol_tohand","682","","","","","","","","","tol_peg_3","682","682","0","[[0,0,0],[3,2],[0]]","3","[[1,2,0],[3,0],[0]]","2","0","","","","","","4","","","","",""
"","","","","","single-stim-button","173","1044471","0.0-3.0-16.2-1.2","6105e13dc0f11571c132344e","F1","batch6","tol_toboard","863","","","","","","","","","tol_peg_1","863","863","0","[[1,0,0],[3,2],[0]]","3","[[1,2,0],[3,0],[0]]","2","0","","","","","","4","","","","",""
"","","","","","single-stim-button","174","1045022","0.0-3.0-16.3-0.3","6105e13dc0f11571c132344e","F1","batch6","tol_tohand","549","","","","","","","","","tol_peg_2","549","549","0","[[1,0,0],[3,0],[0]]","4","[[1,2,0],[3,0],[0]]","2","0","","","","","","4","","","","",""
"","","","","","single-stim-button","175","1045571","0.0-3.0-16.3-1.3","6105e13dc0f11571c132344e","F1","batch6","tol_toboard","544","","","","","","","","","tol_peg_1","544","544","0","[[1,2,0],[3,0],[0]]","4","[[1,2,0],[3,0],[0]]","2","0","","","","","","4","","","","",""
"","","","","","poldrack-single-stim","176","1046575","0.0-3.0-17.0","6105e13dc0f11571c132344e","F1","batch6","tol_feedback","-1","","","","","true","","","","","1000","1000","500","","","","","","-1","none","true","3667","9613","","","","","",""
"","","","","","html-button-response","177","1047737","0.0-3.0-18.0","6105e13dc0f11571c132344e","F1","batch6","tol_trial_num","1157","<div class = centerbox><p class = center-block-text>problem <strong>4</strong> out of 25 problems</p></div>","0","","","","","","","","","","","","","","","","","","","","","","","","","",""
"","","","","","single-stim-button","178","1055537","0.0-3.0-19.0-0.0","6105e13dc0f11571c132344e","F1","batch6","tol_tohand","7799","","","","","","","","","tol_peg_2","7799","7799","0","[[3,0,0],[2,0],[0]]","1","[[3,0,0],[1,0],[2]]","3","0","","","","","","3","","","","",""
"","","","","","single-stim-button","179","1056389","0.0-3.0-19.0-1.0","6105e13dc0f11571c132344e","F1","batch6","tol_toboard","850","","","","","","","","","tol_peg_1","850","850","0","[[3,1,0],[2,0],[0]]","1","[[3,0,0],[1,0],[2]]","3","0","","","","","","3","","","","",""
"","","","","","single-stim-button","180","1057738","0.0-3.0-19.1-0.1","6105e13dc0f11571c132344e","F1","batch6","tol_tohand","1348","","","","","","","","","tol_peg_2","1348","1348","0","[[3,1,0],[0,0],[0]]","2","[[3,0,0],[1,0],[2]]","3","0","","","","","","3","","","","",""
"","","","","","single-stim-button","181","1058553","0.0-3.0-19.1-1.1","6105e13dc0f11571c132344e","F1","batch6","tol_toboard","811","","","","","","","","","tol_peg_3","811","811","0","[[3,1,0],[0,0],[2]]","2","[[3,0,0],[1,0],[2]]","3","0","","","","","","3","","","","",""
"","","","","","single-stim-button","182","1059340","0.0-3.0-19.2-0.2","6105e13dc0f11571c132344e","F1","batch6","tol_tohand","784","","","","","","","","","tol_peg_1","784","784","0","[[3,0,0],[0,0],[2]]","3","[[3,0,0],[1,0],[2]]","3","0","","","","","","3","","","","",""
"","","","","","single-stim-button","183","1060088","0.0-3.0-19.2-1.2","6105e13dc0f11571c132344e","F1","batch6","tol_toboard","746","","","","","","","","","tol_peg_2","746","746","0","[[3,0,0],[1,0],[2]]","3","[[3,0,0],[1,0],[2]]","3","0","","","","","","3","","","","",""
"","","","","","poldrack-single-stim","184","1061092","0.0-3.0-20.0","6105e13dc0f11571c132344e","F1","batch6","tol_feedback","-1","","","","","true","","","","","1000","1000","500","","","","","","-1","none","true","7799","9931","","","","","",""
"","","","","","html-button-response","185","1062072","0.0-3.0-21.0","6105e13dc0f11571c132344e","F1","batch6","tol_trial_num","978","<div class = centerbox><p class = center-block-text>problem <strong>5</strong> out of 25 problems</p></div>","0","","","","","","","","","","","","","","","","","","","","","","","","","",""
"","","","","","single-stim-button","186","1075571","0.0-3.0-22.0-0.0","6105e13dc0f11571c132344e","F1","batch6","tol_tohand","13498","","","","","","","","","tol_peg_3","13498","13498","0","[[1,0,0],[2,0],[0]]","1","[[0,0,0],[1,2],[3]]","4","0","","","","","","7","","","","",""
"","","","","","single-stim-button","187","1105953","0.0-3.0-22.0-1.0","6105e13dc0f11571c132344e","F1","batch6","tol_toboard","30380","","","","","","","","","tol_peg_2","30380","30380","0","[[1,0,0],[2,3],[0]]","1","[[0,0,0],[1,2],[3]]","4","0","","","","","","7","","","","",""
"","","","","","single-stim-button","188","1106821","0.0-3.0-22.1-0.1","6105e13dc0f11571c132344e","F1","batch6","tol_tohand","867","","","","","","","","","tol_peg_1","867","867","0","[[0,0,0],[2,3],[0]]","2","[[0,0,0],[1,2],[3]]","4","0","","","","","","7","","","","",""
"","","","","","single-stim-button","189","1115855","0.0-3.0-22.1-1.1","6105e13dc0f11571c132344e","F1","batch6","tol_toboard","9032","","","","","","","","","tol_peg_1","9032","9032","0","[[1,0,0],[2,3],[0]]","2","[[0,0,0],[1,2],[3]]","4","0","","","","","","7","","","","",""
"","","","","","single-stim-button","190","1119839","0.0-3.0-22.2-0.2","6105e13dc0f11571c132344e","F1","batch6","tol_tohand","3982","","","","","","","","","tol_peg_1","3982","3982","0","[[0,0,0],[2,3],[0]]","3","[[0,0,0],[1,2],[3]]","4","0","","","","","","7","","","","",""
"","","","","","single-stim-button","191","1121887","0.0-3.0-22.2-1.2","6105e13dc0f11571c132344e","F1","batch6","tol_toboard","2044","","","","","","","","","tol_peg_1","2044","2044","0","[[1,0,0],[2,3],[0]]","3","[[0,0,0],[1,2],[3]]","4","0","","","","","","7","","","","",""
"","","","","","single-stim-button","192","1122705","0.0-3.0-22.3-0.3","6105e13dc0f11571c132344e","F1","batch6","tol_tohand","815","","","","","","","","","tol_peg_2","815","815","0","[[1,0,0],[2,0],[0]]","4","[[0,0,0],[1,2],[3]]","4","0","","","","","","7","","","","",""
"","","","","","single-stim-button","193","1123603","0.0-3.0-22.3-1.3","6105e13dc0f11571c132344e","F1","batch6","tol_toboard","896","","","","","","","","","tol_peg_1","896","896","0","[[1,3,0],[2,0],[0]]","4","[[0,0,0],[1,2],[3]]","4","0","","","","","","7","","","","",""
"","","","","","single-stim-button","194","1126205","0.0-3.0-22.4-0.4","6105e13dc0f11571c132344e","F1","batch6","tol_tohand","2600","","","","","","","","","tol_peg_2","2600","2600","0","[[1,3,0],[0,0],[0]]","5","[[0,0,0],[1,2],[3]]","4","0","","","","","","7","","","","",""
"","","","","","single-stim-button","195","1132805","0.0-3.0-22.4-1.4","6105e13dc0f11571c132344e","F1","batch6","tol_toboard","6599","","","","","","","","","tol_peg_3","6599","6599","0","[[1,3,0],[0,0],[2]]","5","[[0,0,0],[1,2],[3]]","4","0","","","","","","7","","","","",""
"","","","","","single-stim-button","196","1135805","0.0-3.0-22.5-0.5","6105e13dc0f11571c132344e","F1","batch6","tol_tohand","2997","","","","","","","","","tol_peg_1","2997","2997","0","[[1,0,0],[0,0],[2]]","6","[[0,0,0],[1,2],[3]]","4","0","","","","","","7","","","","",""
"","","","","","single-stim-button","197","1136855","0.0-3.0-22.5-1.5","6105e13dc0f11571c132344e","F1","batch6","tol_toboard","1049","","","","","","","","","tol_peg_2","1049","1049","0","[[1,0,0],[3,0],[2]]","6","[[0,0,0],[1,2],[3]]","4","0","","","","","","7","","","","",""
"","","","","","single-stim-button","198","1137421","0.0-3.0-22.6-0.6","6105e13dc0f11571c132344e","F1","batch6","tol_tohand","564","","","","","","","","","tol_peg_1","564","564","0","[[0,0,0],[3,0],[2]]","7","[[0,0,0],[1,2],[3]]","4","0","","","","","","7","","","","",""
"","","","","","single-stim-button","199","1138737","0.0-3.0-22.6-1.6","6105e13dc0f11571c132344e","F1","batch6","tol_toboard","1314","","","","","","","","","tol_peg_2","1314","1314","0","[[0,0,0],[3,1],[2]]","7","[[0,0,0],[1,2],[3]]","4","0","","","","","","7","","","","",""
"","","","","","single-stim-button","200","1139555","0.0-3.0-22.7-0.7","6105e13dc0f11571c132344e","F1","batch6","tol_tohand","815","","","","","","","","","tol_peg_3","815","815","0","[[0,0,0],[3,1],[0]]","8","[[0,0,0],[1,2],[3]]","4","0","","","","","","7","","","","",""
"","","","","","single-stim-button","201","1140605","0.0-3.0-22.7-1.7","6105e13dc0f11571c132344e","F1","batch6","tol_toboard","1047","","","","","","","","","tol_peg_1","1047","1047","0","[[2,0,0],[3,1],[0]]","8","[[0,0,0],[1,2],[3]]","4","0","","","","","","7","","","","",""
"","","","","","single-stim-button","202","1144556","0.0-3.0-22.8-0.8","6105e13dc0f11571c132344e","F1","batch6","tol_tohand","3949","","","","","","","","","tol_peg_2","3949","3949","0","[[2,0,0],[3,0],[0]]","9","[[0,0,0],[1,2],[3]]","4","0","","","","","","7","","","","",""
"","","","","","single-stim-button","203","1145988","0.0-3.0-22.8-1.8","6105e13dc0f11571c132344e","F1","batch6","tol_toboard","1430","","","","","","","","","tol_peg_3","1430","1430","0","[[2,0,0],[3,0],[1]]","9","[[0,0,0],[1,2],[3]]","4","0","","","","","","7","","","","",""
"","","","","","single-stim-button","204","1146804","0.0-3.0-22.9-0.9","6105e13dc0f11571c132344e","F1","batch6","tol_tohand","814","","","","","","","","","tol_peg_2","814","814","0","[[2,0,0],[0,0],[1]]","10","[[0,0,0],[1,2],[3]]","4","0","","","","","","7","","","","",""
"","","","","","single-stim-button","205","1147804","0.0-3.0-22.9-1.9","6105e13dc0f11571c132344e","F1","batch6","tol_toboard","997","","","","","","","","","tol_peg_1","997","997","0","[[2,3,0],[0,0],[1]]","10","[[0,0,0],[1,2],[3]]","4","0","","","","","","7","","","","",""
"","","","","","single-stim-button","206","1149221","0.0-3.0-22.10-0.10","6105e13dc0f11571c132344e","F1","batch6","tol_tohand","1415","","","","","","","","","tol_peg_3","1415","1415","0","[[2,3,0],[0,0],[0]]","11","[[0,0,0],[1,2],[3]]","4","0","","","","","","7","","","","",""
"","","","","","single-stim-button","207","1150621","0.0-3.0-22.10-1.10","6105e13dc0f11571c132344e","F1","batch6","tol_toboard","1398","","","","","","","","","tol_peg_2","1398","1398","0","[[2,3,0],[1,0],[0]]","11","[[0,0,0],[1,2],[3]]","4","0","","","","","","7","","","","",""
"","","","","","single-stim-button","208","1151355","0.0-3.0-22.11-0.11","6105e13dc0f11571c132344e","F1","batch6","tol_tohand","732","","","","","","","","","tol_peg_1","732","732","0","[[2,0,0],[1,0],[0]]","12","[[0,0,0],[1,2],[3]]","4","0","","","","","","7","","","","",""
"","","","","","single-stim-button","209","1152489","0.0-3.0-22.11-1.11","6105e13dc0f11571c132344e","F1","batch6","tol_toboard","1132","","","","","","","","","tol_peg_3","1132","1132","0","[[2,0,0],[1,0],[3]]","12","[[0,0,0],[1,2],[3]]","4","0","","","","","","7","","","","",""
"","","","","","single-stim-button","210","1153205","0.0-3.0-22.12-0.12","6105e13dc0f11571c132344e","F1","batch6","tol_tohand","714","","","","","","","","","tol_peg_1","714","714","0","[[0,0,0],[1,0],[3]]","13","[[0,0,0],[1,2],[3]]","4","0","","","","","","7","","","","",""
"","","","","","single-stim-button","211","1154055","0.0-3.0-22.12-1.12","6105e13dc0f11571c132344e","F1","batch6","tol_toboard","847","","","","","","","","","tol_peg_2","847","847","0","[[0,0,0],[1,2],[3]]","13","[[0,0,0],[1,2],[3]]","4","0","","","","","","7","","","","",""
"","","","","","poldrack-single-stim","212","1155059","0.0-3.0-23.0","6105e13dc0f11571c132344e","F1","batch6","tol_feedback","-1","","","","","true","","","","","1000","1000","500","","","","","","-1","none","true","13498","33762","","","","","",""
"","","","","","html-button-response","213","1156171","0.0-3.0-24.0","6105e13dc0f11571c132344e","F1","batch6","tol_trial_num","1112","<div class = centerbox><p class = center-block-text>problem <strong>6</strong> out of 25 problems</p></div>","0","","","","","","","","","","","","","","","","","","","","","","","","","",""
"","","","","","single-stim-button","214","1178855","0.0-3.0-25.0-0.0","6105e13dc0f11571c132344e","F1","batch6","tol_tohand","22682","","","","","","","","","tol_peg_3","22682","22682","0","[[0,0,0],[1,2],[0]]","1","[[1,0,0],[2,3],[0]]","5","0","","","","","","6","","","","",""
"","","","","","single-stim-button","215","1179920","0.0-3.0-25.0-1.0","6105e13dc0f11571c132344e","F1","batch6","tol_toboard","1059","","","","","","","","","tol_peg_1","1059","1059","0","[[3,0,0],[1,2],[0]]","1","[[1,0,0],[2,3],[0]]","5","0","","","","","","6","","","","",""
"","","","","","single-stim-button","216","1185838","0.0-3.0-25.1-0.1","6105e13dc0f11571c132344e","F1","batch6","tol_tohand","5916","","","","","","","","","tol_peg_2","5916","5916","0","[[3,0,0],[1,0],[0]]","2","[[1,0,0],[2,3],[0]]","5","0","","","","","","6","","","","",""
"","","","","","single-stim-button","217","1186588","0.0-3.0-25.1-1.1","6105e13dc0f11571c132344e","F1","batch6","tol_toboard","747","","","","","","","","","tol_peg_3","747","747","0","[[3,0,0],[1,0],[2]]","2","[[1,0,0],[2,3],[0]]","5","0","","","","","","6","","","","",""
"","","","","","single-stim-button","218","1187220","0.0-3.0-25.2-0.2","6105e13dc0f11571c132344e","F1","batch6","tol_tohand","631","","","","","","","","","tol_peg_2","631","631","0","[[3,0,0],[0,0],[2]]","3","[[1,0,0],[2,3],[0]]","5","0","","","","","","6","","","","",""
"","","","","","single-stim-button","219","1188071","0.0-3.0-25.2-1.2","6105e13dc0f11571c132344e","F1","batch6","tol_toboard","849","","","","","","","","","tol_peg_1","849","849","0","[[3,1,0],[0,0],[2]]","3","[[1,0,0],[2,3],[0]]","5","0","","","","","","6","","","","",""
"","","","","","single-stim-button","220","1189273","0.0-3.0-25.3-0.3","6105e13dc0f11571c132344e","F1","batch6","tol_tohand","1198","","","","","","","","","tol_peg_3","1198","1198","0","[[3,1,0],[0,0],[0]]","4","[[1,0,0],[2,3],[0]]","5","0","","","","","","6","","","","",""
"","","","","","single-stim-button","221","1190071","0.0-3.0-25.3-1.3","6105e13dc0f11571c132344e","F1","batch6","tol_toboard","796","","","","","","","","","tol_peg_2","796","796","0","[[3,1,0],[2,0],[0]]","4","[[1,0,0],[2,3],[0]]","5","0","","","","","","6","","","","",""
"","","","","","single-stim-button","222","1191654","0.0-3.0-25.4-0.4","6105e13dc0f11571c132344e","F1","batch6","tol_tohand","1579","","","","","","","","","tol_peg_1","1579","1579","0","[[3,0,0],[2,0],[0]]","5","[[1,0,0],[2,3],[0]]","5","0","","","","","","6","","","","",""
"","","","","","single-stim-button","223","1192321","0.0-3.0-25.4-1.4","6105e13dc0f11571c132344e","F1","batch6","tol_toboard","666","","","","","","","","","tol_peg_3","666","666","0","[[3,0,0],[2,0],[1]]","5","[[1,0,0],[2,3],[0]]","5","0","","","","","","6","","","","",""
"","","","","","single-stim-button","224","1192905","0.0-3.0-25.5-0.5","6105e13dc0f11571c132344e","F1","batch6","tol_tohand","581","","","","","","","","","tol_peg_1","581","581","0","[[0,0,0],[2,0],[1]]","6","[[1,0,0],[2,3],[0]]","5","0","","","","","","6","","","","",""
"","","","","","single-stim-button","225","1193504","0.0-3.0-25.5-1.5","6105e13dc0f11571c132344e","F1","batch6","tol_toboard","595","","","","","","","","","tol_peg_2","595","595","0","[[0,0,0],[2,3],[1]]","6","[[1,0,0],[2,3],[0]]","5","0","","","","","","6","","","","",""
"","","","","","single-stim-button","226","1193988","0.0-3.0-25.6-0.6","6105e13dc0f11571c132344e","F1","batch6","tol_tohand","483","","","","","","","","","tol_peg_3","483","483","0","[[0,0,0],[2,3],[0]]","7","[[1,0,0],[2,3],[0]]","5","0","","","","","","6","","","","",""
"","","","","","single-stim-button","227","1194721","0.0-3.0-25.6-1.6","6105e13dc0f11571c132344e","F1","batch6","tol_toboard","730","","","","","","","","","tol_peg_1","730","730","0","[[1,0,0],[2,3],[0]]","7","[[1,0,0],[2,3],[0]]","5","0","","","","","","6","","","","",""
"","","","","","poldrack-single-stim","228","1195725","0.0-3.0-26.0","6105e13dc0f11571c132344e","F1","batch6","tol_feedback","-1","","","","","true","","","","","1000","1000","500","","","","","","-1","none","true","22682","33070","","","","","",""
"","","","","","html-button-response","229","1196723","0.0-3.0-27.0","6105e13dc0f11571c132344e","F1","batch6","tol_trial_num","997.0000000002328","<div class = centerbox><p class = center-block-text>problem <strong>7</strong> out of 25 problems</p></div>","0","","","","","","","","","","","","","","","","","","","","","","","","","",""
"","","","","","single-stim-button","230","1202305","0.0-3.0-28.0-0.0","6105e13dc0f11571c132344e","F1","batch6","tol_tohand","5581","","","","","","","","","tol_peg_1","5581","5581","0","[[2,0,0],[0,0],[3]]","1","[[1,2,0],[3,0],[0]]","6","0","","","","","","5","","","","",""
"","","","","","single-stim-button","231","1205605","0.0-3.0-28.0-1.0","6105e13dc0f11571c132344e","F1","batch6","tol_toboard","3294","","","","","","","","","tol_peg_2","3294","3294","0","[[2,0,0],[1,0],[3]]","1","[[1,2,0],[3,0],[0]]","6","0","","","","","","5","","","","",""
"","","","","","single-stim-button","232","1216971","0.0-3.0-28.1-0.1","6105e13dc0f11571c132344e","F1","batch6","tol_tohand","11365","","","","","","","","","tol_peg_2","11365","11365","0","[[2,0,0],[0,0],[3]]","2","[[1,2,0],[3,0],[0]]","6","0","","","","","","5","","","","",""
"","","","","","single-stim-button","233","1218271","0.0-3.0-28.1-1.1","6105e13dc0f11571c132344e","F1","batch6","tol_toboard","1298","","","","","","","","","tol_peg_1","1298","1298","0","[[2,1,0],[0,0],[3]]","2","[[1,2,0],[3,0],[0]]","6","0","","","","","","5","","","","",""
"","","","","","single-stim-button","234","1218971","0.0-3.0-28.2-0.2","6105e13dc0f11571c132344e","F1","batch6","tol_tohand","698","","","","","","","","","tol_peg_3","698","698","0","[[2,1,0],[0,0],[0]]","3","[[1,2,0],[3,0],[0]]","6","0","","","","","","5","","","","",""
"","","","","","single-stim-button","235","1219553","0.0-3.0-28.2-1.2","6105e13dc0f11571c132344e","F1","batch6","tol_toboard","580","","","","","","","","","tol_peg_2","580","580","0","[[2,1,0],[3,0],[0]]","3","[[1,2,0],[3,0],[0]]","6","0","","","","","","5","","","","",""
"","","","","","single-stim-button","236","1220104","0.0-3.0-28.3-0.3","6105e13dc0f11571c132344e","F1","batch6","tol_tohand","549","","","","","","","","","tol_peg_1","549","549","0","[[2,0,0],[3,0],[0]]","4","[[1,2,0],[3,0],[0]]","6","0","","","","","","5","","","","",""
"","","","","","single-stim-button","237","1220821","0.0-3.0-28.3-1.3","6105e13dc0f11571c132344e","F1","batch6","tol_toboard","715","","","","","","","","","tol_peg_3","715","715","0","[[2,0,0],[3,0],[1]]","4","[[1,2,0],[3,0],[0]]","6","0","","","","","","5","","","","",""
"","","","","","single-stim-button","238","1222420","0.0-3.0-28.4-0.4","6105e13dc0f11571c132344e","F1","batch6","tol_tohand","1597","","","","","","","","","tol_peg_1","1597","1597","0","[[0,0,0],[3,0],[1]]","5","[[1,2,0],[3,0],[0]]","6","0","","","","","","5","","","","",""
"","","","","","single-stim-button","239","1223188","0.0-3.0-28.4-1.4","6105e13dc0f11571c132344e","F1","batch6","tol_toboard","766","","","","","","","","","tol_peg_2","766","766","0","[[0,0,0],[3,2],[1]]","5","[[1,2,0],[3,0],[0]]","6","0","","","","","","5","","","","",""
"","","","","","single-stim-button","240","1223804","0.0-3.0-28.5-0.5","6105e13dc0f11571c132344e","F1","batch6","tol_tohand","615","","","","","","","","","tol_peg_3","615","615","0","[[0,0,0],[3,2],[0]]","6","[[1,2,0],[3,0],[0]]","6","0","","","","","","5","","","","",""
"","","","","","single-stim-button","241","1224505","0.0-3.0-28.5-1.5","6105e13dc0f11571c132344e","F1","batch6","tol_toboard","699","","","","","","","","","tol_peg_1","699","699","0","[[1,0,0],[3,2],[0]]","6","[[1,2,0],[3,0],[0]]","6","0","","","","","","5","","","","",""
"","","","","","single-stim-button","242","1225188","0.0-3.0-28.6-0.6","6105e13dc0f11571c132344e","F1","batch6","tol_tohand","679","","","","","","","","","tol_peg_2","679","679","0","[[1,0,0],[3,0],[0]]","7","[[1,2,0],[3,0],[0]]","6","0","","","","","","5","","","","",""
"","","","","","single-stim-button","243","1225855","0.0-3.0-28.6-1.6","6105e13dc0f11571c132344e","F1","batch6","tol_toboard","664","","","","","","","","","tol_peg_1","664","664","0","[[1,2,0],[3,0],[0]]","7","[[1,2,0],[3,0],[0]]","6","0","","","","","","5","","","","",""
"","","","","","poldrack-single-stim","244","1226858","0.0-3.0-29.0","6105e13dc0f11571c132344e","F1","batch6","tol_feedback","-1","","","","","true","","","","","1000","1000","500","","","","","","-1","none","true","5581","21084","","","","","",""
"","","","","","html-button-response","245","1227771","0.0-3.0-30.0","6105e13dc0f11571c132344e","F1","batch6","tol_trial_num","912.0000000002328","<div class = centerbox><p class = center-block-text>problem <strong>8</strong> out of 25 problems</p></div>","0","","","","","","","","","","","","","","","","","","","","","","","","","",""
"","","","","","single-stim-button","246","1250888","0.0-3.0-31.0-0.0","6105e13dc0f11571c132344e","F1","batch6","tol_tohand","23115","","","","","","","","","tol_peg_3","23115","23115","0","[[0,0,0],[2,3],[0]]","1","[[1,2,0],[3,0],[0]]","7","0","","","","","","4","","","","",""
"","","","","","single-stim-button","247","1255354","0.0-3.0-31.0-1.0","6105e13dc0f11571c132344e","F1","batch6","tol_toboard","4464","","","","","","","","","tol_peg_1","4464","4464","0","[[1,0,0],[2,3],[0]]","1","[[1,2,0],[3,0],[0]]","7","0","","","","","","4","","","","",""
"","","","","","single-stim-button","248","1256470","0.0-3.0-31.1-0.1","6105e13dc0f11571c132344e","F1","batch6","tol_tohand","1114","","","","","","","","","tol_peg_2","1114","1114","0","[[1,0,0],[2,0],[0]]","2","[[1,2,0],[3,0],[0]]","7","0","","","","","","4","","","","",""
"","","","","","single-stim-button","249","1257039","0.0-3.0-31.1-1.1","6105e13dc0f11571c132344e","F1","batch6","tol_toboard","567","","","","","","","","","tol_peg_3","567","567","0","[[1,0,0],[2,0],[3]]","2","[[1,2,0],[3,0],[0]]","7","0","","","","","","4","","","","",""
"","","","","","single-stim-button","250","1257670","0.0-3.0-31.2-0.2","6105e13dc0f11571c132344e","F1","batch6","tol_tohand","629","","","","","","","","","tol_peg_2","629","629","0","[[1,0,0],[0,0],[3]]","3","[[1,2,0],[3,0],[0]]","7","0","","","","","","4","","","","",""
"","","","","","single-stim-button","251","1258454","0.0-3.0-31.2-1.2","6105e13dc0f11571c132344e","F1","batch6","tol_toboard","780","","","","","","","","","tol_peg_1","780","780","0","[[1,2,0],[0,0],[3]]","3","[[1,2,0],[3,0],[0]]","7","0","","","","","","4","","","","",""
"","","","","","single-stim-button","252","1259271","0.0-3.0-31.3-0.3","6105e13dc0f11571c132344e","F1","batch6","tol_tohand","814","","","","","","","","","tol_peg_3","814","814","0","[[1,2,0],[0,0],[0]]","4","[[1,2,0],[3,0],[0]]","7","0","","","","","","4","","","","",""
"","","","","","single-stim-button","253","1259853","0.0-3.0-31.3-1.3","6105e13dc0f11571c132344e","F1","batch6","tol_toboard","581","","","","","","","","","tol_peg_2","581","581","0","[[1,2,0],[3,0],[0]]","4","[[1,2,0],[3,0],[0]]","7","0","","","","","","4","","","","",""
"","","","","","poldrack-single-stim","254","1260857","0.0-3.0-32.0","6105e13dc0f11571c132344e","F1","batch6","tol_feedback","-1","","","","","true","","","","","1000","1000","500","","","","","","-1","none","true","23115","25672","","","","","",""
"","","","","","html-button-response","255","1261687","0.0-3.0-33.0","6105e13dc0f11571c132344e","F1","batch6","tol_trial_num","827","<div class = centerbox><p class = center-block-text>problem <strong>9</strong> out of 25 problems</p></div>","0","","","","","","","","","","","","","","","","","","","","","","","","","",""
"","","","","","single-stim-button","256","1272571","0.0-3.0-34.0-0.0","6105e13dc0f11571c132344e","F1","batch6","tol_tohand","10883","","","","","","","","","tol_peg_3","10883","10883","0","[[3,2,0],[0,0],[0]]","1","[[2,1,0],[3,0],[0]]","8","0","","","","","","6","","","","",""
"","","","","","single-stim-button","257","1278955","0.0-3.0-34.0-1.0","6105e13dc0f11571c132344e","F1","batch6","tol_toboard","6382","","","","","","","","","tol_peg_2","6382","6382","0","[[3,2,0],[1,0],[0]]","1","[[2,1,0],[3,0],[0]]","8","0","","","","","","6","","","","",""
"","","","","","single-stim-button","258","1660507","0.0-3.0-34.1-0.1","6105e13dc0f11571c132344e","F1","batch6","tol_tohand","381548","","","","","","","","","tol_peg_2","381548","381548","0","[[3,2,0],[0,0],[0]]","2","[[2,1,0],[3,0],[0]]","8","0","","","","","","6","","","","",""
"","","","","","single-stim-button","259","1668505","0.0-3.0-34.1-1.1","6105e13dc0f11571c132344e","F1","batch6","tol_toboard","7994","","","","","","","","","tol_peg_2","7994","7994","0","[[3,2,0],[1,0],[0]]","2","[[2,1,0],[3,0],[0]]","8","0","","","","","","6","","","","",""
"","","","","","single-stim-button","260","1669120","0.0-3.0-34.2-0.2","6105e13dc0f11571c132344e","F1","batch6","tol_tohand","611","","","","","","","","","tol_peg_1","611","611","0","[[3,0,0],[1,0],[0]]","3","[[2,1,0],[3,0],[0]]","8","0","","","","","","6","","","","",""
"","","","","","single-stim-button","261","1670137","0.0-3.0-34.2-1.2","6105e13dc0f11571c132344e","F1","batch6","tol_toboard","1015","","","","","","","","","tol_peg_3","1015","1015","0","[[3,0,0],[1,0],[2]]","3","[[2,1,0],[3,0],[0]]","8","0","","","","","","6","","","","",""
"","","","","","single-stim-button","262","1684202","0.0-3.0-34.3-0.3","6105e13dc0f11571c132344e","F1","batch6","tol_tohand","14063","","","","","","","","","tol_peg_2","14063","14063","0","[[3,0,0],[0,0],[2]]","4","[[2,1,0],[3,0],[0]]","8","0","","","","","","6","","","","",""
"","","","","","single-stim-button","263","1685253","0.0-3.0-34.3-1.3","6105e13dc0f11571c132344e","F1","batch6","tol_toboard","1048","","","","","","","","","tol_peg_1","1048","1048","0","[[3,1,0],[0,0],[2]]","4","[[2,1,0],[3,0],[0]]","8","0","","","","","","6","","","","",""
"","","","","","single-stim-button","264","1686103","0.0-3.0-34.4-0.4","6105e13dc0f11571c132344e","F1","batch6","tol_tohand","847","","","","","","","","","tol_peg_3","847","847","0","[[3,1,0],[0,0],[0]]","5","[[2,1,0],[3,0],[0]]","8","0","","","","","","6","","","","",""
"","","","","","single-stim-button","265","1686802","0.0-3.0-34.4-1.4","6105e13dc0f11571c132344e","F1","batch6","tol_toboard","696","","","","","","","","","tol_peg_2","696","696","0","[[3,1,0],[2,0],[0]]","5","[[2,1,0],[3,0],[0]]","8","0","","","","","","6","","","","",""
"","","","","","single-stim-button","266","1688069","0.0-3.0-34.5-0.5","6105e13dc0f11571c132344e","F1","batch6","tol_tohand","1265","","","","","","","","","tol_peg_1","1265","1265","0","[[3,0,0],[2,0],[0]]","6","[[2,1,0],[3,0],[0]]","8","0","","","","","","6","","","","",""
"","","","","","single-stim-button","267","1689602","0.0-3.0-34.5-1.5","6105e13dc0f11571c132344e","F1","batch6","tol_toboard","1531","","","","","","","","","tol_peg_3","1531","1531","0","[[3,0,0],[2,0],[1]]","6","[[2,1,0],[3,0],[0]]","8","0","","","","","","6","","","","",""
"","","","","","single-stim-button","268","1693369","0.0-3.0-34.6-0.6","6105e13dc0f11571c132344e","F1","batch6","tol_tohand","3765","","","","","","","","","tol_peg_1","3765","3765","0","[[0,0,0],[2,0],[1]]","7","[[2,1,0],[3,0],[0]]","8","0","","","","","","6","","","","",""
"","","","","","single-stim-button","269","1694170","0.0-3.0-34.6-1.6","6105e13dc0f11571c132344e","F1","batch6","tol_toboard","796","","","","","","","","","tol_peg_2","796","796","0","[[0,0,0],[2,3],[1]]","7","[[2,1,0],[3,0],[0]]","8","0","","","","","","6","","","","",""
"","","","","","single-stim-button","270","1694703","0.0-3.0-34.7-0.7","6105e13dc0f11571c132344e","F1","batch6","tol_tohand","530","","","","","","","","","tol_peg_3","530","530","0","[[0,0,0],[2,3],[0]]","8","[[2,1,0],[3,0],[0]]","8","0","","","","","","6","","","","",""
"","","","","","single-stim-button","271","1700122","0.0-3.0-34.7-1.7","6105e13dc0f11571c132344e","F1","batch6","tol_toboard","5417","","","","","","","","","tol_peg_1","5417","5417","0","[[1,0,0],[2,3],[0]]","8","[[2,1,0],[3,0],[0]]","8","0","","","","","","6","","","","",""
"","","","","","single-stim-button","272","1701353","0.0-3.0-34.8-0.8","6105e13dc0f11571c132344e","F1","batch6","tol_tohand","1229","","","","","","","","","tol_peg_2","1229","1229","0","[[1,0,0],[2,0],[0]]","9","[[2,1,0],[3,0],[0]]","8","0","","","","","","6","","","","",""
"","","","","","single-stim-button","273","1703002","0.0-3.0-34.8-1.8","6105e13dc0f11571c132344e","F1","batch6","tol_toboard","1647","","","","","","","","","tol_peg_3","1647","1647","0","[[1,0,0],[2,0],[3]]","9","[[2,1,0],[3,0],[0]]","8","0","","","","","","6","","","","",""
"","","","","","single-stim-button","274","1704052","0.0-3.0-34.9-0.9","6105e13dc0f11571c132344e","F1","batch6","tol_tohand","1047","","","","","","","","","tol_peg_2","1047","1047","0","[[1,0,0],[0,0],[3]]","10","[[2,1,0],[3,0],[0]]","8","0","","","","","","6","","","","",""
"","","","","","single-stim-button","275","1706820","0.0-3.0-34.9-1.9","6105e13dc0f11571c132344e","F1","batch6","tol_toboard","2767","","","","","","","","","tol_peg_2","2767","2767","0","[[1,0,0],[2,0],[3]]","10","[[2,1,0],[3,0],[0]]","8","0","","","","","","6","","","","",""
"","","","","","single-stim-button","276","1717972","0.0-3.0-34.10-0.10","6105e13dc0f11571c132344e","F1","batch6","tol_tohand","11149","","","","","","","","","tol_peg_2","11149","11149","0","[[1,0,0],[0,0],[3]]","11","[[2,1,0],[3,0],[0]]","8","0","","","","","","6","","","","",""
"","","","","","single-stim-button","277","1718619","0.0-3.0-34.10-1.10","6105e13dc0f11571c132344e","F1","batch6","tol_toboard","646","","","","","","","","","tol_peg_1","646","646","0","[[1,2,0],[0,0],[3]]","11","[[2,1,0],[3,0],[0]]","8","0","","","","","","6","","","","",""
"","","","","","single-stim-button","278","1719304","0.0-3.0-34.11-0.11","6105e13dc0f11571c132344e","F1","batch6","tol_tohand","681","","","","","","","","","tol_peg_3","681","681","0","[[1,2,0],[0,0],[0]]","12","[[2,1,0],[3,0],[0]]","8","0","","","","","","6","","","","",""
"","","","","","single-stim-button","279","1720002","0.0-3.0-34.11-1.11","6105e13dc0f11571c132344e","F1","batch6","tol_toboard","694","","","","","","","","","tol_peg_2","694","694","0","[[1,2,0],[3,0],[0]]","12","[[2,1,0],[3,0],[0]]","8","0","","","","","","6","","","","",""
"","","","","","single-stim-button","280","1720620","0.0-3.0-34.12-0.12","6105e13dc0f11571c132344e","F1","batch6","tol_tohand","615","","","","","","","","","tol_peg_1","615","615","0","[[1,0,0],[3,0],[0]]","13","[[2,1,0],[3,0],[0]]","8","0","","","","","","6","","","","",""
"","","","","","single-stim-button","281","1721319","0.0-3.0-34.12-1.12","6105e13dc0f11571c132344e","F1","batch6","tol_toboard","694","","","","","","","","","tol_peg_3","694","694","0","[[1,0,0],[3,0],[2]]","13","[[2,1,0],[3,0],[0]]","8","0","","","","","","6","","","","",""
"","","","","","single-stim-button","282","1722035","0.0-3.0-34.13-0.13","6105e13dc0f11571c132344e","F1","batch6","tol_tohand","714","","","","","","","","","tol_peg_1","714","714","0","[[0,0,0],[3,0],[2]]","14","[[2,1,0],[3,0],[0]]","8","0","","","","","","6","","","","",""
"","","","","","single-stim-button","283","1722669","0.0-3.0-34.13-1.13","6105e13dc0f11571c132344e","F1","batch6","tol_toboard","631","","","","","","","","","tol_peg_2","631","631","0","[[0,0,0],[3,1],[2]]","14","[[2,1,0],[3,0],[0]]","8","0","","","","","","6","","","","",""
"","","","","","single-stim-button","284","1723452","0.0-3.0-34.14-0.14","6105e13dc0f11571c132344e","F1","batch6","tol_tohand","782","","","","","","","","","tol_peg_3","782","782","0","[[0,0,0],[3,1],[0]]","15","[[2,1,0],[3,0],[0]]","8","0","","","","","","6","","","","",""
"","","","","","single-stim-button","285","1724052","0.0-3.0-34.14-1.14","6105e13dc0f11571c132344e","F1","batch6","tol_toboard","598","","","","","","","","","tol_peg_1","598","598","0","[[2,0,0],[3,1],[0]]","15","[[2,1,0],[3,0],[0]]","8","0","","","","","","6","","","","",""
"","","","","","single-stim-button","286","1724735","0.0-3.0-34.15-0.15","6105e13dc0f11571c132344e","F1","batch6","tol_tohand","680","","","","","","","","","tol_peg_2","680","680","0","[[2,0,0],[3,0],[0]]","16","[[2,1,0],[3,0],[0]]","8","0","","","","","","6","","","","",""
"","","","","","single-stim-button","287","1725318","0.0-3.0-34.15-1.15","6105e13dc0f11571c132344e","F1","batch6","tol_toboard","580","","","","","","","","","tol_peg_1","580","580","0","[[2,1,0],[3,0],[0]]","16","[[2,1,0],[3,0],[0]]","8","0","","","","","","6","","","","",""
"","","","","","poldrack-single-stim","288","1726322","0.0-3.0-35.0","6105e13dc0f11571c132344e","F1","batch6","tol_feedback","-1","","","","","true","","","","","1000","1000","500","","","","","","-1","none","true","10883","430409","","","","","",""
"","","","","","html-button-response","289","1727152","0.0-3.0-36.0","6105e13dc0f11571c132344e","F1","batch6","tol_trial_num","828","<div class = centerbox><p class = center-block-text>problem <strong>10</strong> out of 25 problems</p></div>","0","","","","","","","","","","","","","","","","","","","","","","","","","",""
"","","","","","single-stim-button","290","1732669","0.0-3.0-37.0-0.0","6105e13dc0f11571c132344e","F1","batch6","tol_tohand","5515","","","","","","","","","tol_peg_2","5515","5515","0","[[3,0,0],[0,0],[2]]","1","[[3,0,0],[2,1],[0]]","9","0","","","","","","3","","","","",""
"","","","","","single-stim-button","291","1733988","0.0-3.0-37.0-1.0","6105e13dc0f11571c132344e","F1","batch6","tol_toboard","1316","","","","","","","","","tol_peg_1","1316","1316","0","[[3,1,0],[0,0],[2]]","1","[[3,0,0],[2,1],[0]]","9","0","","","","","","3","","","","",""
"","","","","","single-stim-button","292","1734619","0.0-3.0-37.1-0.1","6105e13dc0f11571c132344e","F1","batch6","tol_tohand","628","","","","","","","","","tol_peg_3","628","628","0","[[3,1,0],[0,0],[0]]","2","[[3,0,0],[2,1],[0]]","9","0","","","","","","3","","","","",""
"","","","","","single-stim-button","293","1735203","0.0-3.0-37.1-1.1","6105e13dc0f11571c132344e","F1","batch6","tol_toboard","580","","","","","","","","","tol_peg_2","580","580","0","[[3,1,0],[2,0],[0]]","2","[[3,0,0],[2,1],[0]]","9","0","","","","","","3","","","","",""
"","","","","","single-stim-button","294","1736253","0.0-3.0-37.2-0.2","6105e13dc0f11571c132344e","F1","batch6","tol_tohand","1046","","","","","","","","","tol_peg_1","1046","1046","0","[[3,0,0],[2,0],[0]]","3","[[3,0,0],[2,1],[0]]","9","0","","","","","","3","","","","",""
"","","","","","single-stim-button","295","1736869","0.0-3.0-37.2-1.2","6105e13dc0f11571c132344e","F1","batch6","tol_toboard","614","","","","","","","","","tol_peg_2","614","614","0","[[3,0,0],[2,1],[0]]","3","[[3,0,0],[2,1],[0]]","9","0","","","","","","3","","","","",""
"","","","","","poldrack-single-stim","296","1737873","0.0-3.0-38.0","6105e13dc0f11571c132344e","F1","batch6","tol_feedback","-1","","","","","true","","","","","1000","1000","500","","","","","","-1","none","true","5515","7189","","","","","",""
"","","","","","html-button-response","297","1738718","0.0-3.0-39.0","6105e13dc0f11571c132344e","F1","batch6","tol_trial_num","842.9999999997672","<div class = centerbox><p class = center-block-text>problem <strong>11</strong> out of 25 problems</p></div>","0","","","","","","","","","","","","","","","","","","","","","","","","","",""
"","","","","","single-stim-button","298","1747521","0.0-3.0-40.0-0.0","6105e13dc0f11571c132344e","F1","batch6","tol_tohand","8801","","","","","","","","","tol_peg_1","8801","8801","0","[[1,0,0],[3,0],[0]]","1","[[2,0,0],[1,3],[0]]","10","0","","","","","","6","","","","",""
"","","","","","single-stim-button","299","1748436","0.0-3.0-40.0-1.0","6105e13dc0f11571c132344e","F1","batch6","tol_toboard","913","","","","","","","","","tol_peg_3","913","913","0","[[1,0,0],[3,0],[2]]","1","[[2,0,0],[1,3],[0]]","10","0","","","","","","6","","","","",""
"","","","","","single-stim-button","300","1749952","0.0-3.0-40.1-0.1","6105e13dc0f11571c132344e","F1","batch6","tol_tohand","1513","","","","","","","","","tol_peg_1","1513","1513","0","[[0,0,0],[3,0],[2]]","2","[[2,0,0],[1,3],[0]]","10","0","","","","","","6","","","","",""
"","","","","","single-stim-button","301","1750919","0.0-3.0-40.1-1.1","6105e13dc0f11571c132344e","F1","batch6","tol_toboard","965","","","","","","","","","tol_peg_2","965","965","0","[[0,0,0],[3,1],[2]]","2","[[2,0,0],[1,3],[0]]","10","0","","","","","","6","","","","",""
"","","","","","single-stim-button","302","1751570","0.0-3.0-40.2-0.2","6105e13dc0f11571c132344e","F1","batch6","tol_tohand","648","","","","","","","","","tol_peg_3","648","648","0","[[0,0,0],[3,1],[0]]","3","[[2,0,0],[1,3],[0]]","10","0","","","","","","6","","","","",""
"","","","","","single-stim-button","303","1753151","0.0-3.0-40.2-1.2","6105e13dc0f11571c132344e","F1","batch6","tol_toboard","1579","","","","","","","","","tol_peg_1","1579","1579","0","[[2,0,0],[3,1],[0]]","3","[[2,0,0],[1,3],[0]]","10","0","","","","","","6","","","","",""
"","","","","","single-stim-button","304","1754285","0.0-3.0-40.3-0.3","6105e13dc0f11571c132344e","F1","batch6","tol_tohand","1132","","","","","","","","","tol_peg_2","1132","1132","0","[[2,0,0],[3,0],[0]]","4","[[2,0,0],[1,3],[0]]","10","0","","","","","","6","","","","",""
"","","","","","single-stim-button","305","1756035","0.0-3.0-40.3-1.3","6105e13dc0f11571c132344e","F1","batch6","tol_toboard","1748","","","","","","","","","tol_peg_3","1748","1748","0","[[2,0,0],[3,0],[1]]","4","[[2,0,0],[1,3],[0]]","10","0","","","","","","6","","","","",""
"","","","","","single-stim-button","306","1756719","0.0-3.0-40.4-0.4","6105e13dc0f11571c132344e","F1","batch6","tol_tohand","683","","","","","","","","","tol_peg_2","683","683","0","[[2,0,0],[0,0],[1]]","5","[[2,0,0],[1,3],[0]]","10","0","","","","","","6","","","","",""
"","","","","","single-stim-button","307","1757368","0.0-3.0-40.4-1.4","6105e13dc0f11571c132344e","F1","batch6","tol_toboard","646","","","","","","","","","tol_peg_1","646","646","0","[[2,3,0],[0,0],[1]]","5","[[2,0,0],[1,3],[0]]","10","0","","","","","","6","","","","",""
"","","","","","single-stim-button","308","1758019","0.0-3.0-40.5-0.5","6105e13dc0f11571c132344e","F1","batch6","tol_tohand","650","","","","","","","","","tol_peg_3","650","650","0","[[2,3,0],[0,0],[0]]","6","[[2,0,0],[1,3],[0]]","10","0","","","","","","6","","","","",""
"","","","","","single-stim-button","309","1758769","0.0-3.0-40.5-1.5","6105e13dc0f11571c132344e","F1","batch6","tol_toboard","744","","","","","","","","","tol_peg_2","744","744","0","[[2,3,0],[1,0],[0]]","6","[[2,0,0],[1,3],[0]]","10","0","","","","","","6","","","","",""
"","","","","","single-stim-button","310","1759302","0.0-3.0-40.6-0.6","6105e13dc0f11571c132344e","F1","batch6","tol_tohand","531","","","","","","","","","tol_peg_1","531","531","0","[[2,0,0],[1,0],[0]]","7","[[2,0,0],[1,3],[0]]","10","0","","","","","","6","","","","",""
"","","","","","single-stim-button","311","1759934","0.0-3.0-40.6-1.6","6105e13dc0f11571c132344e","F1","batch6","tol_toboard","630","","","","","","","","","tol_peg_2","630","630","0","[[2,0,0],[1,3],[0]]","7","[[2,0,0],[1,3],[0]]","10","0","","","","","","6","","","","",""
"","","","","","poldrack-single-stim","312","1760938","0.0-3.0-41.0","6105e13dc0f11571c132344e","F1","batch6","tol_feedback","-1","","","","","true","","","","","1000","1000","500","","","","","","-1","none","true","8801","13958","","","","","",""
"","","","","","html-button-response","313","1761701","0.0-3.0-42.0","6105e13dc0f11571c132344e","F1","batch6","tol_trial_num","761.0000000002328","<div class = centerbox><p class = center-block-text>problem <strong>12</strong> out of 25 problems</p></div>","0","","","","","","","","","","","","","","","","","","","","","","","","","",""
"","","","","","single-stim-button","314","1772851","0.0-3.0-43.0-0.0","6105e13dc0f11571c132344e","F1","batch6","tol_tohand","11148","","","","","","","","","tol_peg_1","11148","11148","0","[[1,0,0],[3,0],[0]]","1","[[2,3,0],[0,0],[1]]","11","0","","","","","","4","","","","",""
"","","","","","single-stim-button","315","1773752","0.0-3.0-43.0-1.0","6105e13dc0f11571c132344e","F1","batch6","tol_toboard","895","","","","","","","","","tol_peg_3","895","895","0","[[1,0,0],[3,0],[2]]","1","[[2,3,0],[0,0],[1]]","11","0","","","","","","4","","","","",""
"","","","","","single-stim-button","316","1774435","0.0-3.0-43.1-0.1","6105e13dc0f11571c132344e","F1","batch6","tol_tohand","680","","","","","","","","","tol_peg_1","680","680","0","[[0,0,0],[3,0],[2]]","2","[[2,3,0],[0,0],[1]]","11","0","","","","","","4","","","","",""
"","","","","","single-stim-button","317","1775317","0.0-3.0-43.1-1.1","6105e13dc0f11571c132344e","F1","batch6","tol_toboard","880","","","","","","","","","tol_peg_2","880","880","0","[[0,0,0],[3,1],[2]]","2","[[2,3,0],[0,0],[1]]","11","0","","","","","","4","","","","",""
"","","","","","single-stim-button","318","1776020","0.0-3.0-43.2-0.2","6105e13dc0f11571c132344e","F1","batch6","tol_tohand","701","","","","","","","","","tol_peg_3","701","701","0","[[0,0,0],[3,1],[0]]","3","[[2,3,0],[0,0],[1]]","11","0","","","","","","4","","","","",""
"","","","","","single-stim-button","319","1776852","0.0-3.0-43.2-1.2","6105e13dc0f11571c132344e","F1","batch6","tol_toboard","829","","","","","","","","","tol_peg_1","829","829","0","[[2,0,0],[3,1],[0]]","3","[[2,3,0],[0,0],[1]]","11","0","","","","","","4","","","","",""
"","","","","","single-stim-button","320","1777434","0.0-3.0-43.3-0.3","6105e13dc0f11571c132344e","F1","batch6","tol_tohand","580","","","","","","","","","tol_peg_2","580","580","0","[[2,0,0],[3,0],[0]]","4","[[2,3,0],[0,0],[1]]","11","0","","","","","","4","","","","",""
"","","","","","single-stim-button","321","1778202","0.0-3.0-43.3-1.3","6105e13dc0f11571c132344e","F1","batch6","tol_toboard","766","","","","","","","","","tol_peg_3","766","766","0","[[2,0,0],[3,0],[1]]","4","[[2,3,0],[0,0],[1]]","11","0","","","","","","4","","","","",""
"","","","","","single-stim-button","322","1778936","0.0-3.0-43.4-0.4","6105e13dc0f11571c132344e","F1","batch6","tol_tohand","731","","","","","","","","","tol_peg_2","731","731","0","[[2,0,0],[0,0],[1]]","5","[[2,3,0],[0,0],[1]]","11","0","","","","","","4","","","","",""
"","","","","","single-stim-button","323","1779552","0.0-3.0-43.4-1.4","6105e13dc0f11571c132344e","F1","batch6","tol_toboard","614","","","","","","","","","tol_peg_1","614","614","0","[[2,3,0],[0,0],[1]]","5","[[2,3,0],[0,0],[1]]","11","0","","","","","","4","","","","",""
"","","","","","poldrack-single-stim","324","1780556","0.0-3.0-44.0","6105e13dc0f11571c132344e","F1","batch6","tol_feedback","-1","","","","","true","","","","","1000","1000","500","","","","","","-1","none","true","11148","13840","","","","","",""
"","","","","","html-button-response","325","1781384","0.0-3.0-45.0","6105e13dc0f11571c132344e","F1","batch6","tol_trial_num","827","<div class = centerbox><p class = center-block-text>problem <strong>13</strong> out of 25 problems</p></div>","0","","","","","","","","","","","","","","","","","","","","","","","","","",""
"","","","","","single-stim-button","326","1785317","0.0-3.0-46.0-0.0","6105e13dc0f11571c132344e","F1","batch6","tol_tohand","3931","","","","","","","","","tol_peg_2","3931","3931","0","[[1,2,0],[0,0],[0]]","1","[[0,0,0],[2,3],[1]]","12","0","","","","","","4","","","","",""
"","","","","","single-stim-button","327","1786269","0.0-3.0-46.0-1.0","6105e13dc0f11571c132344e","F1","batch6","tol_toboard","950","","","","","","","","","tol_peg_3","950","950","0","[[1,2,0],[0,0],[3]]","1","[[0,0,0],[2,3],[1]]","12","0","","","","","","4","","","","",""
"","","","","","single-stim-button","328","1786918","0.0-3.0-46.1-0.1","6105e13dc0f11571c132344e","F1","batch6","tol_tohand","647","","","","","","","","","tol_peg_1","647","647","0","[[1,0,0],[0,0],[3]]","2","[[0,0,0],[2,3],[1]]","12","0","","","","","","4","","","","",""
"","","","","","single-stim-button","329","1787568","0.0-3.0-46.1-1.1","6105e13dc0f11571c132344e","F1","batch6","tol_toboard","647","","","","","","","","","tol_peg_2","647","647","0","[[1,0,0],[2,0],[3]]","2","[[0,0,0],[2,3],[1]]","12","0","","","","","","4","","","","",""
"","","","","","single-stim-button","330","1788202","0.0-3.0-46.2-0.2","6105e13dc0f11571c132344e","F1","batch6","tol_tohand","632","","","","","","","","","tol_peg_3","632","632","0","[[1,0,0],[2,0],[0]]","3","[[0,0,0],[2,3],[1]]","12","0","","","","","","4","","","","",""
"","","","","","single-stim-button","331","1789136","0.0-3.0-46.2-1.2","6105e13dc0f11571c132344e","F1","batch6","tol_toboard","932","","","","","","","","","tol_peg_2","932","932","0","[[1,0,0],[2,3],[0]]","3","[[0,0,0],[2,3],[1]]","12","0","","","","","","4","","","","",""
"","","","","","single-stim-button","332","1789769","0.0-3.0-46.3-0.3","6105e13dc0f11571c132344e","F1","batch6","tol_tohand","631","","","","","","","","","tol_peg_1","631","631","0","[[0,0,0],[2,3],[0]]","4","[[0,0,0],[2,3],[1]]","12","0","","","","","","4","","","","",""
"","","","","","single-stim-button","333","1790602","0.0-3.0-46.3-1.3","6105e13dc0f11571c132344e","F1","batch6","tol_toboard","831","","","","","","","","","tol_peg_3","831","831","0","[[0,0,0],[2,3],[1]]","4","[[0,0,0],[2,3],[1]]","12","0","","","","","","4","","","","",""
"","","","","","poldrack-single-stim","334","1791606","0.0-3.0-47.0","6105e13dc0f11571c132344e","F1","batch6","tol_feedback","-1","","","","","true","","","","","1000","1000","500","","","","","","-1","none","true","3931","5841","","","","","",""
"","","","","","html-button-response","335","1795951","0.0-3.0-48.0","6105e13dc0f11571c132344e","F1","batch6","attention_check","4344","<p class = block-text>How many balls are in your board<br></p>","1","","","true","","","","","","","","","","","","","","","","","","","","","","",""
"","","","","","html-button-response","336","1796885","0.0-3.0-49.0","6105e13dc0f11571c132344e","F1","batch6","tol_trial_num","932","<div class = centerbox><p class = center-block-text>problem <strong>14</strong> out of 25 problems</p></div>","0","","","","","","","","","","","","","","","","","","","","","","","","","",""
"","","","","","single-stim-button","337","1800535","0.0-3.0-50.0-0.0","6105e13dc0f11571c132344e","F1","batch6","tol_tohand","3648","","","","","","","","","tol_peg_1","3648","3648","0","[[2,0,0],[3,0],[0]]","1","[[1,2,0],[3,0],[0]]","13","0","","","","","","4","","","","",""
"","","","","","single-stim-button","338","1802352","0.0-3.0-50.0-1.0","6105e13dc0f11571c132344e","F1","batch6","tol_toboard","1815","","","","","","","","","tol_peg_3","1815","1815","0","[[2,0,0],[3,0],[1]]","1","[[1,2,0],[3,0],[0]]","13","0","","","","","","4","","","","",""
"","","","","","single-stim-button","339","1803170","0.0-3.0-50.1-0.1","6105e13dc0f11571c132344e","F1","batch6","tol_tohand","814","","","","","","","","","tol_peg_1","814","814","0","[[0,0,0],[3,0],[1]]","2","[[1,2,0],[3,0],[0]]","13","0","","","","","","4","","","","",""
"","","","","","single-stim-button","340","1803802","0.0-3.0-50.1-1.1","6105e13dc0f11571c132344e","F1","batch6","tol_toboard","629","","","","","","","","","tol_peg_2","629","629","0","[[0,0,0],[3,2],[1]]","2","[[1,2,0],[3,0],[0]]","13","0","","","","","","4","","","","",""
"","","","","","single-stim-button","341","1804351","0.0-3.0-50.2-0.2","6105e13dc0f11571c132344e","F1","batch6","tol_tohand","546","","","","","","","","","tol_peg_3","546","546","0","[[0,0,0],[3,2],[0]]","3","[[1,2,0],[3,0],[0]]","13","0","","","","","","4","","","","",""
"","","","","","single-stim-button","342","1804985","0.0-3.0-50.2-1.2","6105e13dc0f11571c132344e","F1","batch6","tol_toboard","633","","","","","","","","","tol_peg_1","633","633","0","[[1,0,0],[3,2],[0]]","3","[[1,2,0],[3,0],[0]]","13","0","","","","","","4","","","","",""
"","","","","","single-stim-button","343","1805553","0.0-3.0-50.3-0.3","6105e13dc0f11571c132344e","F1","batch6","tol_tohand","565","","","","","","","","","tol_peg_2","565","565","0","[[1,0,0],[3,0],[0]]","4","[[1,2,0],[3,0],[0]]","13","0","","","","","","4","","","","",""
"","","","","","single-stim-button","344","1806186","0.0-3.0-50.3-1.3","6105e13dc0f11571c132344e","F1","batch6","tol_toboard","631","","","","","","","","","tol_peg_1","631","631","0","[[1,2,0],[3,0],[0]]","4","[[1,2,0],[3,0],[0]]","13","0","","","","","","4","","","","",""
"","","","","","poldrack-single-stim","345","1807190","0.0-3.0-51.0","6105e13dc0f11571c132344e","F1","batch6","tol_feedback","-1","","","","","true","","","","","1000","1000","500","","","","","","-1","none","true","3648","5573","","","","","",""
"","","","","","html-button-response","346","1808071","0.0-3.0-52.0","6105e13dc0f11571c132344e","F1","batch6","tol_trial_num","876","<div class = centerbox><p class = center-block-text>problem <strong>15</strong> out of 25 problems</p></div>","0","","","","","","","","","","","","","","","","","","","","","","","","","",""
"","","","","","single-stim-button","347","1811602","0.0-3.0-53.0-0.0","6105e13dc0f11571c132344e","F1","batch6","tol_tohand","3531","","","","","","","","","tol_peg_1","3531","3531","0","[[1,0,0],[3,0],[0]]","1","[[2,0,0],[3,0],[1]]","14","0","","","","","","3","","","","",""
"","","","","","single-stim-button","348","1812638","0.0-3.0-53.0-1.0","6105e13dc0f11571c132344e","F1","batch6","tol_toboard","1033","","","","","","","","","tol_peg_3","1033","1033","0","[[1,0,0],[3,0],[2]]","1","[[2,0,0],[3,0],[1]]","14","0","","","","","","3","","","","",""
"","","","","","single-stim-button","349","1813352","0.0-3.0-53.1-0.1","6105e13dc0f11571c132344e","F1","batch6","tol_tohand","711","","","","","","","","","tol_peg_1","711","711","0","[[0,0,0],[3,0],[2]]","2","[[2,0,0],[3,0],[1]]","14","0","","","","","","3","","","","",""
"","","","","","single-stim-button","350","1814118","0.0-3.0-53.1-1.1","6105e13dc0f11571c132344e","F1","batch6","tol_toboard","765","","","","","","","","","tol_peg_2","765","765","0","[[0,0,0],[3,1],[2]]","2","[[2,0,0],[3,0],[1]]","14","0","","","","","","3","","","","",""
"","","","","","single-stim-button","351","1814752","0.0-3.0-53.2-0.2","6105e13dc0f11571c132344e","F1","batch6","tol_tohand","632","","","","","","","","","tol_peg_3","632","632","0","[[0,0,0],[3,1],[0]]","3","[[2,0,0],[3,0],[1]]","14","0","","","","","","3","","","","",""
"","","","","","single-stim-button","352","1815652","0.0-3.0-53.2-1.2","6105e13dc0f11571c132344e","F1","batch6","tol_toboard","894","","","","","","","","","tol_peg_1","894","894","0","[[2,0,0],[3,1],[0]]","3","[[2,0,0],[3,0],[1]]","14","0","","","","","","3","","","","",""
"","","","","","single-stim-button","353","1816352","0.0-3.0-53.3-0.3","6105e13dc0f11571c132344e","F1","batch6","tol_tohand","697","","","","","","","","","tol_peg_2","697","697","0","[[2,0,0],[3,0],[0]]","4","[[2,0,0],[3,0],[1]]","14","0","","","","","","3","","","","",""
"","","","","","single-stim-button","354","1817086","0.0-3.0-53.3-1.3","6105e13dc0f11571c132344e","F1","batch6","tol_toboard","732","","","","","","","","","tol_peg_3","732","732","0","[[2,0,0],[3,0],[1]]","4","[[2,0,0],[3,0],[1]]","14","0","","","","","","3","","","","",""
"","","","","","poldrack-single-stim","355","1818090","0.0-3.0-54.0","6105e13dc0f11571c132344e","F1","batch6","tol_feedback","-1","","","","","true","","","","","1000","1000","500","","","","","","-1","none","true","3531","5571","","","","","",""
"","","","","","html-button-response","356","1927351","0.0-3.0-55.0","6105e13dc0f11571c132344e","F1","batch6","tol_trial_num","109262.00000000023","<div class = centerbox><p class = center-block-text>problem <strong>16</strong> out of 25 problems</p></div>","0","","","","","","","","","","","","","","","","","","","","","","","","","",""
"","","","","","single-stim-button","357","1942584","0.0-3.0-56.0-0.0","6105e13dc0f11571c132344e","F1","batch6","tol_tohand","15232","","","","","","","","","tol_peg_2","15232","15232","0","[[0,0,0],[2,0],[1]]","1","[[2,3,0],[1,0],[0]]","15","0","","","","","","7","","","","",""
"","","","","","single-stim-button","358","1943252","0.0-3.0-56.0-1.0","6105e13dc0f11571c132344e","F1","batch6","tol_toboard","666","","","","","","","","","tol_peg_1","666","666","0","[[3,0,0],[2,0],[1]]","1","[[2,3,0],[1,0],[0]]","15","0","","","","","","7","","","","",""
