"success","timeout","failed_images","failed_audio","failed_video","trial_type","trial_index","time_elapsed","internal_node_id","subject_id","study_id","session_id","view_history","rt","stimulus","response","task","correct","answer","item","fiar_detect_rt","fiar_detect_correct","total_correct_fiar_detect","post_trial_gap","choices","spm_correct","spm_rt","mouse_click","stim_duration","block_duration","timing_post_trial","current_position","tol_num_moves_made","tol_target","tol_problem_id","tol_rt","key_press","possible_responses","tol_correct","preplanning","tol_rt_per_trial","tol_min_moves"
"true","false","[]","[]","[]","preload","0","2274","0.0-0.0","610710773582677196923746","E1","batch5","","","","","","","","","","","","","","","","","","","","","","","","","","","","","",""
"true","","","","","fullscreen","1","11602","0.0-1.0-0.0","610710773582677196923746","E1","batch5","","","","","","","","","","","","","","","","","","","","","","","","","","","","","",""
"true","","","","","fullscreen","2","16061","0.0-2.0-0.0","610710773582677196923746","E1","batch5","","","","","","","","","","","","","","","","","","","","","","","","","","","","","",""
"","","","","","instructions","3","39420","0.0-2.0-1.0-0.0","610710773582677196923746","E1","batch5","[{""page_index"":0,""viewing_time"":14820.099999997765},{""page_index"":1,""viewing_time"":8535.5}]","23356","","","","","","","","","","","","","","","","","","","","","","","","","","","",""
"","","","","","html-button-response","4","41553","0.0-2.0-1.0-1.0-0.0","610710773582677196923746","E1","batch5","","2129.900000002235","<p class=block-text> Let's answer a few questions <br>","0","pattern_enter_quiz","","","","","","","","","","","","","","","","","","","","","","","","",""
"","","","","","html-button-response","5","57218","0.0-2.0-1.0-1.0-1.0","610710773582677196923746","E1","batch5","","15662.599999997765","<p class = block-text>True or False: You will have as much time as you want to make each choice. <br></p>","0","pattern_quiz","false","","","","","","","","","","","","","","","","","","","","","","","",""
"","","","","","html-button-response","6","59034","0.0-2.0-1.0-1.0-2.0","610710773582677196923746","E1","batch5","","1813.2000000029802","<p class = block-text>Incorrect. Remember, You should make your choice as fast as you can.</p>","0","pattern_quiz_feedback","","","","","","","","","","","","","","","","","","","","","","","","",""
"","","","","","html-button-response","7","66960","0.0-2.0-1.0-1.0-3.0","610710773582677196923746","E1","batch5","","7924.39999999851","<p class = block-text>True or False: You will look for 4 pieces in black or white color connected in a row either horizontally, vertically or diagonally. <br></p>","0","pattern_quiz","true","","","","","","","","","","","","","","","","","","","","","","","",""
"","","","","","html-button-response","8","68073","0.0-2.0-1.0-1.0-4.0","610710773582677196923746","E1","batch5","","1111.199999999255","<p class = block-text>Correct! </p>","0","pattern_quiz_feedback","","","","","","","","","","","","","","","","","","","","","","","","",""
"","","","","","html-button-response","9","71171","0.0-2.0-1.0-2.0-0.0","610710773582677196923746","E1","batch5","","3094.5","<p class = block-text>You made too many incorrect choices.</p><p class = block-text>You will now repeat the instruction and quiz</p>","0","","","","","","","","","","","","","","","","","","","","","","","","","",""
"","","","","","instructions","10","76830","0.0-2.0-1.1-0.1","610710773582677196923746","E1","batch5","[{""page_index"":0,""viewing_time"":2538.10000000149},{""page_index"":1,""viewing_time"":3118.39999999851}]","5656.89999999851","","","","","","","","","","","","","","","","","","","","","","","","","","","",""
"","","","","","html-button-response","11","77992","0.0-2.0-1.1-1.1-0.1","610710773582677196923746","E1","batch5","","1159.7000000029802","<p class=block-text> Let's answer a few questions <br>","0","pattern_enter_quiz","","","","","","","","","","","","","","","","","","","","","","","","",""
"","","","","","html-button-response","12","80072","0.0-2.0-1.1-1.1-1.1","610710773582677196923746","E1","batch5","","2078.300000000745","<p class = block-text>True or False: You will have as much time as you want to make each choice. <br></p>","1","pattern_quiz","true","","","","","","","","","","","","","","","","","","","","","","","",""
"","","","","","html-button-response","13","81627","0.0-2.0-1.1-1.1-2.1","610710773582677196923746","E1","batch5","","1552.9000000022352","<p class = block-text>Correct! You should make your choice <strong> as fast as you can</strong>.</p>","0","pattern_quiz_feedback","","","","","","","","","","","","","","","","","","","","","","","","",""
"","","","","","html-button-response","14","83173","0.0-2.0-1.1-1.1-3.1","610710773582677196923746","E1","batch5","","1544.5","<p class = block-text>True or False: You will look for 4 pieces in black or white color connected in a row either horizontally, vertically or diagonally. <br></p>","0","pattern_quiz","true","","","","","","","","","","","","","","","","","","","","","","","",""
"","","","","","html-button-response","15","84415","0.0-2.0-1.1-1.1-4.1","610710773582677196923746","E1","batch5","","1240.4000000022352","<p class = block-text>Correct! </p>","0","pattern_quiz_feedback","","","","","","","","","","","","","","","","","","","","","","","","",""
"","","","","","html-button-response","16","86023","0.0-2.0-2.0","610710773582677196923746","E1","batch5","","1605.3999999985099","<p class=block-text> Now that you've understood the game, let's do a few practice trials before we start!<br> <br>","0","pattern_enter_practice","","","","","","","","","","","","","","","","","","","","","","","","",""
"","","","","","image-keyboard-response","17","89742","0.0-2.0-3.0-0.0","610710773582677196923746","E1","batch5","","3684.5","stim/prac_yes_18_hor_w1.png","f","pattern_practice","true","f","","","","","","","","","","","","","","","","","","","","","","",""
"","","","","","html-keyboard-response","18","90753","0.0-2.0-3.0-1.0","610710773582677196923746","E1","batch5","","null","<p style=""font-size:30px;color:green;"">Correct!</p>","null","pattern_feedback","","","","","","","","","","","","","","","","","","","","","","","","",""
"","","","","","image-keyboard-response","19","92428","0.0-2.0-3.0-0.1","610710773582677196923746","E1","batch5","","1673.5","stim/prac_yes_16_ver_w1.png","f","pattern_practice","true","f","","","","","","","","","","","","","","","","","","","","","","",""
"","","","","","html-keyboard-response","20","93446","0.0-2.0-3.0-1.1","610710773582677196923746","E1","batch5","","null","<p style=""font-size:30px;color:green;"">Correct!</p>","null","pattern_feedback","","","","","","","","","","","","","","","","","","","","","","","","",""
"","","","","","image-keyboard-response","21","95385","0.0-2.0-3.0-0.2","610710773582677196923746","E1","batch5","","1936.5999999977648","stim/prac_no_18_1.png","j","pattern_practice","true","j","","","","","","","","","","","","","","","","","","","","","","",""
"","","","","","html-keyboard-response","22","96407","0.0-2.0-3.0-1.2","610710773582677196923746","E1","batch5","","null","<p style=""font-size:30px;color:green;"">Correct!</p>","null","pattern_feedback","","","","","","","","","","","","","","","","","","","","","","","","",""
"","","","","","image-keyboard-response","23","101185","0.0-2.0-3.0-0.3","610710773582677196923746","E1","batch5","","4775.70000000298","stim/prac_no_16_1.png","j","pattern_practice","true","j","","","","","","","","","","","","","","","","","","","","","","",""
"","","","","","html-keyboard-response","24","102206","0.0-2.0-3.0-1.3","610710773582677196923746","E1","batch5","","null","<p style=""font-size:30px;color:green;"">Correct!</p>","null","pattern_feedback","","","","","","","","","","","","","","","","","","","","","","","","",""
"","","","","","image-keyboard-response","25","104122","0.0-2.0-3.0-0.4","610710773582677196923746","E1","batch5","","1913","stim/prac_yes_20_dia_b1.png","f","pattern_practice","true","f","","","","","","","","","","","","","","","","","","","","","","",""
"","","","","","html-keyboard-response","26","105143","0.0-2.0-3.0-1.4","610710773582677196923746","E1","batch5","","null","<p style=""font-size:30px;color:green;"">Correct!</p>","null","pattern_feedback","","","","","","","","","","","","","","","","","","","","","","","","",""
"","","","","","html-button-response","27","110208","0.0-2.0-4.0","610710773582677196923746","E1","batch5","","5062.5","<p class=block-text> Good job! You are done with practice trials!<br>
        You responded correctly on 100% of the trials.<br>
        Press the button below to start official trials. Now you won't see any feedback about your response</p>","0","pattern_enter_official_trials","","","","","","","","","","","","","","","","","","","","","","","","",""
"","","","","","html-keyboard-response","28","111017","0.0-2.0-5.0-0.0","610710773582677196923746","E1","batch5","","null","<p class=block-text>Trial 1 out of 78</p>","null","pattern_show_trial_num","","","","","","","","","","","","","","","","","","","","","","","","",""
"","","","","","image-keyboard-response","29","126083","0.0-2.0-5.0-1.0","610710773582677196923746","E1","batch5","","15063.199999999255","stim/no_67_1.png","j","pattern_response","true","j","pattern_39","15063.199999999255","true","1","","","","","","","","","","","","","","","","","","",""
"","","","","","html-keyboard-response","30","127401","0.0-2.0-5.0-0.1","610710773582677196923746","E1","batch5","","null","<p class=block-text>Trial 2 out of 78</p>","null","pattern_show_trial_num","","","","","","","","","","","","","","","","","","","","","","","","",""
"","","","","","image-keyboard-response","31","128792","0.0-2.0-5.0-1.1","610710773582677196923746","E1","batch5","","1390","stim/yes_36_ver_w1_w.png","f","pattern_response","true","f","pattern_58","1390","true","2","","","","","","","","","","","","","","","","","","",""
"","","","","","html-keyboard-response","32","130094","0.0-2.0-5.0-0.2","610710773582677196923746","E1","batch5","","null","<p class=block-text>Trial 3 out of 78</p>","null","pattern_show_trial_num","","","","","","","","","","","","","","","","","","","","","","","","",""
"","","","","","image-keyboard-response","33","131830","0.0-2.0-5.0-1.2","610710773582677196923746","E1","batch5","","1733.300000000745","stim/yes_46_ver_b1_b.png","f","pattern_response","true","f","pattern_68","1733.300000000745","true","3","","","","","","","","","","","","","","","","","","",""
"","","","","","html-keyboard-response","34","133142","0.0-2.0-5.0-0.3","610710773582677196923746","E1","batch5","","null","<p class=block-text>Trial 4 out of 78</p>","null","pattern_show_trial_num","","","","","","","","","","","","","","","","","","","","","","","","",""
"","","","","","image-keyboard-response","35","134285","0.0-2.0-5.0-1.3","610710773582677196923746","E1","batch5","","1140.5999999977648","stim/yes_39_hor_w1_w.png","f","pattern_response","true","f","pattern_62","1140.5999999977648","true","4","","","","","","","","","","","","","","","","","","",""
"","","","","","html-keyboard-response","36","135598","0.0-2.0-5.0-0.4","610710773582677196923746","E1","batch5","","null","<p class=block-text>Trial 5 out of 78</p>","null","pattern_show_trial_num","","","","","","","","","","","","","","","","","","","","","","","","",""
"","","","","","image-keyboard-response","37","137137","0.0-2.0-5.0-1.4","610710773582677196923746","E1","batch5","","1536.800000000745","stim/yes_15_dia_b1u_b.png","f","pattern_response","true","f","pattern_44","1536.800000000745","true","5","","","","","","","","","","","","","","","","","","",""
"","","","","","html-keyboard-response","38","138447","0.0-2.0-5.0-0.5","610710773582677196923746","E1","batch5","","null","<p class=block-text>Trial 6 out of 78</p>","null","pattern_show_trial_num","","","","","","","","","","","","","","","","","","","","","","","","",""
"","","","","","image-keyboard-response","39","142458","0.0-2.0-5.0-1.5","610710773582677196923746","E1","batch5","","4008.2000000029802","stim/no_22_1_b.png","j","pattern_response","true","j","pattern_07","4008.2000000029802","true","6","","","","","","","","","","","","","","","","","","",""
"","","","","","html-keyboard-response","40","143777","0.0-2.0-5.0-0.6","610710773582677196923746","E1","batch5","","null","<p class=block-text>Trial 7 out of 78</p>","null","pattern_show_trial_num","","","","","","","","","","","","","","","","","","","","","","","","",""
"","","","","","image-keyboard-response","41","145192","0.0-2.0-5.0-1.6","610710773582677196923746","E1","batch5","","1412.199999999255","stim/yes_29_hor_b1_b.png","f","pattern_response","true","f","pattern_52","1412.199999999255","true","7","","","","","","","","","","","","","","","","","","",""
"","","","","","html-keyboard-response","42","146505","0.0-2.0-5.0-0.7","610710773582677196923746","E1","batch5","","null","<p class=block-text>Trial 8 out of 78</p>","null","pattern_show_trial_num","","","","","","","","","","","","","","","","","","","","","","","","",""
"","","","","","image-keyboard-response","43","155918","0.0-2.0-5.0-1.7","610710773582677196923746","E1","batch5","","9409.60000000149","stim/no_58_1_w.png","j","pattern_response","true","j","pattern_35","9409.60000000149","true","8","","","","","","","","","","","","","","","","","","",""
"","","","","","html-keyboard-response","44","157233","0.0-2.0-5.0-0.8","610710773582677196923746","E1","batch5","","null","<p class=block-text>Trial 9 out of 78</p>","null","pattern_show_trial_num","","","","","","","","","","","","","","","","","","","","","","","","",""
"","","","","","image-keyboard-response","45","167086","0.0-2.0-5.0-1.8","610710773582677196923746","E1","batch5","","9849.599999997765","stim/yes_53_ver_b1_b.png","f","pattern_response","true","f","pattern_74","9849.599999997765","true","9","","","","","","","","","","","","","","","","","","",""
"","","","","","html-keyboard-response","46","168402","0.0-2.0-5.0-0.9","610710773582677196923746","E1","batch5","","null","<p class=block-text>Trial 10 out of 78</p>","null","pattern_show_trial_num","","","","","","","","","","","","","","","","","","","","","","","","",""
"","","","","","image-keyboard-response","47","178814","0.0-2.0-5.0-1.9","610710773582677196923746","E1","batch5","","10408.39999999851","stim/no_51_1.png","j","pattern_response","true","j","pattern_31","10408.39999999851","true","10","","","","","","","","","","","","","","","","","","",""
"","","","","","html-keyboard-response","48","180129","0.0-2.0-5.0-0.10","610710773582677196923746","E1","batch5","","null","<p class=block-text>Trial 11 out of 78</p>","null","pattern_show_trial_num","","","","","","","","","","","","","","","","","","","","","","","","",""
"","","","","","image-keyboard-response","49","184170","0.0-2.0-5.0-1.10","610710773582677196923746","E1","batch5","","4037.7000000029802","stim/no_28_2.png","j","pattern_response","true","j","pattern_11","4037.7000000029802","true","11","","","","","","","","","","","","","","","","","","",""
"","","","","","html-keyboard-response","50","185481","0.0-2.0-5.0-0.11","610710773582677196923746","E1","batch5","","null","<p class=block-text>Trial 12 out of 78</p>","null","pattern_show_trial_num","","","","","","","","","","","","","","","","","","","","","","","","",""
"","","","","","image-keyboard-response","51","186448","0.0-2.0-5.0-1.11","610710773582677196923746","E1","batch5","","964","stim/yes_12_hor_w1_w.png","f","pattern_response","true","f","pattern_42","964","true","12","","","","","","","","","","","","","","","","","","",""
"","","","","","html-keyboard-response","52","187763","0.0-2.0-5.0-0.12","610710773582677196923746","E1","batch5","","null","<p class=block-text>Trial 13 out of 78</p>","null","pattern_show_trial_num","","","","","","","","","","","","","","","","","","","","","","","","",""
"","","","","","image-keyboard-response","53","188653","0.0-2.0-5.0-1.12","610710773582677196923746","E1","batch5","","888.3000000007451","stim/yes_30_ver_b1_b.png","f","pattern_response","true","f","pattern_54","888.3000000007451","true","13","","","","","","","","","","","","","","","","","","",""
"","","","","","html-keyboard-response","54","189969","0.0-2.0-5.0-0.13","610710773582677196923746","E1","batch5","","null","<p class=block-text>Trial 14 out of 78</p>","null","pattern_show_trial_num","","","","","","","","","","","","","","","","","","","","","","","","",""
"","","","","","image-keyboard-response","55","197095","0.0-2.0-5.0-1.13","610710773582677196923746","E1","batch5","","7124","stim/no_53_1_b.png","j","pattern_response","true","j","pattern_33","7124","true","14","","","","","","","","","","","","","","","","","","",""
"","","","","","html-keyboard-response","56","198409","0.0-2.0-5.0-0.14","610710773582677196923746","E1","batch5","","null","<p class=block-text>Trial 15 out of 78</p>","null","pattern_show_trial_num","","","","","","","","","","","","","","","","","","","","","","","","",""
"","","","","","image-keyboard-response","57","201034","0.0-2.0-5.0-1.14","610710773582677196923746","E1","batch5","","2622","stim/no_18_1_b.png","j","pattern_response","true","j","pattern_05","2622","true","15","","","","","","","","","","","","","","","","","","",""
"","","","","","html-keyboard-response","58","202345","0.0-2.0-5.0-0.15","610710773582677196923746","E1","batch5","","null","<p class=block-text>Trial 16 out of 78</p>","null","pattern_show_trial_num","","","","","","","","","","","","","","","","","","","","","","","","",""
"","","","","","image-keyboard-response","59","207895","0.0-2.0-5.0-1.15","610710773582677196923746","E1","batch5","","5547.800000000745","stim/no_43_2_b.png","j","pattern_response","true","j","pattern_23","5547.800000000745","true","16","","","","","","","","","","","","","","","","","","",""
"","","","","","html-keyboard-response","60","209212","0.0-2.0-5.0-0.16","610710773582677196923746","E1","batch5","","null","<p class=block-text>Trial 17 out of 78</p>","null","pattern_show_trial_num","","","","","","","","","","","","","","","","","","","","","","","","",""
"","","","","","image-keyboard-response","61","214636","0.0-2.0-5.0-1.16","610710773582677196923746","E1","batch5","","5421.300000000745","stim/yes_51_dia_b1.png","f","pattern_response","true","f","pattern_72","5421.300000000745","true","17","","","","","","","","","","","","","","","","","","",""
"","","","","","html-keyboard-response","62","215952","0.0-2.0-5.0-0.17","610710773582677196923746","E1","batch5","","null","<p class=block-text>Trial 18 out of 78</p>","null","pattern_show_trial_num","","","","","","","","","","","","","","","","","","","","","","","","",""
"","","","","","image-keyboard-response","63","218014","0.0-2.0-5.0-1.17","610710773582677196923746","E1","batch5","","2058","stim/yes_49_hor_w1_b.png","f","pattern_response","true","f","pattern_70","2058","true","18","","","","","","","","","","","","","","","","","","",""
"","","","","","html-keyboard-response","64","219331","0.0-2.0-5.0-0.18","610710773582677196923746","E1","batch5","","null","<p class=block-text>Trial 19 out of 78</p>","null","pattern_show_trial_num","","","","","","","","","","","","","","","","","","","","","","","","",""
"","","","","","image-keyboard-response","65","223515","0.0-2.0-5.0-1.18","610710773582677196923746","E1","batch5","","4181.60000000149","stim/no_25_1_b.png","j","pattern_response","true","j","pattern_09","4181.60000000149","true","19","","","","","","","","","","","","","","","","","","",""
"","","","","","html-keyboard-response","66","224829","0.0-2.0-5.0-0.19","610710773582677196923746","E1","batch5","","null","<p class=block-text>Trial 20 out of 78</p>","null","pattern_show_trial_num","","","","","","","","","","","","","","","","","","","","","","","","",""
"","","","","","image-keyboard-response","67","226814","0.0-2.0-5.0-1.19","610710773582677196923746","E1","batch5","","1983.5","stim/yes_33_dia_w1_w.png","f","pattern_response","true","f","pattern_56","1983.5","true","20","","","","","","","","","","","","","","","","","","",""
"","","","","","html-keyboard-response","68","228132","0.0-2.0-5.0-0.20","610710773582677196923746","E1","batch5","","null","<p class=block-text>Trial 21 out of 78</p>","null","pattern_show_trial_num","","","","","","","","","","","","","","","","","","","","","","","","",""
"","","","","","image-keyboard-response","69","233109","0.0-2.0-5.0-1.20","610710773582677196923746","E1","batch5","","4974","stim/no_47_1_b.png","j","pattern_response","true","j","pattern_27","4974","true","21","","","","","","","","","","","","","","","","","","",""
"","","","","","html-keyboard-response","70","234424","0.0-2.0-5.0-0.21","610710773582677196923746","E1","batch5","","null","<p class=block-text>Trial 22 out of 78</p>","null","pattern_show_trial_num","","","","","","","","","","","","","","","","","","","","","","","","",""
"","","","","","image-keyboard-response","71","235877","0.0-2.0-5.0-1.21","610710773582677196923746","E1","batch5","","1450.5","stim/no_12_1.png","j","pattern_response","true","j","pattern_01","1450.5","true","22","","","","","","","","","","","","","","","","","","",""
"","","","","","html-keyboard-response","72","237194","0.0-2.0-5.0-0.22","610710773582677196923746","E1","batch5","","null","<p class=block-text>Trial 23 out of 78</p>","null","pattern_show_trial_num","","","","","","","","","","","","","","","","","","","","","","","","",""
"","","","","","image-keyboard-response","73","238711","0.0-2.0-5.0-1.22","610710773582677196923746","E1","batch5","","1515.800000000745","stim/yes_23_ver_b1.png","f","pattern_response","true","f","pattern_48","1515.800000000745","true","23","","","","","","","","","","","","","","","","","","",""
"","","","","","html-keyboard-response","74","240027","0.0-2.0-5.0-0.23","610710773582677196923746","E1","batch5","","null","<p class=block-text>Trial 24 out of 78</p>","null","pattern_show_trial_num","","","","","","","","","","","","","","","","","","","","","","","","",""
"","","","","","image-keyboard-response","75","243682","0.0-2.0-5.0-1.23","610710773582677196923746","E1","batch5","","3653.099999997765","stim/no_30_1_b.png","j","pattern_response","true","j","pattern_13","3653.099999997765","true","24","","","","","","","","","","","","","","","","","","",""
"","","","","","html-keyboard-response","76","244996","0.0-2.0-5.0-0.24","610710773582677196923746","E1","batch5","","null","<p class=block-text>Trial 25 out of 78</p>","null","pattern_show_trial_num","","","","","","","","","","","","","","","","","","","","","","","","",""
"","","","","","image-keyboard-response","77","252851","0.0-2.0-5.0-1.24","610710773582677196923746","E1","batch5","","7852.300000000745","stim/yes_63_dia_b1.png","j","pattern_response","false","f","pattern_78","7852.300000000745","false","24","","","","","","","","","","","","","","","","","","",""
"","","","","","html-keyboard-response","78","254162","0.0-2.0-5.0-0.25","610710773582677196923746","E1","batch5","","null","<p class=block-text>Trial 26 out of 78</p>","null","pattern_show_trial_num","","","","","","","","","","","","","","","","","","","","","","","","",""
"","","","","","image-keyboard-response","79","259553","0.0-2.0-5.0-1.25","610710773582677196923746","E1","batch5","","5388.5","stim/no_45_1_w.png","j","pattern_response","true","j","pattern_25","5388.5","true","25","","","","","","","","","","","","","","","","","","",""
"","","","","","html-keyboard-response","80","260867","0.0-2.0-5.0-0.26","610710773582677196923746","E1","batch5","","null","<p class=block-text>Trial 27 out of 78</p>","null","pattern_show_trial_num","","","","","","","","","","","","","","","","","","","","","","","","",""
"","","","","","image-keyboard-response","81","268419","0.0-2.0-5.0-1.26","610710773582677196923746","E1","batch5","","7549.099999997765","stim/no_39_1_w.png","j","pattern_response","true","j","pattern_21","7549.099999997765","true","26","","","","","","","","","","","","","","","","","","",""
"","","","","","html-keyboard-response","82","269731","0.0-2.0-5.0-0.27","610710773582677196923746","E1","batch5","","null","<p class=block-text>Trial 28 out of 78</p>","null","pattern_show_trial_num","","","","","","","","","","","","","","","","","","","","","","","","",""
"","","","","","image-keyboard-response","83","271840","0.0-2.0-5.0-1.27","610710773582677196923746","E1","batch5","","2106","stim/yes_26_dia_w2_w.png","f","pattern_response","true","f","pattern_50","2106","true","27","","","","","","","","","","","","","","","","","","",""
"","","","","","html-keyboard-response","84","273157","0.0-2.0-5.0-0.28","610710773582677196923746","E1","batch5","","null","<p class=block-text>Trial 29 out of 78</p>","null","pattern_show_trial_num","","","","","","","","","","","","","","","","","","","","","","","","",""
"","","","","","image-keyboard-response","85","275670","0.0-2.0-5.0-1.28","610710773582677196923746","E1","batch5","","2511.60000000149","stim/no_15_1_w.png","j","pattern_response","true","j","pattern_03","2511.60000000149","true","28","","","","","","","","","","","","","","","","","","",""
"","","","","","html-keyboard-response","86","276988","0.0-2.0-5.0-0.29","610710773582677196923746","E1","batch5","","null","<p class=block-text>Trial 30 out of 78</p>","null","pattern_show_trial_num","","","","","","","","","","","","","","","","","","","","","","","","",""
"","","","","","image-keyboard-response","87","281568","0.0-2.0-5.0-1.29","610710773582677196923746","E1","batch5","","4577.39999999851","stim/no_33_1_b.png","j","pattern_response","true","j","pattern_15","4577.39999999851","true","29","","","","","","","","","","","","","","","","","","",""
"","","","","","html-keyboard-response","88","282885","0.0-2.0-5.0-0.30","610710773582677196923746","E1","batch5","","null","<p class=block-text>Trial 31 out of 78</p>","null","pattern_show_trial_num","","","","","","","","","","","","","","","","","","","","","","","","",""
"","","","","","image-keyboard-response","89","289397","0.0-2.0-5.0-1.30","610710773582677196923746","E1","batch5","","6509.20000000298","stim/no_36_1_b.png","j","pattern_response","true","j","pattern_17","6509.20000000298","true","30","","","","","","","","","","","","","","","","","","",""
"","","","","","html-keyboard-response","90","290708","0.0-2.0-5.0-0.31","610710773582677196923746","E1","batch5","","null","<p class=block-text>Trial 32 out of 78</p>","null","pattern_show_trial_num","","","","","","","","","","","","","","","","","","","","","","","","",""
"","","","","","image-keyboard-response","91","296425","0.0-2.0-5.0-1.31","610710773582677196923746","E1","batch5","","5714.60000000149","stim/yes_42_dia_w1_w.png","j","pattern_response","false","f","pattern_64","5714.60000000149","false","30","","","","","","","","","","","","","","","","","","",""
"","","","","","html-keyboard-response","92","297742","0.0-2.0-5.0-0.32","610710773582677196923746","E1","batch5","","null","<p class=block-text>Trial 33 out of 78</p>","null","pattern_show_trial_num","","","","","","","","","","","","","","","","","","","","","","","","",""
"","","","","","image-keyboard-response","93","298826","0.0-2.0-5.0-1.32","610710773582677196923746","E1","batch5","","1082","stim/yes_17_ver_b1_b.png","f","pattern_response","true","f","pattern_46","1082","true","31","","","","","","","","","","","","","","","","","","",""
"","","","","","html-keyboard-response","94","300138","0.0-2.0-5.0-0.33","610710773582677196923746","E1","batch5","","null","<p class=block-text>Trial 34 out of 78</p>","null","pattern_show_trial_num","","","","","","","","","","","","","","","","","","","","","","","","",""
"","","","","","image-keyboard-response","95","302294","0.0-2.0-5.0-1.33","610710773582677196923746","E1","batch5","","2153.199999999255","stim/yes_70_ver_b1.png","f","pattern_response","true","f","pattern_80","2153.199999999255","true","32","","","","","","","","","","","","","","","","","","",""
"","","","","","html-keyboard-response","96","303611","0.0-2.0-5.0-0.34","610710773582677196923746","E1","batch5","","null","<p class=block-text>Trial 35 out of 78</p>","null","pattern_show_trial_num","","","","","","","","","","","","","","","","","","","","","","","","",""
"","","","","","image-keyboard-response","97","306152","0.0-2.0-5.0-1.34","610710773582677196923746","E1","batch5","","2539.300000000745","stim/yes_44_ver_w1_w.png","f","pattern_response","true","f","pattern_66","2539.300000000745","true","33","","","","","","","","","","","","","","","","","","",""
"","","","","","html-keyboard-response","98","307470","0.0-2.0-5.0-0.35","610710773582677196923746","E1","batch5","","null","<p class=block-text>Trial 36 out of 78</p>","null","pattern_show_trial_num","","","","","","","","","","","","","","","","","","","","","","","","",""
"","","","","","image-keyboard-response","99","312289","0.0-2.0-5.0-1.35","610710773582677196923746","E1","batch5","","4816.199999999255","stim/no_37_2_w.png","j","pattern_response","true","j","pattern_19","4816.199999999255","true","34","","","","","","","","","","","","","","","","","","",""
"","","","","","html-keyboard-response","100","313607","0.0-2.0-5.0-0.36","610710773582677196923746","E1","batch5","","null","<p class=block-text>Trial 37 out of 78</p>","null","pattern_show_trial_num","","","","","","","","","","","","","","","","","","","","","","","","",""
"","","","","","image-keyboard-response","101","314937","0.0-2.0-5.0-1.36","610710773582677196923746","E1","batch5","","1326.8999999985099","stim/yes_37_hor_w1_w.png","f","pattern_response","true","f","pattern_60","1326.8999999985099","true","35","","","","","","","","","","","","","","","","","","",""
"","","","","","html-keyboard-response","102","316254","0.0-2.0-5.0-0.37","610710773582677196923746","E1","batch5","","null","<p class=block-text>Trial 38 out of 78</p>","null","pattern_show_trial_num","","","","","","","","","","","","","","","","","","","","","","","","",""
"","","","","","image-keyboard-response","103","324327","0.0-2.0-5.0-1.37","610710773582677196923746","E1","batch5","","8070","stim/no_49_2_b.png","j","pattern_response","true","j","pattern_29","8070","true","36","","","","","","","","","","","","","","","","","","",""
"","","","","","html-keyboard-response","104","325639","0.0-2.0-5.0-0.38","610710773582677196923746","E1","batch5","","null","<p class=block-text>Trial 39 out of 78</p>","null","pattern_show_trial_num","","","","","","","","","","","","","","","","","","","","","","","","",""
"","","","","","image-keyboard-response","105","333180","0.0-2.0-5.0-1.38","610710773582677196923746","E1","batch5","","7538.10000000149","stim/yes_58_dia_w1_w.png","j","pattern_response","false","f","pattern_76","7538.10000000149","false","36","","","","","","","","","","","","","","","","","","",""
"","","","","","image-keyboard-response","106","335883","0.0-2.0-6.0","610710773582677196923746","E1","batch5","","2193.900000002235","stim/empty_board.png","j","attention_check","true","j","","","","","500","[""f"",""j""]","","","","","","","","","","","","","","","","",""
"","","","","","html-keyboard-response","107","336694","0.0-2.0-7.0-0.0","610710773582677196923746","E1","batch5","","null","<p class=block-text>Trial 40 out of 78</p>","null","pattern_show_trial_num","","","","","","","","","","","","","","","","","","","","","","","","",""
"","","","","","image-keyboard-response","108","343404","0.0-2.0-7.0-1.0","610710773582677196923746","E1","batch5","","6707","stim/no_52_1.png","j","pattern_response","true","j","pattern_32","6707","true","37","","","","","","","","","","","","","","","","","","",""
"","","","","","html-keyboard-response","109","344716","0.0-2.0-7.0-0.1","610710773582677196923746","E1","batch5","","null","<p class=block-text>Trial 41 out of 78</p>","null","pattern_show_trial_num","","","","","","","","","","","","","","","","","","","","","","","","",""
"","","","","","image-keyboard-response","110","348831","0.0-2.0-7.0-1.1","610710773582677196923746","E1","batch5","","4113.60000000149","stim/no_36_2_w.png","j","pattern_response","true","j","pattern_18","4113.60000000149","true","38","","","","","","","","","","","","","","","","","","",""
"","","","","","html-keyboard-response","111","350145","0.0-2.0-7.0-0.2","610710773582677196923746","E1","batch5","","null","<p class=block-text>Trial 42 out of 78</p>","null","pattern_show_trial_num","","","","","","","","","","","","","","","","","","","","","","","","",""
"","","","","","image-keyboard-response","112","356543","0.0-2.0-7.0-1.2","610710773582677196923746","E1","batch5","","6395.60000000149","stim/no_55_1_w.png","j","pattern_response","true","j","pattern_34","6395.60000000149","true","39","","","","","","","","","","","","","","","","","","",""
"","","","","","html-keyboard-response","113","357853","0.0-2.0-7.0-0.3","610710773582677196923746","E1","batch5","","null","<p class=block-text>Trial 43 out of 78</p>","null","pattern_show_trial_num","","","","","","","","","","","","","","","","","","","","","","","","",""
"","","","","","image-keyboard-response","114","361972","0.0-2.0-7.0-1.3","610710773582677196923746","E1","batch5","","4116.70000000298","stim/no_34_1_b.png","j","pattern_response","true","j","pattern_16","4116.70000000298","true","40","","","","","","","","","","","","","","","","","","",""
"","","","","","html-keyboard-response","115","363288","0.0-2.0-7.0-0.4","610710773582677196923746","E1","batch5","","null","<p class=block-text>Trial 44 out of 78</p>","null","pattern_show_trial_num","","","","","","","","","","","","","","","","","","","","","","","","",""
"","","","","","image-keyboard-response","116","364558","0.0-2.0-7.0-1.4","610710773582677196923746","E1","batch5","","1268.3999999985099","stim/no_13_2_b.png","j","pattern_response","true","j","pattern_02","1268.3999999985099","true","41","","","","","","","","","","","","","","","","","","",""
"","","","","","html-keyboard-response","117","365871","0.0-2.0-7.0-0.5","610710773582677196923746","E1","batch5","","null","<p class=block-text>Trial 45 out of 78</p>","null","pattern_show_trial_num","","","","","","","","","","","","","","","","","","","","","","","","",""
"","","","","","image-keyboard-response","118","369299","0.0-2.0-7.0-1.5","610710773582677196923746","E1","batch5","","3426.099999997765","stim/yes_48_dia_w1_w.png","f","pattern_response","true","f","pattern_69","3426.099999997765","true","42","","","","","","","","","","","","","","","","","","",""
"","","","","","html-keyboard-response","119","370614","0.0-2.0-7.0-0.6","610710773582677196923746","E1","batch5","","null","<p class=block-text>Trial 46 out of 78</p>","null","pattern_show_trial_num","","","","","","","","","","","","","","","","","","","","","","","","",""
"","","","","","image-keyboard-response","120","372489","0.0-2.0-7.0-1.6","610710773582677196923746","E1","batch5","","1873.1000000014901","stim/yes_55_hor_w1_w.png","f","pattern_response","true","f","pattern_75","1873.1000000014901","true","43","","","","","","","","","","","","","","","","","","",""
"","","","","","html-keyboard-response","121","373806","0.0-2.0-7.0-0.7","610710773582677196923746","E1","batch5","","null","<p class=block-text>Trial 47 out of 78</p>","null","pattern_show_trial_num","","","","","","","","","","","","","","","","","","","","","","","","",""
"","","","","","image-keyboard-response","122","378713","0.0-2.0-7.0-1.7","610710773582677196923746","E1","batch5","","4904.29999999702","stim/no_42_1_w.png","j","pattern_response","true","j","pattern_22","4904.29999999702","true","44","","","","","","","","","","","","","","","","","","",""
"","","","","","html-keyboard-response","123","380030","0.0-2.0-7.0-0.8","610710773582677196923746","E1","batch5","","null","<p class=block-text>Trial 48 out of 78</p>","null","pattern_show_trial_num","","","","","","","","","","","","","","","","","","","","","","","","",""
"","","","","","image-keyboard-response","124","382493","0.0-2.0-7.0-1.8","610710773582677196923746","E1","batch5","","2460.89999999851","stim/yes_22_ver_w1.png","f","pattern_response","true","f","pattern_47","2460.89999999851","true","45","","","","","","","","","","","","","","","","","","",""
"","","","","","html-keyboard-response","125","383797","0.0-2.0-7.0-0.9","610710773582677196923746","E1","batch5","","null","<p class=block-text>Trial 49 out of 78</p>","null","pattern_show_trial_num","","","","","","","","","","","","","","","","","","","","","","","","",""
"","","","","","image-keyboard-response","126","390402","0.0-2.0-7.0-1.9","610710773582677196923746","E1","batch5","","6601.800000000745","stim/no_50_1.png","j","pattern_response","true","j","pattern_30","6601.800000000745","true","46","","","","","","","","","","","","","","","","","","",""
"","","","","","html-keyboard-response","127","391720","0.0-2.0-7.0-0.10","610710773582677196923746","E1","batch5","","null","<p class=block-text>Trial 50 out of 78</p>","null","pattern_show_trial_num","","","","","","","","","","","","","","","","","","","","","","","","",""
"","","","","","image-keyboard-response","128","401047","0.0-2.0-7.0-1.10","610710773582677196923746","E1","batch5","","9323.39999999851","stim/no_65_1_b.png","j","pattern_response","true","j","pattern_38","9323.39999999851","true","47","","","","","","","","","","","","","","","","","","",""
"","","","","","html-keyboard-response","129","402362","0.0-2.0-7.0-0.11","610710773582677196923746","E1","batch5","","null","<p class=block-text>Trial 51 out of 78</p>","null","pattern_show_trial_num","","","","","","","","","","","","","","","","","","","","","","","","",""
"","","","","","image-keyboard-response","130","407282","0.0-2.0-7.0-1.11","610710773582677196923746","E1","batch5","","4917.800000000745","stim/no_62_1_w.png","j","pattern_response","true","j","pattern_36","4917.800000000745","true","48","","","","","","","","","","","","","","","","","","",""
"","","","","","html-keyboard-response","131","408599","0.0-2.0-7.0-0.12","610710773582677196923746","E1","batch5","","null","<p class=block-text>Trial 52 out of 78</p>","null","pattern_show_trial_num","","","","","","","","","","","","","","","","","","","","","","","","",""
"","","","","","image-keyboard-response","132","410147","0.0-2.0-7.0-1.12","610710773582677196923746","E1","batch5","","1544.800000000745","stim/yes_52_ver_w1.png","f","pattern_response","true","f","pattern_73","1544.800000000745","true","49","","","","","","","","","","","","","","","","","","",""
"","","","","","html-keyboard-response","133","411465","0.0-2.0-7.0-0.13","610710773582677196923746","E1","batch5","","null","<p class=block-text>Trial 53 out of 78</p>","null","pattern_show_trial_num","","","","","","","","","","","","","","","","","","","","","","","","",""
"","","","","","image-keyboard-response","134","421866","0.0-2.0-7.0-1.13","610710773582677196923746","E1","batch5","","10399.599999997765","stim/yes_67_hor_b1.png","f","pattern_response","true","f","pattern_79","10399.599999997765","true","50","","","","","","","","","","","","","","","","","","",""
"","","","","","html-keyboard-response","135","423180","0.0-2.0-7.0-0.14","610710773582677196923746","E1","batch5","","null","<p class=block-text>Trial 54 out of 78</p>","null","pattern_show_trial_num","","","","","","","","","","","","","","","","","","","","","","","","",""
"","","","","","image-keyboard-response","136","424349","0.0-2.0-7.0-1.14","610710773582677196923746","E1","batch5","","1165.6000000014901","stim/yes_17_dia_w1.png","f","pattern_response","true","f","pattern_45","1165.6000000014901","true","51","","","","","","","","","","","","","","","","","","",""
"","","","","","html-keyboard-response","137","425664","0.0-2.0-7.0-0.15","610710773582677196923746","E1","batch5","","null","<p class=block-text>Trial 55 out of 78</p>","null","pattern_show_trial_num","","","","","","","","","","","","","","","","","","","","","","","","",""
"","","","","","image-keyboard-response","138","434433","0.0-2.0-7.0-1.15","610710773582677196923746","E1","batch5","","8766.70000000298","stim/no_48_1_w.png","j","pattern_response","true","j","pattern_28","8766.70000000298","true","52","","","","","","","","","","","","","","","","","","",""
"","","","","","html-keyboard-response","139","435747","0.0-2.0-7.0-0.16","610710773582677196923746","E1","batch5","","null","<p class=block-text>Trial 56 out of 78</p>","null","pattern_show_trial_num","","","","","","","","","","","","","","","","","","","","","","","","",""
"","","","","","image-keyboard-response","140","440801","0.0-2.0-7.0-1.16","610710773582677196923746","E1","batch5","","5050.89999999851","stim/no_29_1_b.png","j","pattern_response","true","j","pattern_12","5050.89999999851","true","53","","","","","","","","","","","","","","","","","","",""
"","","","","","html-keyboard-response","141","442110","0.0-2.0-7.0-0.17","610710773582677196923746","E1","batch5","","null","<p class=block-text>Trial 57 out of 78</p>","null","pattern_show_trial_num","","","","","","","","","","","","","","","","","","","","","","","","",""
"","","","","","image-keyboard-response","142","443296","0.0-2.0-7.0-1.17","610710773582677196923746","E1","batch5","","1183.800000000745","stim/yes_38_hor_b1_b.png","f","pattern_response","true","f","pattern_61","1183.800000000745","true","54","","","","","","","","","","","","","","","","","","",""
"","","","","","html-keyboard-response","143","444608","0.0-2.0-7.0-0.18","610710773582677196923746","E1","batch5","","null","<p class=block-text>Trial 58 out of 78</p>","null","pattern_show_trial_num","","","","","","","","","","","","","","","","","","","","","","","","",""
"","","","","","image-keyboard-response","144","449102","0.0-2.0-7.0-1.18","610710773582677196923746","E1","batch5","","4492.300000000745","stim/no_32_1_w.png","j","pattern_response","true","j","pattern_14","4492.300000000745","true","55","","","","","","","","","","","","","","","","","","",""
"","","","","","html-keyboard-response","145","450419","0.0-2.0-7.0-0.19","610710773582677196923746","E1","batch5","","null","<p class=block-text>Trial 59 out of 78</p>","null","pattern_show_trial_num","","","","","","","","","","","","","","","","","","","","","","","","",""
"","","","","","image-keyboard-response","146","452065","0.0-2.0-7.0-1.19","610710773582677196923746","E1","batch5","","1644.1000000014901","stim/yes_43_ver_w1_w.png","f","pattern_response","true","f","pattern_65","1644.1000000014901","true","56","","","","","","","","","","","","","","","","","","",""
"","","","","","html-keyboard-response","147","453378","0.0-2.0-7.0-0.20","610710773582677196923746","E1","batch5","","null","<p class=block-text>Trial 60 out of 78</p>","null","pattern_show_trial_num","","","","","","","","","","","","","","","","","","","","","","","","",""
"","","","","","image-keyboard-response","148","456848","0.0-2.0-7.0-1.20","610710773582677196923746","E1","batch5","","3468.10000000149","stim/yes_31_hor_b1.png","f","pattern_response","true","f","pattern_55","3468.10000000149","true","57","","","","","","","","","","","","","","","","","","",""
"","","","","","html-keyboard-response","149","458161","0.0-2.0-7.0-0.21","610710773582677196923746","E1","batch5","","null","<p class=block-text>Trial 61 out of 78</p>","null","pattern_show_trial_num","","","","","","","","","","","","","","","","","","","","","","","","",""
"","","","","","image-keyboard-response","150","458972","0.0-2.0-7.0-1.21","610710773582677196923746","E1","batch5","","808.3000000007451","stim/yes_25_hor_b1_b.png","f","pattern_response","true","f","pattern_49","808.3000000007451","true","58","","","","","","","","","","","","","","","","","","",""
"","","","","","html-keyboard-response","151","460292","0.0-2.0-7.0-0.22","610710773582677196923746","E1","batch5","","null","<p class=block-text>Trial 62 out of 78</p>","null","pattern_show_trial_num","","","","","","","","","","","","","","","","","","","","","","","","",""
"","","","","","image-keyboard-response","152","463288","0.0-2.0-7.0-1.22","610710773582677196923746","E1","batch5","","2994","stim/no_17_1_w.png","j","pattern_response","true","j","pattern_04","2994","true","59","","","","","","","","","","","","","","","","","","",""
"","","","","","html-keyboard-response","153","464599","0.0-2.0-7.0-0.23","610710773582677196923746","E1","batch5","","null","<p class=block-text>Trial 63 out of 78</p>","null","pattern_show_trial_num","","","","","","","","","","","","","","","","","","","","","","","","",""
"","","","","","image-keyboard-response","154","470367","0.0-2.0-7.0-1.23","610710773582677196923746","E1","batch5","","5765.39999999851","stim/yes_50_dia_w1.png","f","pattern_response","true","f","pattern_71","5765.39999999851","true","60","","","","","","","","","","","","","","","","","","",""
"","","","","","html-keyboard-response","155","471682","0.0-2.0-7.0-0.24","610710773582677196923746","E1","batch5","","null","<p class=block-text>Trial 64 out of 78</p>","null","pattern_show_trial_num","","","","","","","","","","","","","","","","","","","","","","","","",""
"","","","","","image-keyboard-response","156","477625","0.0-2.0-7.0-1.24","610710773582677196923746","E1","batch5","","5940.5","stim/no_38_1_b.png","j","pattern_response","true","j","pattern_20","5940.5","true","61","","","","","","","","","","","","","","","","","","",""
"","","","","","html-keyboard-response","157","478938","0.0-2.0-7.0-0.25","610710773582677196923746","E1","batch5","","null","<p class=block-text>Trial 65 out of 78</p>","null","pattern_show_trial_num","","","","","","","","","","","","","","","","","","","","","","","","",""
"","","","","","image-keyboard-response","158","480077","0.0-2.0-7.0-1.25","610710773582677196923746","E1","batch5","","1137.1000000014901","stim/yes_35_dia_b1.png","f","pattern_response","true","f","pattern_57","1137.1000000014901","true","62","","","","","","","","","","","","","","","","","","",""
"","","","","","html-keyboard-response","159","481394","0.0-2.0-7.0-0.26","610710773582677196923746","E1","batch5","","null","<p class=block-text>Trial 66 out of 78</p>","null","pattern_show_trial_num","","","","","","","","","","","","","","","","","","","","","","","","",""
"","","","","","image-keyboard-response","160","484696","0.0-2.0-7.0-1.26","610710773582677196923746","E1","batch5","","3300.199999999255","stim/no_26_1_w.png","j","pattern_response","true","j","pattern_10","3300.199999999255","true","63","","","","","","","","","","","","","","","","","","",""
"","","","","","html-keyboard-response","161","486003","0.0-2.0-7.0-0.27","610710773582677196923746","E1","batch5","","null","<p class=block-text>Trial 67 out of 78</p>","null","pattern_show_trial_num","","","","","","","","","","","","","","","","","","","","","","","","",""
"","","","","","image-keyboard-response","162","488707","0.0-2.0-7.0-1.27","610710773582677196923746","E1","batch5","","2701.60000000149","stim/no_20_1_w.png","j","pattern_response","true","j","pattern_06","2701.60000000149","true","64","","","","","","","","","","","","","","","","","","",""
"","","","","","html-keyboard-response","163","490019","0.0-2.0-7.0-0.28","610710773582677196923746","E1","batch5","","null","<p class=block-text>Trial 68 out of 78</p>","null","pattern_show_trial_num","","","","","","","","","","","","","","","","","","","","","","","","",""
"","","","","","image-keyboard-response","164","493056","0.0-2.0-7.0-1.28","610710773582677196923746","E1","batch5","","3034.199999999255","stim/no_23_1.png","j","pattern_response","true","j","pattern_08","3034.199999999255","true","65","","","","","","","","","","","","","","","","","","",""
"","","","","","html-keyboard-response","165","494369","0.0-2.0-7.0-0.29","610710773582677196923746","E1","batch5","","null","<p class=block-text>Trial 69 out of 78</p>","null","pattern_show_trial_num","","","","","","","","","","","","","","","","","","","","","","","","",""
"","","","","","image-keyboard-response","166","503512","0.0-2.0-7.0-1.29","610710773582677196923746","E1","batch5","","9141.199999999255","stim/no_70_2.png","j","pattern_response","true","j","pattern_40","9141.199999999255","true","66","","","","","","","","","","","","","","","","","","",""
"","","","","","html-keyboard-response","167","504829","0.0-2.0-7.0-0.30","610710773582677196923746","E1","batch5","","null","<p class=block-text>Trial 70 out of 78</p>","null","pattern_show_trial_num","","","","","","","","","","","","","","","","","","","","","","","","",""
"","","","","","image-keyboard-response","168","509078","0.0-2.0-7.0-1.30","610710773582677196923746","E1","batch5","","4246.800000000745","stim/yes_60_ver_b1_b.png","f","pattern_response","true","f","pattern_77","4246.800000000745","true","67","","","","","","","","","","","","","","","","","","",""
"","","","","","html-keyboard-response","169","510396","0.0-2.0-7.0-0.31","610710773582677196923746","E1","batch5","","null","<p class=block-text>Trial 71 out of 78</p>","null","pattern_show_trial_num","","","","","","","","","","","","","","","","","","","","","","","","",""
"","","","","","image-keyboard-response","170","517065","0.0-2.0-7.0-1.31","610710773582677196923746","E1","batch5","","6667","stim/no_44_1.png","j","pattern_response","true","j","pattern_24","6667","true","68","","","","","","","","","","","","","","","","","","",""
"","","","","","html-keyboard-response","171","518378","0.0-2.0-7.0-0.32","610710773582677196923746","E1","batch5","","null","<p class=block-text>Trial 72 out of 78</p>","null","pattern_show_trial_num","","","","","","","","","","","","","","","","","","","","","","","","",""
"","","","","","image-keyboard-response","172","519438","0.0-2.0-7.0-1.32","610710773582677196923746","E1","batch5","","1056.9000000022352","stim/yes_14_hor_b1_w.png","f","pattern_response","true","f","pattern_43","1056.9000000022352","true","69","","","","","","","","","","","","","","","","","","",""
"","","","","","html-keyboard-response","173","520753","0.0-2.0-7.0-0.33","610710773582677196923746","E1","batch5","","null","<p class=block-text>Trial 73 out of 78</p>","null","pattern_show_trial_num","","","","","","","","","","","","","","","","","","","","","","","","",""
"","","","","","image-keyboard-response","174","522061","0.0-2.0-7.0-1.33","610710773582677196923746","E1","batch5","","1306.800000000745","stim/yes_28_ver_b1.png","f","pattern_response","true","f","pattern_51","1306.800000000745","true","70","","","","","","","","","","","","","","","","","","",""
"","","","","","html-keyboard-response","175","523377","0.0-2.0-7.0-0.34","610710773582677196923746","E1","batch5","","null","<p class=block-text>Trial 74 out of 78</p>","null","pattern_show_trial_num","","","","","","","","","","","","","","","","","","","","","","","","",""
"","","","","","image-keyboard-response","176","525437","0.0-2.0-7.0-1.34","610710773582677196923746","E1","batch5","","2056.89999999851","stim/yes_29_ver_w1.png","f","pattern_response","true","f","pattern_53","2056.89999999851","true","71","","","","","","","","","","","","","","","","","","",""
"","","","","","html-keyboard-response","177","526755","0.0-2.0-7.0-0.35","610710773582677196923746","E1","batch5","","null","<p class=block-text>Trial 75 out of 78</p>","null","pattern_show_trial_num","","","","","","","","","","","","","","","","","","","","","","","","",""
"","","","","","image-keyboard-response","178","529145","0.0-2.0-7.0-1.35","610710773582677196923746","E1","batch5","","2387.5","stim/yes_40_dia_b1_b.png","f","pattern_response","true","f","pattern_63","2387.5","true","72","","","","","","","","","","","","","","","","","","",""
"","","","","","html-keyboard-response","179","530459","0.0-2.0-7.0-0.36","610710773582677196923746","E1","batch5","","null","<p class=block-text>Trial 76 out of 78</p>","null","pattern_show_trial_num","","","","","","","","","","","","","","","","","","","","","","","","",""
"","","","","","image-keyboard-response","180","538561","0.0-2.0-7.0-1.36","610710773582677196923746","E1","batch5","","8099.70000000298","stim/no_46_1_b.png","j","pattern_response","true","j","pattern_26","8099.70000000298","true","73","","","","","","","","","","","","","","","","","","",""
"","","","","","html-keyboard-response","181","539875","0.0-2.0-7.0-0.37","610710773582677196923746","E1","batch5","","null","<p class=block-text>Trial 77 out of 78</p>","null","pattern_show_trial_num","","","","","","","","","","","","","","","","","","","","","","","","",""
"","","","","","image-keyboard-response","182","545291","0.0-2.0-7.0-1.37","610710773582677196923746","E1","batch5","","5413.89999999851","stim/yes_45_hor_b2_b.png","f","pattern_response","true","f","pattern_67","5413.89999999851","true","74","","","","","","","","","","","","","","","","","","",""
"","","","","","html-keyboard-response","183","546603","0.0-2.0-7.0-0.38","610710773582677196923746","E1","batch5","","null","<p class=block-text>Trial 78 out of 78</p>","null","pattern_show_trial_num","","","","","","","","","","","","","","","","","","","","","","","","",""
"","","","","","image-keyboard-response","184","552356","0.0-2.0-7.0-1.38","610710773582677196923746","E1","batch5","","5750.699999999255","stim/yes_37_dia_w1.png","f","pattern_response","true","f","pattern_59","5750.699999999255","true","75","","","","","","","","","","","","","","","","","","",""
"","","","","","html-button-response","185","557622","0.0-2.0-8.0","610710773582677196923746","E1","batch5","","4757.89999999851","<p class = block-text>This concludes the 4-in-a-row detection game.Thank you for your responses!<br>
            You responded correctly on 96% of the trials.<br>
            When you are ready, press ""Continue"" button to continue </p>","0","","","","","","","","","","","","","","","","","","","","","","","","","",""
"true","","","","","fullscreen","186","562300","0.0-3.0-0.0","610710773582677196923746","E1","batch5","","","","","spm_fullscreen","","","","","","","","","","","","","","","","","","","","","","","","",""
"","","","","","html-button-response","187","575354","0.0-3.0-1.0","610710773582677196923746","E1","batch5","","13052","<p class = block-text><b>Instructions</b> <br>This is a widely used intelligence test in research. <br>In this test, a figure with a missing piece will be presented.<br>Below the figure are alternative pieces to complete the figure, only one of which is correct.<br> Different figures might involve different principles for obtaining the missing piece<br>Your job is to select the most logical piece to complete the figure.</p>","0","","","","","","","","","","","","","","","","","","","","","","","","","",""
"","","","","","html-keyboard-response","188","576163","0.0-3.0-2.0-0.0","610710773582677196923746","E1","batch5","","null","<p class=block-text>Trial 1 out of 60</p>","null","spm_show_trial_num","","","","","","","","","","","","","","","","","","","","","","","","",""
"","","","","","image-button-response","189","581115","0.0-3.0-2.0-1.0","610710773582677196923746","E1","batch5","","4947.300000000745","img/question_1_1.jpeg","3","spm_respsonse","1","4","mat_01","","","","","","1","4947.300000000745","","","","","","","","","","","","","","",""
"","","","","","html-keyboard-response","190","582183","0.0-3.0-2.0-0.1","610710773582677196923746","E1","batch5","","null","<p class=block-text>Trial 2 out of 60</p>","null","spm_show_trial_num","","","","","","","","","","","","","","","","","","","","","","","","",""
"","","","","","image-button-response","191","585069","0.0-3.0-2.0-1.1","610710773582677196923746","E1","batch5","","2882","img/question_1_2.jpeg","4","spm_respsonse","1","5","mat_02","","","","","","1","2882","","","","","","","","","","","","","","",""
"","","","","","html-keyboard-response","192","586131","0.0-3.0-2.0-0.2","610710773582677196923746","E1","batch5","","null","<p class=block-text>Trial 3 out of 60</p>","null","spm_show_trial_num","","","","","","","","","","","","","","","","","","","","","","","","",""
"","","","","","image-button-response","193","592010","0.0-3.0-2.0-1.2","610710773582677196923746","E1","batch5","","5876.699999999255","img/question_1_3.jpeg","0","spm_respsonse","1","1","mat_03","","","","","","1","5876.699999999255","","","","","","","","","","","","","","",""
"","","","","","html-keyboard-response","194","593076","0.0-3.0-2.0-0.3","610710773582677196923746","E1","batch5","","null","<p class=block-text>Trial 4 out of 60</p>","null","spm_show_trial_num","","","","","","","","","","","","","","","","","","","","","","","","",""
"","","","","","image-button-response","195","599890","0.0-3.0-2.0-1.3","610710773582677196923746","E1","batch5","","6810.60000000149","img/question_1_4.jpeg","1","spm_respsonse","1","2","mat_04","","","","","","1","6810.60000000149","","","","","","","","","","","","","","",""
"","","","","","html-keyboard-response","196","600952","0.0-3.0-2.0-0.4","610710773582677196923746","E1","batch5","","null","<p class=block-text>Trial 5 out of 60</p>","null","spm_show_trial_num","","","","","","","","","","","","","","","","","","","","","","","","",""
"","","","","","image-button-response","197","610119","0.0-3.0-2.0-1.4","610710773582677196923746","E1","batch5","","9163","img/question_1_5.jpeg","5","spm_respsonse","1","6","mat_05","","","","","","1","9163","","","","","","","","","","","","","","",""
"","","","","","html-keyboard-response","198","611180","0.0-3.0-2.0-0.5","610710773582677196923746","E1","batch5","","null","<p class=block-text>Trial 6 out of 60</p>","null","spm_show_trial_num","","","","","","","","","","","","","","","","","","","","","","","","",""
"","","","","","image-button-response","199","616649","0.0-3.0-2.0-1.5","610710773582677196923746","E1","batch5","","5464.60000000149","img/question_1_6.jpeg","2","spm_respsonse","1","3","mat_06","","","","","","1","5464.60000000149","","","","","","","","","","","","","","",""
"","","","","","html-keyboard-response","200","617710","0.0-3.0-2.0-0.6","610710773582677196923746","E1","batch5","","null","<p class=block-text>Trial 7 out of 60</p>","null","spm_show_trial_num","","","","","","","","","","","","","","","","","","","","","","","","",""
"","","","","","image-button-response","201","623614","0.0-3.0-2.0-1.6","610710773582677196923746","E1","batch5","","5900","img/question_1_7.jpeg","5","spm_respsonse","1","6","mat_07","","","","","","1","5900","","","","","","","","","","","","","","",""
"","","","","","html-keyboard-response","202","624677","0.0-3.0-2.0-0.7","610710773582677196923746","E1","batch5","","null","<p class=block-text>Trial 8 out of 60</p>","null","spm_show_trial_num","","","","","","","","","","","","","","","","","","","","","","","","",""
"","","","","","image-button-response","203","633882","0.0-3.0-2.0-1.7","610710773582677196923746","E1","batch5","","9201.89999999851","img/question_1_8.jpeg","1","spm_respsonse","1","2","mat_08","","","","","","1","9201.89999999851","","","","","","","","","","","","","","",""
"","","","","","html-keyboard-response","204","634952","0.0-3.0-2.0-0.8","610710773582677196923746","E1","batch5","","null","<p class=block-text>Trial 9 out of 60</p>","null","spm_show_trial_num","","","","","","","","","","","","","","","","","","","","","","","","",""
"","","","","","image-button-response","205","642459","0.0-3.0-2.0-1.8","610710773582677196923746","E1","batch5","","7504.300000000745","img/question_1_9.jpeg","0","spm_respsonse","1","1","mat_09","","","","","","1","7504.300000000745","","","","","","","","","","","","","","",""
"","","","","","html-keyboard-response","206","643525","0.0-3.0-2.0-0.9","610710773582677196923746","E1","batch5","","null","<p class=block-text>Trial 10 out of 60</p>","null","spm_show_trial_num","","","","","","","","","","","","","","","","","","","","","","","","",""
"","","","","","image-button-response","207","655089","0.0-3.0-2.0-1.9","610710773582677196923746","E1","batch5","","11560.699999999255","img/question_1_10.jpeg","2","spm_respsonse","1","3","mat_10","","","","","","1","11560.699999999255","","","","","","","","","","","","","","",""
"","","","","","html-keyboard-response","208","656153","0.0-3.0-2.0-0.10","610710773582677196923746","E1","batch5","","null","<p class=block-text>Trial 11 out of 60</p>","null","spm_show_trial_num","","","","","","","","","","","","","","","","","","","","","","","","",""
"","","","","","image-button-response","209","674526","0.0-3.0-2.0-1.10","610710773582677196923746","E1","batch5","","18369.5","img/question_1_11.jpeg","3","spm_respsonse","1","4","mat_11","","","","","","1","18369.5","","","","","","","","","","","","","","",""
"","","","","","html-keyboard-response","210","675594","0.0-3.0-2.0-0.11","610710773582677196923746","E1","batch5","","null","<p class=block-text>Trial 12 out of 60</p>","null","spm_show_trial_num","","","","","","","","","","","","","","","","","","","","","","","","",""
"","","","","","image-button-response","211","685310","0.0-3.0-2.0-1.11","610710773582677196923746","E1","batch5","","9713.300000000745","img/question_1_12.jpeg","0","spm_respsonse","0","5","mat_12","","","","","","0","9713.300000000745","","","","","","","","","","","","","","",""
"","","","","","html-keyboard-response","212","686368","0.0-3.0-2.0-0.12","610710773582677196923746","E1","batch5","","null","<p class=block-text>Trial 13 out of 60</p>","null","spm_show_trial_num","","","","","","","","","","","","","","","","","","","","","","","","",""
"","","","","","image-button-response","213","688669","0.0-3.0-2.0-1.12","610710773582677196923746","E1","batch5","","2297.800000000745","img/question_2_1.jpeg","1","spm_respsonse","1","2","mat_13","","","","","","1","2297.800000000745","","","","","","","","","","","","","","",""
"","","","","","html-keyboard-response","214","689735","0.0-3.0-2.0-0.13","610710773582677196923746","E1","batch5","","null","<p class=block-text>Trial 14 out of 60</p>","null","spm_show_trial_num","","","","","","","","","","","","","","","","","","","","","","","","",""
"","","","","","image-button-response","215","696869","0.0-3.0-2.0-1.13","610710773582677196923746","E1","batch5","","7130.5","img/question_2_2.jpeg","5","spm_respsonse","1","6","mat_14","","","","","","1","7130.5","","","","","","","","","","","","","","",""
"","","","","","html-keyboard-response","216","697932","0.0-3.0-2.0-0.14","610710773582677196923746","E1","batch5","","null","<p class=block-text>Trial 15 out of 60</p>","null","spm_show_trial_num","","","","","","","","","","","","","","","","","","","","","","","","",""
"","","","","","image-button-response","217","702696","0.0-3.0-2.0-1.14","610710773582677196923746","E1","batch5","","4760","img/question_2_3.jpeg","0","spm_respsonse","1","1","mat_15","","","","","","1","4760","","","","","","","","","","","","","","",""
"","","","","","html-keyboard-response","218","703759","0.0-3.0-2.0-0.15","610710773582677196923746","E1","batch5","","null","<p class=block-text>Trial 16 out of 60</p>","null","spm_show_trial_num","","","","","","","","","","","","","","","","","","","","","","","","",""
"","","","","","image-button-response","219","709157","0.0-3.0-2.0-1.15","610710773582677196923746","E1","batch5","","5395.199999999255","img/question_2_4.jpeg","1","spm_respsonse","1","2","mat_16","","","","","","1","5395.199999999255","","","","","","","","","","","","","","",""
"","","","","","html-keyboard-response","220","710225","0.0-3.0-2.0-0.16","610710773582677196923746","E1","batch5","","null","<p class=block-text>Trial 17 out of 60</p>","null","spm_show_trial_num","","","","","","","","","","","","","","","","","","","","","","","","",""
"","","","","","image-button-response","221","715950","0.0-3.0-2.0-1.16","610710773582677196923746","E1","batch5","","5720.699999999255","img/question_2_5.jpeg","0","spm_respsonse","1","1","mat_17","","","","","","1","5720.699999999255","","","","","","","","","","","","","","",""
"","","","","","html-keyboard-response","222","717008","0.0-3.0-2.0-0.17","610710773582677196923746","E1","batch5","","null","<p class=block-text>Trial 18 out of 60</p>","null","spm_show_trial_num","","","","","","","","","","","","","","","","","","","","","","","","",""
"","","","","","image-button-response","223","722556","0.0-3.0-2.0-1.17","610710773582677196923746","E1","batch5","","5545.20000000298","img/question_2_6.jpeg","2","spm_respsonse","1","3","mat_18","","","","","","1","5545.20000000298","","","","","","","","","","","","","","",""
"","","","","","html-keyboard-response","224","723626","0.0-3.0-2.0-0.18","610710773582677196923746","E1","batch5","","null","<p class=block-text>Trial 19 out of 60</p>","null","spm_show_trial_num","","","","","","","","","","","","","","","","","","","","","","","","",""
"","","","","","image-button-response","225","735833","0.0-3.0-2.0-1.18","610710773582677196923746","E1","batch5","","12203.900000002235","img/question_2_7.jpeg","4","spm_respsonse","1","5","mat_19","","","","","","1","12203.900000002235","","","","","","","","","","","","","","",""
"","","","","","html-keyboard-response","226","736895","0.0-3.0-2.0-0.19","610710773582677196923746","E1","batch5","","null","<p class=block-text>Trial 20 out of 60</p>","null","spm_show_trial_num","","","","","","","","","","","","","","","","","","","","","","","","",""
"","","","","","image-button-response","227","748805","0.0-3.0-2.0-1.19","610710773582677196923746","E1","batch5","","11906.800000000745","img/question_2_8.jpeg","5","spm_respsonse","1","6","mat_20","","","","","","1","11906.800000000745","","","","","","","","","","","","","","",""
"","","","","","html-keyboard-response","228","749876","0.0-3.0-2.0-0.20","610710773582677196923746","E1","batch5","","null","<p class=block-text>Trial 21 out of 60</p>","null","spm_show_trial_num","","","","","","","","","","","","","","","","","","","","","","","","",""
"","","","","","image-button-response","229","761606","0.0-3.0-2.0-1.20","610710773582677196923746","E1","batch5","","11726.5","img/question_2_9.jpeg","3","spm_respsonse","1","4","mat_21","","","","","","1","11726.5","","","","","","","","","","","","","","",""
"","","","","","html-keyboard-response","230","762671","0.0-3.0-2.0-0.21","610710773582677196923746","E1","batch5","","null","<p class=block-text>Trial 22 out of 60</p>","null","spm_show_trial_num","","","","","","","","","","","","","","","","","","","","","","","","",""
"","","","","","image-button-response","231","767870","0.0-3.0-2.0-1.21","610710773582677196923746","E1","batch5","","5196.199999999255","img/question_2_10.jpeg","2","spm_respsonse","1","3","mat_22","","","","","","1","5196.199999999255","","","","","","","","","","","","","","",""
"","","","","","html-keyboard-response","232","768929","0.0-3.0-2.0-0.22","610710773582677196923746","E1","batch5","","null","<p class=block-text>Trial 23 out of 60</p>","null","spm_show_trial_num","","","","","","","","","","","","","","","","","","","","","","","","",""
"","","","","","image-button-response","233","778731","0.0-3.0-2.0-1.22","610710773582677196923746","E1","batch5","","9798.800000000745","img/question_2_11.jpeg","5","spm_respsonse","0","4","mat_23","","","","","","0","9798.800000000745","","","","","","","","","","","","","","",""
"","","","","","html-keyboard-response","234","779796","0.0-3.0-2.0-0.23","610710773582677196923746","E1","batch5","","null","<p class=block-text>Trial 24 out of 60</p>","null","spm_show_trial_num","","","","","","","","","","","","","","","","","","","","","","","","",""
"","","","","","image-button-response","235","790474","0.0-3.0-2.0-1.23","610710773582677196923746","E1","batch5","","10674.10000000149","img/question_2_12.jpeg","4","spm_respsonse","1","5","mat_24","","","","","","1","10674.10000000149","","","","","","","","","","","","","","",""
"","","","","","html-button-response","236","793078","0.0-3.0-3.0","610710773582677196923746","E1","batch5","","2342.5","<p class = block-text>Attention check: Please choose 1<br></p>","0","attention_check","true","","","","","","","","","","","","","","","","","","","","","","","",""
"","","","","","html-keyboard-response","237","793885","0.0-3.0-4.0-0.0","610710773582677196923746","E1","batch5","","null","<p class=block-text>Trial 25 out of 60</p>","null","spm_show_trial_num","","","","","","","","","","","","","","","","","","","","","","","","",""
"","","","","","image-button-response","238","804327","0.0-3.0-4.0-1.0","610710773582677196923746","E1","batch5","","10439","img/question_3_1.jpeg","7","spm_respsonse","1","8","mat_25","","","","","","1","10439","","","","","","","","","","","","","","",""
"","","","","","html-keyboard-response","239","805414","0.0-3.0-4.0-0.1","610710773582677196923746","E1","batch5","","null","<p class=block-text>Trial 26 out of 60</p>","null","spm_show_trial_num","","","","","","","","","","","","","","","","","","","","","","","","",""
"","","","","","image-button-response","240","815669","0.0-3.0-4.0-1.1","610710773582677196923746","E1","batch5","","10249.29999999702","img/question_3_2.jpeg","1","spm_respsonse","1","2","mat_26","","","","","","1","10249.29999999702","","","","","","","","","","","","","","",""
"","","","","","html-keyboard-response","241","816734","0.0-3.0-4.0-0.2","610710773582677196923746","E1","batch5","","null","<p class=block-text>Trial 27 out of 60</p>","null","spm_show_trial_num","","","","","","","","","","","","","","","","","","","","","","","","",""
"","","","","","image-button-response","242","825608","0.0-3.0-4.0-1.2","610710773582677196923746","E1","batch5","","8869.900000002235","img/question_3_3.jpeg","2","spm_respsonse","1","3","mat_27","","","","","","1","8869.900000002235","","","","","","","","","","","","","","",""
"","","","","","html-keyboard-response","243","826679","0.0-3.0-4.0-0.3","610710773582677196923746","E1","batch5","","null","<p class=block-text>Trial 28 out of 60</p>","null","spm_show_trial_num","","","","","","","","","","","","","","","","","","","","","","","","",""
"","","","","","image-button-response","244","848665","0.0-3.0-4.0-1.3","610710773582677196923746","E1","batch5","","21981.900000002235","img/question_3_4.jpeg","7","spm_respsonse","1","8","mat_28","","","","","","1","21981.900000002235","","","","","","","","","","","","","","",""
"","","","","","html-keyboard-response","245","849730","0.0-3.0-4.0-0.4","610710773582677196923746","E1","batch5","","null","<p class=block-text>Trial 29 out of 60</p>","null","spm_show_trial_num","","","","","","","","","","","","","","","","","","","","","","","","",""
"","","","","","image-button-response","246","865622","0.0-3.0-4.0-1.4","610710773582677196923746","E1","batch5","","15888.5","img/question_3_5.jpeg","6","spm_respsonse","1","7","mat_29","","","","","","1","15888.5","","","","","","","","","","","","","","",""
"","","","","","html-keyboard-response","247","866688","0.0-3.0-4.0-0.5","610710773582677196923746","E1","batch5","","null","<p class=block-text>Trial 30 out of 60</p>","null","spm_show_trial_num","","","","","","","","","","","","","","","","","","","","","","","","",""
"","","","","","image-button-response","248","882447","0.0-3.0-4.0-1.5","610710773582677196923746","E1","batch5","","15755.800000000745","img/question_3_6.jpeg","3","spm_respsonse","1","4","mat_30","","","","","","1","15755.800000000745","","","","","","","","","","","","","","",""
"","","","","","html-keyboard-response","249","883511","0.0-3.0-4.0-0.6","610710773582677196923746","E1","batch5","","null","<p class=block-text>Trial 31 out of 60</p>","null","spm_show_trial_num","","","","","","","","","","","","","","","","","","","","","","","","",""
"","","","","","image-button-response","250","892932","0.0-3.0-4.0-1.6","610710773582677196923746","E1","batch5","","9417.699999999255","img/question_3_7.jpeg","4","spm_respsonse","1","5","mat_31","","","","","","1","9417.699999999255","","","","","","","","","","","","","","",""
"","","","","","html-keyboard-response","251","894001","0.0-3.0-4.0-0.7","610710773582677196923746","E1","batch5","","null","<p class=block-text>Trial 32 out of 60</p>","null","spm_show_trial_num","","","","","","","","","","","","","","","","","","","","","","","","",""
"","","","","","image-button-response","252","942517","0.0-3.0-4.0-1.7","610710773582677196923746","E1","batch5","","48511.39999999851","img/question_3_8.jpeg","5","spm_respsonse","0","1","mat_32","","","","","","0","48511.39999999851","","","","","","","","","","","","","","",""
"","","","","","html-keyboard-response","253","943583","0.0-3.0-4.0-0.8","610710773582677196923746","E1","batch5","","null","<p class=block-text>Trial 33 out of 60</p>","null","spm_show_trial_num","","","","","","","","","","","","","","","","","","","","","","","","",""
"","","","","","image-button-response","254","957130","0.0-3.0-4.0-1.8","610710773582677196923746","E1","batch5","","13535.199999999255","img/question_3_9.jpeg","6","spm_respsonse","1","7","mat_33","","","","","","1","13535.199999999255","","","","","","","","","","","","","","",""
"","","","","","html-keyboard-response","255","958192","0.0-3.0-4.0-0.9","610710773582677196923746","E1","batch5","","null","<p class=block-text>Trial 34 out of 60</p>","null","spm_show_trial_num","","","","","","","","","","","","","","","","","","","","","","","","",""
"","","","","","image-button-response","256","997870","0.0-3.0-4.0-1.9","610710773582677196923746","E1","batch5","","39665.70000000298","img/question_3_10.jpeg","1","spm_respsonse","0","6","mat_34","","","","","","0","39665.70000000298","","","","","","","","","","","","","","",""
"","","","","","html-keyboard-response","257","998939","0.0-3.0-4.0-0.10","610710773582677196923746","E1","batch5","","null","<p class=block-text>Trial 35 out of 60</p>","null","spm_show_trial_num","","","","","","","","","","","","","","","","","","","","","","","","",""
"","","","","","image-button-response","258","1031112","0.0-3.0-4.0-1.10","610710773582677196923746","E1","batch5","","32168.199999999255","img/question_3_11.jpeg","0","spm_respsonse","1","1","mat_35","","","","","","1","32168.199999999255","","","","","","","","","","","","","","",""
"","","","","","html-keyboard-response","259","1032181","0.0-3.0-4.0-0.11","610710773582677196923746","E1","batch5","","null","<p class=block-text>Trial 36 out of 60</p>","null","spm_show_trial_num","","","","","","","","","","","","","","","","","","","","","","","","",""
"","","","","","image-button-response","260","1080196","0.0-3.0-4.0-1.11","610710773582677196923746","E1","batch5","","48007.900000002235","img/question_3_12.jpeg","1","spm_respsonse","1","2","mat_36","","","","","","1","48007.900000002235","","","","","","","","","","","","","","",""
"","","","","","html-keyboard-response","261","1081253","0.0-3.0-4.0-0.12","610710773582677196923746","E1","batch5","","null","<p class=block-text>Trial 37 out of 60</p>","null","spm_show_trial_num","","","","","","","","","","","","","","","","","","","","","","","","",""
"","","","","","image-button-response","262","1086199","0.0-3.0-4.0-1.12","610710773582677196923746","E1","batch5","","4941.89999999851","img/question_4_1.jpeg","2","spm_respsonse","1","3","mat_37","","","","","","1","4941.89999999851","","","","","","","","","","","","","","",""
"","","","","","html-keyboard-response","263","1087261","0.0-3.0-4.0-0.13","610710773582677196923746","E1","batch5","","null","<p class=block-text>Trial 38 out of 60</p>","null","spm_show_trial_num","","","","","","","","","","","","","","","","","","","","","","","","",""
"","","","","","image-button-response","264","1094391","0.0-3.0-4.0-1.13","610710773582677196923746","E1","batch5","","7126.699999999255","img/question_4_2.jpeg","3","spm_respsonse","1","4","mat_38","","","","","","1","7126.699999999255","","","","","","","","","","","","","","",""
"","","","","","html-keyboard-response","265","1095452","0.0-3.0-4.0-0.14","610710773582677196923746","E1","batch5","","null","<p class=block-text>Trial 39 out of 60</p>","null","spm_show_trial_num","","","","","","","","","","","","","","","","","","","","","","","","",""
"","","","","","image-button-response","266","1111018","0.0-3.0-4.0-1.14","610710773582677196923746","E1","batch5","","15562.300000000745","img/question_4_3.jpeg","2","spm_respsonse","1","3","mat_39","","","","","","1","15562.300000000745","","","","","","","","","","","","","","",""
"","","","","","html-keyboard-response","267","1112083","0.0-3.0-4.0-0.15","610710773582677196923746","E1","batch5","","null","<p class=block-text>Trial 40 out of 60</p>","null","spm_show_trial_num","","","","","","","","","","","","","","","","","","","","","","","","",""
"","","","","","image-button-response","268","1124876","0.0-3.0-4.0-1.15","610710773582677196923746","E1","batch5","","12789.199999999255","img/question_4_4.jpeg","6","spm_respsonse","1","7","mat_40","","","","","","1","12789.199999999255","","","","","","","","","","","","","","",""
"","","","","","html-keyboard-response","269","1125937","0.0-3.0-4.0-0.16","610710773582677196923746","E1","batch5","","null","<p class=block-text>Trial 41 out of 60</p>","null","spm_show_trial_num","","","","","","","","","","","","","","","","","","","","","","","","",""
"","","","","","image-button-response","270","1132000","0.0-3.0-4.0-1.16","610710773582677196923746","E1","batch5","","6057.800000000745","img/question_4_5.jpeg","7","spm_respsonse","1","8","mat_41","","","","","","1","6057.800000000745","","","","","","","","","","","","","","",""
"","","","","","html-keyboard-response","271","1133058","0.0-3.0-4.0-0.17","610710773582677196923746","E1","batch5","","null","<p class=block-text>Trial 42 out of 60</p>","null","spm_show_trial_num","","","","","","","","","","","","","","","","","","","","","","","","",""
"","","","","","image-button-response","272","1144296","0.0-3.0-4.0-1.17","610710773582677196923746","E1","batch5","","11232.800000000745","img/question_4_6.jpeg","5","spm_respsonse","1","6","mat_42","","","","","","1","11232.800000000745","","","","","","","","","","","","","","",""
"","","","","","html-keyboard-response","273","1145357","0.0-3.0-4.0-0.18","610710773582677196923746","E1","batch5","","null","<p class=block-text>Trial 43 out of 60</p>","null","spm_show_trial_num","","","","","","","","","","","","","","","","","","","","","","","","",""
"","","","","","image-button-response","274","1163163","0.0-3.0-4.0-1.18","610710773582677196923746","E1","batch5","","17800.5","img/question_4_7.jpeg","4","spm_respsonse","1","5","mat_43","","","","","","1","17800.5","","","","","","","","","","","","","","",""
"","","","","","html-keyboard-response","275","1164227","0.0-3.0-4.0-0.19","610710773582677196923746","E1","batch5","","null","<p class=block-text>Trial 44 out of 60</p>","null","spm_show_trial_num","","","","","","","","","","","","","","","","","","","","","","","","",""
"","","","","","image-button-response","276","1175202","0.0-3.0-4.0-1.19","610710773582677196923746","E1","batch5","","10970.60000000149","img/question_4_8.jpeg","3","spm_respsonse","1","4","mat_44","","","","","","1","10970.60000000149","","","","","","","","","","","","","","",""
"","","","","","html-keyboard-response","277","1176265","0.0-3.0-4.0-0.20","610710773582677196923746","E1","batch5","","null","<p class=block-text>Trial 45 out of 60</p>","null","spm_show_trial_num","","","","","","","","","","","","","","","","","","","","","","","","",""
"","","","","","image-button-response","278","1199155","0.0-3.0-4.0-1.20","610710773582677196923746","E1","batch5","","22886.199999999255","img/question_4_9.jpeg","0","spm_respsonse","1","1","mat_45","","","","","","1","22886.199999999255","","","","","","","","","","","","","","",""
"","","","","","html-keyboard-response","279","1200217","0.0-3.0-4.0-0.21","610710773582677196923746","E1","batch5","","null","<p class=block-text>Trial 46 out of 60</p>","null","spm_show_trial_num","","","","","","","","","","","","","","","","","","","","","","","","",""
"","","","","","image-button-response","280","1211580","0.0-3.0-4.0-1.21","610710773582677196923746","E1","batch5","","11358.60000000149","img/question_4_10.jpeg","4","spm_respsonse","0","2","mat_46","","","","","","0","11358.60000000149","","","","","","","","","","","","","","",""
"","","","","","html-keyboard-response","281","1212646","0.0-3.0-4.0-0.22","610710773582677196923746","E1","batch5","","null","<p class=block-text>Trial 47 out of 60</p>","null","spm_show_trial_num","","","","","","","","","","","","","","","","","","","","","","","","",""
"","","","","","image-button-response","282","1239471","0.0-3.0-4.0-1.22","610710773582677196923746","E1","batch5","","26820.699999999255","img/question_4_11.jpeg","7","spm_respsonse","0","5","mat_47","","","","","","0","26820.699999999255","","","","","","","","","","","","","","",""
"","","","","","html-keyboard-response","283","1240528","0.0-3.0-4.0-0.23","610710773582677196923746","E1","batch5","","null","<p class=block-text>Trial 48 out of 60</p>","null","spm_show_trial_num","","","","","","","","","","","","","","","","","","","","","","","","",""
"","","","","","image-button-response","284","1279483","0.0-3.0-4.0-1.23","610710773582677196923746","E1","batch5","","38950.199999999255","img/question_4_12.jpeg","6","spm_respsonse","0","6","mat_48","","","","","","0","38950.199999999255","","","","","","","","","","","","","","",""
"","","","","","html-keyboard-response","285","1280549","0.0-3.0-4.0-0.24","610710773582677196923746","E1","batch5","","null","<p class=block-text>Trial 49 out of 60</p>","null","spm_show_trial_num","","","","","","","","","","","","","","","","","","","","","","","","",""
"","","","","","image-button-response","286","1300738","0.0-3.0-4.0-1.24","610710773582677196923746","E1","batch5","","20184.800000000745","img/question_5_1.jpeg","0","spm_respsonse","0","7","mat_49","","","","","","0","20184.800000000745","","","","","","","","","","","","","","",""
"","","","","","html-keyboard-response","287","1301797","0.0-3.0-4.0-0.25","610710773582677196923746","E1","batch5","","null","<p class=block-text>Trial 50 out of 60</p>","null","spm_show_trial_num","","","","","","","","","","","","","","","","","","","","","","","","",""
"","","","","","image-button-response","288","1340989","0.0-3.0-4.0-1.25","610710773582677196923746","E1","batch5","","39188.199999999255","img/question_5_2.jpeg","2","spm_respsonse","0","6","mat_50","","","","","","0","39188.199999999255","","","","","","","","","","","","","","",""
"","","","","","html-keyboard-response","289","1342052","0.0-3.0-4.0-0.26","610710773582677196923746","E1","batch5","","null","<p class=block-text>Trial 51 out of 60</p>","null","spm_show_trial_num","","","","","","","","","","","","","","","","","","","","","","","","",""
"","","","","","image-button-response","290","1384236","0.0-3.0-4.0-1.26","610710773582677196923746","E1","batch5","","42179.599999997765","img/question_5_3.jpeg","7","spm_respsonse","1","8","mat_51","","","","","","1","42179.599999997765","","","","","","","","","","","","","","",""
"","","","","","html-keyboard-response","291","1385302","0.0-3.0-4.0-0.27","610710773582677196923746","E1","batch5","","null","<p class=block-text>Trial 52 out of 60</p>","null","spm_show_trial_num","","","","","","","","","","","","","","","","","","","","","","","","",""
"","","","","","image-button-response","292","1421569","0.0-3.0-4.0-1.27","610710773582677196923746","E1","batch5","","36262.5","img/question_5_4.jpeg","2","spm_respsonse","0","2","mat_52","","","","","","0","36262.5","","","","","","","","","","","","","","",""
"","","","","","html-keyboard-response","293","1422629","0.0-3.0-4.0-0.28","610710773582677196923746","E1","batch5","","null","<p class=block-text>Trial 53 out of 60</p>","null","spm_show_trial_num","","","","","","","","","","","","","","","","","","","","","","","","",""
"","","","","","image-button-response","294","1433363","0.0-3.0-4.0-1.28","610710773582677196923746","E1","batch5","","10730.099999997765","img/question_5_5.jpeg","0","spm_respsonse","1","1","mat_53","","","","","","1","10730.099999997765","","","","","","","","","","","","","","",""
"","","","","","html-keyboard-response","295","1434432","0.0-3.0-4.0-0.29","610710773582677196923746","E1","batch5","","null","<p class=block-text>Trial 54 out of 60</p>","null","spm_show_trial_num","","","","","","","","","","","","","","","","","","","","","","","","",""
"","","","","","image-button-response","296","1477938","0.0-3.0-4.0-1.29","610710773582677196923746","E1","batch5","","43501.300000000745","img/question_5_6.jpeg","3","spm_respsonse","0","5","mat_54","","","","","","0","43501.300000000745","","","","","","","","","","","","","","",""
"","","","","","html-keyboard-response","297","1478999","0.0-3.0-4.0-0.30","610710773582677196923746","E1","batch5","","null","<p class=block-text>Trial 55 out of 60</p>","null","spm_show_trial_num","","","","","","","","","","","","","","","","","","","","","","","","",""
"","","","","","image-button-response","298","1506483","0.0-3.0-4.0-1.30","610710773582677196923746","E1","batch5","","27480.199999999255","img/question_5_7.jpeg","3","spm_respsonse","0","1","mat_55","","","","","","0","27480.199999999255","","","","","","","","","","","","","","",""
"","","","","","html-keyboard-response","299","1507545","0.0-3.0-4.0-0.31","610710773582677196923746","E1","batch5","","null","<p class=block-text>Trial 56 out of 60</p>","null","spm_show_trial_num","","","","","","","","","","","","","","","","","","","","","","","","",""
"","","","","","image-button-response","300","1546302","0.0-3.0-4.0-1.31","610710773582677196923746","E1","batch5","","38751.800000000745","img/question_5_8.jpeg","3","spm_respsonse","0","6","mat_56","","","","","","0","38751.800000000745","","","","","","","","","","","","","","",""
"","","","","","html-keyboard-response","301","1547371","0.0-3.0-4.0-0.32","610710773582677196923746","E1","batch5","","null","<p class=block-text>Trial 57 out of 60</p>","null","spm_show_trial_num","","","","","","","","","","","","","","","","","","","","","","","","",""
"","","","","","image-button-response","302","1568869","0.0-3.0-4.0-1.32","610710773582677196923746","E1","batch5","","21493.699999999255","img/question_5_9.jpeg","7","spm_respsonse","0","3","mat_57","","","","","","0","21493.699999999255","","","","","","","","","","","","","","",""
"","","","","","html-keyboard-response","303","1569926","0.0-3.0-4.0-0.33","610710773582677196923746","E1","batch5","","null","<p class=block-text>Trial 58 out of 60</p>","null","spm_show_trial_num","","","","","","","","","","","","","","","","","","","","","","","","",""
"","","","","","image-button-response","304","1611074","0.0-3.0-4.0-1.33","610710773582677196923746","E1","batch5","","41143.699999999255","img/question_5_10.jpeg","6","spm_respsonse","0","2","mat_58","","","","","","0","41143.699999999255","","","","","","","","","","","","","","",""
"","","","","","html-keyboard-response","305","1612140","0.0-3.0-4.0-0.34","610710773582677196923746","E1","batch5","","null","<p class=block-text>Trial 59 out of 60</p>","null","spm_show_trial_num","","","","","","","","","","","","","","","","","","","","","","","","",""
"","","","","","image-button-response","306","1647551","0.0-3.0-4.0-1.34","610710773582677196923746","E1","batch5","","35406.10000000149","img/question_5_11.jpeg","2","spm_respsonse","0","4","mat_59","","","","","","0","35406.10000000149","","","","","","","","","","","","","","",""
"","","","","","html-keyboard-response","307","1648614","0.0-3.0-4.0-0.35","610710773582677196923746","E1","batch5","","null","<p class=block-text>Trial 60 out of 60</p>","null","spm_show_trial_num","","","","","","","","","","","","","","","","","","","","","","","","",""
"","","","","","image-button-response","308","1669714","0.0-3.0-4.0-1.35","610710773582677196923746","E1","batch5","","21096.199999999255","img/question_5_12.jpeg","0","spm_respsonse","0","5","mat_60","","","","","","0","21096.199999999255","","","","","","","","","","","","","","",""
"","","","","","html-button-response","309","1672748","0.0-3.0-5.0","610710773582677196923746","E1","batch5","","2769.5","<p class= block-text>This concludes the Standard Progressive Matrix game. Thank you for your responses!<br> When you are ready, click the button continue</p>","0","spm_goodbye","","","","","","","","","","","","","","","","","","","","","","","","",""
"true","","","","","fullscreen","310","1677303","0.0-4.0-0.0","610710773582677196923746","E1","batch5","","","","","","","","","","","","","","","","","","","","","","","","","","","","","",""
"","","","","","instructions","311","1740028","0.0-4.0-1.0-0.0-0.0","610710773582677196923746","E1","batch5","[{""page_index"":0,""viewing_time"":9191.300000000745},{""page_index"":1,""viewing_time"":9498.79999999702},{""page_index"":2,""viewing_time"":7269.60000000149},{""page_index"":3,""viewing_time"":10419.699999999255},{""page_index"":4,""viewing_time"":8436.199999999255},{""page_index"":5,""viewing_time"":14671.70000000298},{""page_index"":6,""viewing_time"":3233.699999999255}]","62721.599999997765","","","tol-instructions","","","","","","","","","","","","","","","","","","","","","","","","",""
"","","","","","html-button-response","312","1741166","0.0-4.0-1.0-1.0-0.0","610710773582677196923746","E1","batch5","","1136.0999999977648","<p class=block-text> Let's answer a few questions <br>","0","tol_enter_quiz","","","","","","","","","","","","","","","","","","","","","","","","",""
"","","","","","html-button-response","313","1746877","0.0-4.0-1.0-1.0-1.0","610710773582677196923746","E1","batch5","","5708.199999999255","<p class = block-text>True or False: You can only move the ball on top of a peg. <br></p>","0","tol_quiz","true","","","","","","","","","","","","","","","","","","","","","","","",""
"","","","","","html-button-response","314","1749005","0.0-4.0-1.0-1.0-2.0","610710773582677196923746","E1","batch5","","2126","<p class = block-text>Correct! You can only move the ball on top of a peg.</p>","0","tol_quiz_feedback","","","","","","","","","","","","","","","","","","","","","","","","",""
"","","","","","html-button-response","315","1752404","0.0-4.0-1.0-1.0-3.0","610710773582677196923746","E1","batch5","","3396.800000000745","<p class = block-text>True or False: You should try to match your board with the target board with fewest moves possible. <br></p>","0","tol_quiz","true","","","","","","","","","","","","","","","","","","","","","","","",""
"","","","","","html-button-response","316","1753454","0.0-4.0-1.0-1.0-4.0","610710773582677196923746","E1","batch5","","1047.3999999985099","<p class = block-text>Correct! </p>","0","tol_quiz_feedback","","","","","","","","","","","","","","","","","","","","","","","","",""
"","","","","","html-button-response","317","1754900","0.0-4.0-2.0","610710773582677196923746","E1","batch5","","1442.8999999985099","<p class=block-text> Now that you've understood the game, let's practice a few easier examples before we start!<br> <br>","0","","","","","","","","","","","","","","","","","","","","","","","","","",""
"","","","","","single-stim-button","318","1756956","0.0-4.0-3.0-0.0","610710773582677196923746","E1","batch5","","2051","","","tol_practice","","","","","","","","","","","tol_peg_2","2051","2051","0","[[1,2,0],[0,0],[0]]","1","[[1,2,0],[0,0],[3]]","practice","2051","","","","","",""
"","","","","","single-stim-button","319","1758724","0.0-4.0-3.0-1.0","610710773582677196923746","E1","batch5","","1766","","","tol_practice","","","","","","","","","","","tol_peg_3","1766","1766","0","[[1,2,0],[0,0],[3]]","1","[[1,2,0],[0,0],[3]]","practice","1766","","","","","",""
"","","","","","poldrack-single-stim","320","1759737","0.0-4.0-4.0","610710773582677196923746","E1","batch5","","-1","","","tol_feedback","true","","","","","","","","","","","1000","1000","500","","","","","","-1","none","true","","0",""
"","","","","","single-stim-button","321","1763292","0.0-4.0-5.0-0.0","610710773582677196923746","E1","batch5","","3554","","","tol_practice","","","","","","","","","","","tol_peg_1","3554","3554","0","[[1,0,0],[3,0],[0]]","2","[[0,0,0],[3,1],[2]]","practice","3554","","","","","",""
"","","","","","single-stim-button","322","1764610","0.0-4.0-5.0-1.0","610710773582677196923746","E1","batch5","","1317","","","tol_practice","","","","","","","","","","","tol_peg_3","1317","1317","0","[[1,0,0],[3,0],[2]]","2","[[0,0,0],[3,1],[2]]","practice","1317","","","","","",""
"","","","","","single-stim-button","323","1765837","0.0-4.0-5.1-0.1","610710773582677196923746","E1","batch5","","1225","","","tol_practice","","","","","","","","","","","tol_peg_1","1225","1225","0","[[0,0,0],[3,0],[2]]","3","[[0,0,0],[3,1],[2]]","practice","1225","","","","","",""
"","","","","","single-stim-button","324","1766846","0.0-4.0-5.1-1.1","610710773582677196923746","E1","batch5","","1008","","","tol_practice","","","","","","","","","","","tol_peg_2","1008","1008","0","[[0,0,0],[3,1],[2]]","3","[[0,0,0],[3,1],[2]]","practice","1008","","","","","",""
"","","","","","poldrack-single-stim","325","1767853","0.0-4.0-6.0","610710773582677196923746","E1","batch5","","-1","","","tol_feedback","true","","","","","","","","","","","1000","1000","500","","","","","","-1","none","true","","0",""
"","","","","","single-stim-button","326","1771155","0.0-4.0-7.0-0.0","610710773582677196923746","E1","batch5","","3300","","","tol_practice","","","","","","","","","","","tol_peg_2","3300","3300","0","[[1,2,0],[0,0],[0]]","4","[[1,0,0],[2,0],[3]]","practice","3300","","","","","",""
"","","","","","single-stim-button","327","1772084","0.0-4.0-7.0-1.0","610710773582677196923746","E1","batch5","","928","","","tol_practice","","","","","","","","","","","tol_peg_3","928","928","0","[[1,2,0],[0,0],[3]]","4","[[1,0,0],[2,0],[3]]","practice","928","","","","","",""
"","","","","","single-stim-button","328","1773155","0.0-4.0-7.1-0.1","610710773582677196923746","E1","batch5","","1069","","","tol_practice","","","","","","","","","","","tol_peg_1","1069","1069","0","[[1,0,0],[0,0],[3]]","5","[[1,0,0],[2,0],[3]]","practice","1069","","","","","",""
"","","","","","single-stim-button","329","1774589","0.0-4.0-7.1-1.1","610710773582677196923746","E1","batch5","","1432","","","tol_practice","","","","","","","","","","","tol_peg_2","1432","1432","0","[[1,0,0],[2,0],[3]]","5","[[1,0,0],[2,0],[3]]","practice","1432","","","","","",""
"","","","","","poldrack-single-stim","330","1775595","0.0-4.0-8.0","610710773582677196923746","E1","batch5","","-1","","","tol_feedback","true","","","","","","","","","","","1000","1000","500","","","","","","-1","none","true","","0",""
"","","","","","html-button-response","331","1779453","0.0-4.0-9.0","610710773582677196923746","E1","batch5","","3855.7999999970198","<div class = centerbox><p class = center-block-text>Great job! You are done with practice trials<br>You are about to start official trials.<br> <br> Problem <strong>1</strong> out of 25 problems</p></div>","0","tol_instruction","","","","","","","","","","","","","","","","","","","","","","","","",""
"","","","","","single-stim-button","332","1785232","0.0-4.0-10.0-0.0","610710773582677196923746","E1","batch5","","4775","","","tol_tohand","","","","","","","","","","","tol_peg_1","4775","4775","0","[[1,0,0],[3,0],[0]]","1","[[1,3,0],[2,0],[0]]","0","0","","","","","","3"
"","","","","","single-stim-button","333","1787091","0.0-4.0-10.0-1.0","610710773582677196923746","E1","batch5","","1857","","","tol_toboard","","","","","","","","","","","tol_peg_3","1857","1857","0","[[1,0,0],[3,0],[2]]","1","[[1,3,0],[2,0],[0]]","0","0","","","","","","3"
"","","","","","single-stim-button","334","1787941","0.0-4.0-10.1-0.1","610710773582677196923746","E1","batch5","","847","","","tol_tohand","","","","","","","","","","","tol_peg_2","847","847","0","[[1,0,0],[0,0],[2]]","2","[[1,3,0],[2,0],[0]]","0","0","","","","","","3"
"","","","","","single-stim-button","335","1788786","0.0-4.0-10.1-1.1","610710773582677196923746","E1","batch5","","844","","","tol_toboard","","","","","","","","","","","tol_peg_1","844","844","0","[[1,3,0],[0,0],[2]]","2","[[1,3,0],[2,0],[0]]","0","0","","","","","","3"
"","","","","","single-stim-button","336","1789867","0.0-4.0-10.2-0.2","610710773582677196923746","E1","batch5","","1080","","","tol_tohand","","","","","","","","","","","tol_peg_3","1080","1080","0","[[1,3,0],[0,0],[0]]","3","[[1,3,0],[2,0],[0]]","0","0","","","","","","3"
"","","","","","single-stim-button","337","1790757","0.0-4.0-10.2-1.2","610710773582677196923746","E1","batch5","","889","","","tol_toboard","","","","","","","","","","","tol_peg_2","889","889","0","[[1,3,0],[2,0],[0]]","3","[[1,3,0],[2,0],[0]]","0","0","","","","","","3"
"","","","","","poldrack-single-stim","338","1791764","0.0-4.0-11.0","610710773582677196923746","E1","batch5","","-1","","","tol_feedback","true","","","","","","","","","","","1000","1000","500","","","","","","-1","none","true","4775","6702",""
"","","","","","html-button-response","339","1792929","0.0-4.0-12.0","610710773582677196923746","E1","batch5","","1163.199999999255","<div class = centerbox><p class = center-block-text>problem <strong>2</strong> out of 25 problems</p></div>","0","tol_trial_num","","","","","","","","","","","","","","","","","","","","","","","","",""
"","","","","","single-stim-button","340","1797421","0.0-4.0-13.0-0.0","610710773582677196923746","E1","batch5","","4490","","","tol_tohand","","","","","","","","","","","tol_peg_1","4490","4490","0","[[1,0,0],[3,0],[0]]","1","[[2,1,3],[0,0],[0]]","1","0","","","","","","5"
"","","","","","single-stim-button","341","1799680","0.0-4.0-13.0-1.0","610710773582677196923746","E1","batch5","","2257","","","tol_toboard","","","","","","","","","","","tol_peg_3","2257","2257","0","[[1,0,0],[3,0],[2]]","1","[[2,1,3],[0,0],[0]]","1","0","","","","","","5"
"","","","","","single-stim-button","342","1801151","0.0-4.0-13.1-0.1","610710773582677196923746","E1","batch5","","1468","","","tol_tohand","","","","","","","","","","","tol_peg_1","1468","1468","0","[[0,0,0],[3,0],[2]]","2","[[2,1,3],[0,0],[0]]","1","0","","","","","","5"
"","","","","","single-stim-button","343","1802537","0.0-4.0-13.1-1.1","610710773582677196923746","E1","batch5","","1384","","","tol_toboard","","","","","","","","","","","tol_peg_2","1384","1384","0","[[0,0,0],[3,1],[2]]","2","[[2,1,3],[0,0],[0]]","1","0","","","","","","5"
"","","","","","single-stim-button","344","1804761","0.0-4.0-13.2-0.2","610710773582677196923746","E1","batch5","","2223","","","tol_tohand","","","","","","","","","","","tol_peg_3","2223","2223","0","[[0,0,0],[3,1],[0]]","3","[[2,1,3],[0,0],[0]]","1","0","","","","","","5"
"","","","","","single-stim-button","345","1805835","0.0-4.0-13.2-1.2","610710773582677196923746","E1","batch5","","1073","","","tol_toboard","","","","","","","","","","","tol_peg_1","1073","1073","0","[[2,0,0],[3,1],[0]]","3","[[2,1,3],[0,0],[0]]","1","0","","","","","","5"
"","","","","","single-stim-button","346","1806981","0.0-4.0-13.3-0.3","610710773582677196923746","E1","batch5","","1144","","","tol_tohand","","","","","","","","","","","tol_peg_2","1144","1144","0","[[2,0,0],[3,0],[0]]","4","[[2,1,3],[0,0],[0]]","1","0","","","","","","5"
