"success","timeout","failed_images","failed_audio","failed_video","trial_type","trial_index","time_elapsed","internal_node_id","subject_id","study_id","session_id","task","rt","stimulus","response","item","answer","correct","spm_correct","spm_rt","view_history","mouse_click","stim_duration","block_duration","timing_post_trial","current_position","tol_num_moves_made","tol_target","tol_problem_id","tol_rt","key_press","possible_responses","tol_correct","preplanning","tol_rt_per_trial","tol_min_moves","fiar_detect_rt","fiar_detect_correct","total_correct_fiar_detect","post_trial_gap","choices"
"true","false","[]","[]","[]","preload","0","802","0.0-0.0","610840a82c975dee030ea34d","C3","batch3","","","","","","","","","","","","","","","","","","","","","","","","","","","","","",""
"true","","","","","fullscreen","1","12007","0.0-1.0-0.0","610840a82c975dee030ea34d","C3","batch3","","","","","","","","","","","","","","","","","","","","","","","","","","","","","",""
"true","","","","","fullscreen","2","18149","0.0-2.0-0.0","610840a82c975dee030ea34d","C3","batch3","spm_fullscreen","","","","","","","","","","","","","","","","","","","","","","","","","","","","",""
"","","","","","html-button-response","3","32143","0.0-2.0-1.0","610840a82c975dee030ea34d","C3","batch3","","13991.5","<p class = block-text><b>Instructions</b> <br>This is a widely used intelligence test in research. <br>In this test, a figure with a missing piece will be presented.<br>Below the figure are alternative pieces to complete the figure, only one of which is correct.<br> Different figures might involve different principles for obtaining the missing piece<br>Your job is to select the most logical piece to complete the figure.</p>","0","","","","","","","","","","","","","","","","","","","","","","","","","",""
"","","","","","html-keyboard-response","4","32948","0.0-2.0-2.0-0.0","610840a82c975dee030ea34d","C3","batch3","spm_show_trial_num","null","<p class=block-text>Trial 1 out of 60</p>","null","","","","","","","","","","","","","","","","","","","","","","","","","",""
"","","","","","image-button-response","5","38226","0.0-2.0-2.0-1.0","610840a82c975dee030ea34d","C3","batch3","spm_respsonse","5264.899999976158","img/question_1_1.jpeg","3","mat_01","4","1","1","5264.899999976158","","","","","","","","","","","","","","","","","","","","",""
"","","","","","html-keyboard-response","6","39285","0.0-2.0-2.0-0.1","610840a82c975dee030ea34d","C3","batch3","spm_show_trial_num","null","<p class=block-text>Trial 2 out of 60</p>","null","","","","","","","","","","","","","","","","","","","","","","","","","",""
"","","","","","image-button-response","7","41961","0.0-2.0-2.0-1.1","610840a82c975dee030ea34d","C3","batch3","spm_respsonse","2672.7000000476837","img/question_1_2.jpeg","4","mat_02","5","1","1","2672.7000000476837","","","","","","","","","","","","","","","","","","","","",""
"","","","","","html-keyboard-response","8","43027","0.0-2.0-2.0-0.2","610840a82c975dee030ea34d","C3","batch3","spm_show_trial_num","null","<p class=block-text>Trial 3 out of 60</p>","null","","","","","","","","","","","","","","","","","","","","","","","","","",""
"","","","","","image-button-response","9","46193","0.0-2.0-2.0-1.2","610840a82c975dee030ea34d","C3","batch3","spm_respsonse","3163","img/question_1_3.jpeg","0","mat_03","1","1","1","3163","","","","","","","","","","","","","","","","","","","","",""
"","","","","","html-keyboard-response","10","47252","0.0-2.0-2.0-0.3","610840a82c975dee030ea34d","C3","batch3","spm_show_trial_num","null","<p class=block-text>Trial 4 out of 60</p>","null","","","","","","","","","","","","","","","","","","","","","","","","","",""
"","","","","","image-button-response","11","50859","0.0-2.0-2.0-1.3","610840a82c975dee030ea34d","C3","batch3","spm_respsonse","3604.2999999523163","img/question_1_4.jpeg","1","mat_04","2","1","1","3604.2999999523163","","","","","","","","","","","","","","","","","","","","",""
"","","","","","html-keyboard-response","12","51921","0.0-2.0-2.0-0.4","610840a82c975dee030ea34d","C3","batch3","spm_show_trial_num","null","<p class=block-text>Trial 5 out of 60</p>","null","","","","","","","","","","","","","","","","","","","","","","","","","",""
"","","","","","image-button-response","13","55326","0.0-2.0-2.0-1.4","610840a82c975dee030ea34d","C3","batch3","spm_respsonse","3403.6999999284744","img/question_1_5.jpeg","5","mat_05","6","1","1","3403.6999999284744","","","","","","","","","","","","","","","","","","","","",""
"","","","","","html-keyboard-response","14","56386","0.0-2.0-2.0-0.5","610840a82c975dee030ea34d","C3","batch3","spm_show_trial_num","null","<p class=block-text>Trial 6 out of 60</p>","null","","","","","","","","","","","","","","","","","","","","","","","","","",""
"","","","","","image-button-response","15","60027","0.0-2.0-2.0-1.5","610840a82c975dee030ea34d","C3","batch3","spm_respsonse","3638","img/question_1_6.jpeg","2","mat_06","3","1","1","3638","","","","","","","","","","","","","","","","","","","","",""
"","","","","","html-keyboard-response","16","61093","0.0-2.0-2.0-0.6","610840a82c975dee030ea34d","C3","batch3","spm_show_trial_num","null","<p class=block-text>Trial 7 out of 60</p>","null","","","","","","","","","","","","","","","","","","","","","","","","","",""
"","","","","","image-button-response","17","65042","0.0-2.0-2.0-1.6","610840a82c975dee030ea34d","C3","batch3","spm_respsonse","3946.8000000715256","img/question_1_7.jpeg","5","mat_07","6","1","1","3946.8000000715256","","","","","","","","","","","","","","","","","","","","",""
"","","","","","html-keyboard-response","18","66109","0.0-2.0-2.0-0.7","610840a82c975dee030ea34d","C3","batch3","spm_show_trial_num","null","<p class=block-text>Trial 8 out of 60</p>","null","","","","","","","","","","","","","","","","","","","","","","","","","",""
"","","","","","image-button-response","19","71675","0.0-2.0-2.0-1.7","610840a82c975dee030ea34d","C3","batch3","spm_respsonse","5563.899999976158","img/question_1_8.jpeg","1","mat_08","2","1","1","5563.899999976158","","","","","","","","","","","","","","","","","","","","",""
"","","","","","html-keyboard-response","20","72739","0.0-2.0-2.0-0.8","610840a82c975dee030ea34d","C3","batch3","spm_show_trial_num","null","<p class=block-text>Trial 9 out of 60</p>","null","","","","","","","","","","","","","","","","","","","","","","","","","",""
"","","","","","image-button-response","21","78193","0.0-2.0-2.0-1.8","610840a82c975dee030ea34d","C3","batch3","spm_respsonse","5450.899999976158","img/question_1_9.jpeg","0","mat_09","1","1","1","5450.899999976158","","","","","","","","","","","","","","","","","","","","",""
"","","","","","html-keyboard-response","22","79260","0.0-2.0-2.0-0.9","610840a82c975dee030ea34d","C3","batch3","spm_show_trial_num","null","<p class=block-text>Trial 10 out of 60</p>","null","","","","","","","","","","","","","","","","","","","","","","","","","",""
"","","","","","image-button-response","23","85493","0.0-2.0-2.0-1.9","610840a82c975dee030ea34d","C3","batch3","spm_respsonse","6229.099999904633","img/question_1_10.jpeg","2","mat_10","3","1","1","6229.099999904633","","","","","","","","","","","","","","","","","","","","",""
"","","","","","html-keyboard-response","24","86557","0.0-2.0-2.0-0.10","610840a82c975dee030ea34d","C3","batch3","spm_show_trial_num","null","<p class=block-text>Trial 11 out of 60</p>","null","","","","","","","","","","","","","","","","","","","","","","","","","",""
"","","","","","image-button-response","25","93824","0.0-2.0-2.0-1.10","610840a82c975dee030ea34d","C3","batch3","spm_respsonse","7263.899999976158","img/question_1_11.jpeg","3","mat_11","4","1","1","7263.899999976158","","","","","","","","","","","","","","","","","","","","",""
"","","","","","html-keyboard-response","26","94891","0.0-2.0-2.0-0.11","610840a82c975dee030ea34d","C3","batch3","spm_show_trial_num","null","<p class=block-text>Trial 12 out of 60</p>","null","","","","","","","","","","","","","","","","","","","","","","","","","",""
"","","","","","image-button-response","27","107644","0.0-2.0-2.0-1.11","610840a82c975dee030ea34d","C3","batch3","spm_respsonse","12749.800000071526","img/question_1_12.jpeg","4","mat_12","5","1","1","12749.800000071526","","","","","","","","","","","","","","","","","","","","",""
"","","","","","html-keyboard-response","28","108708","0.0-2.0-2.0-0.12","610840a82c975dee030ea34d","C3","batch3","spm_show_trial_num","null","<p class=block-text>Trial 13 out of 60</p>","null","","","","","","","","","","","","","","","","","","","","","","","","","",""
"","","","","","image-button-response","29","111858","0.0-2.0-2.0-1.12","610840a82c975dee030ea34d","C3","batch3","spm_respsonse","3147.2000000476837","img/question_2_1.jpeg","1","mat_13","2","1","1","3147.2000000476837","","","","","","","","","","","","","","","","","","","","",""
"","","","","","html-keyboard-response","30","112924","0.0-2.0-2.0-0.13","610840a82c975dee030ea34d","C3","batch3","spm_show_trial_num","null","<p class=block-text>Trial 14 out of 60</p>","null","","","","","","","","","","","","","","","","","","","","","","","","","",""
"","","","","","image-button-response","31","119344","0.0-2.0-2.0-1.13","610840a82c975dee030ea34d","C3","batch3","spm_respsonse","6416","img/question_2_2.jpeg","5","mat_14","6","1","1","6416","","","","","","","","","","","","","","","","","","","","",""
"","","","","","html-keyboard-response","32","120401","0.0-2.0-2.0-0.14","610840a82c975dee030ea34d","C3","batch3","spm_show_trial_num","null","<p class=block-text>Trial 15 out of 60</p>","null","","","","","","","","","","","","","","","","","","","","","","","","","",""
"","","","","","image-button-response","33","124327","0.0-2.0-2.0-1.14","610840a82c975dee030ea34d","C3","batch3","spm_respsonse","3922.7000000476837","img/question_2_3.jpeg","0","mat_15","1","1","1","3922.7000000476837","","","","","","","","","","","","","","","","","","","","",""
"","","","","","html-keyboard-response","34","125396","0.0-2.0-2.0-0.15","610840a82c975dee030ea34d","C3","batch3","spm_show_trial_num","null","<p class=block-text>Trial 16 out of 60</p>","null","","","","","","","","","","","","","","","","","","","","","","","","","",""
"","","","","","image-button-response","35","128776","0.0-2.0-2.0-1.15","610840a82c975dee030ea34d","C3","batch3","spm_respsonse","3376.399999976158","img/question_2_4.jpeg","1","mat_16","2","1","1","3376.399999976158","","","","","","","","","","","","","","","","","","","","",""
"","","","","","html-keyboard-response","36","129843","0.0-2.0-2.0-0.16","610840a82c975dee030ea34d","C3","batch3","spm_show_trial_num","null","<p class=block-text>Trial 17 out of 60</p>","null","","","","","","","","","","","","","","","","","","","","","","","","","",""
"","","","","","image-button-response","37","133993","0.0-2.0-2.0-1.16","610840a82c975dee030ea34d","C3","batch3","spm_respsonse","4146.100000023842","img/question_2_5.jpeg","0","mat_17","1","1","1","4146.100000023842","","","","","","","","","","","","","","","","","","","","",""
"","","","","","html-keyboard-response","38","135058","0.0-2.0-2.0-0.17","610840a82c975dee030ea34d","C3","batch3","spm_show_trial_num","null","<p class=block-text>Trial 18 out of 60</p>","null","","","","","","","","","","","","","","","","","","","","","","","","","",""
"","","","","","image-button-response","39","142343","0.0-2.0-2.0-1.17","610840a82c975dee030ea34d","C3","batch3","spm_respsonse","7280.899999976158","img/question_2_6.jpeg","2","mat_18","3","1","1","7280.899999976158","","","","","","","","","","","","","","","","","","","","",""
"","","","","","html-keyboard-response","40","143401","0.0-2.0-2.0-0.18","610840a82c975dee030ea34d","C3","batch3","spm_show_trial_num","null","<p class=block-text>Trial 19 out of 60</p>","null","","","","","","","","","","","","","","","","","","","","","","","","","",""
"","","","","","image-button-response","41","149542","0.0-2.0-2.0-1.18","610840a82c975dee030ea34d","C3","batch3","spm_respsonse","6137","img/question_2_7.jpeg","4","mat_19","5","1","1","6137","","","","","","","","","","","","","","","","","","","","",""
"","","","","","html-keyboard-response","42","150606","0.0-2.0-2.0-0.19","610840a82c975dee030ea34d","C3","batch3","spm_show_trial_num","null","<p class=block-text>Trial 20 out of 60</p>","null","","","","","","","","","","","","","","","","","","","","","","","","","",""
"","","","","","image-button-response","43","159742","0.0-2.0-2.0-1.19","610840a82c975dee030ea34d","C3","batch3","spm_respsonse","9132","img/question_2_8.jpeg","5","mat_20","6","1","1","9132","","","","","","","","","","","","","","","","","","","","",""
"","","","","","html-keyboard-response","44","160809","0.0-2.0-2.0-0.20","610840a82c975dee030ea34d","C3","batch3","spm_show_trial_num","null","<p class=block-text>Trial 21 out of 60</p>","null","","","","","","","","","","","","","","","","","","","","","","","","","",""
"","","","","","image-button-response","45","165861","0.0-2.0-2.0-1.20","610840a82c975dee030ea34d","C3","batch3","spm_respsonse","5048.899999976158","img/question_2_9.jpeg","3","mat_21","4","1","1","5048.899999976158","","","","","","","","","","","","","","","","","","","","",""
"","","","","","html-keyboard-response","46","166926","0.0-2.0-2.0-0.21","610840a82c975dee030ea34d","C3","batch3","spm_show_trial_num","null","<p class=block-text>Trial 22 out of 60</p>","null","","","","","","","","","","","","","","","","","","","","","","","","","",""
"","","","","","image-button-response","47","170659","0.0-2.0-2.0-1.21","610840a82c975dee030ea34d","C3","batch3","spm_respsonse","3729.399999976158","img/question_2_10.jpeg","2","mat_22","3","1","1","3729.399999976158","","","","","","","","","","","","","","","","","","","","",""
"","","","","","html-keyboard-response","48","171726","0.0-2.0-2.0-0.22","610840a82c975dee030ea34d","C3","batch3","spm_show_trial_num","null","<p class=block-text>Trial 23 out of 60</p>","null","","","","","","","","","","","","","","","","","","","","","","","","","",""
"","","","","","image-button-response","49","177242","0.0-2.0-2.0-1.22","610840a82c975dee030ea34d","C3","batch3","spm_respsonse","5512.300000071526","img/question_2_11.jpeg","3","mat_23","4","1","1","5512.300000071526","","","","","","","","","","","","","","","","","","","","",""
"","","","","","html-keyboard-response","50","178303","0.0-2.0-2.0-0.23","610840a82c975dee030ea34d","C3","batch3","spm_show_trial_num","null","<p class=block-text>Trial 24 out of 60</p>","null","","","","","","","","","","","","","","","","","","","","","","","","","",""
"","","","","","image-button-response","51","193842","0.0-2.0-2.0-1.23","610840a82c975dee030ea34d","C3","batch3","spm_respsonse","15538","img/question_2_12.jpeg","4","mat_24","5","1","1","15538","","","","","","","","","","","","","","","","","","","","",""
"","","","","","html-button-response","52","196275","0.0-2.0-3.0","610840a82c975dee030ea34d","C3","batch3","attention_check","2173","<p class = block-text>Attention check: Please choose 1<br></p>","0","","","true","","","","","","","","","","","","","","","","","","","","","","",""
"","","","","","html-keyboard-response","53","197076","0.0-2.0-4.0-0.0","610840a82c975dee030ea34d","C3","batch3","spm_show_trial_num","null","<p class=block-text>Trial 25 out of 60</p>","null","","","","","","","","","","","","","","","","","","","","","","","","","",""
"","","","","","image-button-response","54","203943","0.0-2.0-4.0-1.0","610840a82c975dee030ea34d","C3","batch3","spm_respsonse","6864.200000047684","img/question_3_1.jpeg","7","mat_25","8","1","1","6864.200000047684","","","","","","","","","","","","","","","","","","","","",""
"","","","","","html-keyboard-response","55","205007","0.0-2.0-4.0-0.1","610840a82c975dee030ea34d","C3","batch3","spm_show_trial_num","null","<p class=block-text>Trial 26 out of 60</p>","null","","","","","","","","","","","","","","","","","","","","","","","","","",""
"","","","","","image-button-response","56","212444","0.0-2.0-4.0-1.1","610840a82c975dee030ea34d","C3","batch3","spm_respsonse","7432.800000071526","img/question_3_2.jpeg","1","mat_26","2","1","1","7432.800000071526","","","","","","","","","","","","","","","","","","","","",""
"","","","","","html-keyboard-response","57","213513","0.0-2.0-4.0-0.2","610840a82c975dee030ea34d","C3","batch3","spm_show_trial_num","null","<p class=block-text>Trial 27 out of 60</p>","null","","","","","","","","","","","","","","","","","","","","","","","","","",""
"","","","","","image-button-response","58","220209","0.0-2.0-4.0-1.2","610840a82c975dee030ea34d","C3","batch3","spm_respsonse","6692.199999928474","img/question_3_3.jpeg","2","mat_27","3","1","1","6692.199999928474","","","","","","","","","","","","","","","","","","","","",""
"","","","","","html-keyboard-response","59","221271","0.0-2.0-4.0-0.3","610840a82c975dee030ea34d","C3","batch3","spm_show_trial_num","null","<p class=block-text>Trial 28 out of 60</p>","null","","","","","","","","","","","","","","","","","","","","","","","","","",""
"","","","","","image-button-response","60","234460","0.0-2.0-4.0-1.3","610840a82c975dee030ea34d","C3","batch3","spm_respsonse","13185","img/question_3_4.jpeg","7","mat_28","8","1","1","13185","","","","","","","","","","","","","","","","","","","","",""
"","","","","","html-keyboard-response","61","235528","0.0-2.0-4.0-0.4","610840a82c975dee030ea34d","C3","batch3","spm_show_trial_num","null","<p class=block-text>Trial 29 out of 60</p>","null","","","","","","","","","","","","","","","","","","","","","","","","","",""
"","","","","","image-button-response","62","252012","0.0-2.0-4.0-1.4","610840a82c975dee030ea34d","C3","batch3","spm_respsonse","16479.699999928474","img/question_3_5.jpeg","6","mat_29","7","1","1","16479.699999928474","","","","","","","","","","","","","","","","","","","","",""
"","","","","","html-keyboard-response","63","253080","0.0-2.0-4.0-0.5","610840a82c975dee030ea34d","C3","batch3","spm_show_trial_num","null","<p class=block-text>Trial 30 out of 60</p>","null","","","","","","","","","","","","","","","","","","","","","","","","","",""
"","","","","","image-button-response","64","259542","0.0-2.0-4.0-1.5","610840a82c975dee030ea34d","C3","batch3","spm_respsonse","6458.199999928474","img/question_3_6.jpeg","3","mat_30","4","1","1","6458.199999928474","","","","","","","","","","","","","","","","","","","","",""
"","","","","","html-keyboard-response","65","260608","0.0-2.0-4.0-0.6","610840a82c975dee030ea34d","C3","batch3","spm_show_trial_num","null","<p class=block-text>Trial 31 out of 60</p>","null","","","","","","","","","","","","","","","","","","","","","","","","","",""
"","","","","","image-button-response","66","269776","0.0-2.0-4.0-1.6","610840a82c975dee030ea34d","C3","batch3","spm_respsonse","9164.5","img/question_3_7.jpeg","4","mat_31","5","1","1","9164.5","","","","","","","","","","","","","","","","","","","","",""
"","","","","","html-keyboard-response","67","270843","0.0-2.0-4.0-0.7","610840a82c975dee030ea34d","C3","batch3","spm_show_trial_num","null","<p class=block-text>Trial 32 out of 60</p>","null","","","","","","","","","","","","","","","","","","","","","","","","","",""
"","","","","","image-button-response","68","290509","0.0-2.0-4.0-1.7","610840a82c975dee030ea34d","C3","batch3","spm_respsonse","19662.899999976158","img/question_3_8.jpeg","0","mat_32","1","1","1","19662.899999976158","","","","","","","","","","","","","","","","","","","","",""
"","","","","","html-keyboard-response","69","291575","0.0-2.0-4.0-0.8","610840a82c975dee030ea34d","C3","batch3","spm_show_trial_num","null","<p class=block-text>Trial 33 out of 60</p>","null","","","","","","","","","","","","","","","","","","","","","","","","","",""
"","","","","","image-button-response","70","302061","0.0-2.0-4.0-1.8","610840a82c975dee030ea34d","C3","batch3","spm_respsonse","10482.199999928474","img/question_3_9.jpeg","6","mat_33","7","1","1","10482.199999928474","","","","","","","","","","","","","","","","","","","","",""
"","","","","","html-keyboard-response","71","303126","0.0-2.0-4.0-0.9","610840a82c975dee030ea34d","C3","batch3","spm_show_trial_num","null","<p class=block-text>Trial 34 out of 60</p>","null","","","","","","","","","","","","","","","","","","","","","","","","","",""
"","","","","","image-button-response","72","328210","0.0-2.0-4.0-1.9","610840a82c975dee030ea34d","C3","batch3","spm_respsonse","25081","img/question_3_10.jpeg","5","mat_34","6","1","1","25081","","","","","","","","","","","","","","","","","","","","",""
"","","","","","html-keyboard-response","73","329276","0.0-2.0-4.0-0.10","610840a82c975dee030ea34d","C3","batch3","spm_show_trial_num","null","<p class=block-text>Trial 35 out of 60</p>","null","","","","","","","","","","","","","","","","","","","","","","","","","",""
"","","","","","image-button-response","74","350127","0.0-2.0-4.0-1.10","610840a82c975dee030ea34d","C3","batch3","spm_respsonse","20847.800000071526","img/question_3_11.jpeg","0","mat_35","1","1","1","20847.800000071526","","","","","","","","","","","","","","","","","","","","",""
"","","","","","html-keyboard-response","75","351193","0.0-2.0-4.0-0.11","610840a82c975dee030ea34d","C3","batch3","spm_show_trial_num","null","<p class=block-text>Trial 36 out of 60</p>","null","","","","","","","","","","","","","","","","","","","","","","","","","",""
"","","","","","image-button-response","76","375608","0.0-2.0-4.0-1.11","610840a82c975dee030ea34d","C3","batch3","spm_respsonse","24412","img/question_3_12.jpeg","7","mat_36","2","0","0","24412","","","","","","","","","","","","","","","","","","","","",""
"","","","","","html-keyboard-response","77","376676","0.0-2.0-4.0-0.12","610840a82c975dee030ea34d","C3","batch3","spm_show_trial_num","null","<p class=block-text>Trial 37 out of 60</p>","null","","","","","","","","","","","","","","","","","","","","","","","","","",""
"","","","","","image-button-response","78","379560","0.0-2.0-4.0-1.12","610840a82c975dee030ea34d","C3","batch3","spm_respsonse","2879.7999999523163","img/question_4_1.jpeg","2","mat_37","3","1","1","2879.7999999523163","","","","","","","","","","","","","","","","","","","","",""
"","","","","","html-keyboard-response","79","380618","0.0-2.0-4.0-0.13","610840a82c975dee030ea34d","C3","batch3","spm_show_trial_num","null","<p class=block-text>Trial 38 out of 60</p>","null","","","","","","","","","","","","","","","","","","","","","","","","","",""
"","","","","","image-button-response","80","388677","0.0-2.0-4.0-1.13","610840a82c975dee030ea34d","C3","batch3","spm_respsonse","8055.900000095367","img/question_4_2.jpeg","3","mat_38","4","1","1","8055.900000095367","","","","","","","","","","","","","","","","","","","","",""
"","","","","","html-keyboard-response","81","389746","0.0-2.0-4.0-0.14","610840a82c975dee030ea34d","C3","batch3","spm_show_trial_num","null","<p class=block-text>Trial 39 out of 60</p>","null","","","","","","","","","","","","","","","","","","","","","","","","","",""
"","","","","","image-button-response","82","401425","0.0-2.0-4.0-1.14","610840a82c975dee030ea34d","C3","batch3","spm_respsonse","11675.5","img/question_4_3.jpeg","2","mat_39","3","1","1","11675.5","","","","","","","","","","","","","","","","","","","","",""
"","","","","","html-keyboard-response","83","402487","0.0-2.0-4.0-0.15","610840a82c975dee030ea34d","C3","batch3","spm_show_trial_num","null","<p class=block-text>Trial 40 out of 60</p>","null","","","","","","","","","","","","","","","","","","","","","","","","","",""
"","","","","","image-button-response","84","407092","0.0-2.0-4.0-1.15","610840a82c975dee030ea34d","C3","batch3","spm_respsonse","4600.5","img/question_4_4.jpeg","6","mat_40","7","1","1","4600.5","","","","","","","","","","","","","","","","","","","","",""
"","","","","","html-keyboard-response","85","408155","0.0-2.0-4.0-0.16","610840a82c975dee030ea34d","C3","batch3","spm_show_trial_num","null","<p class=block-text>Trial 41 out of 60</p>","null","","","","","","","","","","","","","","","","","","","","","","","","","",""
"","","","","","image-button-response","86","418426","0.0-2.0-4.0-1.16","610840a82c975dee030ea34d","C3","batch3","spm_respsonse","10266.5","img/question_4_5.jpeg","7","mat_41","8","1","1","10266.5","","","","","","","","","","","","","","","","","","","","",""
"","","","","","html-keyboard-response","87","419480","0.0-2.0-4.0-0.17","610840a82c975dee030ea34d","C3","batch3","spm_show_trial_num","null","<p class=block-text>Trial 42 out of 60</p>","null","","","","","","","","","","","","","","","","","","","","","","","","","",""
"","","","","","image-button-response","88","433658","0.0-2.0-4.0-1.17","610840a82c975dee030ea34d","C3","batch3","spm_respsonse","14175","img/question_4_6.jpeg","5","mat_42","6","1","1","14175","","","","","","","","","","","","","","","","","","","","",""
"","","","","","html-keyboard-response","89","434719","0.0-2.0-4.0-0.18","610840a82c975dee030ea34d","C3","batch3","spm_show_trial_num","null","<p class=block-text>Trial 43 out of 60</p>","null","","","","","","","","","","","","","","","","","","","","","","","","","",""
"","","","","","image-button-response","90","448541","0.0-2.0-4.0-1.18","610840a82c975dee030ea34d","C3","batch3","spm_respsonse","13818.699999928474","img/question_4_7.jpeg","4","mat_43","5","1","1","13818.699999928474","","","","","","","","","","","","","","","","","","","","",""
"","","","","","html-keyboard-response","91","449611","0.0-2.0-4.0-0.19","610840a82c975dee030ea34d","C3","batch3","spm_show_trial_num","null","<p class=block-text>Trial 44 out of 60</p>","null","","","","","","","","","","","","","","","","","","","","","","","","","",""
"","","","","","image-button-response","92","457860","0.0-2.0-4.0-1.19","610840a82c975dee030ea34d","C3","batch3","spm_respsonse","8245.299999952316","img/question_4_8.jpeg","6","mat_44","4","0","0","8245.299999952316","","","","","","","","","","","","","","","","","","","","",""
"","","","","","html-keyboard-response","93","458922","0.0-2.0-4.0-0.20","610840a82c975dee030ea34d","C3","batch3","spm_show_trial_num","null","<p class=block-text>Trial 45 out of 60</p>","null","","","","","","","","","","","","","","","","","","","","","","","","","",""
"","","","","","image-button-response","94","477809","0.0-2.0-4.0-1.20","610840a82c975dee030ea34d","C3","batch3","spm_respsonse","18883.799999952316","img/question_4_9.jpeg","0","mat_45","1","1","1","18883.799999952316","","","","","","","","","","","","","","","","","","","","",""
"","","","","","html-keyboard-response","95","478871","0.0-2.0-4.0-0.21","610840a82c975dee030ea34d","C3","batch3","spm_show_trial_num","null","<p class=block-text>Trial 46 out of 60</p>","null","","","","","","","","","","","","","","","","","","","","","","","","","",""
"","","","","","image-button-response","96","493975","0.0-2.0-4.0-1.21","610840a82c975dee030ea34d","C3","batch3","spm_respsonse","15101.5","img/question_4_10.jpeg","1","mat_46","2","1","1","15101.5","","","","","","","","","","","","","","","","","","","","",""
"","","","","","html-keyboard-response","97","495041","0.0-2.0-4.0-0.22","610840a82c975dee030ea34d","C3","batch3","spm_show_trial_num","null","<p class=block-text>Trial 47 out of 60</p>","null","","","","","","","","","","","","","","","","","","","","","","","","","",""
"","","","","","image-button-response","98","524310","0.0-2.0-4.0-1.22","610840a82c975dee030ea34d","C3","batch3","spm_respsonse","29266.199999928474","img/question_4_11.jpeg","5","mat_47","5","0","0","29266.199999928474","","","","","","","","","","","","","","","","","","","","",""
"","","","","","html-keyboard-response","99","525376","0.0-2.0-4.0-0.23","610840a82c975dee030ea34d","C3","batch3","spm_show_trial_num","null","<p class=block-text>Trial 48 out of 60</p>","null","","","","","","","","","","","","","","","","","","","","","","","","","",""
"","","","","","image-button-response","100","548242","0.0-2.0-4.0-1.23","610840a82c975dee030ea34d","C3","batch3","spm_respsonse","22862.899999976158","img/question_4_12.jpeg","4","mat_48","6","0","0","22862.899999976158","","","","","","","","","","","","","","","","","","","","",""
"","","","","","html-keyboard-response","101","549309","0.0-2.0-4.0-0.24","610840a82c975dee030ea34d","C3","batch3","spm_show_trial_num","null","<p class=block-text>Trial 49 out of 60</p>","null","","","","","","","","","","","","","","","","","","","","","","","","","",""
"","","","","","image-button-response","102","562392","0.0-2.0-4.0-1.24","610840a82c975dee030ea34d","C3","batch3","spm_respsonse","13078.699999928474","img/question_5_1.jpeg","6","mat_49","7","1","1","13078.699999928474","","","","","","","","","","","","","","","","","","","","",""
"","","","","","html-keyboard-response","103","563451","0.0-2.0-4.0-0.25","610840a82c975dee030ea34d","C3","batch3","spm_show_trial_num","null","<p class=block-text>Trial 50 out of 60</p>","null","","","","","","","","","","","","","","","","","","","","","","","","","",""
"","","","","","image-button-response","104","575142","0.0-2.0-4.0-1.25","610840a82c975dee030ea34d","C3","batch3","spm_respsonse","11687.300000071526","img/question_5_2.jpeg","5","mat_50","6","1","1","11687.300000071526","","","","","","","","","","","","","","","","","","","","",""
"","","","","","html-keyboard-response","105","576206","0.0-2.0-4.0-0.26","610840a82c975dee030ea34d","C3","batch3","spm_show_trial_num","null","<p class=block-text>Trial 51 out of 60</p>","null","","","","","","","","","","","","","","","","","","","","","","","","","",""
"","","","","","image-button-response","106","595042","0.0-2.0-4.0-1.26","610840a82c975dee030ea34d","C3","batch3","spm_respsonse","18833.299999952316","img/question_5_3.jpeg","7","mat_51","8","1","1","18833.299999952316","","","","","","","","","","","","","","","","","","","","",""
"","","","","","html-keyboard-response","107","596109","0.0-2.0-4.0-0.27","610840a82c975dee030ea34d","C3","batch3","spm_show_trial_num","null","<p class=block-text>Trial 52 out of 60</p>","null","","","","","","","","","","","","","","","","","","","","","","","","","",""
"","","","","","image-button-response","108","609110","0.0-2.0-4.0-1.27","610840a82c975dee030ea34d","C3","batch3","spm_respsonse","12997.300000071526","img/question_5_4.jpeg","2","mat_52","2","0","0","12997.300000071526","","","","","","","","","","","","","","","","","","","","",""
"","","","","","html-keyboard-response","109","610173","0.0-2.0-4.0-0.28","610840a82c975dee030ea34d","C3","batch3","spm_show_trial_num","null","<p class=block-text>Trial 53 out of 60</p>","null","","","","","","","","","","","","","","","","","","","","","","","","","",""
"","","","","","image-button-response","110","635291","0.0-2.0-4.0-1.28","610840a82c975dee030ea34d","C3","batch3","spm_respsonse","25115.100000023842","img/question_5_5.jpeg","6","mat_53","1","0","0","25115.100000023842","","","","","","","","","","","","","","","","","","","","",""
"","","","","","html-keyboard-response","111","636356","0.0-2.0-4.0-0.29","610840a82c975dee030ea34d","C3","batch3","spm_show_trial_num","null","<p class=block-text>Trial 54 out of 60</p>","null","","","","","","","","","","","","","","","","","","","","","","","","","",""
"","","","","","image-button-response","112","666875","0.0-2.0-4.0-1.29","610840a82c975dee030ea34d","C3","batch3","spm_respsonse","30516.399999976158","img/question_5_6.jpeg","3","mat_54","5","0","0","30516.399999976158","","","","","","","","","","","","","","","","","","","","",""
"","","","","","html-keyboard-response","113","667937","0.0-2.0-4.0-0.30","610840a82c975dee030ea34d","C3","batch3","spm_show_trial_num","null","<p class=block-text>Trial 55 out of 60</p>","null","","","","","","","","","","","","","","","","","","","","","","","","","",""
"","","","","","image-button-response","114","686758","0.0-2.0-4.0-1.30","610840a82c975dee030ea34d","C3","batch3","spm_respsonse","18817.700000047684","img/question_5_7.jpeg","0","mat_55","1","1","1","18817.700000047684","","","","","","","","","","","","","","","","","","","","",""
"","","","","","html-keyboard-response","115","687820","0.0-2.0-4.0-0.31","610840a82c975dee030ea34d","C3","batch3","spm_show_trial_num","null","<p class=block-text>Trial 56 out of 60</p>","null","","","","","","","","","","","","","","","","","","","","","","","","","",""
"","","","","","image-button-response","116","698009","0.0-2.0-4.0-1.31","610840a82c975dee030ea34d","C3","batch3","spm_respsonse","10184.800000071526","img/question_5_8.jpeg","5","mat_56","6","1","1","10184.800000071526","","","","","","","","","","","","","","","","","","","","",""
"","","","","","html-keyboard-response","117","699067","0.0-2.0-4.0-0.32","610840a82c975dee030ea34d","C3","batch3","spm_show_trial_num","null","<p class=block-text>Trial 57 out of 60</p>","null","","","","","","","","","","","","","","","","","","","","","","","","","",""
"","","","","","image-button-response","118","709327","0.0-2.0-4.0-1.32","610840a82c975dee030ea34d","C3","batch3","spm_respsonse","10256.100000023842","img/question_5_9.jpeg","2","mat_57","3","1","1","10256.100000023842","","","","","","","","","","","","","","","","","","","","",""
"","","","","","html-keyboard-response","119","710395","0.0-2.0-4.0-0.33","610840a82c975dee030ea34d","C3","batch3","spm_show_trial_num","null","<p class=block-text>Trial 58 out of 60</p>","null","","","","","","","","","","","","","","","","","","","","","","","","","",""
"","","","","","image-button-response","120","734208","0.0-2.0-4.0-1.33","610840a82c975dee030ea34d","C3","batch3","spm_respsonse","23810.300000071526","img/question_5_10.jpeg","6","mat_58","2","0","0","23810.300000071526","","","","","","","","","","","","","","","","","","","","",""
"","","","","","html-keyboard-response","121","735275","0.0-2.0-4.0-0.34","610840a82c975dee030ea34d","C3","batch3","spm_show_trial_num","null","<p class=block-text>Trial 59 out of 60</p>","null","","","","","","","","","","","","","","","","","","","","","","","","","",""
"","","","","","image-button-response","122","752791","0.0-2.0-4.0-1.34","610840a82c975dee030ea34d","C3","batch3","spm_respsonse","17512.900000095367","img/question_5_11.jpeg","6","mat_59","4","0","0","17512.900000095367","","","","","","","","","","","","","","","","","","","","",""
"","","","","","html-keyboard-response","123","753850","0.0-2.0-4.0-0.35","610840a82c975dee030ea34d","C3","batch3","spm_show_trial_num","null","<p class=block-text>Trial 60 out of 60</p>","null","","","","","","","","","","","","","","","","","","","","","","","","","",""
"","","","","","image-button-response","124","800492","0.0-2.0-4.0-1.35","610840a82c975dee030ea34d","C3","batch3","spm_respsonse","46639.300000071526","img/question_5_12.jpeg","1","mat_60","5","0","0","46639.300000071526","","","","","","","","","","","","","","","","","","","","",""
"","","","","","html-button-response","125","803157","0.0-2.0-5.0","610840a82c975dee030ea34d","C3","batch3","spm_goodbye","2406","<p class= block-text>This concludes the Standard Progressive Matrix game. Thank you for your responses!<br> When you are ready, click the button continue</p>","0","","","","","","","","","","","","","","","","","","","","","","","","","",""
"true","","","","","fullscreen","126","806461","0.0-3.0-0.0","610840a82c975dee030ea34d","C3","batch3","","","","","","","","","","","","","","","","","","","","","","","","","","","","","",""
"","","","","","instructions","127","858178","0.0-3.0-1.0-0.0-0.0","610840a82c975dee030ea34d","C3","batch3","tol-instructions","51716.60000002384","","","","","","","","[{""page_index"":0,""viewing_time"":10778.899999976158},{""page_index"":1,""viewing_time"":4216},{""page_index"":2,""viewing_time"":2987.100000023842},{""page_index"":3,""viewing_time"":11296.600000023842},{""page_index"":4,""viewing_time"":8434},{""page_index"":5,""viewing_time"":11116.600000023842},{""page_index"":6,""viewing_time"":2886.7999999523163}]","","","","","","","","","","","","","","","","","","","",""
"","","","","","html-button-response","128","859324","0.0-3.0-1.0-1.0-0.0","610840a82c975dee030ea34d","C3","batch3","tol_enter_quiz","1144.6999999284744","<p class=block-text> Let's answer a few questions <br>","0","","","","","","","","","","","","","","","","","","","","","","","","","",""
"","","","","","html-button-response","129","863792","0.0-3.0-1.0-1.0-1.0","610840a82c975dee030ea34d","C3","batch3","tol_quiz","4466.700000047684","<p class = block-text>True or False: You can only move the ball on top of a peg. <br></p>","0","","","true","","","","","","","","","","","","","","","","","","","","","","",""
"","","","","","html-button-response","130","864975","0.0-3.0-1.0-1.0-2.0","610840a82c975dee030ea34d","C3","batch3","tol_quiz_feedback","1182.0999999046326","<p class = block-text>Correct! You can only move the ball on top of a peg.</p>","0","","","","","","","","","","","","","","","","","","","","","","","","","",""
"","","","","","html-button-response","131","867759","0.0-3.0-1.0-1.0-3.0","610840a82c975dee030ea34d","C3","batch3","tol_quiz","2782.3000000715256","<p class = block-text>True or False: You should try to match your board with the target board with fewest moves possible. <br></p>","0","","","true","","","","","","","","","","","","","","","","","","","","","","",""
"","","","","","html-button-response","132","868510","0.0-3.0-1.0-1.0-4.0","610840a82c975dee030ea34d","C3","batch3","tol_quiz_feedback","749.8999999761581","<p class = block-text>Correct! </p>","0","","","","","","","","","","","","","","","","","","","","","","","","","",""
"","","","","","html-button-response","133","870107","0.0-3.0-2.0","610840a82c975dee030ea34d","C3","batch3","","1594.8000000715256","<p class=block-text> Now that you've understood the game, let's practice a few easier examples before we start!<br> <br>","0","","","","","","","","","","","","","","","","","","","","","","","","","",""
"","","","","","single-stim-button","134","872643","0.0-3.0-3.0-0.0","610840a82c975dee030ea34d","C3","batch3","tol_practice","2532","","","","","","","","","tol_peg_2","2532","2532","0","[[1,2,0],[0,0],[0]]","1","[[1,2,0],[0,0],[3]]","practice","2532","","","","","","","","","","",""
"","","","","","single-stim-button","135","873798","0.0-3.0-3.0-1.0","610840a82c975dee030ea34d","C3","batch3","tol_practice","1155","","","","","","","","","tol_peg_3","1155","1155","0","[[1,2,0],[0,0],[3]]","1","[[1,2,0],[0,0],[3]]","practice","1155","","","","","","","","","","",""
"","","","","","poldrack-single-stim","136","874803","0.0-3.0-4.0","610840a82c975dee030ea34d","C3","batch3","tol_feedback","-1","","","","","true","","","","","1000","1000","500","","","","","","-1","none","true","","0","","","","","",""
"","","","","","single-stim-button","137","878275","0.0-3.0-5.0-0.0","610840a82c975dee030ea34d","C3","batch3","tol_practice","3470","","","","","","","","","tol_peg_1","3470","3470","0","[[1,0,0],[3,0],[0]]","2","[[0,0,0],[3,1],[2]]","practice","3470","","","","","","","","","","",""
"","","","","","single-stim-button","138","879577","0.0-3.0-5.0-1.0","610840a82c975dee030ea34d","C3","batch3","tol_practice","1300","","","","","","","","","tol_peg_3","1300","1300","0","[[1,0,0],[3,0],[2]]","2","[[0,0,0],[3,1],[2]]","practice","1300","","","","","","","","","","",""
"","","","","","single-stim-button","139","880507","0.0-3.0-5.1-0.1","610840a82c975dee030ea34d","C3","batch3","tol_practice","929","","","","","","","","","tol_peg_1","929","929","0","[[0,0,0],[3,0],[2]]","3","[[0,0,0],[3,1],[2]]","practice","929","","","","","","","","","","",""
"","","","","","single-stim-button","140","881325","0.0-3.0-5.1-1.1","610840a82c975dee030ea34d","C3","batch3","tol_practice","816","","","","","","","","","tol_peg_2","816","816","0","[[0,0,0],[3,1],[2]]","3","[[0,0,0],[3,1],[2]]","practice","816","","","","","","","","","","",""
"","","","","","poldrack-single-stim","141","882334","0.0-3.0-6.0","610840a82c975dee030ea34d","C3","batch3","tol_feedback","-1","","","","","true","","","","","1000","1000","500","","","","","","-1","none","true","","0","","","","","",""
"","","","","","single-stim-button","142","885709","0.0-3.0-7.0-0.0","610840a82c975dee030ea34d","C3","batch3","tol_practice","3374","","","","","","","","","tol_peg_2","3374","3374","0","[[1,2,0],[0,0],[0]]","4","[[1,0,0],[2,0],[3]]","practice","3374","","","","","","","","","","",""
"","","","","","single-stim-button","143","886641","0.0-3.0-7.0-1.0","610840a82c975dee030ea34d","C3","batch3","tol_practice","931","","","","","","","","","tol_peg_3","931","931","0","[[1,2,0],[0,0],[3]]","4","[[1,0,0],[2,0],[3]]","practice","931","","","","","","","","","","",""
"","","","","","single-stim-button","144","887542","0.0-3.0-7.1-0.1","610840a82c975dee030ea34d","C3","batch3","tol_practice","900","","","","","","","","","tol_peg_1","900","900","0","[[1,0,0],[0,0],[3]]","5","[[1,0,0],[2,0],[3]]","practice","900","","","","","","","","","","",""
"","","","","","single-stim-button","145","888359","0.0-3.0-7.1-1.1","610840a82c975dee030ea34d","C3","batch3","tol_practice","816","","","","","","","","","tol_peg_2","816","816","0","[[1,0,0],[2,0],[3]]","5","[[1,0,0],[2,0],[3]]","practice","816","","","","","","","","","","",""
"","","","","","poldrack-single-stim","146","889362","0.0-3.0-8.0","610840a82c975dee030ea34d","C3","batch3","tol_feedback","-1","","","","","true","","","","","1000","1000","500","","","","","","-1","none","true","","0","","","","","",""
"","","","","","html-button-response","147","891675","0.0-3.0-9.0","610840a82c975dee030ea34d","C3","batch3","tol_instruction","2312.399999976158","<div class = centerbox><p class = center-block-text>Great job! You are done with practice trials<br>You are about to start official trials.<br> <br> Problem <strong>1</strong> out of 25 problems</p></div>","0","","","","","","","","","","","","","","","","","","","","","","","","","",""
"","","","","","single-stim-button","148","897196","0.0-3.0-10.0-0.0","610840a82c975dee030ea34d","C3","batch3","tol_tohand","4510","","","","","","","","","tol_peg_1","4510","4510","0","[[1,0,0],[3,0],[0]]","1","[[1,3,0],[2,0],[0]]","0","0","","","","","","3","","","","",""
"","","","","","single-stim-button","149","898325","0.0-3.0-10.0-1.0","610840a82c975dee030ea34d","C3","batch3","tol_toboard","1128","","","","","","","","","tol_peg_3","1128","1128","0","[[1,0,0],[3,0],[2]]","1","[[1,3,0],[2,0],[0]]","0","0","","","","","","3","","","","",""
"","","","","","single-stim-button","150","899009","0.0-3.0-10.1-0.1","610840a82c975dee030ea34d","C3","batch3","tol_tohand","682","","","","","","","","","tol_peg_2","682","682","0","[[1,0,0],[0,0],[2]]","2","[[1,3,0],[2,0],[0]]","0","0","","","","","","3","","","","",""
"","","","","","single-stim-button","151","899991","0.0-3.0-10.1-1.1","610840a82c975dee030ea34d","C3","batch3","tol_toboard","982","","","","","","","","","tol_peg_1","982","982","0","[[1,3,0],[0,0],[2]]","2","[[1,3,0],[2,0],[0]]","0","0","","","","","","3","","","","",""
"","","","","","single-stim-button","152","900708","0.0-3.0-10.2-0.2","610840a82c975dee030ea34d","C3","batch3","tol_tohand","716","","","","","","","","","tol_peg_3","716","716","0","[[1,3,0],[0,0],[0]]","3","[[1,3,0],[2,0],[0]]","0","0","","","","","","3","","","","",""
"","","","","","single-stim-button","153","901425","0.0-3.0-10.2-1.2","610840a82c975dee030ea34d","C3","batch3","tol_toboard","717","","","","","","","","","tol_peg_2","717","717","0","[[1,3,0],[2,0],[0]]","3","[[1,3,0],[2,0],[0]]","0","0","","","","","","3","","","","",""
"","","","","","poldrack-single-stim","154","902434","0.0-3.0-11.0","610840a82c975dee030ea34d","C3","batch3","tol_feedback","-1","","","","","true","","","","","1000","1000","500","","","","","","-1","none","true","4510","5908","","","","","",""
"","","","","","html-button-response","155","903640","0.0-3.0-12.0","610840a82c975dee030ea34d","C3","batch3","tol_trial_num","1204.8999999761581","<div class = centerbox><p class = center-block-text>problem <strong>2</strong> out of 25 problems</p></div>","0","","","","","","","","","","","","","","","","","","","","","","","","","",""
"","","","","","single-stim-button","156","906792","0.0-3.0-13.0-0.0","610840a82c975dee030ea34d","C3","batch3","tol_tohand","3151","","","","","","","","","tol_peg_1","3151","3151","0","[[1,0,0],[3,0],[0]]","1","[[2,1,3],[0,0],[0]]","1","0","","","","","","5","","","","",""
"","","","","","single-stim-button","157","908141","0.0-3.0-13.0-1.0","610840a82c975dee030ea34d","C3","batch3","tol_toboard","1348","","","","","","","","","tol_peg_3","1348","1348","0","[[1,0,0],[3,0],[2]]","1","[[2,1,3],[0,0],[0]]","1","0","","","","","","5","","","","",""
"","","","","","single-stim-button","158","911426","0.0-3.0-13.1-0.1","610840a82c975dee030ea34d","C3","batch3","tol_tohand","3283","","","","","","","","","tol_peg_1","3283","3283","0","[[0,0,0],[3,0],[2]]","2","[[2,1,3],[0,0],[0]]","1","0","","","","","","5","","","","",""
"","","","","","single-stim-button","159","912357","0.0-3.0-13.1-1.1","610840a82c975dee030ea34d","C3","batch3","tol_toboard","931","","","","","","","","","tol_peg_2","931","931","0","[[0,0,0],[3,1],[2]]","2","[[2,1,3],[0,0],[0]]","1","0","","","","","","5","","","","",""
"","","","","","single-stim-button","160","913124","0.0-3.0-13.2-0.2","610840a82c975dee030ea34d","C3","batch3","tol_tohand","766","","","","","","","","","tol_peg_3","766","766","0","[[0,0,0],[3,1],[0]]","3","[[2,1,3],[0,0],[0]]","1","0","","","","","","5","","","","",""
"","","","","","single-stim-button","161","913793","0.0-3.0-13.2-1.2","610840a82c975dee030ea34d","C3","batch3","tol_toboard","668","","","","","","","","","tol_peg_1","668","668","0","[[2,0,0],[3,1],[0]]","3","[[2,1,3],[0,0],[0]]","1","0","","","","","","5","","","","",""
"","","","","","single-stim-button","162","914275","0.0-3.0-13.3-0.3","610840a82c975dee030ea34d","C3","batch3","tol_tohand","481","","","","","","","","","tol_peg_2","481","481","0","[[2,0,0],[3,0],[0]]","4","[[2,1,3],[0,0],[0]]","1","0","","","","","","5","","","","",""
"","","","","","single-stim-button","163","915008","0.0-3.0-13.3-1.3","610840a82c975dee030ea34d","C3","batch3","tol_toboard","732","","","","","","","","","tol_peg_1","732","732","0","[[2,1,0],[3,0],[0]]","4","[[2,1,3],[0,0],[0]]","1","0","","","","","","5","","","","",""
"","","","","","single-stim-button","164","915576","0.0-3.0-13.4-0.4","610840a82c975dee030ea34d","C3","batch3","tol_tohand","567","","","","","","","","","tol_peg_2","567","567","0","[[2,1,0],[0,0],[0]]","5","[[2,1,3],[0,0],[0]]","1","0","","","","","","5","","","","",""
"","","","","","single-stim-button","165","916027","0.0-3.0-13.4-1.4","610840a82c975dee030ea34d","C3","batch3","tol_toboard","451","","","","","","","","","tol_peg_1","451","451","0","[[2,1,3],[0,0],[0]]","5","[[2,1,3],[0,0],[0]]","1","0","","","","","","5","","","","",""
"","","","","","poldrack-single-stim","166","917037","0.0-3.0-14.0","610840a82c975dee030ea34d","C3","batch3","tol_feedback","-1","","","","","true","","","","","1000","1000","500","","","","","","-1","none","true","3151","8248","","","","","",""
"","","","","","html-button-response","167","918225","0.0-3.0-15.0","610840a82c975dee030ea34d","C3","batch3","tol_trial_num","1185.8999999761581","<div class = centerbox><p class = center-block-text>problem <strong>3</strong> out of 25 problems</p></div>","0","","","","","","","","","","","","","","","","","","","","","","","","","",""
"","","","","","single-stim-button","168","921458","0.0-3.0-16.0-0.0","610840a82c975dee030ea34d","C3","batch3","tol_tohand","3231","","","","","","","","","tol_peg_1","3231","3231","0","[[2,0,0],[0,0],[1]]","1","[[1,2,0],[3,0],[0]]","2","0","","","","","","4","","","","",""
"","","","","","single-stim-button","169","922357","0.0-3.0-16.0-1.0","610840a82c975dee030ea34d","C3","batch3","tol_toboard","899","","","","","","","","","tol_peg_2","899","899","0","[[2,0,0],[3,0],[1]]","1","[[1,2,0],[3,0],[0]]","2","0","","","","","","4","","","","",""
"","","","","","single-stim-button","170","922942","0.0-3.0-16.1-0.1","610840a82c975dee030ea34d","C3","batch3","tol_tohand","584","","","","","","","","","tol_peg_1","584","584","0","[[0,0,0],[3,0],[1]]","2","[[1,2,0],[3,0],[0]]","2","0","","","","","","4","","","","",""
"","","","","","single-stim-button","171","923674","0.0-3.0-16.1-1.1","610840a82c975dee030ea34d","C3","batch3","tol_toboard","731","","","","","","","","","tol_peg_2","731","731","0","[[0,0,0],[3,2],[1]]","2","[[1,2,0],[3,0],[0]]","2","0","","","","","","4","","","","",""
"","","","","","single-stim-button","172","924409","0.0-3.0-16.2-0.2","610840a82c975dee030ea34d","C3","batch3","tol_tohand","734","","","","","","","","","tol_peg_3","734","734","0","[[0,0,0],[3,2],[0]]","3","[[1,2,0],[3,0],[0]]","2","0","","","","","","4","","","","",""
"","","","","","single-stim-button","173","925175","0.0-3.0-16.2-1.2","610840a82c975dee030ea34d","C3","batch3","tol_toboard","766","","","","","","","","","tol_peg_1","766","766","0","[[1,0,0],[3,2],[0]]","3","[[1,2,0],[3,0],[0]]","2","0","","","","","","4","","","","",""
"","","","","","single-stim-button","174","925991","0.0-3.0-16.3-0.3","610840a82c975dee030ea34d","C3","batch3","tol_tohand","815","","","","","","","","","tol_peg_2","815","815","0","[[1,0,0],[3,0],[0]]","4","[[1,2,0],[3,0],[0]]","2","0","","","","","","4","","","","",""
"","","","","","single-stim-button","175","926809","0.0-3.0-16.3-1.3","610840a82c975dee030ea34d","C3","batch3","tol_toboard","817","","","","","","","","","tol_peg_1","817","817","0","[[1,2,0],[3,0],[0]]","4","[[1,2,0],[3,0],[0]]","2","0","","","","","","4","","","","",""
"","","","","","poldrack-single-stim","176","927819","0.0-3.0-17.0","610840a82c975dee030ea34d","C3","batch3","tol_feedback","-1","","","","","true","","","","","1000","1000","500","","","","","","-1","none","true","3231","5364","","","","","",""
"","","","","","html-button-response","177","929772","0.0-3.0-18.0","610840a82c975dee030ea34d","C3","batch3","tol_trial_num","1951.7999999523163","<div class = centerbox><p class = center-block-text>problem <strong>4</strong> out of 25 problems</p></div>","0","","","","","","","","","","","","","","","","","","","","","","","","","",""
"","","","","","single-stim-button","178","932857","0.0-3.0-19.0-0.0","610840a82c975dee030ea34d","C3","batch3","tol_tohand","3084","","","","","","","","","tol_peg_2","3084","3084","0","[[3,0,0],[2,0],[0]]","1","[[3,0,0],[1,0],[2]]","3","0","","","","","","3","","","","",""
"","","","","","single-stim-button","179","933508","0.0-3.0-19.0-1.0","610840a82c975dee030ea34d","C3","batch3","tol_toboard","650","","","","","","","","","tol_peg_1","650","650","0","[[3,1,0],[2,0],[0]]","1","[[3,0,0],[1,0],[2]]","3","0","","","","","","3","","","","",""
"","","","","","single-stim-button","180","934057","0.0-3.0-19.1-0.1","610840a82c975dee030ea34d","C3","batch3","tol_tohand","547","","","","","","","","","tol_peg_2","547","547","0","[[3,1,0],[0,0],[0]]","2","[[3,0,0],[1,0],[2]]","3","0","","","","","","3","","","","",""
"","","","","","single-stim-button","181","934777","0.0-3.0-19.1-1.1","610840a82c975dee030ea34d","C3","batch3","tol_toboard","720","","","","","","","","","tol_peg_3","720","720","0","[[3,1,0],[0,0],[2]]","2","[[3,0,0],[1,0],[2]]","3","0","","","","","","3","","","","",""
"","","","","","single-stim-button","182","935543","0.0-3.0-19.2-0.2","610840a82c975dee030ea34d","C3","batch3","tol_tohand","765","","","","","","","","","tol_peg_1","765","765","0","[[3,0,0],[0,0],[2]]","3","[[3,0,0],[1,0],[2]]","3","0","","","","","","3","","","","",""
"","","","","","single-stim-button","183","936391","0.0-3.0-19.2-1.2","610840a82c975dee030ea34d","C3","batch3","tol_toboard","847","","","","","","","","","tol_peg_2","847","847","0","[[3,0,0],[1,0],[2]]","3","[[3,0,0],[1,0],[2]]","3","0","","","","","","3","","","","",""
"","","","","","poldrack-single-stim","184","937402","0.0-3.0-20.0","610840a82c975dee030ea34d","C3","batch3","tol_feedback","-1","","","","","true","","","","","1000","1000","500","","","","","","-1","none","true","3084","4396","","","","","",""
"","","","","","html-button-response","185","938408","0.0-3.0-21.0","610840a82c975dee030ea34d","C3","batch3","tol_trial_num","1005","<div class = centerbox><p class = center-block-text>problem <strong>5</strong> out of 25 problems</p></div>","0","","","","","","","","","","","","","","","","","","","","","","","","","",""
"","","","","","single-stim-button","186","944742","0.0-3.0-22.0-0.0","610840a82c975dee030ea34d","C3","batch3","tol_tohand","6333","","","","","","","","","tol_peg_2","6333","6333","0","[[1,0,0],[0,0],[3]]","1","[[0,0,0],[1,2],[3]]","4","0","","","","","","7","","","","",""
"","","","","","single-stim-button","187","946075","0.0-3.0-22.0-1.0","610840a82c975dee030ea34d","C3","batch3","tol_toboard","1331","","","","","","","","","tol_peg_1","1331","1331","0","[[1,2,0],[0,0],[3]]","1","[[0,0,0],[1,2],[3]]","4","0","","","","","","7","","","","",""
"","","","","","single-stim-button","188","947011","0.0-3.0-22.1-0.1","610840a82c975dee030ea34d","C3","batch3","tol_tohand","936","","","","","","","","","tol_peg_3","936","936","0","[[1,2,0],[0,0],[0]]","2","[[0,0,0],[1,2],[3]]","4","0","","","","","","7","","","","",""
"","","","","","single-stim-button","189","947942","0.0-3.0-22.1-1.1","610840a82c975dee030ea34d","C3","batch3","tol_toboard","929","","","","","","","","","tol_peg_2","929","929","0","[[1,2,0],[3,0],[0]]","2","[[0,0,0],[1,2],[3]]","4","0","","","","","","7","","","","",""
"","","","","","single-stim-button","190","948659","0.0-3.0-22.2-0.2","610840a82c975dee030ea34d","C3","batch3","tol_tohand","717","","","","","","","","","tol_peg_1","717","717","0","[[1,0,0],[3,0],[0]]","3","[[0,0,0],[1,2],[3]]","4","0","","","","","","7","","","","",""
"","","","","","single-stim-button","191","949624","0.0-3.0-22.2-1.2","610840a82c975dee030ea34d","C3","batch3","tol_toboard","965","","","","","","","","","tol_peg_3","965","965","0","[[1,0,0],[3,0],[2]]","3","[[0,0,0],[1,2],[3]]","4","0","","","","","","7","","","","",""
"","","","","","single-stim-button","192","953942","0.0-3.0-22.3-0.3","610840a82c975dee030ea34d","C3","batch3","tol_tohand","4316","","","","","","","","","tol_peg_3","4316","4316","0","[[1,0,0],[3,0],[0]]","4","[[0,0,0],[1,2],[3]]","4","0","","","","","","7","","","","",""
"","","","","","single-stim-button","193","954558","0.0-3.0-22.3-1.3","610840a82c975dee030ea34d","C3","batch3","tol_toboard","616","","","","","","","","","tol_peg_1","616","616","0","[[1,2,0],[3,0],[0]]","4","[[0,0,0],[1,2],[3]]","4","0","","","","","","7","","","","",""
"","","","","","single-stim-button","194","955158","0.0-3.0-22.4-0.4","610840a82c975dee030ea34d","C3","batch3","tol_tohand","599","","","","","","","","","tol_peg_2","599","599","0","[[1,2,0],[0,0],[0]]","5","[[0,0,0],[1,2],[3]]","4","0","","","","","","7","","","","",""
"","","","","","single-stim-button","195","955758","0.0-3.0-22.4-1.4","610840a82c975dee030ea34d","C3","batch3","tol_toboard","598","","","","","","","","","tol_peg_3","598","598","0","[[1,2,0],[0,0],[3]]","5","[[0,0,0],[1,2],[3]]","4","0","","","","","","7","","","","",""
"","","","","","single-stim-button","196","956691","0.0-3.0-22.5-0.5","610840a82c975dee030ea34d","C3","batch3","tol_tohand","933","","","","","","","","","tol_peg_1","933","933","0","[[1,0,0],[0,0],[3]]","6","[[0,0,0],[1,2],[3]]","4","0","","","","","","7","","","","",""
"","","","","","single-stim-button","197","959259","0.0-3.0-22.5-1.5","610840a82c975dee030ea34d","C3","batch3","tol_toboard","2567","","","","","","","","","tol_peg_2","2567","2567","0","[[1,0,0],[2,0],[3]]","6","[[0,0,0],[1,2],[3]]","4","0","","","","","","7","","","","",""
"","","","","","single-stim-button","198","960076","0.0-3.0-22.6-0.6","610840a82c975dee030ea34d","C3","batch3","tol_tohand","816","","","","","","","","","tol_peg_1","816","816","0","[[0,0,0],[2,0],[3]]","7","[[0,0,0],[1,2],[3]]","4","0","","","","","","7","","","","",""
"","","","","","single-stim-button","199","960742","0.0-3.0-22.6-1.6","610840a82c975dee030ea34d","C3","batch3","tol_toboard","664","","","","","","","","","tol_peg_2","664","664","0","[[0,0,0],[2,1],[3]]","7","[[0,0,0],[1,2],[3]]","4","0","","","","","","7","","","","",""
"","","","","","single-stim-button","200","961225","0.0-3.0-22.7-0.7","610840a82c975dee030ea34d","C3","batch3","tol_tohand","483","","","","","","","","","tol_peg_3","483","483","0","[[0,0,0],[2,1],[0]]","8","[[0,0,0],[1,2],[3]]","4","0","","","","","","7","","","","",""
"","","","","","single-stim-button","201","961808","0.0-3.0-22.7-1.7","610840a82c975dee030ea34d","C3","batch3","tol_toboard","582","","","","","","","","","tol_peg_1","582","582","0","[[3,0,0],[2,1],[0]]","8","[[0,0,0],[1,2],[3]]","4","0","","","","","","7","","","","",""
"","","","","","single-stim-button","202","962291","0.0-3.0-22.8-0.8","610840a82c975dee030ea34d","C3","batch3","tol_tohand","482","","","","","","","","","tol_peg_2","482","482","0","[[3,0,0],[2,0],[0]]","9","[[0,0,0],[1,2],[3]]","4","0","","","","","","7","","","","",""
"","","","","","single-stim-button","203","963109","0.0-3.0-22.8-1.8","610840a82c975dee030ea34d","C3","batch3","tol_toboard","817","","","","","","","","","tol_peg_3","817","817","0","[[3,0,0],[2,0],[1]]","9","[[0,0,0],[1,2],[3]]","4","0","","","","","","7","","","","",""
"","","","","","single-stim-button","204","964125","0.0-3.0-22.9-0.9","610840a82c975dee030ea34d","C3","batch3","tol_tohand","1016","","","","","","","","","tol_peg_1","1016","1016","0","[[0,0,0],[2,0],[1]]","10","[[0,0,0],[1,2],[3]]","4","0","","","","","","7","","","","",""
"","","","","","single-stim-button","205","964709","0.0-3.0-22.9-1.9","610840a82c975dee030ea34d","C3","batch3","tol_toboard","582","","","","","","","","","tol_peg_2","582","582","0","[[0,0,0],[2,3],[1]]","10","[[0,0,0],[1,2],[3]]","4","0","","","","","","7","","","","",""
"","","","","","single-stim-button","206","965825","0.0-3.0-22.10-0.10","610840a82c975dee030ea34d","C3","batch3","tol_tohand","1116","","","","","","","","","tol_peg_2","1116","1116","0","[[0,0,0],[2,0],[1]]","11","[[0,0,0],[1,2],[3]]","4","0","","","","","","7","","","","",""
"","","","","","single-stim-button","207","966258","0.0-3.0-22.10-1.10","610840a82c975dee030ea34d","C3","batch3","tol_toboard","431","","","","","","","","","tol_peg_1","431","431","0","[[3,0,0],[2,0],[1]]","11","[[0,0,0],[1,2],[3]]","4","0","","","","","","7","","","","",""
"","","","","","single-stim-button","208","966875","0.0-3.0-22.11-0.11","610840a82c975dee030ea34d","C3","batch3","tol_tohand","616","","","","","","","","","tol_peg_2","616","616","0","[[3,0,0],[0,0],[1]]","12","[[0,0,0],[1,2],[3]]","4","0","","","","","","7","","","","",""
"","","","","","single-stim-button","209","967344","0.0-3.0-22.11-1.11","610840a82c975dee030ea34d","C3","batch3","tol_toboard","468","","","","","","","","","tol_peg_1","468","468","0","[[3,2,0],[0,0],[1]]","12","[[0,0,0],[1,2],[3]]","4","0","","","","","","7","","","","",""
"","","","","","single-stim-button","210","968791","0.0-3.0-22.12-0.12","610840a82c975dee030ea34d","C3","batch3","tol_tohand","1445","","","","","","","","","tol_peg_3","1445","1445","0","[[3,2,0],[0,0],[0]]","13","[[0,0,0],[1,2],[3]]","4","0","","","","","","7","","","","",""
"","","","","","single-stim-button","211","969292","0.0-3.0-22.12-1.12","610840a82c975dee030ea34d","C3","batch3","tol_toboard","500","","","","","","","","","tol_peg_2","500","500","0","[[3,2,0],[1,0],[0]]","13","[[0,0,0],[1,2],[3]]","4","0","","","","","","7","","","","",""
"","","","","","single-stim-button","212","969992","0.0-3.0-22.13-0.13","610840a82c975dee030ea34d","C3","batch3","tol_tohand","698","","","","","","","","","tol_peg_1","698","698","0","[[3,0,0],[1,0],[0]]","14","[[0,0,0],[1,2],[3]]","4","0","","","","","","7","","","","",""
"","","","","","single-stim-button","213","970792","0.0-3.0-22.13-1.13","610840a82c975dee030ea34d","C3","batch3","tol_toboard","799","","","","","","","","","tol_peg_2","799","799","0","[[3,0,0],[1,2],[0]]","14","[[0,0,0],[1,2],[3]]","4","0","","","","","","7","","","","",""
"","","","","","single-stim-button","214","971475","0.0-3.0-22.14-0.14","610840a82c975dee030ea34d","C3","batch3","tol_tohand","681","","","","","","","","","tol_peg_1","681","681","0","[[0,0,0],[1,2],[0]]","15","[[0,0,0],[1,2],[3]]","4","0","","","","","","7","","","","",""
"","","","","","single-stim-button","215","972391","0.0-3.0-22.14-1.14","610840a82c975dee030ea34d","C3","batch3","tol_toboard","915","","","","","","","","","tol_peg_3","915","915","0","[[0,0,0],[1,2],[3]]","15","[[0,0,0],[1,2],[3]]","4","0","","","","","","7","","","","",""
"","","","","","poldrack-single-stim","216","973401","0.0-3.0-23.0","610840a82c975dee030ea34d","C3","batch3","tol_feedback","-1","","","","","true","","","","","1000","1000","500","","","","","","-1","none","true","6333","21187","","","","","",""
"","","","","","html-button-response","217","975175","0.0-3.0-24.0","610840a82c975dee030ea34d","C3","batch3","tol_trial_num","1772.9000000953674","<div class = centerbox><p class = center-block-text>problem <strong>6</strong> out of 25 problems</p></div>","0","","","","","","","","","","","","","","","","","","","","","","","","","",""
"","","","","","single-stim-button","218","983476","0.0-3.0-25.0-0.0","610840a82c975dee030ea34d","C3","batch3","tol_tohand","8299","","","","","","","","","tol_peg_3","8299","8299","0","[[0,0,0],[1,2],[0]]","1","[[1,0,0],[2,3],[0]]","5","0","","","","","","6","","","","",""
"","","","","","single-stim-button","219","984041","0.0-3.0-25.0-1.0","610840a82c975dee030ea34d","C3","batch3","tol_toboard","563","","","","","","","","","tol_peg_1","563","563","0","[[3,0,0],[1,2],[0]]","1","[[1,0,0],[2,3],[0]]","5","0","","","","","","6","","","","",""
"","","","","","single-stim-button","220","984741","0.0-3.0-25.1-0.1","610840a82c975dee030ea34d","C3","batch3","tol_tohand","699","","","","","","","","","tol_peg_2","699","699","0","[[3,0,0],[1,0],[0]]","2","[[1,0,0],[2,3],[0]]","5","0","","","","","","6","","","","",""
"","","","","","single-stim-button","221","985390","0.0-3.0-25.1-1.1","610840a82c975dee030ea34d","C3","batch3","tol_toboard","648","","","","","","","","","tol_peg_1","648","648","0","[[3,2,0],[1,0],[0]]","2","[[1,0,0],[2,3],[0]]","5","0","","","","","","6","","","","",""
"","","","","","single-stim-button","222","985909","0.0-3.0-25.2-0.2","610840a82c975dee030ea34d","C3","batch3","tol_tohand","517","","","","","","","","","tol_peg_2","517","517","0","[[3,2,0],[0,0],[0]]","3","[[1,0,0],[2,3],[0]]","5","0","","","","","","6","","","","",""
"","","","","","single-stim-button","223","986893","0.0-3.0-25.2-1.2","610840a82c975dee030ea34d","C3","batch3","tol_toboard","982","","","","","","","","","tol_peg_3","982","982","0","[[3,2,0],[0,0],[1]]","3","[[1,0,0],[2,3],[0]]","5","0","","","","","","6","","","","",""
"","","","","","single-stim-button","224","987540","0.0-3.0-25.3-0.3","610840a82c975dee030ea34d","C3","batch3","tol_tohand","647","","","","","","","","","tol_peg_1","647","647","0","[[3,0,0],[0,0],[1]]","4","[[1,0,0],[2,3],[0]]","5","0","","","","","","6","","","","",""
"","","","","","single-stim-button","225","988291","0.0-3.0-25.3-1.3","610840a82c975dee030ea34d","C3","batch3","tol_toboard","750","","","","","","","","","tol_peg_2","750","750","0","[[3,0,0],[2,0],[1]]","4","[[1,0,0],[2,3],[0]]","5","0","","","","","","6","","","","",""
"","","","","","single-stim-button","226","989209","0.0-3.0-25.4-0.4","610840a82c975dee030ea34d","C3","batch3","tol_tohand","916","","","","","","","","","tol_peg_1","916","916","0","[[0,0,0],[2,0],[1]]","5","[[1,0,0],[2,3],[0]]","5","0","","","","","","6","","","","",""
"","","","","","single-stim-button","227","990107","0.0-3.0-25.4-1.4","610840a82c975dee030ea34d","C3","batch3","tol_toboard","898","","","","","","","","","tol_peg_2","898","898","0","[[0,0,0],[2,3],[1]]","5","[[1,0,0],[2,3],[0]]","5","0","","","","","","6","","","","",""
"","","","","","single-stim-button","228","990826","0.0-3.0-25.5-0.5","610840a82c975dee030ea34d","C3","batch3","tol_tohand","718","","","","","","","","","tol_peg_3","718","718","0","[[0,0,0],[2,3],[0]]","6","[[1,0,0],[2,3],[0]]","5","0","","","","","","6","","","","",""
"","","","","","single-stim-button","229","992242","0.0-3.0-25.5-1.5","610840a82c975dee030ea34d","C3","batch3","tol_toboard","1415","","","","","","","","","tol_peg_1","1415","1415","0","[[1,0,0],[2,3],[0]]","6","[[1,0,0],[2,3],[0]]","5","0","","","","","","6","","","","",""
"","","","","","poldrack-single-stim","230","993250","0.0-3.0-26.0","610840a82c975dee030ea34d","C3","batch3","tol_feedback","-1","","","","","true","","","","","1000","1000","500","","","","","","-1","none","true","8299","11796","","","","","",""
"","","","","","html-button-response","231","994558","0.0-3.0-27.0","610840a82c975dee030ea34d","C3","batch3","tol_trial_num","1306.2999999523163","<div class = centerbox><p class = center-block-text>problem <strong>7</strong> out of 25 problems</p></div>","0","","","","","","","","","","","","","","","","","","","","","","","","","",""
"","","","","","single-stim-button","232","998025","0.0-3.0-28.0-0.0","610840a82c975dee030ea34d","C3","batch3","tol_tohand","3466","","","","","","","","","tol_peg_3","3466","3466","0","[[2,1,0],[0,0],[0]]","1","[[1,2,0],[3,0],[0]]","6","0","","","","","","5","","","","",""
"","","","","","single-stim-button","233","998675","0.0-3.0-28.0-1.0","610840a82c975dee030ea34d","C3","batch3","tol_toboard","649","","","","","","","","","tol_peg_2","649","649","0","[[2,1,0],[3,0],[0]]","1","[[1,2,0],[3,0],[0]]","6","0","","","","","","5","","","","",""
"","","","","","single-stim-button","234","999741","0.0-3.0-28.1-0.1","610840a82c975dee030ea34d","C3","batch3","tol_tohand","1065","","","","","","","","","tol_peg_1","1065","1065","0","[[2,0,0],[3,0],[0]]","2","[[1,2,0],[3,0],[0]]","6","0","","","","","","5","","","","",""
"","","","","","single-stim-button","235","1003026","0.0-3.0-28.1-1.1","610840a82c975dee030ea34d","C3","batch3","tol_toboard","3283","","","","","","","","","tol_peg_3","3283","3283","0","[[2,0,0],[3,0],[1]]","2","[[1,2,0],[3,0],[0]]","6","0","","","","","","5","","","","",""
"","","","","","single-stim-button","236","1004408","0.0-3.0-28.2-0.2","610840a82c975dee030ea34d","C3","batch3","tol_tohand","1381","","","","","","","","","tol_peg_1","1381","1381","0","[[0,0,0],[3,0],[1]]","3","[[1,2,0],[3,0],[0]]","6","0","","","","","","5","","","","",""
"","","","","","single-stim-button","237","1004975","0.0-3.0-28.2-1.2","610840a82c975dee030ea34d","C3","batch3","tol_toboard","566","","","","","","","","","tol_peg_2","566","566","0","[[0,0,0],[3,2],[1]]","3","[[1,2,0],[3,0],[0]]","6","0","","","","","","5","","","","",""
"","","","","","single-stim-button","238","1005475","0.0-3.0-28.3-0.3","610840a82c975dee030ea34d","C3","batch3","tol_tohand","499","","","","","","","","","tol_peg_3","499","499","0","[[0,0,0],[3,2],[0]]","4","[[1,2,0],[3,0],[0]]","6","0","","","","","","5","","","","",""
"","","","","","single-stim-button","239","1006191","0.0-3.0-28.3-1.3","610840a82c975dee030ea34d","C3","batch3","tol_toboard","714","","","","","","","","","tol_peg_1","714","714","0","[[1,0,0],[3,2],[0]]","4","[[1,2,0],[3,0],[0]]","6","0","","","","","","5","","","","",""
"","","","","","single-stim-button","240","1006709","0.0-3.0-28.4-0.4","610840a82c975dee030ea34d","C3","batch3","tol_tohand","518","","","","","","","","","tol_peg_2","518","518","0","[[1,0,0],[3,0],[0]]","5","[[1,2,0],[3,0],[0]]","6","0","","","","","","5","","","","",""
"","","","","","single-stim-button","241","1007374","0.0-3.0-28.4-1.4","610840a82c975dee030ea34d","C3","batch3","tol_toboard","664","","","","","","","","","tol_peg_1","664","664","0","[[1,2,0],[3,0],[0]]","5","[[1,2,0],[3,0],[0]]","6","0","","","","","","5","","","","",""
"","","","","","poldrack-single-stim","242","1008378","0.0-3.0-29.0","610840a82c975dee030ea34d","C3","batch3","tol_feedback","-1","","","","","true","","","","","1000","1000","500","","","","","","-1","none","true","3466","6929","","","","","",""
"","","","","","html-button-response","243","1009524","0.0-3.0-30.0","610840a82c975dee030ea34d","C3","batch3","tol_trial_num","1144.8999999761581","<div class = centerbox><p class = center-block-text>problem <strong>8</strong> out of 25 problems</p></div>","0","","","","","","","","","","","","","","","","","","","","","","","","","",""
"","","","","","single-stim-button","244","1012876","0.0-3.0-31.0-0.0","610840a82c975dee030ea34d","C3","batch3","tol_tohand","3351","","","","","","","","","tol_peg_3","3351","3351","0","[[0,0,0],[2,3],[0]]","1","[[1,2,0],[3,0],[0]]","7","0","","","","","","4","","","","",""
"","","","","","single-stim-button","245","1013990","0.0-3.0-31.0-1.0","610840a82c975dee030ea34d","C3","batch3","tol_toboard","1113","","","","","","","","","tol_peg_1","1113","1113","0","[[1,0,0],[2,3],[0]]","1","[[1,2,0],[3,0],[0]]","7","0","","","","","","4","","","","",""
"","","","","","single-stim-button","246","1016741","0.0-3.0-31.1-0.1","610840a82c975dee030ea34d","C3","batch3","tol_tohand","2749","","","","","","","","","tol_peg_2","2749","2749","0","[[1,0,0],[2,0],[0]]","2","[[1,2,0],[3,0],[0]]","7","0","","","","","","4","","","","",""
"","","","","","single-stim-button","247","1019491","0.0-3.0-31.1-1.1","610840a82c975dee030ea34d","C3","batch3","tol_toboard","2750","","","","","","","","","tol_peg_3","2750","2750","0","[[1,0,0],[2,0],[3]]","2","[[1,2,0],[3,0],[0]]","7","0","","","","","","4","","","","",""
"","","","","","single-stim-button","248","1020091","0.0-3.0-31.2-0.2","610840a82c975dee030ea34d","C3","batch3","tol_tohand","599","","","","","","","","","tol_peg_2","599","599","0","[[1,0,0],[0,0],[3]]","3","[[1,2,0],[3,0],[0]]","7","0","","","","","","4","","","","",""
"","","","","","single-stim-button","249","1020608","0.0-3.0-31.2-1.2","610840a82c975dee030ea34d","C3","batch3","tol_toboard","515","","","","","","","","","tol_peg_1","515","515","0","[[1,2,0],[0,0],[3]]","3","[[1,2,0],[3,0],[0]]","7","0","","","","","","4","","","","",""
"","","","","","single-stim-button","250","1021225","0.0-3.0-31.3-0.3","610840a82c975dee030ea34d","C3","batch3","tol_tohand","617","","","","","","","","","tol_peg_3","617","617","0","[[1,2,0],[0,0],[0]]","4","[[1,2,0],[3,0],[0]]","7","0","","","","","","4","","","","",""
"","","","","","single-stim-button","251","1021925","0.0-3.0-31.3-1.3","610840a82c975dee030ea34d","C3","batch3","tol_toboard","699","","","","","","","","","tol_peg_2","699","699","0","[[1,2,0],[3,0],[0]]","4","[[1,2,0],[3,0],[0]]","7","0","","","","","","4","","","","",""
"","","","","","poldrack-single-stim","252","1022939","0.0-3.0-32.0","610840a82c975dee030ea34d","C3","batch3","tol_feedback","-1","","","","","true","","","","","1000","1000","500","","","","","","-1","none","true","3351","7316","","","","","",""
"","","","","","html-button-response","253","1024791","0.0-3.0-33.0","610840a82c975dee030ea34d","C3","batch3","tol_trial_num","1850.1000000238419","<div class = centerbox><p class = center-block-text>problem <strong>9</strong> out of 25 problems</p></div>","0","","","","","","","","","","","","","","","","","","","","","","","","","",""
"","","","","","single-stim-button","254","1029375","0.0-3.0-34.0-0.0","610840a82c975dee030ea34d","C3","batch3","tol_tohand","4582","","","","","","","","","tol_peg_1","4582","4582","0","[[3,0,0],[0,0],[1]]","1","[[2,1,0],[3,0],[0]]","8","0","","","","","","6","","","","",""
"","","","","","single-stim-button","255","1030325","0.0-3.0-34.0-1.0","610840a82c975dee030ea34d","C3","batch3","tol_toboard","949","","","","","","","","","tol_peg_2","949","949","0","[[3,0,0],[2,0],[1]]","1","[[2,1,0],[3,0],[0]]","8","0","","","","","","6","","","","",""
"","","","","","single-stim-button","256","1030857","0.0-3.0-34.1-0.1","610840a82c975dee030ea34d","C3","batch3","tol_tohand","531","","","","","","","","","tol_peg_1","531","531","0","[[0,0,0],[2,0],[1]]","2","[[2,1,0],[3,0],[0]]","8","0","","","","","","6","","","","",""
"","","","","","single-stim-button","257","1036842","0.0-3.0-34.1-1.1","610840a82c975dee030ea34d","C3","batch3","tol_toboard","5984","","","","","","","","","tol_peg_2","5984","5984","0","[[0,0,0],[2,3],[1]]","2","[[2,1,0],[3,0],[0]]","8","0","","","","","","6","","","","",""
"","","","","","single-stim-button","258","1037442","0.0-3.0-34.2-0.2","610840a82c975dee030ea34d","C3","batch3","tol_tohand","598","","","","","","","","","tol_peg_3","598","598","0","[[0,0,0],[2,3],[0]]","3","[[2,1,0],[3,0],[0]]","8","0","","","","","","6","","","","",""
"","","","","","single-stim-button","259","1038542","0.0-3.0-34.2-1.2","610840a82c975dee030ea34d","C3","batch3","tol_toboard","1099","","","","","","","","","tol_peg_3","1099","1099","0","[[0,0,0],[2,3],[1]]","3","[[2,1,0],[3,0],[0]]","8","0","","","","","","6","","","","",""
"","","","","","single-stim-button","260","1043574","0.0-3.0-34.3-0.3","610840a82c975dee030ea34d","C3","batch3","tol_tohand","5031","","","","","","","","","tol_peg_3","5031","5031","0","[[0,0,0],[2,3],[0]]","4","[[2,1,0],[3,0],[0]]","8","0","","","","","","6","","","","",""
"","","","","","single-stim-button","261","1044207","0.0-3.0-34.3-1.3","610840a82c975dee030ea34d","C3","batch3","tol_toboard","632","","","","","","","","","tol_peg_1","632","632","0","[[1,0,0],[2,3],[0]]","4","[[2,1,0],[3,0],[0]]","8","0","","","","","","6","","","","",""
"","","","","","single-stim-button","262","1044924","0.0-3.0-34.4-0.4","610840a82c975dee030ea34d","C3","batch3","tol_tohand","717","","","","","","","","","tol_peg_2","717","717","0","[[1,0,0],[2,0],[0]]","5","[[2,1,0],[3,0],[0]]","8","0","","","","","","6","","","","",""
"","","","","","single-stim-button","263","1045491","0.0-3.0-34.4-1.4","610840a82c975dee030ea34d","C3","batch3","tol_toboard","565","","","","","","","","","tol_peg_3","565","565","0","[[1,0,0],[2,0],[3]]","5","[[2,1,0],[3,0],[0]]","8","0","","","","","","6","","","","",""
"","","","","","single-stim-button","264","1048976","0.0-3.0-34.5-0.5","610840a82c975dee030ea34d","C3","batch3","tol_tohand","3484","","","","","","","","","tol_peg_2","3484","3484","0","[[1,0,0],[0,0],[3]]","6","[[2,1,0],[3,0],[0]]","8","0","","","","","","6","","","","",""
"","","","","","single-stim-button","265","1051492","0.0-3.0-34.5-1.5","610840a82c975dee030ea34d","C3","batch3","tol_toboard","2516","","","","","","","","","tol_peg_2","2516","2516","0","[[1,0,0],[2,0],[3]]","6","[[2,1,0],[3,0],[0]]","8","0","","","","","","6","","","","",""
"","","","","","single-stim-button","266","1051958","0.0-3.0-34.6-0.6","610840a82c975dee030ea34d","C3","batch3","tol_tohand","464","","","","","","","","","tol_peg_3","464","464","0","[[1,0,0],[2,0],[0]]","7","[[2,1,0],[3,0],[0]]","8","0","","","","","","6","","","","",""
"","","","","","single-stim-button","267","1052424","0.0-3.0-34.6-1.6","610840a82c975dee030ea34d","C3","batch3","tol_toboard","466","","","","","","","","","tol_peg_2","466","466","0","[[1,0,0],[2,3],[0]]","7","[[2,1,0],[3,0],[0]]","8","0","","","","","","6","","","","",""
"","","","","","single-stim-button","268","1053326","0.0-3.0-34.7-0.7","610840a82c975dee030ea34d","C3","batch3","tol_tohand","901","","","","","","","","","tol_peg_1","901","901","0","[[0,0,0],[2,3],[0]]","8","[[2,1,0],[3,0],[0]]","8","0","","","","","","6","","","","",""
"","","","","","single-stim-button","269","1054174","0.0-3.0-34.7-1.7","610840a82c975dee030ea34d","C3","batch3","tol_toboard","847","","","","","","","","","tol_peg_3","847","847","0","[[0,0,0],[2,3],[1]]","8","[[2,1,0],[3,0],[0]]","8","0","","","","","","6","","","","",""
"","","","","","single-stim-button","270","1055575","0.0-3.0-34.8-0.8","610840a82c975dee030ea34d","C3","batch3","tol_tohand","1400","","","","","","","","","tol_peg_2","1400","1400","0","[[0,0,0],[2,0],[1]]","9","[[2,1,0],[3,0],[0]]","8","0","","","","","","6","","","","",""
"","","","","","single-stim-button","271","1056542","0.0-3.0-34.8-1.8","610840a82c975dee030ea34d","C3","batch3","tol_toboard","965","","","","","","","","","tol_peg_1","965","965","0","[[3,0,0],[2,0],[1]]","9","[[2,1,0],[3,0],[0]]","8","0","","","","","","6","","","","",""
"","","","","","single-stim-button","272","1057108","0.0-3.0-34.9-0.9","610840a82c975dee030ea34d","C3","batch3","tol_tohand","566","","","","","","","","","tol_peg_2","566","566","0","[[3,0,0],[0,0],[1]]","10","[[2,1,0],[3,0],[0]]","8","0","","","","","","6","","","","",""
"","","","","","single-stim-button","273","1057592","0.0-3.0-34.9-1.9","610840a82c975dee030ea34d","C3","batch3","tol_toboard","483","","","","","","","","","tol_peg_1","483","483","0","[[3,2,0],[0,0],[1]]","10","[[2,1,0],[3,0],[0]]","8","0","","","","","","6","","","","",""
"","","","","","single-stim-button","274","1058507","0.0-3.0-34.10-0.10","610840a82c975dee030ea34d","C3","batch3","tol_tohand","914","","","","","","","","","tol_peg_3","914","914","0","[[3,2,0],[0,0],[0]]","11","[[2,1,0],[3,0],[0]]","8","0","","","","","","6","","","","",""
"","","","","","single-stim-button","275","1059091","0.0-3.0-34.10-1.10","610840a82c975dee030ea34d","C3","batch3","tol_toboard","582","","","","","","","","","tol_peg_2","582","582","0","[[3,2,0],[1,0],[0]]","11","[[2,1,0],[3,0],[0]]","8","0","","","","","","6","","","","",""
"","","","","","single-stim-button","276","1060344","0.0-3.0-34.11-0.11","610840a82c975dee030ea34d","C3","batch3","tol_tohand","1252","","","","","","","","","tol_peg_1","1252","1252","0","[[3,0,0],[1,0],[0]]","12","[[2,1,0],[3,0],[0]]","8","0","","","","","","6","","","","",""
"","","","","","single-stim-button","277","1061576","0.0-3.0-34.11-1.11","610840a82c975dee030ea34d","C3","batch3","tol_toboard","1230","","","","","","","","","tol_peg_3","1230","1230","0","[[3,0,0],[1,0],[2]]","12","[[2,1,0],[3,0],[0]]","8","0","","","","","","6","","","","",""
"","","","","","single-stim-button","278","1062558","0.0-3.0-34.12-0.12","610840a82c975dee030ea34d","C3","batch3","tol_tohand","980","","","","","","","","","tol_peg_2","980","980","0","[[3,0,0],[0,0],[2]]","13","[[2,1,0],[3,0],[0]]","8","0","","","","","","6","","","","",""
"","","","","","single-stim-button","279","1063074","0.0-3.0-34.12-1.12","610840a82c975dee030ea34d","C3","batch3","tol_toboard","515","","","","","","","","","tol_peg_1","515","515","0","[[3,1,0],[0,0],[2]]","13","[[2,1,0],[3,0],[0]]","8","0","","","","","","6","","","","",""
"","","","","","single-stim-button","280","1072660","0.0-3.0-34.13-0.13","610840a82c975dee030ea34d","C3","batch3","tol_tohand","9585","","","","","","","","","tol_peg_1","9585","9585","0","[[3,0,0],[0,0],[2]]","14","[[2,1,0],[3,0],[0]]","8","0","","","","","","6","","","","",""
"","","","","","single-stim-button","281","1073809","0.0-3.0-34.13-1.13","610840a82c975dee030ea34d","C3","batch3","tol_toboard","1147","","","","","","","","","tol_peg_2","1147","1147","0","[[3,0,0],[1,0],[2]]","14","[[2,1,0],[3,0],[0]]","8","0","","","","","","6","","","","",""
"","","","","","single-stim-button","282","1074857","0.0-3.0-34.14-0.14","610840a82c975dee030ea34d","C3","batch3","tol_tohand","1048","","","","","","","","","tol_peg_1","1048","1048","0","[[0,0,0],[1,0],[2]]","15","[[2,1,0],[3,0],[0]]","8","0","","","","","","6","","","","",""
"","","","","","single-stim-button","283","1075323","0.0-3.0-34.14-1.14","610840a82c975dee030ea34d","C3","batch3","tol_toboard","466","","","","","","","","","tol_peg_2","466","466","0","[[0,0,0],[1,3],[2]]","15","[[2,1,0],[3,0],[0]]","8","0","","","","","","6","","","","",""
"","","","","","single-stim-button","284","1075791","0.0-3.0-34.15-0.15","610840a82c975dee030ea34d","C3","batch3","tol_tohand","467","","","","","","","","","tol_peg_3","467","467","0","[[0,0,0],[1,3],[0]]","16","[[2,1,0],[3,0],[0]]","8","0","","","","","","6","","","","",""
"","","","","","single-stim-button","285","1076307","0.0-3.0-34.15-1.15","610840a82c975dee030ea34d","C3","batch3","tol_toboard","515","","","","","","","","","tol_peg_1","515","515","0","[[2,0,0],[1,3],[0]]","16","[[2,1,0],[3,0],[0]]","8","0","","","","","","6","","","","",""
"","","","","","single-stim-button","286","1077324","0.0-3.0-34.16-0.16","610840a82c975dee030ea34d","C3","batch3","tol_tohand","1016","","","","","","","","","tol_peg_2","1016","1016","0","[[2,0,0],[1,0],[0]]","17","[[2,1,0],[3,0],[0]]","8","0","","","","","","6","","","","",""
"","","","","","single-stim-button","287","1077958","0.0-3.0-34.16-1.16","610840a82c975dee030ea34d","C3","batch3","tol_toboard","634","","","","","","","","","tol_peg_3","634","634","0","[[2,0,0],[1,0],[3]]","17","[[2,1,0],[3,0],[0]]","8","0","","","","","","6","","","","",""
"","","","","","single-stim-button","288","1078359","0.0-3.0-34.17-0.17","610840a82c975dee030ea34d","C3","batch3","tol_tohand","400","","","","","","","","","tol_peg_2","400","400","0","[[2,0,0],[0,0],[3]]","18","[[2,1,0],[3,0],[0]]","8","0","","","","","","6","","","","",""
"","","","","","single-stim-button","289","1078807","0.0-3.0-34.17-1.17","610840a82c975dee030ea34d","C3","batch3","tol_toboard","447","","","","","","","","","tol_peg_1","447","447","0","[[2,1,0],[0,0],[3]]","18","[[2,1,0],[3,0],[0]]","8","0","","","","","","6","","","","",""
"","","","","","single-stim-button","290","1080091","0.0-3.0-34.18-0.18","610840a82c975dee030ea34d","C3","batch3","tol_tohand","1284","","","","","","","","","tol_peg_3","1284","1284","0","[[2,1,0],[0,0],[0]]","19","[[2,1,0],[3,0],[0]]","8","0","","","","","","6","","","","",""
"","","","","","single-stim-button","291","1080875","0.0-3.0-34.18-1.18","610840a82c975dee030ea34d","C3","batch3","tol_toboard","784","","","","","","","","","tol_peg_2","784","784","0","[[2,1,0],[3,0],[0]]","19","[[2,1,0],[3,0],[0]]","8","0","","","","","","6","","","","",""
"","","","","","poldrack-single-stim","292","1081887","0.0-3.0-35.0","610840a82c975dee030ea34d","C3","batch3","tol_feedback","-1","","","","","true","","","","","1000","1000","500","","","","","","-1","none","true","4582","35220","","","","","",""
"","","","","","html-button-response","293","1082874","0.0-3.0-36.0","610840a82c975dee030ea34d","C3","batch3","tol_trial_num","985.2999999523163","<div class = centerbox><p class = center-block-text>problem <strong>10</strong> out of 25 problems</p></div>","0","","","","","","","","","","","","","","","","","","","","","","","","","",""
"","","","","","single-stim-button","294","1085625","0.0-3.0-37.0-0.0","610840a82c975dee030ea34d","C3","batch3","tol_tohand","2750","","","","","","","","","tol_peg_2","2750","2750","0","[[3,0,0],[0,0],[2]]","1","[[3,0,0],[2,1],[0]]","9","0","","","","","","3","","","","",""
"","","","","","single-stim-button","295","1088041","0.0-3.0-37.0-1.0","610840a82c975dee030ea34d","C3","batch3","tol_toboard","2416","","","","","","","","","tol_peg_1","2416","2416","0","[[3,1,0],[0,0],[2]]","1","[[3,0,0],[2,1],[0]]","9","0","","","","","","3","","","","",""
"","","","","","single-stim-button","296","1089224","0.0-3.0-37.1-0.1","610840a82c975dee030ea34d","C3","batch3","tol_tohand","1182","","","","","","","","","tol_peg_3","1182","1182","0","[[3,1,0],[0,0],[0]]","2","[[3,0,0],[2,1],[0]]","9","0","","","","","","3","","","","",""
"","","","","","single-stim-button","297","1090041","0.0-3.0-37.1-1.1","610840a82c975dee030ea34d","C3","batch3","tol_toboard","816","","","","","","","","","tol_peg_2","816","816","0","[[3,1,0],[2,0],[0]]","2","[[3,0,0],[2,1],[0]]","9","0","","","","","","3","","","","",""
"","","","","","single-stim-button","298","1090577","0.0-3.0-37.2-0.2","610840a82c975dee030ea34d","C3","batch3","tol_tohand","535","","","","","","","","","tol_peg_1","535","535","0","[[3,0,0],[2,0],[0]]","3","[[3,0,0],[2,1],[0]]","9","0","","","","","","3","","","","",""
"","","","","","single-stim-button","299","1091609","0.0-3.0-37.2-1.2","610840a82c975dee030ea34d","C3","batch3","tol_toboard","1030","","","","","","","","","tol_peg_2","1030","1030","0","[[3,0,0],[2,1],[0]]","3","[[3,0,0],[2,1],[0]]","9","0","","","","","","3","","","","",""
"","","","","","poldrack-single-stim","300","1092613","0.0-3.0-38.0","610840a82c975dee030ea34d","C3","batch3","tol_feedback","-1","","","","","true","","","","","1000","1000","500","","","","","","-1","none","true","2750","4467","","","","","",""
"","","","","","html-button-response","301","1093640","0.0-3.0-39.0","610840a82c975dee030ea34d","C3","batch3","tol_trial_num","1025.3000000715256","<div class = centerbox><p class = center-block-text>problem <strong>11</strong> out of 25 problems</p></div>","0","","","","","","","","","","","","","","","","","","","","","","","","","",""
"","","","","","single-stim-button","302","1098376","0.0-3.0-40.0-0.0","610840a82c975dee030ea34d","C3","batch3","tol_tohand","4735","","","","","","","","","tol_peg_2","4735","4735","0","[[1,2,0],[0,0],[0]]","1","[[2,0,0],[1,3],[0]]","10","0","","","","","","6","","","","",""
"","","","","","single-stim-button","303","1101691","0.0-3.0-40.0-1.0","610840a82c975dee030ea34d","C3","batch3","tol_toboard","3313","","","","","","","","","tol_peg_3","3313","3313","0","[[1,2,0],[0,0],[3]]","1","[[2,0,0],[1,3],[0]]","10","0","","","","","","6","","","","",""
"","","","","","single-stim-button","304","1102757","0.0-3.0-40.1-0.1","610840a82c975dee030ea34d","C3","batch3","tol_tohand","1066","","","","","","","","","tol_peg_1","1066","1066","0","[[1,0,0],[0,0],[3]]","2","[[2,0,0],[1,3],[0]]","10","0","","","","","","6","","","","",""
"","","","","","single-stim-button","305","1104475","0.0-3.0-40.1-1.1","610840a82c975dee030ea34d","C3","batch3","tol_toboard","1717","","","","","","","","","tol_peg_2","1717","1717","0","[[1,0,0],[2,0],[3]]","2","[[2,0,0],[1,3],[0]]","10","0","","","","","","6","","","","",""
"","","","","","single-stim-button","306","1105608","0.0-3.0-40.2-0.2","610840a82c975dee030ea34d","C3","batch3","tol_tohand","1131","","","","","","","","","tol_peg_1","1131","1131","0","[[0,0,0],[2,0],[3]]","3","[[2,0,0],[1,3],[0]]","10","0","","","","","","6","","","","",""
"","","","","","single-stim-button","307","1110258","0.0-3.0-40.2-1.2","610840a82c975dee030ea34d","C3","batch3","tol_toboard","4648","","","","","","","","","tol_peg_1","4648","4648","0","[[1,0,0],[2,0],[3]]","3","[[2,0,0],[1,3],[0]]","10","0","","","","","","6","","","","",""
"","","","","","single-stim-button","308","1111324","0.0-3.0-40.3-0.3","610840a82c975dee030ea34d","C3","batch3","tol_tohand","1065","","","","","","","","","tol_peg_3","1065","1065","0","[[1,0,0],[2,0],[0]]","4","[[2,0,0],[1,3],[0]]","10","0","","","","","","6","","","","",""
"","","","","","single-stim-button","309","1112191","0.0-3.0-40.3-1.3","610840a82c975dee030ea34d","C3","batch3","tol_toboard","865","","","","","","","","","tol_peg_1","865","865","0","[[1,3,0],[2,0],[0]]","4","[[2,0,0],[1,3],[0]]","10","0","","","","","","6","","","","",""
"","","","","","single-stim-button","310","1112760","0.0-3.0-40.4-0.4","610840a82c975dee030ea34d","C3","batch3","tol_tohand","568","","","","","","","","","tol_peg_2","568","568","0","[[1,3,0],[0,0],[0]]","5","[[2,0,0],[1,3],[0]]","10","0","","","","","","6","","","","",""
"","","","","","single-stim-button","311","1113642","0.0-3.0-40.4-1.4","610840a82c975dee030ea34d","C3","batch3","tol_toboard","881","","","","","","","","","tol_peg_3","881","881","0","[[1,3,0],[0,0],[2]]","5","[[2,0,0],[1,3],[0]]","10","0","","","","","","6","","","","",""
"","","","","","single-stim-button","312","1114391","0.0-3.0-40.5-0.5","610840a82c975dee030ea34d","C3","batch3","tol_tohand","748","","","","","","","","","tol_peg_1","748","748","0","[[1,0,0],[0,0],[2]]","6","[[2,0,0],[1,3],[0]]","10","0","","","","","","6","","","","",""
"","","","","","single-stim-button","313","1114857","0.0-3.0-40.5-1.5","610840a82c975dee030ea34d","C3","batch3","tol_toboard","465","","","","","","","","","tol_peg_2","465","465","0","[[1,0,0],[3,0],[2]]","6","[[2,0,0],[1,3],[0]]","10","0","","","","","","6","","","","",""
"","","","","","single-stim-button","314","1115490","0.0-3.0-40.6-0.6","610840a82c975dee030ea34d","C3","batch3","tol_tohand","632","","","","","","","","","tol_peg_1","632","632","0","[[0,0,0],[3,0],[2]]","7","[[2,0,0],[1,3],[0]]","10","0","","","","","","6","","","","",""
"","","","","","single-stim-button","315","1116008","0.0-3.0-40.6-1.6","610840a82c975dee030ea34d","C3","batch3","tol_toboard","516","","","","","","","","","tol_peg_2","516","516","0","[[0,0,0],[3,1],[2]]","7","[[2,0,0],[1,3],[0]]","10","0","","","","","","6","","","","",""
"","","","","","single-stim-button","316","1116574","0.0-3.0-40.7-0.7","610840a82c975dee030ea34d","C3","batch3","tol_tohand","566","","","","","","","","","tol_peg_3","566","566","0","[[0,0,0],[3,1],[0]]","8","[[2,0,0],[1,3],[0]]","10","0","","","","","","6","","","","",""
"","","","","","single-stim-button","317","1117207","0.0-3.0-40.7-1.7","610840a82c975dee030ea34d","C3","batch3","tol_toboard","632","","","","","","","","","tol_peg_1","632","632","0","[[2,0,0],[3,1],[0]]","8","[[2,0,0],[1,3],[0]]","10","0","","","","","","6","","","","",""
"","","","","","single-stim-button","318","1119291","0.0-3.0-40.8-0.8","610840a82c975dee030ea34d","C3","batch3","tol_tohand","2083","","","","","","","","","tol_peg_2","2083","2083","0","[[2,0,0],[3,0],[0]]","9","[[2,0,0],[1,3],[0]]","10","0","","","","","","6","","","","",""
"","","","","","single-stim-button","319","1120008","0.0-3.0-40.8-1.8","610840a82c975dee030ea34d","C3","batch3","tol_toboard","715","","","","","","","","","tol_peg_3","715","715","0","[[2,0,0],[3,0],[1]]","9","[[2,0,0],[1,3],[0]]","10","0","","","","","","6","","","","",""
"","","","","","single-stim-button","320","1120807","0.0-3.0-40.9-0.9","610840a82c975dee030ea34d","C3","batch3","tol_tohand","799","","","","","","","","","tol_peg_2","799","799","0","[[2,0,0],[0,0],[1]]","10","[[2,0,0],[1,3],[0]]","10","0","","","","","","6","","","","",""
"","","","","","single-stim-button","321","1121358","0.0-3.0-40.9-1.9","610840a82c975dee030ea34d","C3","batch3","tol_toboard","551","","","","","","","","","tol_peg_1","551","551","0","[[2,3,0],[0,0],[1]]","10","[[2,0,0],[1,3],[0]]","10","0","","","","","","6","","","","",""
"","","","","","single-stim-button","322","1122707","0.0-3.0-40.10-0.10","610840a82c975dee030ea34d","C3","batch3","tol_tohand","1348","","","","","","","","","tol_peg_3","1348","1348","0","[[2,3,0],[0,0],[0]]","11","[[2,0,0],[1,3],[0]]","10","0","","","","","","6","","","","",""
"","","","","","single-stim-button","323","1123425","0.0-3.0-40.10-1.10","610840a82c975dee030ea34d","C3","batch3","tol_toboard","716","","","","","","","","","tol_peg_2","716","716","0","[[2,3,0],[1,0],[0]]","11","[[2,0,0],[1,3],[0]]","10","0","","","","","","6","","","","",""
"","","","","","single-stim-button","324","1124277","0.0-3.0-40.11-0.11","610840a82c975dee030ea34d","C3","batch3","tol_tohand","851","","","","","","","","","tol_peg_1","851","851","0","[[2,0,0],[1,0],[0]]","12","[[2,0,0],[1,3],[0]]","10","0","","","","","","6","","","","",""
"","","","","","single-stim-button","325","1124808","0.0-3.0-40.11-1.11","610840a82c975dee030ea34d","C3","batch3","tol_toboard","530","","","","","","","","","tol_peg_2","530","530","0","[[2,0,0],[1,3],[0]]","12","[[2,0,0],[1,3],[0]]","10","0","","","","","","6","","","","",""
"","","","","","poldrack-single-stim","326","1125816","0.0-3.0-41.0","610840a82c975dee030ea34d","C3","batch3","tol_feedback","-1","","","","","true","","","","","1000","1000","500","","","","","","-1","none","true","4735","15592","","","","","",""
"","","","","","html-button-response","327","1127724","0.0-3.0-42.0","610840a82c975dee030ea34d","C3","batch3","tol_trial_num","1906.1000000238419","<div class = centerbox><p class = center-block-text>problem <strong>12</strong> out of 25 problems</p></div>","0","","","","","","","","","","","","","","","","","","","","","","","","","",""
"","","","","","single-stim-button","328","1129742","0.0-3.0-43.0-0.0","610840a82c975dee030ea34d","C3","batch3","tol_tohand","2016","","","","","","","","","tol_peg_1","2016","2016","0","[[1,0,0],[3,0],[0]]","1","[[2,3,0],[0,0],[1]]","11","0","","","","","","4","","","","",""
"","","","","","single-stim-button","329","1132008","0.0-3.0-43.0-1.0","610840a82c975dee030ea34d","C3","batch3","tol_toboard","2264","","","","","","","","","tol_peg_3","2264","2264","0","[[1,0,0],[3,0],[2]]","1","[[2,3,0],[0,0],[1]]","11","0","","","","","","4","","","","",""
"","","","","","single-stim-button","330","1132690","0.0-3.0-43.1-0.1","610840a82c975dee030ea34d","C3","batch3","tol_tohand","681","","","","","","","","","tol_peg_1","681","681","0","[[0,0,0],[3,0],[2]]","2","[[2,3,0],[0,0],[1]]","11","0","","","","","","4","","","","",""
"","","","","","single-stim-button","331","1135746","0.0-3.0-43.1-1.1","610840a82c975dee030ea34d","C3","batch3","tol_toboard","3055","","","","","","","","","tol_peg_2","3055","3055","0","[[0,0,0],[3,1],[2]]","2","[[2,3,0],[0,0],[1]]","11","0","","","","","","4","","","","",""
"","","","","","single-stim-button","332","1136257","0.0-3.0-43.2-0.2","610840a82c975dee030ea34d","C3","batch3","tol_tohand","510","","","","","","","","","tol_peg_3","510","510","0","[[0,0,0],[3,1],[0]]","3","[[2,3,0],[0,0],[1]]","11","0","","","","","","4","","","","",""
"","","","","","single-stim-button","333","1137008","0.0-3.0-43.2-1.2","610840a82c975dee030ea34d","C3","batch3","tol_toboard","749","","","","","","","","","tol_peg_1","749","749","0","[[2,0,0],[3,1],[0]]","3","[[2,3,0],[0,0],[1]]","11","0","","","","","","4","","","","",""
"","","","","","single-stim-button","334","1137909","0.0-3.0-43.3-0.3","610840a82c975dee030ea34d","C3","batch3","tol_tohand","900","","","","","","","","","tol_peg_2","900","900","0","[[2,0,0],[3,0],[0]]","4","[[2,3,0],[0,0],[1]]","11","0","","","","","","4","","","","",""
"","","","","","single-stim-button","335","1138491","0.0-3.0-43.3-1.3","610840a82c975dee030ea34d","C3","batch3","tol_toboard","582","","","","","","","","","tol_peg_3","582","582","0","[[2,0,0],[3,0],[1]]","4","[[2,3,0],[0,0],[1]]","11","0","","","","","","4","","","","",""
"","","","","","single-stim-button","336","1139410","0.0-3.0-43.4-0.4","610840a82c975dee030ea34d","C3","batch3","tol_tohand","918","","","","","","","","","tol_peg_2","918","918","0","[[2,0,0],[0,0],[1]]","5","[[2,3,0],[0,0],[1]]","11","0","","","","","","4","","","","",""
"","","","","","single-stim-button","337","1140109","0.0-3.0-43.4-1.4","610840a82c975dee030ea34d","C3","batch3","tol_toboard","698","","","","","","","","","tol_peg_1","698","698","0","[[2,3,0],[0,0],[1]]","5","[[2,3,0],[0,0],[1]]","11","0","","","","","","4","","","","",""
"","","","","","poldrack-single-stim","338","1141117","0.0-3.0-44.0","610840a82c975dee030ea34d","C3","batch3","tol_feedback","-1","","","","","true","","","","","1000","1000","500","","","","","","-1","none","true","2016","5025","","","","","",""
"","","","","","html-button-response","339","1147124","0.0-3.0-45.0","610840a82c975dee030ea34d","C3","batch3","tol_trial_num","6005.200000047684","<div class = centerbox><p class = center-block-text>problem <strong>13</strong> out of 25 problems</p></div>","0","","","","","","","","","","","","","","","","","","","","","","","","","",""
"","","","","","single-stim-button","340","1149461","0.0-3.0-46.0-0.0","610840a82c975dee030ea34d","C3","batch3","tol_tohand","2335","","","","","","","","","tol_peg_1","2335","2335","0","[[1,0,0],[3,0],[0]]","1","[[0,0,0],[2,3],[1]]","12","0","","","","","","4","","","","",""
"","","","","","single-stim-button","341","1150491","0.0-3.0-46.0-1.0","610840a82c975dee030ea34d","C3","batch3","tol_toboard","1028","","","","","","","","","tol_peg_2","1028","1028","0","[[1,0,0],[3,2],[0]]","1","[[0,0,0],[2,3],[1]]","12","0","","","","","","4","","","","",""
"","","","","","single-stim-button","342","1151043","0.0-3.0-46.1-0.1","610840a82c975dee030ea34d","C3","batch3","tol_tohand","551","","","","","","","","","tol_peg_1","551","551","0","[[0,0,0],[3,2],[0]]","2","[[0,0,0],[2,3],[1]]","12","0","","","","","","4","","","","",""
"","","","","","single-stim-button","343","1151576","0.0-3.0-46.1-1.1","610840a82c975dee030ea34d","C3","batch3","tol_toboard","531","","","","","","","","","tol_peg_3","531","531","0","[[0,0,0],[3,2],[1]]","2","[[0,0,0],[2,3],[1]]","12","0","","","","","","4","","","","",""
"","","","","","single-stim-button","344","1152108","0.0-3.0-46.2-0.2","610840a82c975dee030ea34d","C3","batch3","tol_tohand","531","","","","","","","","","tol_peg_2","531","531","0","[[0,0,0],[3,0],[1]]","3","[[0,0,0],[2,3],[1]]","12","0","","","","","","4","","","","",""
"","","","","","single-stim-button","345","1153257","0.0-3.0-46.2-1.2","610840a82c975dee030ea34d","C3","batch3","tol_toboard","1148","","","","","","","","","tol_peg_1","1148","1148","0","[[2,0,0],[3,0],[1]]","3","[[0,0,0],[2,3],[1]]","12","0","","","","","","4","","","","",""
"","","","","","single-stim-button","346","1153777","0.0-3.0-46.3-0.3","610840a82c975dee030ea34d","C3","batch3","tol_tohand","519","","","","","","","","","tol_peg_2","519","519","0","[[2,0,0],[0,0],[1]]","4","[[0,0,0],[2,3],[1]]","12","0","","","","","","4","","","","",""
"","","","","","single-stim-button","347","1155158","0.0-3.0-46.3-1.3","610840a82c975dee030ea34d","C3","batch3","tol_toboard","1379","","","","","","","","","tol_peg_1","1379","1379","0","[[2,3,0],[0,0],[1]]","4","[[0,0,0],[2,3],[1]]","12","0","","","","","","4","","","","",""
"","","","","","single-stim-button","348","1156792","0.0-3.0-46.4-0.4","610840a82c975dee030ea34d","C3","batch3","tol_tohand","1633","","","","","","","","","tol_peg_1","1633","1633","0","[[2,0,0],[0,0],[1]]","5","[[0,0,0],[2,3],[1]]","12","0","","","","","","4","","","","",""
"","","","","","single-stim-button","349","1157275","0.0-3.0-46.4-1.4","610840a82c975dee030ea34d","C3","batch3","tol_toboard","482","","","","","","","","","tol_peg_2","482","482","0","[[2,0,0],[3,0],[1]]","5","[[0,0,0],[2,3],[1]]","12","0","","","","","","4","","","","",""
"","","","","","single-stim-button","350","1158207","0.0-3.0-46.5-0.5","610840a82c975dee030ea34d","C3","batch3","tol_tohand","931","","","","","","","","","tol_peg_3","931","931","0","[[2,0,0],[3,0],[0]]","6","[[0,0,0],[2,3],[1]]","12","0","","","","","","4","","","","",""
"","","","","","single-stim-button","351","1159407","0.0-3.0-46.5-1.5","610840a82c975dee030ea34d","C3","batch3","tol_toboard","1199","","","","","","","","","tol_peg_1","1199","1199","0","[[2,1,0],[3,0],[0]]","6","[[0,0,0],[2,3],[1]]","12","0","","","","","","4","","","","",""
"","","","","","single-stim-button","352","1159841","0.0-3.0-46.6-0.6","610840a82c975dee030ea34d","C3","batch3","tol_tohand","433","","","","","","","","","tol_peg_2","433","433","0","[[2,1,0],[0,0],[0]]","7","[[0,0,0],[2,3],[1]]","12","0","","","","","","4","","","","",""
"","","","","","single-stim-button","353","1160407","0.0-3.0-46.6-1.6","610840a82c975dee030ea34d","C3","batch3","tol_toboard","565","","","","","","","","","tol_peg_3","565","565","0","[[2,1,0],[0,0],[3]]","7","[[0,0,0],[2,3],[1]]","12","0","","","","","","4","","","","",""
"","","","","","single-stim-button","354","1161811","0.0-3.0-46.7-0.7","610840a82c975dee030ea34d","C3","batch3","tol_tohand","1403","","","","","","","","","tol_peg_1","1403","1403","0","[[2,0,0],[0,0],[3]]","8","[[0,0,0],[2,3],[1]]","12","0","","","","","","4","","","","",""
"","","","","","single-stim-button","355","1162595","0.0-3.0-46.7-1.7","610840a82c975dee030ea34d","C3","batch3","tol_toboard","783","","","","","","","","","tol_peg_2","783","783","0","[[2,0,0],[1,0],[3]]","8","[[0,0,0],[2,3],[1]]","12","0","","","","","","4","","","","",""
