"success","timeout","failed_images","failed_audio","failed_video","trial_type","trial_index","time_elapsed","internal_node_id","subject_id","study_id","session_id","task","rt","stimulus","response","item","answer","correct","spm_correct","spm_rt","view_history","mouse_click","stim_duration","block_duration","timing_post_trial","current_position","tol_num_moves_made","tol_target","tol_problem_id","tol_rt","key_press","possible_responses","tol_correct","preplanning","tol_rt_per_trial","tol_min_moves","fiar_detect_rt","fiar_detect_correct","total_correct_fiar_detect","post_trial_gap","choices"
"true","false","[]","[]","[]","preload","0","991","0.0-0.0","610a30b7a800f225aa297939","A3","batch1","","","","","","","","","","","","","","","","","","","","","","","","","","","","","",""
"true","","","","","fullscreen","1","6963","0.0-1.0-0.0","610a30b7a800f225aa297939","A3","batch1","","","","","","","","","","","","","","","","","","","","","","","","","","","","","",""
"true","","","","","fullscreen","2","12210","0.0-2.0-0.0","610a30b7a800f225aa297939","A3","batch1","spm_fullscreen","","","","","","","","","","","","","","","","","","","","","","","","","","","","",""
"","","","","","html-button-response","3","19040","0.0-2.0-1.0","610a30b7a800f225aa297939","A3","batch1","","6827.9000000059605","<p class = block-text><b>Instructions</b> <br>This is a widely used intelligence test in research. <br>In this test, a figure with a missing piece will be presented.<br>Below the figure are alternative pieces to complete the figure, only one of which is correct.<br> Different figures might involve different principles for obtaining the missing piece<br>Your job is to select the most logical piece to complete the figure.</p>","0","","","","","","","","","","","","","","","","","","","","","","","","","",""
"","","","","","html-keyboard-response","4","19849","0.0-2.0-2.0-0.0","610a30b7a800f225aa297939","A3","batch1","spm_show_trial_num","null","<p class=block-text>Trial 1 out of 60</p>","null","","","","","","","","","","","","","","","","","","","","","","","","","",""
"","","","","","image-button-response","5","22608","0.0-2.0-2.0-1.0","610a30b7a800f225aa297939","A3","batch1","spm_respsonse","2744.7000000029802","img/question_1_1.jpeg","1","mat_01","4","0","0","2744.7000000029802","","","","","","","","","","","","","","","","","","","","",""
"","","","","","html-keyboard-response","6","23672","0.0-2.0-2.0-0.1","610a30b7a800f225aa297939","A3","batch1","spm_show_trial_num","null","<p class=block-text>Trial 2 out of 60</p>","null","","","","","","","","","","","","","","","","","","","","","","","","","",""
"","","","","","image-button-response","7","25975","0.0-2.0-2.0-1.1","610a30b7a800f225aa297939","A3","batch1","spm_respsonse","2300.699999988079","img/question_1_2.jpeg","4","mat_02","5","1","1","2300.699999988079","","","","","","","","","","","","","","","","","","","","",""
"","","","","","html-keyboard-response","8","27045","0.0-2.0-2.0-0.2","610a30b7a800f225aa297939","A3","batch1","spm_show_trial_num","null","<p class=block-text>Trial 3 out of 60</p>","null","","","","","","","","","","","","","","","","","","","","","","","","","",""
"","","","","","image-button-response","9","29626","0.0-2.0-2.0-1.2","610a30b7a800f225aa297939","A3","batch1","spm_respsonse","2578.9000000059605","img/question_1_3.jpeg","0","mat_03","1","1","1","2578.9000000059605","","","","","","","","","","","","","","","","","","","","",""
"","","","","","html-keyboard-response","10","30689","0.0-2.0-2.0-0.3","610a30b7a800f225aa297939","A3","batch1","spm_show_trial_num","null","<p class=block-text>Trial 4 out of 60</p>","null","","","","","","","","","","","","","","","","","","","","","","","","","",""
"","","","","","image-button-response","11","33294","0.0-2.0-2.0-1.3","610a30b7a800f225aa297939","A3","batch1","spm_respsonse","2602.5999999940395","img/question_1_4.jpeg","1","mat_04","2","1","1","2602.5999999940395","","","","","","","","","","","","","","","","","","","","",""
"","","","","","html-keyboard-response","12","34362","0.0-2.0-2.0-0.4","610a30b7a800f225aa297939","A3","batch1","spm_show_trial_num","null","<p class=block-text>Trial 5 out of 60</p>","null","","","","","","","","","","","","","","","","","","","","","","","","","",""
"","","","","","image-button-response","13","36811","0.0-2.0-2.0-1.4","610a30b7a800f225aa297939","A3","batch1","spm_respsonse","2447","img/question_1_5.jpeg","5","mat_05","6","1","1","2447","","","","","","","","","","","","","","","","","","","","",""
"","","","","","html-keyboard-response","14","37875","0.0-2.0-2.0-0.5","610a30b7a800f225aa297939","A3","batch1","spm_show_trial_num","null","<p class=block-text>Trial 6 out of 60</p>","null","","","","","","","","","","","","","","","","","","","","","","","","","",""
"","","","","","image-button-response","15","39828","0.0-2.0-2.0-1.5","610a30b7a800f225aa297939","A3","batch1","spm_respsonse","1951.2000000029802","img/question_1_6.jpeg","2","mat_06","3","1","1","1951.2000000029802","","","","","","","","","","","","","","","","","","","","",""
"","","","","","html-keyboard-response","16","40889","0.0-2.0-2.0-0.6","610a30b7a800f225aa297939","A3","batch1","spm_show_trial_num","null","<p class=block-text>Trial 7 out of 60</p>","null","","","","","","","","","","","","","","","","","","","","","","","","","",""
"","","","","","image-button-response","17","45129","0.0-2.0-2.0-1.6","610a30b7a800f225aa297939","A3","batch1","spm_respsonse","4237.79999999702","img/question_1_7.jpeg","5","mat_07","6","1","1","4237.79999999702","","","","","","","","","","","","","","","","","","","","",""
"","","","","","html-keyboard-response","18","46197","0.0-2.0-2.0-0.7","610a30b7a800f225aa297939","A3","batch1","spm_show_trial_num","null","<p class=block-text>Trial 8 out of 60</p>","null","","","","","","","","","","","","","","","","","","","","","","","","","",""
"","","","","","image-button-response","19","50931","0.0-2.0-2.0-1.7","610a30b7a800f225aa297939","A3","batch1","spm_respsonse","4732.29999999702","img/question_1_8.jpeg","1","mat_08","2","1","1","4732.29999999702","","","","","","","","","","","","","","","","","","","","",""
"","","","","","html-keyboard-response","20","51992","0.0-2.0-2.0-0.8","610a30b7a800f225aa297939","A3","batch1","spm_show_trial_num","null","<p class=block-text>Trial 9 out of 60</p>","null","","","","","","","","","","","","","","","","","","","","","","","","","",""
"","","","","","image-button-response","21","56399","0.0-2.0-2.0-1.8","610a30b7a800f225aa297939","A3","batch1","spm_respsonse","4404.5","img/question_1_9.jpeg","0","mat_09","1","1","1","4404.5","","","","","","","","","","","","","","","","","","","","",""
"","","","","","html-keyboard-response","22","57465","0.0-2.0-2.0-0.9","610a30b7a800f225aa297939","A3","batch1","spm_show_trial_num","null","<p class=block-text>Trial 10 out of 60</p>","null","","","","","","","","","","","","","","","","","","","","","","","","","",""
"","","","","","image-button-response","23","66834","0.0-2.0-2.0-1.9","610a30b7a800f225aa297939","A3","batch1","spm_respsonse","9367.09999999404","img/question_1_10.jpeg","2","mat_10","3","1","1","9367.09999999404","","","","","","","","","","","","","","","","","","","","",""
"","","","","","html-keyboard-response","24","67896","0.0-2.0-2.0-0.10","610a30b7a800f225aa297939","A3","batch1","spm_show_trial_num","null","<p class=block-text>Trial 11 out of 60</p>","null","","","","","","","","","","","","","","","","","","","","","","","","","",""
"","","","","","image-button-response","25","74853","0.0-2.0-2.0-1.10","610a30b7a800f225aa297939","A3","batch1","spm_respsonse","6954.29999999702","img/question_1_11.jpeg","3","mat_11","4","1","1","6954.29999999702","","","","","","","","","","","","","","","","","","","","",""
"","","","","","html-keyboard-response","26","75924","0.0-2.0-2.0-0.11","610a30b7a800f225aa297939","A3","batch1","spm_show_trial_num","null","<p class=block-text>Trial 12 out of 60</p>","null","","","","","","","","","","","","","","","","","","","","","","","","","",""
"","","","","","image-button-response","27","84337","0.0-2.0-2.0-1.11","610a30b7a800f225aa297939","A3","batch1","spm_respsonse","8411.29999999702","img/question_1_12.jpeg","0","mat_12","5","0","0","8411.29999999702","","","","","","","","","","","","","","","","","","","","",""
"","","","","","html-keyboard-response","28","85404","0.0-2.0-2.0-0.12","610a30b7a800f225aa297939","A3","batch1","spm_show_trial_num","null","<p class=block-text>Trial 13 out of 60</p>","null","","","","","","","","","","","","","","","","","","","","","","","","","",""
"","","","","","image-button-response","29","87456","0.0-2.0-2.0-1.12","610a30b7a800f225aa297939","A3","batch1","spm_respsonse","2049.5","img/question_2_1.jpeg","1","mat_13","2","1","1","2049.5","","","","","","","","","","","","","","","","","","","","",""
"","","","","","html-keyboard-response","30","88520","0.0-2.0-2.0-0.13","610a30b7a800f225aa297939","A3","batch1","spm_show_trial_num","null","<p class=block-text>Trial 14 out of 60</p>","null","","","","","","","","","","","","","","","","","","","","","","","","","",""
"","","","","","image-button-response","31","91306","0.0-2.0-2.0-1.13","610a30b7a800f225aa297939","A3","batch1","spm_respsonse","2783.7000000029802","img/question_2_2.jpeg","5","mat_14","6","1","1","2783.7000000029802","","","","","","","","","","","","","","","","","","","","",""
"","","","","","html-keyboard-response","32","92372","0.0-2.0-2.0-0.14","610a30b7a800f225aa297939","A3","batch1","spm_show_trial_num","null","<p class=block-text>Trial 15 out of 60</p>","null","","","","","","","","","","","","","","","","","","","","","","","","","",""
"","","","","","image-button-response","33","94540","0.0-2.0-2.0-1.14","610a30b7a800f225aa297939","A3","batch1","spm_respsonse","2166.2000000029802","img/question_2_3.jpeg","0","mat_15","1","1","1","2166.2000000029802","","","","","","","","","","","","","","","","","","","","",""
"","","","","","html-keyboard-response","34","95612","0.0-2.0-2.0-0.15","610a30b7a800f225aa297939","A3","batch1","spm_show_trial_num","null","<p class=block-text>Trial 16 out of 60</p>","null","","","","","","","","","","","","","","","","","","","","","","","","","",""
"","","","","","image-button-response","35","98558","0.0-2.0-2.0-1.15","610a30b7a800f225aa297939","A3","batch1","spm_respsonse","2943.7999999970198","img/question_2_4.jpeg","1","mat_16","2","1","1","2943.7999999970198","","","","","","","","","","","","","","","","","","","","",""
"","","","","","html-keyboard-response","36","99628","0.0-2.0-2.0-0.16","610a30b7a800f225aa297939","A3","batch1","spm_show_trial_num","null","<p class=block-text>Trial 17 out of 60</p>","null","","","","","","","","","","","","","","","","","","","","","","","","","",""
"","","","","","image-button-response","37","102676","0.0-2.0-2.0-1.16","610a30b7a800f225aa297939","A3","batch1","spm_respsonse","3045.7000000029802","img/question_2_5.jpeg","0","mat_17","1","1","1","3045.7000000029802","","","","","","","","","","","","","","","","","","","","",""
"","","","","","html-keyboard-response","38","103739","0.0-2.0-2.0-0.17","610a30b7a800f225aa297939","A3","batch1","spm_show_trial_num","null","<p class=block-text>Trial 18 out of 60</p>","null","","","","","","","","","","","","","","","","","","","","","","","","","",""
"","","","","","image-button-response","39","107326","0.0-2.0-2.0-1.17","610a30b7a800f225aa297939","A3","batch1","spm_respsonse","3584.7999999970198","img/question_2_6.jpeg","2","mat_18","3","1","1","3584.7999999970198","","","","","","","","","","","","","","","","","","","","",""
"","","","","","html-keyboard-response","40","108395","0.0-2.0-2.0-0.18","610a30b7a800f225aa297939","A3","batch1","spm_show_trial_num","null","<p class=block-text>Trial 19 out of 60</p>","null","","","","","","","","","","","","","","","","","","","","","","","","","",""
"","","","","","image-button-response","41","112261","0.0-2.0-2.0-1.18","610a30b7a800f225aa297939","A3","batch1","spm_respsonse","3862.9000000059605","img/question_2_7.jpeg","4","mat_19","5","1","1","3862.9000000059605","","","","","","","","","","","","","","","","","","","","",""
"","","","","","html-keyboard-response","42","113326","0.0-2.0-2.0-0.19","610a30b7a800f225aa297939","A3","batch1","spm_show_trial_num","null","<p class=block-text>Trial 20 out of 60</p>","null","","","","","","","","","","","","","","","","","","","","","","","","","",""
"","","","","","image-button-response","43","117795","0.0-2.0-2.0-1.19","610a30b7a800f225aa297939","A3","batch1","spm_respsonse","4466.70000000298","img/question_2_8.jpeg","5","mat_20","6","1","1","4466.70000000298","","","","","","","","","","","","","","","","","","","","",""
"","","","","","html-keyboard-response","44","118857","0.0-2.0-2.0-0.20","610a30b7a800f225aa297939","A3","batch1","spm_show_trial_num","null","<p class=block-text>Trial 21 out of 60</p>","null","","","","","","","","","","","","","","","","","","","","","","","","","",""
"","","","","","image-button-response","45","123262","0.0-2.0-2.0-1.20","610a30b7a800f225aa297939","A3","batch1","spm_respsonse","4402.5999999940395","img/question_2_9.jpeg","3","mat_21","4","1","1","4402.5999999940395","","","","","","","","","","","","","","","","","","","","",""
"","","","","","html-keyboard-response","46","124327","0.0-2.0-2.0-0.21","610a30b7a800f225aa297939","A3","batch1","spm_show_trial_num","null","<p class=block-text>Trial 22 out of 60</p>","null","","","","","","","","","","","","","","","","","","","","","","","","","",""
"","","","","","image-button-response","47","128063","0.0-2.0-2.0-1.21","610a30b7a800f225aa297939","A3","batch1","spm_respsonse","3734.800000011921","img/question_2_10.jpeg","2","mat_22","3","1","1","3734.800000011921","","","","","","","","","","","","","","","","","","","","",""
"","","","","","html-keyboard-response","48","129127","0.0-2.0-2.0-0.22","610a30b7a800f225aa297939","A3","batch1","spm_show_trial_num","null","<p class=block-text>Trial 23 out of 60</p>","null","","","","","","","","","","","","","","","","","","","","","","","","","",""
"","","","","","image-button-response","49","133598","0.0-2.0-2.0-1.22","610a30b7a800f225aa297939","A3","batch1","spm_respsonse","4469.100000008941","img/question_2_11.jpeg","3","mat_23","4","1","1","4469.100000008941","","","","","","","","","","","","","","","","","","","","",""
"","","","","","html-keyboard-response","50","134665","0.0-2.0-2.0-0.23","610a30b7a800f225aa297939","A3","batch1","spm_show_trial_num","null","<p class=block-text>Trial 24 out of 60</p>","null","","","","","","","","","","","","","","","","","","","","","","","","","",""
"","","","","","image-button-response","51","142900","0.0-2.0-2.0-1.23","610a30b7a800f225aa297939","A3","batch1","spm_respsonse","8233.20000000298","img/question_2_12.jpeg","4","mat_24","5","1","1","8233.20000000298","","","","","","","","","","","","","","","","","","","","",""
"","","","","","html-button-response","52","144617","0.0-2.0-3.0","610a30b7a800f225aa297939","A3","batch1","attention_check","1452.7999999970198","<p class = block-text>Attention check: Please choose 1<br></p>","0","","","true","","","","","","","","","","","","","","","","","","","","","","",""
"","","","","","html-keyboard-response","53","145422","0.0-2.0-4.0-0.0","610a30b7a800f225aa297939","A3","batch1","spm_show_trial_num","null","<p class=block-text>Trial 25 out of 60</p>","null","","","","","","","","","","","","","","","","","","","","","","","","","",""
"","","","","","image-button-response","54","151898","0.0-2.0-4.0-1.0","610a30b7a800f225aa297939","A3","batch1","spm_respsonse","6476.9000000059605","img/question_3_1.jpeg","7","mat_25","8","1","1","6476.9000000059605","","","","","","","","","","","","","","","","","","","","",""
"","","","","","html-keyboard-response","55","152962","0.0-2.0-4.0-0.1","610a30b7a800f225aa297939","A3","batch1","spm_show_trial_num","null","<p class=block-text>Trial 26 out of 60</p>","null","","","","","","","","","","","","","","","","","","","","","","","","","",""
"","","","","","image-button-response","56","159696","0.0-2.0-4.0-1.1","610a30b7a800f225aa297939","A3","batch1","spm_respsonse","6734","img/question_3_2.jpeg","1","mat_26","2","1","1","6734","","","","","","","","","","","","","","","","","","","","",""
"","","","","","html-keyboard-response","57","160761","0.0-2.0-4.0-0.2","610a30b7a800f225aa297939","A3","batch1","spm_show_trial_num","null","<p class=block-text>Trial 27 out of 60</p>","null","","","","","","","","","","","","","","","","","","","","","","","","","",""
"","","","","","image-button-response","58","166979","0.0-2.0-4.0-1.2","610a30b7a800f225aa297939","A3","batch1","spm_respsonse","6217.20000000298","img/question_3_3.jpeg","2","mat_27","3","1","1","6217.20000000298","","","","","","","","","","","","","","","","","","","","",""
"","","","","","html-keyboard-response","59","168049","0.0-2.0-4.0-0.3","610a30b7a800f225aa297939","A3","batch1","spm_show_trial_num","null","<p class=block-text>Trial 28 out of 60</p>","null","","","","","","","","","","","","","","","","","","","","","","","","","",""
"","","","","","image-button-response","60","185796","0.0-2.0-4.0-1.3","610a30b7a800f225aa297939","A3","batch1","spm_respsonse","17746.79999999702","img/question_3_4.jpeg","7","mat_28","8","1","1","17746.79999999702","","","","","","","","","","","","","","","","","","","","",""
"","","","","","html-keyboard-response","61","186861","0.0-2.0-4.0-0.4","610a30b7a800f225aa297939","A3","batch1","spm_show_trial_num","null","<p class=block-text>Trial 29 out of 60</p>","null","","","","","","","","","","","","","","","","","","","","","","","","","",""
"","","","","","image-button-response","62","195531","0.0-2.0-4.0-1.4","610a30b7a800f225aa297939","A3","batch1","spm_respsonse","8668.10000000894","img/question_3_5.jpeg","6","mat_29","7","1","1","8668.10000000894","","","","","","","","","","","","","","","","","","","","",""
"","","","","","html-keyboard-response","63","196597","0.0-2.0-4.0-0.5","610a30b7a800f225aa297939","A3","batch1","spm_show_trial_num","null","<p class=block-text>Trial 30 out of 60</p>","null","","","","","","","","","","","","","","","","","","","","","","","","","",""
"","","","","","image-button-response","64","202248","0.0-2.0-4.0-1.5","610a30b7a800f225aa297939","A3","batch1","spm_respsonse","5649.399999991059","img/question_3_6.jpeg","3","mat_30","4","1","1","5649.399999991059","","","","","","","","","","","","","","","","","","","","",""
"","","","","","html-keyboard-response","65","203314","0.0-2.0-4.0-0.6","610a30b7a800f225aa297939","A3","batch1","spm_show_trial_num","null","<p class=block-text>Trial 31 out of 60</p>","null","","","","","","","","","","","","","","","","","","","","","","","","","",""
"","","","","","image-button-response","66","208966","0.0-2.0-4.0-1.6","610a30b7a800f225aa297939","A3","batch1","spm_respsonse","5650.20000000298","img/question_3_7.jpeg","4","mat_31","5","1","1","5650.20000000298","","","","","","","","","","","","","","","","","","","","",""
"","","","","","html-keyboard-response","67","210027","0.0-2.0-4.0-0.7","610a30b7a800f225aa297939","A3","batch1","spm_show_trial_num","null","<p class=block-text>Trial 32 out of 60</p>","null","","","","","","","","","","","","","","","","","","","","","","","","","",""
"","","","","","image-button-response","68","213651","0.0-2.0-4.0-1.7","610a30b7a800f225aa297939","A3","batch1","spm_respsonse","3621.8999999910593","img/question_3_8.jpeg","0","mat_32","1","1","1","3621.8999999910593","","","","","","","","","","","","","","","","","","","","",""
"","","","","","html-keyboard-response","69","214714","0.0-2.0-4.0-0.8","610a30b7a800f225aa297939","A3","batch1","spm_show_trial_num","null","<p class=block-text>Trial 33 out of 60</p>","null","","","","","","","","","","","","","","","","","","","","","","","","","",""
"","","","","","image-button-response","70","218218","0.0-2.0-4.0-1.8","610a30b7a800f225aa297939","A3","batch1","spm_respsonse","3502.0999999940395","img/question_3_9.jpeg","0","mat_33","7","0","0","3502.0999999940395","","","","","","","","","","","","","","","","","","","","",""
"","","","","","html-keyboard-response","71","219282","0.0-2.0-4.0-0.9","610a30b7a800f225aa297939","A3","batch1","spm_show_trial_num","null","<p class=block-text>Trial 34 out of 60</p>","null","","","","","","","","","","","","","","","","","","","","","","","","","",""
"","","","","","image-button-response","72","234805","0.0-2.0-4.0-1.9","610a30b7a800f225aa297939","A3","batch1","spm_respsonse","15521.79999999702","img/question_3_10.jpeg","5","mat_34","6","1","1","15521.79999999702","","","","","","","","","","","","","","","","","","","","",""
"","","","","","html-keyboard-response","73","235865","0.0-2.0-4.0-0.10","610a30b7a800f225aa297939","A3","batch1","spm_show_trial_num","null","<p class=block-text>Trial 35 out of 60</p>","null","","","","","","","","","","","","","","","","","","","","","","","","","",""
"","","","","","image-button-response","74","253092","0.0-2.0-4.0-1.10","610a30b7a800f225aa297939","A3","batch1","spm_respsonse","17224.39999999106","img/question_3_11.jpeg","0","mat_35","1","1","1","17224.39999999106","","","","","","","","","","","","","","","","","","","","",""
"","","","","","html-keyboard-response","75","254153","0.0-2.0-4.0-0.11","610a30b7a800f225aa297939","A3","batch1","spm_show_trial_num","null","<p class=block-text>Trial 36 out of 60</p>","null","","","","","","","","","","","","","","","","","","","","","","","","","",""
"","","","","","image-button-response","76","276213","0.0-2.0-4.0-1.11","610a30b7a800f225aa297939","A3","batch1","spm_respsonse","22058.89999999106","img/question_3_12.jpeg","1","mat_36","2","1","1","22058.89999999106","","","","","","","","","","","","","","","","","","","","",""
"","","","","","html-keyboard-response","77","277283","0.0-2.0-4.0-0.12","610a30b7a800f225aa297939","A3","batch1","spm_show_trial_num","null","<p class=block-text>Trial 37 out of 60</p>","null","","","","","","","","","","","","","","","","","","","","","","","","","",""
"","","","","","image-button-response","78","282864","0.0-2.0-4.0-1.12","610a30b7a800f225aa297939","A3","batch1","spm_respsonse","5578.70000000298","img/question_4_1.jpeg","2","mat_37","3","1","1","5578.70000000298","","","","","","","","","","","","","","","","","","","","",""
"","","","","","html-keyboard-response","79","283931","0.0-2.0-4.0-0.13","610a30b7a800f225aa297939","A3","batch1","spm_show_trial_num","null","<p class=block-text>Trial 38 out of 60</p>","null","","","","","","","","","","","","","","","","","","","","","","","","","",""
"","","","","","image-button-response","80","284115","0.0-2.0-4.0-1.13","610a30b7a800f225aa297939","A3","batch1","spm_respsonse","181.6000000089407","img/question_4_2.jpeg","2","mat_38","4","0","0","181.6000000089407","","","","","","","","","","","","","","","","","","","","",""
"","","","","","html-keyboard-response","81","285178","0.0-2.0-4.0-0.14","610a30b7a800f225aa297939","A3","batch1","spm_show_trial_num","null","<p class=block-text>Trial 39 out of 60</p>","null","","","","","","","","","","","","","","","","","","","","","","","","","",""
"","","","","","image-button-response","82","289866","0.0-2.0-4.0-1.14","610a30b7a800f225aa297939","A3","batch1","spm_respsonse","4686.100000008941","img/question_4_3.jpeg","2","mat_39","3","1","1","4686.100000008941","","","","","","","","","","","","","","","","","","","","",""
"","","","","","html-keyboard-response","83","290931","0.0-2.0-4.0-0.15","610a30b7a800f225aa297939","A3","batch1","spm_show_trial_num","null","<p class=block-text>Trial 40 out of 60</p>","null","","","","","","","","","","","","","","","","","","","","","","","","","",""
"","","","","","image-button-response","84","298117","0.0-2.0-4.0-1.15","610a30b7a800f225aa297939","A3","batch1","spm_respsonse","7183.70000000298","img/question_4_4.jpeg","6","mat_40","7","1","1","7183.70000000298","","","","","","","","","","","","","","","","","","","","",""
"","","","","","html-keyboard-response","85","299187","0.0-2.0-4.0-0.16","610a30b7a800f225aa297939","A3","batch1","spm_show_trial_num","null","<p class=block-text>Trial 41 out of 60</p>","null","","","","","","","","","","","","","","","","","","","","","","","","","",""
"","","","","","image-button-response","86","310485","0.0-2.0-4.0-1.16","610a30b7a800f225aa297939","A3","batch1","spm_respsonse","11296","img/question_4_5.jpeg","7","mat_41","8","1","1","11296","","","","","","","","","","","","","","","","","","","","",""
"","","","","","html-keyboard-response","87","311550","0.0-2.0-4.0-0.17","610a30b7a800f225aa297939","A3","batch1","spm_show_trial_num","null","<p class=block-text>Trial 42 out of 60</p>","null","","","","","","","","","","","","","","","","","","","","","","","","","",""
"","","","","","image-button-response","88","337874","0.0-2.0-4.0-1.17","610a30b7a800f225aa297939","A3","batch1","spm_respsonse","26322.20000000298","img/question_4_6.jpeg","5","mat_42","6","1","1","26322.20000000298","","","","","","","","","","","","","","","","","","","","",""
"","","","","","html-keyboard-response","89","338935","0.0-2.0-4.0-0.18","610a30b7a800f225aa297939","A3","batch1","spm_show_trial_num","null","<p class=block-text>Trial 43 out of 60</p>","null","","","","","","","","","","","","","","","","","","","","","","","","","",""
"","","","","","image-button-response","90","351309","0.0-2.0-4.0-1.18","610a30b7a800f225aa297939","A3","batch1","spm_respsonse","12371.60000000894","img/question_4_7.jpeg","4","mat_43","5","1","1","12371.60000000894","","","","","","","","","","","","","","","","","","","","",""
"","","","","","html-keyboard-response","91","352374","0.0-2.0-4.0-0.19","610a30b7a800f225aa297939","A3","batch1","spm_show_trial_num","null","<p class=block-text>Trial 44 out of 60</p>","null","","","","","","","","","","","","","","","","","","","","","","","","","",""
"","","","","","image-button-response","92","362195","0.0-2.0-4.0-1.19","610a30b7a800f225aa297939","A3","batch1","spm_respsonse","9818.5","img/question_4_8.jpeg","3","mat_44","4","1","1","9818.5","","","","","","","","","","","","","","","","","","","","",""
"","","","","","html-keyboard-response","93","363264","0.0-2.0-4.0-0.20","610a30b7a800f225aa297939","A3","batch1","spm_show_trial_num","null","<p class=block-text>Trial 45 out of 60</p>","null","","","","","","","","","","","","","","","","","","","","","","","","","",""
"","","","","","image-button-response","94","383866","0.0-2.0-4.0-1.20","610a30b7a800f225aa297939","A3","batch1","spm_respsonse","20600","img/question_4_9.jpeg","0","mat_45","1","1","1","20600","","","","","","","","","","","","","","","","","","","","",""
"","","","","","html-keyboard-response","95","384936","0.0-2.0-4.0-0.21","610a30b7a800f225aa297939","A3","batch1","spm_show_trial_num","null","<p class=block-text>Trial 46 out of 60</p>","null","","","","","","","","","","","","","","","","","","","","","","","","","",""
"","","","","","image-button-response","96","412572","0.0-2.0-4.0-1.21","610a30b7a800f225aa297939","A3","batch1","spm_respsonse","27633.70000000298","img/question_4_10.jpeg","1","mat_46","2","1","1","27633.70000000298","","","","","","","","","","","","","","","","","","","","",""
"","","","","","html-keyboard-response","97","413639","0.0-2.0-4.0-0.22","610a30b7a800f225aa297939","A3","batch1","spm_show_trial_num","null","<p class=block-text>Trial 47 out of 60</p>","null","","","","","","","","","","","","","","","","","","","","","","","","","",""
"","","","","","image-button-response","98","438678","0.0-2.0-4.0-1.22","610a30b7a800f225aa297939","A3","batch1","spm_respsonse","25037.40000000596","img/question_4_11.jpeg","1","mat_47","5","0","0","25037.40000000596","","","","","","","","","","","","","","","","","","","","",""
"","","","","","html-keyboard-response","99","439743","0.0-2.0-4.0-0.23","610a30b7a800f225aa297939","A3","batch1","spm_show_trial_num","null","<p class=block-text>Trial 48 out of 60</p>","null","","","","","","","","","","","","","","","","","","","","","","","","","",""
"","","","","","image-button-response","100","460616","0.0-2.0-4.0-1.23","610a30b7a800f225aa297939","A3","batch1","spm_respsonse","20870.29999999702","img/question_4_12.jpeg","4","mat_48","6","0","0","20870.29999999702","","","","","","","","","","","","","","","","","","","","",""
"","","","","","html-keyboard-response","101","461687","0.0-2.0-4.0-0.24","610a30b7a800f225aa297939","A3","batch1","spm_show_trial_num","null","<p class=block-text>Trial 49 out of 60</p>","null","","","","","","","","","","","","","","","","","","","","","","","","","",""
"","","","","","image-button-response","102","466117","0.0-2.0-4.0-1.24","610a30b7a800f225aa297939","A3","batch1","spm_respsonse","4427.70000000298","img/question_5_1.jpeg","6","mat_49","7","1","1","4427.70000000298","","","","","","","","","","","","","","","","","","","","",""
"","","","","","html-keyboard-response","103","467182","0.0-2.0-4.0-0.25","610a30b7a800f225aa297939","A3","batch1","spm_show_trial_num","null","<p class=block-text>Trial 50 out of 60</p>","null","","","","","","","","","","","","","","","","","","","","","","","","","",""
"","","","","","image-button-response","104","476868","0.0-2.0-4.0-1.25","610a30b7a800f225aa297939","A3","batch1","spm_respsonse","9683.60000000894","img/question_5_2.jpeg","5","mat_50","6","1","1","9683.60000000894","","","","","","","","","","","","","","","","","","","","",""
"","","","","","html-keyboard-response","105","477932","0.0-2.0-4.0-0.26","610a30b7a800f225aa297939","A3","batch1","spm_show_trial_num","null","<p class=block-text>Trial 51 out of 60</p>","null","","","","","","","","","","","","","","","","","","","","","","","","","",""
"","","","","","image-button-response","106","484069","0.0-2.0-4.0-1.26","610a30b7a800f225aa297939","A3","batch1","spm_respsonse","6134.79999999702","img/question_5_3.jpeg","7","mat_51","8","1","1","6134.79999999702","","","","","","","","","","","","","","","","","","","","",""
"","","","","","html-keyboard-response","107","485131","0.0-2.0-4.0-0.27","610a30b7a800f225aa297939","A3","batch1","spm_show_trial_num","null","<p class=block-text>Trial 52 out of 60</p>","null","","","","","","","","","","","","","","","","","","","","","","","","","",""
"","","","","","image-button-response","108","492387","0.0-2.0-4.0-1.27","610a30b7a800f225aa297939","A3","batch1","spm_respsonse","7254.300000011921","img/question_5_4.jpeg","1","mat_52","2","1","1","7254.300000011921","","","","","","","","","","","","","","","","","","","","",""
"","","","","","html-keyboard-response","109","493454","0.0-2.0-4.0-0.28","610a30b7a800f225aa297939","A3","batch1","spm_show_trial_num","null","<p class=block-text>Trial 53 out of 60</p>","null","","","","","","","","","","","","","","","","","","","","","","","","","",""
"","","","","","image-button-response","110","499156","0.0-2.0-4.0-1.28","610a30b7a800f225aa297939","A3","batch1","spm_respsonse","5700","img/question_5_5.jpeg","0","mat_53","1","1","1","5700","","","","","","","","","","","","","","","","","","","","",""
"","","","","","html-keyboard-response","111","500219","0.0-2.0-4.0-0.29","610a30b7a800f225aa297939","A3","batch1","spm_show_trial_num","null","<p class=block-text>Trial 54 out of 60</p>","null","","","","","","","","","","","","","","","","","","","","","","","","","",""
"","","","","","image-button-response","112","527527","0.0-2.0-4.0-1.29","610a30b7a800f225aa297939","A3","batch1","spm_respsonse","27306.59999999404","img/question_5_6.jpeg","4","mat_54","5","1","1","27306.59999999404","","","","","","","","","","","","","","","","","","","","",""
"","","","","","html-keyboard-response","113","528595","0.0-2.0-4.0-0.30","610a30b7a800f225aa297939","A3","batch1","spm_show_trial_num","null","<p class=block-text>Trial 55 out of 60</p>","null","","","","","","","","","","","","","","","","","","","","","","","","","",""
"","","","","","image-button-response","114","557967","0.0-2.0-4.0-1.30","610a30b7a800f225aa297939","A3","batch1","spm_respsonse","29370.20000000298","img/question_5_7.jpeg","7","mat_55","1","0","0","29370.20000000298","","","","","","","","","","","","","","","","","","","","",""
"","","","","","html-keyboard-response","115","559032","0.0-2.0-4.0-0.31","610a30b7a800f225aa297939","A3","batch1","spm_show_trial_num","null","<p class=block-text>Trial 56 out of 60</p>","null","","","","","","","","","","","","","","","","","","","","","","","","","",""
"","","","","","image-button-response","116","571337","0.0-2.0-4.0-1.31","610a30b7a800f225aa297939","A3","batch1","spm_respsonse","12303.20000000298","img/question_5_8.jpeg","5","mat_56","6","1","1","12303.20000000298","","","","","","","","","","","","","","","","","","","","",""
"","","","","","html-keyboard-response","117","572401","0.0-2.0-4.0-0.32","610a30b7a800f225aa297939","A3","batch1","spm_show_trial_num","null","<p class=block-text>Trial 57 out of 60</p>","null","","","","","","","","","","","","","","","","","","","","","","","","","",""
"","","","","","image-button-response","118","580822","0.0-2.0-4.0-1.32","610a30b7a800f225aa297939","A3","batch1","spm_respsonse","8419.39999999106","img/question_5_9.jpeg","2","mat_57","3","1","1","8419.39999999106","","","","","","","","","","","","","","","","","","","","",""
"","","","","","html-keyboard-response","119","581886","0.0-2.0-4.0-0.33","610a30b7a800f225aa297939","A3","batch1","spm_show_trial_num","null","<p class=block-text>Trial 58 out of 60</p>","null","","","","","","","","","","","","","","","","","","","","","","","","","",""
"","","","","","image-button-response","120","600510","0.0-2.0-4.0-1.33","610a30b7a800f225aa297939","A3","batch1","spm_respsonse","18621","img/question_5_10.jpeg","1","mat_58","2","1","1","18621","","","","","","","","","","","","","","","","","","","","",""
"","","","","","html-keyboard-response","121","601576","0.0-2.0-4.0-0.34","610a30b7a800f225aa297939","A3","batch1","spm_show_trial_num","null","<p class=block-text>Trial 59 out of 60</p>","null","","","","","","","","","","","","","","","","","","","","","","","","","",""
"","","","","","image-button-response","122","626447","0.0-2.0-4.0-1.34","610a30b7a800f225aa297939","A3","batch1","spm_respsonse","24869.89999999106","img/question_5_11.jpeg","6","mat_59","4","0","0","24869.89999999106","","","","","","","","","","","","","","","","","","","","",""
"","","","","","html-keyboard-response","123","627512","0.0-2.0-4.0-0.35","610a30b7a800f225aa297939","A3","batch1","spm_show_trial_num","null","<p class=block-text>Trial 60 out of 60</p>","null","","","","","","","","","","","","","","","","","","","","","","","","","",""
"","","","","","image-button-response","124","697409","0.0-2.0-4.0-1.35","610a30b7a800f225aa297939","A3","batch1","spm_respsonse","69896.90000000596","img/question_5_12.jpeg","4","mat_60","5","1","1","69896.90000000596","","","","","","","","","","","","","","","","","","","","",""
"","","","","","html-button-response","125","712446","0.0-2.0-5.0","610a30b7a800f225aa297939","A3","batch1","spm_goodbye","14776.39999999106","<p class= block-text>This concludes the Standard Progressive Matrix game. Thank you for your responses!<br> When you are ready, click the button continue</p>","0","","","","","","","","","","","","","","","","","","","","","","","","","",""
"true","","","","","fullscreen","126","714869","0.0-3.0-0.0","610a30b7a800f225aa297939","A3","batch1","","","","","","","","","","","","","","","","","","","","","","","","","","","","","",""
"","","","","","instructions","127","742987","0.0-3.0-1.0-0.0-0.0","610a30b7a800f225aa297939","A3","batch1","tol-instructions","28118.10000000894","","","","","","","","[{""page_index"":0,""viewing_time"":5195.20000000298},{""page_index"":1,""viewing_time"":2817.5999999940395},{""page_index"":2,""viewing_time"":2583.7000000029802},{""page_index"":3,""viewing_time"":3550.9000000059605},{""page_index"":4,""viewing_time"":2217.2999999970198},{""page_index"":5,""viewing_time"":9385.59999999404},{""page_index"":6,""viewing_time"":2367.6000000089407}]","","","","","","","","","","","","","","","","","","","",""
"","","","","","html-button-response","128","744287","0.0-3.0-1.0-1.0-0.0","610a30b7a800f225aa297939","A3","batch1","tol_enter_quiz","1299.1000000089407","<p class=block-text> Let's answer a few questions <br>","0","","","","","","","","","","","","","","","","","","","","","","","","","",""
"","","","","","html-button-response","129","747821","0.0-3.0-1.0-1.0-1.0","610a30b7a800f225aa297939","A3","batch1","tol_quiz","3533.2000000029802","<p class = block-text>True or False: You can only move the ball on top of a peg. <br></p>","0","","","true","","","","","","","","","","","","","","","","","","","","","","",""
"","","","","","html-button-response","130","748571","0.0-3.0-1.0-1.0-2.0","610a30b7a800f225aa297939","A3","batch1","tol_quiz_feedback","748.3000000119209","<p class = block-text>Correct! You can only move the ball on top of a peg.</p>","0","","","","","","","","","","","","","","","","","","","","","","","","","",""
"","","","","","html-button-response","131","750455","0.0-3.0-1.0-1.0-3.0","610a30b7a800f225aa297939","A3","batch1","tol_quiz","1882.7999999970198","<p class = block-text>True or False: You should try to match your board with the target board with fewest moves possible. <br></p>","0","","","true","","","","","","","","","","","","","","","","","","","","","","",""
"","","","","","html-button-response","132","751005","0.0-3.0-1.0-1.0-4.0","610a30b7a800f225aa297939","A3","batch1","tol_quiz_feedback","549.2000000029802","<p class = block-text>Correct! </p>","0","","","","","","","","","","","","","","","","","","","","","","","","","",""
"","","","","","html-button-response","133","751772","0.0-3.0-2.0","610a30b7a800f225aa297939","A3","batch1","","764.2999999970198","<p class=block-text> Now that you've understood the game, let's practice a few easier examples before we start!<br> <br>","0","","","","","","","","","","","","","","","","","","","","","","","","","",""
"","","","","","single-stim-button","134","756975","0.0-3.0-3.0-0.0","610a30b7a800f225aa297939","A3","batch1","tol_practice","5201","","","","","","","","","tol_peg_2","5201","5201","0","[[1,2,0],[0,0],[0]]","1","[[1,2,0],[0,0],[3]]","practice","5201","","","","","","","","","","",""
"","","","","","single-stim-button","135","758006","0.0-3.0-3.0-1.0","610a30b7a800f225aa297939","A3","batch1","tol_practice","1030","","","","","","","","","tol_peg_3","1030","1030","0","[[1,2,0],[0,0],[3]]","1","[[1,2,0],[0,0],[3]]","practice","1030","","","","","","","","","","",""
"","","","","","poldrack-single-stim","136","759013","0.0-3.0-4.0","610a30b7a800f225aa297939","A3","batch1","tol_feedback","-1","","","","","true","","","","","1000","1000","500","","","","","","-1","none","true","","0","","","","","",""
"","","","","","single-stim-button","137","761141","0.0-3.0-5.0-0.0","610a30b7a800f225aa297939","A3","batch1","tol_practice","2126","","","","","","","","","tol_peg_1","2126","2126","0","[[1,0,0],[3,0],[0]]","2","[[0,0,0],[3,1],[2]]","practice","2126","","","","","","","","","","",""
"","","","","","single-stim-button","138","762257","0.0-3.0-5.0-1.0","610a30b7a800f225aa297939","A3","batch1","tol_practice","1116","","","","","","","","","tol_peg_3","1116","1116","0","[[1,0,0],[3,0],[2]]","2","[[0,0,0],[3,1],[2]]","practice","1116","","","","","","","","","","",""
"","","","","","single-stim-button","139","763091","0.0-3.0-5.1-0.1","610a30b7a800f225aa297939","A3","batch1","tol_practice","832","","","","","","","","","tol_peg_2","832","832","0","[[1,0,0],[0,0],[2]]","3","[[0,0,0],[3,1],[2]]","practice","832","","","","","","","","","","",""
"","","","","","single-stim-button","140","765058","0.0-3.0-5.1-1.1","610a30b7a800f225aa297939","A3","batch1","tol_practice","1965","","","","","","","","","tol_peg_2","1965","1965","0","[[1,0,0],[3,0],[2]]","3","[[0,0,0],[3,1],[2]]","practice","1965","","","","","","","","","","",""
"","","","","","single-stim-button","141","765741","0.0-3.0-5.2-0.2","610a30b7a800f225aa297939","A3","batch1","tol_practice","682","","","","","","","","","tol_peg_1","682","682","0","[[0,0,0],[3,0],[2]]","4","[[0,0,0],[3,1],[2]]","practice","682","","","","","","","","","","",""
"","","","","","single-stim-button","142","766575","0.0-3.0-5.2-1.2","610a30b7a800f225aa297939","A3","batch1","tol_practice","832","","","","","","","","","tol_peg_2","832","832","0","[[0,0,0],[3,1],[2]]","4","[[0,0,0],[3,1],[2]]","practice","832","","","","","","","","","","",""
"","","","","","poldrack-single-stim","143","767578","0.0-3.0-6.0","610a30b7a800f225aa297939","A3","batch1","tol_feedback","-1","","","","","true","","","","","1000","1000","500","","","","","","-1","none","true","","0","","","","","",""
"","","","","","single-stim-button","144","769825","0.0-3.0-7.0-0.0","610a30b7a800f225aa297939","A3","batch1","tol_practice","2246","","","","","","","","","tol_peg_2","2246","2246","0","[[1,2,0],[0,0],[0]]","5","[[1,0,0],[2,0],[3]]","practice","2246","","","","","","","","","","",""
"","","","","","single-stim-button","145","770792","0.0-3.0-7.0-1.0","610a30b7a800f225aa297939","A3","batch1","tol_practice","965","","","","","","","","","tol_peg_3","965","965","0","[[1,2,0],[0,0],[3]]","5","[[1,0,0],[2,0],[3]]","practice","965","","","","","","","","","","",""
"","","","","","single-stim-button","146","771625","0.0-3.0-7.1-0.1","610a30b7a800f225aa297939","A3","batch1","tol_practice","832","","","","","","","","","tol_peg_1","832","832","0","[[1,0,0],[0,0],[3]]","6","[[1,0,0],[2,0],[3]]","practice","832","","","","","","","","","","",""
"","","","","","single-stim-button","147","772292","0.0-3.0-7.1-1.1","610a30b7a800f225aa297939","A3","batch1","tol_practice","665","","","","","","","","","tol_peg_2","665","665","0","[[1,0,0],[2,0],[3]]","6","[[1,0,0],[2,0],[3]]","practice","665","","","","","","","","","","",""
"","","","","","poldrack-single-stim","148","773298","0.0-3.0-8.0","610a30b7a800f225aa297939","A3","batch1","tol_feedback","-1","","","","","true","","","","","1000","1000","500","","","","","","-1","none","true","","0","","","","","",""
"","","","","","html-button-response","149","774443","0.0-3.0-9.0","610a30b7a800f225aa297939","A3","batch1","tol_instruction","1143.9000000059605","<div class = centerbox><p class = center-block-text>Great job! You are done with practice trials<br>You are about to start official trials.<br> <br> Problem <strong>1</strong> out of 25 problems</p></div>","0","","","","","","","","","","","","","","","","","","","","","","","","","",""
"","","","","","single-stim-button","150","778410","0.0-3.0-10.0-0.0","610a30b7a800f225aa297939","A3","batch1","tol_tohand","2956","","","","","","","","","tol_peg_1","2956","2956","0","[[1,0,0],[3,0],[0]]","1","[[1,3,0],[2,0],[0]]","0","0","","","","","","3","","","","",""
"","","","","","single-stim-button","151","779327","0.0-3.0-10.0-1.0","610a30b7a800f225aa297939","A3","batch1","tol_toboard","916","","","","","","","","","tol_peg_3","916","916","0","[[1,0,0],[3,0],[2]]","1","[[1,3,0],[2,0],[0]]","0","0","","","","","","3","","","","",""
"","","","","","single-stim-button","152","780110","0.0-3.0-10.1-0.1","610a30b7a800f225aa297939","A3","batch1","tol_tohand","782","","","","","","","","","tol_peg_2","782","782","0","[[1,0,0],[0,0],[2]]","2","[[1,3,0],[2,0],[0]]","0","0","","","","","","3","","","","",""
"","","","","","single-stim-button","153","780894","0.0-3.0-10.1-1.1","610a30b7a800f225aa297939","A3","batch1","tol_toboard","783","","","","","","","","","tol_peg_1","783","783","0","[[1,3,0],[0,0],[2]]","2","[[1,3,0],[2,0],[0]]","0","0","","","","","","3","","","","",""
"","","","","","single-stim-button","154","781661","0.0-3.0-10.2-0.2","610a30b7a800f225aa297939","A3","batch1","tol_tohand","765","","","","","","","","","tol_peg_3","765","765","0","[[1,3,0],[0,0],[0]]","3","[[1,3,0],[2,0],[0]]","0","0","","","","","","3","","","","",""
"","","","","","single-stim-button","155","782494","0.0-3.0-10.2-1.2","610a30b7a800f225aa297939","A3","batch1","tol_toboard","832","","","","","","","","","tol_peg_2","832","832","0","[[1,3,0],[2,0],[0]]","3","[[1,3,0],[2,0],[0]]","0","0","","","","","","3","","","","",""
"","","","","","poldrack-single-stim","156","783499","0.0-3.0-11.0","610a30b7a800f225aa297939","A3","batch1","tol_feedback","-1","","","","","true","","","","","1000","1000","500","","","","","","-1","none","true","2956","4503","","","","","",""
"","","","","","html-button-response","157","784361","0.0-3.0-12.0","610a30b7a800f225aa297939","A3","batch1","tol_trial_num","861","<div class = centerbox><p class = center-block-text>problem <strong>2</strong> out of 25 problems</p></div>","0","","","","","","","","","","","","","","","","","","","","","","","","","",""
"","","","","","single-stim-button","158","786645","0.0-3.0-13.0-0.0","610a30b7a800f225aa297939","A3","batch1","tol_tohand","2283","","","","","","","","","tol_peg_2","2283","2283","0","[[1,2,0],[0,0],[0]]","1","[[2,1,3],[0,0],[0]]","1","0","","","","","","5","","","","",""
"","","","","","single-stim-button","159","787512","0.0-3.0-13.0-1.0","610a30b7a800f225aa297939","A3","batch1","tol_toboard","865","","","","","","","","","tol_peg_3","865","865","0","[[1,2,0],[0,0],[3]]","1","[[2,1,3],[0,0],[0]]","1","0","","","","","","5","","","","",""
"","","","","","single-stim-button","160","788395","0.0-3.0-13.1-0.1","610a30b7a800f225aa297939","A3","batch1","tol_tohand","882","","","","","","","","","tol_peg_1","882","882","0","[[1,0,0],[0,0],[3]]","2","[[2,1,3],[0,0],[0]]","1","0","","","","","","5","","","","",""
"","","","","","single-stim-button","161","792679","0.0-3.0-13.1-1.1","610a30b7a800f225aa297939","A3","batch1","tol_toboard","4283","","","","","","","","","tol_peg_2","4283","4283","0","[[1,0,0],[2,0],[3]]","2","[[2,1,3],[0,0],[0]]","1","0","","","","","","5","","","","",""
"","","","","","single-stim-button","162","794246","0.0-3.0-13.2-0.2","610a30b7a800f225aa297939","A3","batch1","tol_tohand","1566","","","","","","","","","tol_peg_3","1566","1566","0","[[1,0,0],[2,0],[0]]","3","[[2,1,3],[0,0],[0]]","1","0","","","","","","5","","","","",""
"","","","","","single-stim-button","163","794946","0.0-3.0-13.2-1.2","610a30b7a800f225aa297939","A3","batch1","tol_toboard","699","","","","","","","","","tol_peg_3","699","699","0","[[1,0,0],[2,0],[3]]","3","[[2,1,3],[0,0],[0]]","1","0","","","","","","5","","","","",""
"","","","","","single-stim-button","164","796179","0.0-3.0-13.3-0.3","610a30b7a800f225aa297939","A3","batch1","tol_tohand","1232","","","","","","","","","tol_peg_2","1232","1232","0","[[1,0,0],[0,0],[3]]","4","[[2,1,3],[0,0],[0]]","1","0","","","","","","5","","","","",""
"","","","","","single-stim-button","165","796730","0.0-3.0-13.3-1.3","610a30b7a800f225aa297939","A3","batch1","tol_toboard","549","","","","","","","","","tol_peg_1","549","549","0","[[1,2,0],[0,0],[3]]","4","[[2,1,3],[0,0],[0]]","1","0","","","","","","5","","","","",""
"","","","","","single-stim-button","166","797496","0.0-3.0-13.4-0.4","610a30b7a800f225aa297939","A3","batch1","tol_tohand","766","","","","","","","","","tol_peg_3","766","766","0","[[1,2,0],[0,0],[0]]","5","[[2,1,3],[0,0],[0]]","1","0","","","","","","5","","","","",""
"","","","","","single-stim-button","167","798313","0.0-3.0-13.4-1.4","610a30b7a800f225aa297939","A3","batch1","tol_toboard","816","","","","","","","","","tol_peg_2","816","816","0","[[1,2,0],[3,0],[0]]","5","[[2,1,3],[0,0],[0]]","1","0","","","","","","5","","","","",""
"","","","","","single-stim-button","168","798847","0.0-3.0-13.5-0.5","610a30b7a800f225aa297939","A3","batch1","tol_tohand","532","","","","","","","","","tol_peg_1","532","532","0","[[1,0,0],[3,0],[0]]","6","[[2,1,3],[0,0],[0]]","1","0","","","","","","5","","","","",""
"","","","","","single-stim-button","169","799763","0.0-3.0-13.5-1.5","610a30b7a800f225aa297939","A3","batch1","tol_toboard","916","","","","","","","","","tol_peg_3","916","916","0","[[1,0,0],[3,0],[2]]","6","[[2,1,3],[0,0],[0]]","1","0","","","","","","5","","","","",""
"","","","","","single-stim-button","170","800364","0.0-3.0-13.6-0.6","610a30b7a800f225aa297939","A3","batch1","tol_tohand","599","","","","","","","","","tol_peg_1","599","599","0","[[0,0,0],[3,0],[2]]","7","[[2,1,3],[0,0],[0]]","1","0","","","","","","5","","","","",""
"","","","","","single-stim-button","171","800997","0.0-3.0-13.6-1.6","610a30b7a800f225aa297939","A3","batch1","tol_toboard","633","","","","","","","","","tol_peg_2","633","633","0","[[0,0,0],[3,1],[2]]","7","[[2,1,3],[0,0],[0]]","1","0","","","","","","5","","","","",""
"","","","","","single-stim-button","172","801580","0.0-3.0-13.7-0.7","610a30b7a800f225aa297939","A3","batch1","tol_tohand","582","","","","","","","","","tol_peg_3","582","582","0","[[0,0,0],[3,1],[0]]","8","[[2,1,3],[0,0],[0]]","1","0","","","","","","5","","","","",""
"","","","","","single-stim-button","173","802531","0.0-3.0-13.7-1.7","610a30b7a800f225aa297939","A3","batch1","tol_toboard","949","","","","","","","","","tol_peg_1","949","949","0","[[2,0,0],[3,1],[0]]","8","[[2,1,3],[0,0],[0]]","1","0","","","","","","5","","","","",""
"","","","","","single-stim-button","174","803214","0.0-3.0-13.8-0.8","610a30b7a800f225aa297939","A3","batch1","tol_tohand","683","","","","","","","","","tol_peg_2","683","683","0","[[2,0,0],[3,0],[0]]","9","[[2,1,3],[0,0],[0]]","1","0","","","","","","5","","","","",""
"","","","","","single-stim-button","175","803947","0.0-3.0-13.8-1.8","610a30b7a800f225aa297939","A3","batch1","tol_toboard","732","","","","","","","","","tol_peg_1","732","732","0","[[2,1,0],[3,0],[0]]","9","[[2,1,3],[0,0],[0]]","1","0","","","","","","5","","","","",""
"","","","","","single-stim-button","176","804530","0.0-3.0-13.9-0.9","610a30b7a800f225aa297939","A3","batch1","tol_tohand","582","","","","","","","","","tol_peg_2","582","582","0","[[2,1,0],[0,0],[0]]","10","[[2,1,3],[0,0],[0]]","1","0","","","","","","5","","","","",""
"","","","","","single-stim-button","177","805597","0.0-3.0-13.9-1.9","610a30b7a800f225aa297939","A3","batch1","tol_toboard","1066","","","","","","","","","tol_peg_1","1066","1066","0","[[2,1,3],[0,0],[0]]","10","[[2,1,3],[0,0],[0]]","1","0","","","","","","5","","","","",""
"","","","","","poldrack-single-stim","178","806602","0.0-3.0-14.0","610a30b7a800f225aa297939","A3","batch1","tol_feedback","-1","","","","","true","","","","","1000","1000","500","","","","","","-1","none","true","2283","9707","","","","","",""
"","","","","","html-button-response","179","807347","0.0-3.0-15.0","610a30b7a800f225aa297939","A3","batch1","tol_trial_num","743.9000000059605","<div class = centerbox><p class = center-block-text>problem <strong>3</strong> out of 25 problems</p></div>","0","","","","","","","","","","","","","","","","","","","","","","","","","",""
"","","","","","single-stim-button","180","808981","0.0-3.0-16.0-0.0","610a30b7a800f225aa297939","A3","batch1","tol_tohand","1633","","","","","","","","","tol_peg_1","1633","1633","0","[[2,0,0],[0,0],[1]]","1","[[1,2,0],[3,0],[0]]","2","0","","","","","","4","","","","",""
"","","","","","single-stim-button","181","811848","0.0-3.0-16.0-1.0","610a30b7a800f225aa297939","A3","batch1","tol_toboard","2866","","","","","","","","","tol_peg_1","2866","2866","0","[[2,3,0],[0,0],[1]]","1","[[1,2,0],[3,0],[0]]","2","0","","","","","","4","","","","",""
"","","","","","single-stim-button","182","812649","0.0-3.0-16.1-0.1","610a30b7a800f225aa297939","A3","batch1","tol_tohand","800","","","","","","","","","tol_peg_3","800","800","0","[[2,3,0],[0,0],[0]]","2","[[1,2,0],[3,0],[0]]","2","0","","","","","","4","","","","",""
"","","","","","single-stim-button","183","813515","0.0-3.0-16.1-1.1","610a30b7a800f225aa297939","A3","batch1","tol_toboard","866","","","","","","","","","tol_peg_2","866","866","0","[[2,3,0],[1,0],[0]]","2","[[1,2,0],[3,0],[0]]","2","0","","","","","","4","","","","",""
"","","","","","single-stim-button","184","814115","0.0-3.0-16.2-0.2","610a30b7a800f225aa297939","A3","batch1","tol_tohand","599","","","","","","","","","tol_peg_1","599","599","0","[[2,0,0],[1,0],[0]]","3","[[1,2,0],[3,0],[0]]","2","0","","","","","","4","","","","",""
"","","","","","single-stim-button","185","815366","0.0-3.0-16.2-1.2","610a30b7a800f225aa297939","A3","batch1","tol_toboard","1249","","","","","","","","","tol_peg_3","1249","1249","0","[[2,0,0],[1,0],[3]]","3","[[1,2,0],[3,0],[0]]","2","0","","","","","","4","","","","",""
"","","","","","single-stim-button","186","816966","0.0-3.0-16.3-0.3","610a30b7a800f225aa297939","A3","batch1","tol_tohand","1599","","","","","","","","","tol_peg_1","1599","1599","0","[[0,0,0],[1,0],[3]]","4","[[1,2,0],[3,0],[0]]","2","0","","","","","","4","","","","",""
"","","","","","single-stim-button","187","817516","0.0-3.0-16.3-1.3","610a30b7a800f225aa297939","A3","batch1","tol_toboard","548","","","","","","","","","tol_peg_2","548","548","0","[[0,0,0],[1,2],[3]]","4","[[1,2,0],[3,0],[0]]","2","0","","","","","","4","","","","",""
"","","","","","single-stim-button","188","818499","0.0-3.0-16.4-0.4","610a30b7a800f225aa297939","A3","batch1","tol_tohand","982","","","","","","","","","tol_peg_3","982","982","0","[[0,0,0],[1,2],[0]]","5","[[1,2,0],[3,0],[0]]","2","0","","","","","","4","","","","",""
"","","","","","single-stim-button","189","819666","0.0-3.0-16.4-1.4","610a30b7a800f225aa297939","A3","batch1","tol_toboard","1166","","","","","","","","","tol_peg_1","1166","1166","0","[[3,0,0],[1,2],[0]]","5","[[1,2,0],[3,0],[0]]","2","0","","","","","","4","","","","",""
"","","","","","single-stim-button","190","820750","0.0-3.0-16.5-0.5","610a30b7a800f225aa297939","A3","batch1","tol_tohand","1083","","","","","","","","","tol_peg_2","1083","1083","0","[[3,0,0],[1,0],[0]]","6","[[1,2,0],[3,0],[0]]","2","0","","","","","","4","","","","",""
"","","","","","single-stim-button","191","821350","0.0-3.0-16.5-1.5","610a30b7a800f225aa297939","A3","batch1","tol_toboard","598","","","","","","","","","tol_peg_3","598","598","0","[[3,0,0],[1,0],[2]]","6","[[1,2,0],[3,0],[0]]","2","0","","","","","","4","","","","",""
"","","","","","single-stim-button","192","821866","0.0-3.0-16.6-0.6","610a30b7a800f225aa297939","A3","batch1","tol_tohand","515","","","","","","","","","tol_peg_2","515","515","0","[[3,0,0],[0,0],[2]]","7","[[1,2,0],[3,0],[0]]","2","0","","","","","","4","","","","",""
"","","","","","single-stim-button","193","822799","0.0-3.0-16.6-1.6","610a30b7a800f225aa297939","A3","batch1","tol_toboard","932","","","","","","","","","tol_peg_1","932","932","0","[[3,1,0],[0,0],[2]]","7","[[1,2,0],[3,0],[0]]","2","0","","","","","","4","","","","",""
"","","","","","single-stim-button","194","823617","0.0-3.0-16.7-0.7","610a30b7a800f225aa297939","A3","batch1","tol_tohand","816","","","","","","","","","tol_peg_3","816","816","0","[[3,1,0],[0,0],[0]]","8","[[1,2,0],[3,0],[0]]","2","0","","","","","","4","","","","",""
"","","","","","single-stim-button","195","824434","0.0-3.0-16.7-1.7","610a30b7a800f225aa297939","A3","batch1","tol_toboard","816","","","","","","","","","tol_peg_2","816","816","0","[[3,1,0],[2,0],[0]]","8","[[1,2,0],[3,0],[0]]","2","0","","","","","","4","","","","",""
"","","","","","single-stim-button","196","825117","0.0-3.0-16.8-0.8","610a30b7a800f225aa297939","A3","batch1","tol_tohand","683","","","","","","","","","tol_peg_1","683","683","0","[[3,0,0],[2,0],[0]]","9","[[1,2,0],[3,0],[0]]","2","0","","","","","","4","","","","",""
"","","","","","single-stim-button","197","825950","0.0-3.0-16.8-1.8","610a30b7a800f225aa297939","A3","batch1","tol_toboard","832","","","","","","","","","tol_peg_2","832","832","0","[[3,0,0],[2,1],[0]]","9","[[1,2,0],[3,0],[0]]","2","0","","","","","","4","","","","",""
"","","","","","single-stim-button","198","826617","0.0-3.0-16.9-0.9","610a30b7a800f225aa297939","A3","batch1","tol_tohand","666","","","","","","","","","tol_peg_1","666","666","0","[[0,0,0],[2,1],[0]]","10","[[1,2,0],[3,0],[0]]","2","0","","","","","","4","","","","",""
"","","","","","single-stim-button","199","827967","0.0-3.0-16.9-1.9","610a30b7a800f225aa297939","A3","batch1","tol_toboard","1349","","","","","","","","","tol_peg_3","1349","1349","0","[[0,0,0],[2,1],[3]]","10","[[1,2,0],[3,0],[0]]","2","0","","","","","","4","","","","",""
"","","","","","single-stim-button","200","828518","0.0-3.0-16.10-0.10","610a30b7a800f225aa297939","A3","batch1","tol_tohand","549","","","","","","","","","tol_peg_2","549","549","0","[[0,0,0],[2,0],[3]]","11","[[1,2,0],[3,0],[0]]","2","0","","","","","","4","","","","",""
"","","","","","single-stim-button","201","829400","0.0-3.0-16.10-1.10","610a30b7a800f225aa297939","A3","batch1","tol_toboard","882","","","","","","","","","tol_peg_1","882","882","0","[[1,0,0],[2,0],[3]]","11","[[1,2,0],[3,0],[0]]","2","0","","","","","","4","","","","",""
"","","","","","single-stim-button","202","829901","0.0-3.0-16.11-0.11","610a30b7a800f225aa297939","A3","batch1","tol_tohand","500","","","","","","","","","tol_peg_2","500","500","0","[[1,0,0],[0,0],[3]]","12","[[1,2,0],[3,0],[0]]","2","0","","","","","","4","","","","",""
"","","","","","single-stim-button","203","830668","0.0-3.0-16.11-1.11","610a30b7a800f225aa297939","A3","batch1","tol_toboard","765","","","","","","","","","tol_peg_1","765","765","0","[[1,2,0],[0,0],[3]]","12","[[1,2,0],[3,0],[0]]","2","0","","","","","","4","","","","",""
"","","","","","single-stim-button","204","831935","0.0-3.0-16.12-0.12","610a30b7a800f225aa297939","A3","batch1","tol_tohand","1266","","","","","","","","","tol_peg_3","1266","1266","0","[[1,2,0],[0,0],[0]]","13","[[1,2,0],[3,0],[0]]","2","0","","","","","","4","","","","",""
"","","","","","single-stim-button","205","832767","0.0-3.0-16.12-1.12","610a30b7a800f225aa297939","A3","batch1","tol_toboard","831","","","","","","","","","tol_peg_2","831","831","0","[[1,2,0],[3,0],[0]]","13","[[1,2,0],[3,0],[0]]","2","0","","","","","","4","","","","",""
"","","","","","poldrack-single-stim","206","833780","0.0-3.0-17.0","610a30b7a800f225aa297939","A3","batch1","tol_feedback","-1","","","","","true","","","","","1000","1000","500","","","","","","-1","none","true","1633","11691","","","","","",""
"","","","","","html-button-response","207","835118","0.0-3.0-18.0","610a30b7a800f225aa297939","A3","batch1","tol_trial_num","1337","<div class = centerbox><p class = center-block-text>problem <strong>4</strong> out of 25 problems</p></div>","0","","","","","","","","","","","","","","","","","","","","","","","","","",""
"","","","","","single-stim-button","208","837969","0.0-3.0-19.0-0.0","610a30b7a800f225aa297939","A3","batch1","tol_tohand","2850","","","","","","","","","tol_peg_2","2850","2850","0","[[3,0,0],[2,0],[0]]","1","[[3,0,0],[1,0],[2]]","3","0","","","","","","3","","","","",""
"","","","","","single-stim-button","209","838853","0.0-3.0-19.0-1.0","610a30b7a800f225aa297939","A3","batch1","tol_toboard","882","","","","","","","","","tol_peg_3","882","882","0","[[3,0,0],[2,0],[1]]","1","[[3,0,0],[1,0],[2]]","3","0","","","","","","3","","","","",""
"","","","","","single-stim-button","210","840220","0.0-3.0-19.1-0.1","610a30b7a800f225aa297939","A3","batch1","tol_tohand","1366","","","","","","","","","tol_peg_2","1366","1366","0","[[3,0,0],[0,0],[1]]","2","[[3,0,0],[1,0],[2]]","3","0","","","","","","3","","","","",""
"","","","","","single-stim-button","211","841203","0.0-3.0-19.1-1.1","610a30b7a800f225aa297939","A3","batch1","tol_toboard","982","","","","","","","","","tol_peg_1","982","982","0","[[3,2,0],[0,0],[1]]","2","[[3,0,0],[1,0],[2]]","3","0","","","","","","3","","","","",""
"","","","","","single-stim-button","212","842054","0.0-3.0-19.2-0.2","610a30b7a800f225aa297939","A3","batch1","tol_tohand","850","","","","","","","","","tol_peg_3","850","850","0","[[3,2,0],[0,0],[0]]","3","[[3,0,0],[1,0],[2]]","3","0","","","","","","3","","","","",""
"","","","","","single-stim-button","213","842803","0.0-3.0-19.2-1.2","610a30b7a800f225aa297939","A3","batch1","tol_toboard","748","","","","","","","","","tol_peg_2","748","748","0","[[3,2,0],[1,0],[0]]","3","[[3,0,0],[1,0],[2]]","3","0","","","","","","3","","","","",""
"","","","","","single-stim-button","214","843454","0.0-3.0-19.3-0.3","610a30b7a800f225aa297939","A3","batch1","tol_tohand","649","","","","","","","","","tol_peg_1","649","649","0","[[3,0,0],[1,0],[0]]","4","[[3,0,0],[1,0],[2]]","3","0","","","","","","3","","","","",""
"","","","","","single-stim-button","215","844270","0.0-3.0-19.3-1.3","610a30b7a800f225aa297939","A3","batch1","tol_toboard","816","","","","","","","","","tol_peg_3","816","816","0","[[3,0,0],[1,0],[2]]","4","[[3,0,0],[1,0],[2]]","3","0","","","","","","3","","","","",""
"","","","","","poldrack-single-stim","216","845281","0.0-3.0-20.0","610a30b7a800f225aa297939","A3","batch1","tol_feedback","-1","","","","","true","","","","","1000","1000","500","","","","","","-1","none","true","2850","5715","","","","","",""
"","","","","","html-button-response","217","846271","0.0-3.0-21.0","610a30b7a800f225aa297939","A3","batch1","tol_trial_num","988.2999999970198","<div class = centerbox><p class = center-block-text>problem <strong>5</strong> out of 25 problems</p></div>","0","","","","","","","","","","","","","","","","","","","","","","","","","",""
"","","","","","single-stim-button","218","849088","0.0-3.0-22.0-0.0","610a30b7a800f225aa297939","A3","batch1","tol_tohand","2816","","","","","","","","","tol_peg_2","2816","2816","0","[[1,0,0],[0,0],[3]]","1","[[0,0,0],[1,2],[3]]","4","0","","","","","","7","","","","",""
"","","","","","single-stim-button","219","851355","0.0-3.0-22.0-1.0","610a30b7a800f225aa297939","A3","batch1","tol_toboard","2266","","","","","","","","","tol_peg_1","2266","2266","0","[[1,2,0],[0,0],[3]]","1","[[0,0,0],[1,2],[3]]","4","0","","","","","","7","","","","",""
"","","","","","single-stim-button","220","852188","0.0-3.0-22.1-0.1","610a30b7a800f225aa297939","A3","batch1","tol_tohand","832","","","","","","","","","tol_peg_3","832","832","0","[[1,2,0],[0,0],[0]]","2","[[0,0,0],[1,2],[3]]","4","0","","","","","","7","","","","",""
"","","","","","single-stim-button","221","852738","0.0-3.0-22.1-1.1","610a30b7a800f225aa297939","A3","batch1","tol_toboard","549","","","","","","","","","tol_peg_2","549","549","0","[[1,2,0],[3,0],[0]]","2","[[0,0,0],[1,2],[3]]","4","0","","","","","","7","","","","",""
"","","","","","single-stim-button","222","856056","0.0-3.0-22.2-0.2","610a30b7a800f225aa297939","A3","batch1","tol_tohand","3316","","","","","","","","","tol_peg_1","3316","3316","0","[[1,0,0],[3,0],[0]]","3","[[0,0,0],[1,2],[3]]","4","0","","","","","","7","","","","",""
"","","","","","single-stim-button","223","857923","0.0-3.0-22.2-1.2","610a30b7a800f225aa297939","A3","batch1","tol_toboard","1865","","","","","","","","","tol_peg_3","1865","1865","0","[[1,0,0],[3,0],[2]]","3","[[0,0,0],[1,2],[3]]","4","0","","","","","","7","","","","",""
"","","","","","single-stim-button","224","860090","0.0-3.0-22.3-0.3","610a30b7a800f225aa297939","A3","batch1","tol_tohand","2166","","","","","","","","","tol_peg_1","2166","2166","0","[[0,0,0],[3,0],[2]]","4","[[0,0,0],[1,2],[3]]","4","0","","","","","","7","","","","",""
"","","","","","single-stim-button","225","860756","0.0-3.0-22.3-1.3","610a30b7a800f225aa297939","A3","batch1","tol_toboard","665","","","","","","","","","tol_peg_2","665","665","0","[[0,0,0],[3,1],[2]]","4","[[0,0,0],[1,2],[3]]","4","0","","","","","","7","","","","",""
"","","","","","single-stim-button","226","861307","0.0-3.0-22.4-0.4","610a30b7a800f225aa297939","A3","batch1","tol_tohand","550","","","","","","","","","tol_peg_3","550","550","0","[[0,0,0],[3,1],[0]]","5","[[0,0,0],[1,2],[3]]","4","0","","","","","","7","","","","",""
"","","","","","single-stim-button","227","861940","0.0-3.0-22.4-1.4","610a30b7a800f225aa297939","A3","batch1","tol_toboard","632","","","","","","","","","tol_peg_1","632","632","0","[[2,0,0],[3,1],[0]]","5","[[0,0,0],[1,2],[3]]","4","0","","","","","","7","","","","",""
"","","","","","single-stim-button","228","862607","0.0-3.0-22.5-0.5","610a30b7a800f225aa297939","A3","batch1","tol_tohand","666","","","","","","","","","tol_peg_2","666","666","0","[[2,0,0],[3,0],[0]]","6","[[0,0,0],[1,2],[3]]","4","0","","","","","","7","","","","",""
"","","","","","single-stim-button","229","863324","0.0-3.0-22.5-1.5","610a30b7a800f225aa297939","A3","batch1","tol_toboard","716","","","","","","","","","tol_peg_3","716","716","0","[[2,0,0],[3,0],[1]]","6","[[0,0,0],[1,2],[3]]","4","0","","","","","","7","","","","",""
"","","","","","single-stim-button","230","863974","0.0-3.0-22.6-0.6","610a30b7a800f225aa297939","A3","batch1","tol_tohand","649","","","","","","","","","tol_peg_2","649","649","0","[[2,0,0],[0,0],[1]]","7","[[0,0,0],[1,2],[3]]","4","0","","","","","","7","","","","",""
"","","","","","single-stim-button","231","864541","0.0-3.0-22.6-1.6","610a30b7a800f225aa297939","A3","batch1","tol_toboard","565","","","","","","","","","tol_peg_1","565","565","0","[[2,3,0],[0,0],[1]]","7","[[0,0,0],[1,2],[3]]","4","0","","","","","","7","","","","",""
"","","","","","single-stim-button","232","865125","0.0-3.0-22.7-0.7","610a30b7a800f225aa297939","A3","batch1","tol_tohand","582","","","","","","","","","tol_peg_3","582","582","0","[[2,3,0],[0,0],[0]]","8","[[0,0,0],[1,2],[3]]","4","0","","","","","","7","","","","",""
"","","","","","single-stim-button","233","865891","0.0-3.0-22.7-1.7","610a30b7a800f225aa297939","A3","batch1","tol_toboard","766","","","","","","","","","tol_peg_2","766","766","0","[[2,3,0],[1,0],[0]]","8","[[0,0,0],[1,2],[3]]","4","0","","","","","","7","","","","",""
"","","","","","single-stim-button","234","866491","0.0-3.0-22.8-0.8","610a30b7a800f225aa297939","A3","batch1","tol_tohand","599","","","","","","","","","tol_peg_1","599","599","0","[[2,0,0],[1,0],[0]]","9","[[0,0,0],[1,2],[3]]","4","0","","","","","","7","","","","",""
"","","","","","single-stim-button","235","867275","0.0-3.0-22.8-1.8","610a30b7a800f225aa297939","A3","batch1","tol_toboard","782","","","","","","","","","tol_peg_3","782","782","0","[[2,0,0],[1,0],[3]]","9","[[0,0,0],[1,2],[3]]","4","0","","","","","","7","","","","",""
"","","","","","single-stim-button","236","867892","0.0-3.0-22.9-0.9","610a30b7a800f225aa297939","A3","batch1","tol_tohand","616","","","","","","","","","tol_peg_1","616","616","0","[[0,0,0],[1,0],[3]]","10","[[0,0,0],[1,2],[3]]","4","0","","","","","","7","","","","",""
"","","","","","single-stim-button","237","868391","0.0-3.0-22.9-1.9","610a30b7a800f225aa297939","A3","batch1","tol_toboard","499","","","","","","","","","tol_peg_2","499","499","0","[[0,0,0],[1,2],[3]]","10","[[0,0,0],[1,2],[3]]","4","0","","","","","","7","","","","",""
"","","","","","poldrack-single-stim","238","869403","0.0-3.0-23.0","610a30b7a800f225aa297939","A3","batch1","tol_feedback","-1","","","","","true","","","","","1000","1000","500","","","","","","-1","none","true","2816","12792","","","","","",""
"","","","","","html-button-response","239","873359","0.0-3.0-24.0","610a30b7a800f225aa297939","A3","batch1","tol_trial_num","3954.8999999910593","<div class = centerbox><p class = center-block-text>problem <strong>6</strong> out of 25 problems</p></div>","0","","","","","","","","","","","","","","","","","","","","","","","","","",""
"","","","","","single-stim-button","240","877060","0.0-3.0-25.0-0.0","610a30b7a800f225aa297939","A3","batch1","tol_tohand","3700","","","","","","","","","tol_peg_3","3700","3700","0","[[0,0,0],[1,2],[0]]","1","[[1,0,0],[2,3],[0]]","5","0","","","","","","6","","","","",""
"","","","","","single-stim-button","241","877726","0.0-3.0-25.0-1.0","610a30b7a800f225aa297939","A3","batch1","tol_toboard","665","","","","","","","","","tol_peg_1","665","665","0","[[3,0,0],[1,2],[0]]","1","[[1,0,0],[2,3],[0]]","5","0","","","","","","6","","","","",""
"","","","","","single-stim-button","242","882560","0.0-3.0-25.1-0.1","610a30b7a800f225aa297939","A3","batch1","tol_tohand","4833","","","","","","","","","tol_peg_2","4833","4833","0","[[3,0,0],[1,0],[0]]","2","[[1,0,0],[2,3],[0]]","5","0","","","","","","6","","","","",""
"","","","","","single-stim-button","243","883327","0.0-3.0-25.1-1.1","610a30b7a800f225aa297939","A3","batch1","tol_toboard","765","","","","","","","","","tol_peg_3","765","765","0","[[3,0,0],[1,0],[2]]","2","[[1,0,0],[2,3],[0]]","5","0","","","","","","6","","","","",""
"","","","","","single-stim-button","244","884027","0.0-3.0-25.2-0.2","610a30b7a800f225aa297939","A3","batch1","tol_tohand","700","","","","","","","","","tol_peg_2","700","700","0","[[3,0,0],[0,0],[2]]","3","[[1,0,0],[2,3],[0]]","5","0","","","","","","6","","","","",""
"","","","","","single-stim-button","245","884778","0.0-3.0-25.2-1.2","610a30b7a800f225aa297939","A3","batch1","tol_toboard","749","","","","","","","","","tol_peg_1","749","749","0","[[3,1,0],[0,0],[2]]","3","[[1,0,0],[2,3],[0]]","5","0","","","","","","6","","","","",""
"","","","","","single-stim-button","246","885394","0.0-3.0-25.3-0.3","610a30b7a800f225aa297939","A3","batch1","tol_tohand","615","","","","","","","","","tol_peg_3","615","615","0","[[3,1,0],[0,0],[0]]","4","[[1,0,0],[2,3],[0]]","5","0","","","","","","6","","","","",""
"","","","","","single-stim-button","247","886011","0.0-3.0-25.3-1.3","610a30b7a800f225aa297939","A3","batch1","tol_toboard","616","","","","","","","","","tol_peg_2","616","616","0","[[3,1,0],[2,0],[0]]","4","[[1,0,0],[2,3],[0]]","5","0","","","","","","6","","","","",""
"","","","","","single-stim-button","248","887060","0.0-3.0-25.4-0.4","610a30b7a800f225aa297939","A3","batch1","tol_tohand","1048","","","","","","","","","tol_peg_1","1048","1048","0","[[3,0,0],[2,0],[0]]","5","[[1,0,0],[2,3],[0]]","5","0","","","","","","6","","","","",""
"","","","","","single-stim-button","249","888045","0.0-3.0-25.4-1.4","610a30b7a800f225aa297939","A3","batch1","tol_toboard","983","","","","","","","","","tol_peg_2","983","983","0","[[3,0,0],[2,1],[0]]","5","[[1,0,0],[2,3],[0]]","5","0","","","","","","6","","","","",""
"","","","","","single-stim-button","250","888695","0.0-3.0-25.5-0.5","610a30b7a800f225aa297939","A3","batch1","tol_tohand","649","","","","","","","","","tol_peg_1","649","649","0","[[0,0,0],[2,1],[0]]","6","[[1,0,0],[2,3],[0]]","5","0","","","","","","6","","","","",""
"","","","","","single-stim-button","251","889428","0.0-3.0-25.5-1.5","610a30b7a800f225aa297939","A3","batch1","tol_toboard","732","","","","","","","","","tol_peg_3","732","732","0","[[0,0,0],[2,1],[3]]","6","[[1,0,0],[2,3],[0]]","5","0","","","","","","6","","","","",""
"","","","","","single-stim-button","252","890012","0.0-3.0-25.6-0.6","610a30b7a800f225aa297939","A3","batch1","tol_tohand","582","","","","","","","","","tol_peg_2","582","582","0","[[0,0,0],[2,0],[3]]","7","[[1,0,0],[2,3],[0]]","5","0","","","","","","6","","","","",""
"","","","","","single-stim-button","253","890662","0.0-3.0-25.6-1.6","610a30b7a800f225aa297939","A3","batch1","tol_toboard","649","","","","","","","","","tol_peg_1","649","649","0","[[1,0,0],[2,0],[3]]","7","[[1,0,0],[2,3],[0]]","5","0","","","","","","6","","","","",""
"","","","","","single-stim-button","254","891345","0.0-3.0-25.7-0.7","610a30b7a800f225aa297939","A3","batch1","tol_tohand","682","","","","","","","","","tol_peg_3","682","682","0","[[1,0,0],[2,0],[0]]","8","[[1,0,0],[2,3],[0]]","5","0","","","","","","6","","","","",""
"","","","","","single-stim-button","255","892028","0.0-3.0-25.7-1.7","610a30b7a800f225aa297939","A3","batch1","tol_toboard","682","","","","","","","","","tol_peg_2","682","682","0","[[1,0,0],[2,3],[0]]","8","[[1,0,0],[2,3],[0]]","5","0","","","","","","6","","","","",""
"","","","","","poldrack-single-stim","256","893037","0.0-3.0-26.0","610a30b7a800f225aa297939","A3","batch1","tol_feedback","-1","","","","","true","","","","","1000","1000","500","","","","","","-1","none","true","3700","12809","","","","","",""
"","","","","","html-button-response","257","953706","0.0-3.0-27.0","610a30b7a800f225aa297939","A3","batch1","tol_trial_num","60669.39999999106","<div class = centerbox><p class = center-block-text>problem <strong>7</strong> out of 25 problems</p></div>","0","","","","","","","","","","","","","","","","","","","","","","","","","",""
"","","","","","single-stim-button","258","955440","0.0-3.0-28.0-0.0","610a30b7a800f225aa297939","A3","batch1","tol_tohand","1732","","","","","","","","","tol_peg_3","1732","1732","0","[[2,1,0],[0,0],[0]]","1","[[1,2,0],[3,0],[0]]","6","0","","","","","","5","","","","",""
"","","","","","single-stim-button","259","956490","0.0-3.0-28.0-1.0","610a30b7a800f225aa297939","A3","batch1","tol_toboard","1049","","","","","","","","","tol_peg_2","1049","1049","0","[[2,1,0],[3,0],[0]]","1","[[1,2,0],[3,0],[0]]","6","0","","","","","","5","","","","",""
"","","","","","single-stim-button","260","957356","0.0-3.0-28.1-0.1","610a30b7a800f225aa297939","A3","batch1","tol_tohand","865","","","","","","","","","tol_peg_1","865","865","0","[[2,0,0],[3,0],[0]]","2","[[1,2,0],[3,0],[0]]","6","0","","","","","","5","","","","",""
"","","","","","single-stim-button","261","958207","0.0-3.0-28.1-1.1","610a30b7a800f225aa297939","A3","batch1","tol_toboard","850","","","","","","","","","tol_peg_3","850","850","0","[[2,0,0],[3,0],[1]]","2","[[1,2,0],[3,0],[0]]","6","0","","","","","","5","","","","",""
"","","","","","single-stim-button","262","959207","0.0-3.0-28.2-0.2","610a30b7a800f225aa297939","A3","batch1","tol_tohand","999","","","","","","","","","tol_peg_1","999","999","0","[[0,0,0],[3,0],[1]]","3","[[1,2,0],[3,0],[0]]","6","0","","","","","","5","","","","",""
"","","","","","single-stim-button","263","959957","0.0-3.0-28.2-1.2","610a30b7a800f225aa297939","A3","batch1","tol_toboard","749","","","","","","","","","tol_peg_2","749","749","0","[[0,0,0],[3,2],[1]]","3","[[1,2,0],[3,0],[0]]","6","0","","","","","","5","","","","",""
"","","","","","single-stim-button","264","960474","0.0-3.0-28.3-0.3","610a30b7a800f225aa297939","A3","batch1","tol_tohand","516","","","","","","","","","tol_peg_3","516","516","0","[[0,0,0],[3,2],[0]]","4","[[1,2,0],[3,0],[0]]","6","0","","","","","","5","","","","",""
"","","","","","single-stim-button","265","961307","0.0-3.0-28.3-1.3","610a30b7a800f225aa297939","A3","batch1","tol_toboard","832","","","","","","","","","tol_peg_1","832","832","0","[[1,0,0],[3,2],[0]]","4","[[1,2,0],[3,0],[0]]","6","0","","","","","","5","","","","",""
"","","","","","single-stim-button","266","961791","0.0-3.0-28.4-0.4","610a30b7a800f225aa297939","A3","batch1","tol_tohand","482","","","","","","","","","tol_peg_2","482","482","0","[[1,0,0],[3,0],[0]]","5","[[1,2,0],[3,0],[0]]","6","0","","","","","","5","","","","",""
"","","","","","single-stim-button","267","962408","0.0-3.0-28.4-1.4","610a30b7a800f225aa297939","A3","batch1","tol_toboard","615","","","","","","","","","tol_peg_1","615","615","0","[[1,2,0],[3,0],[0]]","5","[[1,2,0],[3,0],[0]]","6","0","","","","","","5","","","","",""
"","","","","","poldrack-single-stim","268","963414","0.0-3.0-29.0","610a30b7a800f225aa297939","A3","batch1","tol_feedback","-1","","","","","true","","","","","1000","1000","500","","","","","","-1","none","true","1732","4594","","","","","",""
"","","","","","html-button-response","269","964473","0.0-3.0-30.0","610a30b7a800f225aa297939","A3","batch1","tol_trial_num","1058.300000011921","<div class = centerbox><p class = center-block-text>problem <strong>8</strong> out of 25 problems</p></div>","0","","","","","","","","","","","","","","","","","","","","","","","","","",""
"","","","","","single-stim-button","270","966925","0.0-3.0-31.0-0.0","610a30b7a800f225aa297939","A3","batch1","tol_tohand","2450","","","","","","","","","tol_peg_3","2450","2450","0","[[0,0,0],[2,3],[0]]","1","[[1,2,0],[3,0],[0]]","7","0","","","","","","4","","","","",""
"","","","","","single-stim-button","271","967808","0.0-3.0-31.0-1.0","610a30b7a800f225aa297939","A3","batch1","tol_toboard","883","","","","","","","","","tol_peg_1","883","883","0","[[1,0,0],[2,3],[0]]","1","[[1,2,0],[3,0],[0]]","7","0","","","","","","4","","","","",""
"","","","","","single-stim-button","272","968492","0.0-3.0-31.1-0.1","610a30b7a800f225aa297939","A3","batch1","tol_tohand","682","","","","","","","","","tol_peg_2","682","682","0","[[1,0,0],[2,0],[0]]","2","[[1,2,0],[3,0],[0]]","7","0","","","","","","4","","","","",""
"","","","","","single-stim-button","273","969142","0.0-3.0-31.1-1.1","610a30b7a800f225aa297939","A3","batch1","tol_toboard","648","","","","","","","","","tol_peg_3","648","648","0","[[1,0,0],[2,0],[3]]","2","[[1,2,0],[3,0],[0]]","7","0","","","","","","4","","","","",""
"","","","","","single-stim-button","274","969625","0.0-3.0-31.2-0.2","610a30b7a800f225aa297939","A3","batch1","tol_tohand","482","","","","","","","","","tol_peg_2","482","482","0","[[1,0,0],[0,0],[3]]","3","[[1,2,0],[3,0],[0]]","7","0","","","","","","4","","","","",""
"","","","","","single-stim-button","275","970425","0.0-3.0-31.2-1.2","610a30b7a800f225aa297939","A3","batch1","tol_toboard","799","","","","","","","","","tol_peg_1","799","799","0","[[1,2,0],[0,0],[3]]","3","[[1,2,0],[3,0],[0]]","7","0","","","","","","4","","","","",""
"","","","","","single-stim-button","276","971659","0.0-3.0-31.3-0.3","610a30b7a800f225aa297939","A3","batch1","tol_tohand","1233","","","","","","","","","tol_peg_3","1233","1233","0","[[1,2,0],[0,0],[0]]","4","[[1,2,0],[3,0],[0]]","7","0","","","","","","4","","","","",""
"","","","","","single-stim-button","277","972442","0.0-3.0-31.3-1.3","610a30b7a800f225aa297939","A3","batch1","tol_toboard","782","","","","","","","","","tol_peg_2","782","782","0","[[1,2,0],[3,0],[0]]","4","[[1,2,0],[3,0],[0]]","7","0","","","","","","4","","","","",""
"","","","","","poldrack-single-stim","278","973456","0.0-3.0-32.0","610a30b7a800f225aa297939","A3","batch1","tol_feedback","-1","","","","","true","","","","","1000","1000","500","","","","","","-1","none","true","2450","4847","","","","","",""
"","","","","","html-button-response","279","974476","0.0-3.0-33.0","610a30b7a800f225aa297939","A3","batch1","tol_trial_num","1018.5","<div class = centerbox><p class = center-block-text>problem <strong>9</strong> out of 25 problems</p></div>","0","","","","","","","","","","","","","","","","","","","","","","","","","",""
"","","","","","single-stim-button","280","977410","0.0-3.0-34.0-0.0","610a30b7a800f225aa297939","A3","batch1","tol_tohand","2933","","","","","","","","","tol_peg_3","2933","2933","0","[[3,2,0],[0,0],[0]]","1","[[2,1,0],[3,0],[0]]","8","0","","","","","","6","","","","",""
"","","","","","single-stim-button","281","978560","0.0-3.0-34.0-1.0","610a30b7a800f225aa297939","A3","batch1","tol_toboard","1149","","","","","","","","","tol_peg_2","1149","1149","0","[[3,2,0],[1,0],[0]]","1","[[2,1,0],[3,0],[0]]","8","0","","","","","","6","","","","",""
"","","","","","single-stim-button","282","979494","0.0-3.0-34.1-0.1","610a30b7a800f225aa297939","A3","batch1","tol_tohand","932","","","","","","","","","tol_peg_1","932","932","0","[[3,0,0],[1,0],[0]]","2","[[2,1,0],[3,0],[0]]","8","0","","","","","","6","","","","",""
"","","","","","single-stim-button","283","981594","0.0-3.0-34.1-1.1","610a30b7a800f225aa297939","A3","batch1","tol_toboard","2098","","","","","","","","","tol_peg_2","2098","2098","0","[[3,0,0],[1,2],[0]]","2","[[2,1,0],[3,0],[0]]","8","0","","","","","","6","","","","",""
"","","","","","single-stim-button","284","982227","0.0-3.0-34.2-0.2","610a30b7a800f225aa297939","A3","batch1","tol_tohand","632","","","","","","","","","tol_peg_1","632","632","0","[[0,0,0],[1,2],[0]]","3","[[2,1,0],[3,0],[0]]","8","0","","","","","","6","","","","",""
"","","","","","single-stim-button","285","982928","0.0-3.0-34.2-1.2","610a30b7a800f225aa297939","A3","batch1","tol_toboard","699","","","","","","","","","tol_peg_3","699","699","0","[[0,0,0],[1,2],[3]]","3","[[2,1,0],[3,0],[0]]","8","0","","","","","","6","","","","",""
"","","","","","single-stim-button","286","983444","0.0-3.0-34.3-0.3","610a30b7a800f225aa297939","A3","batch1","tol_tohand","515","","","","","","","","","tol_peg_2","515","515","0","[[0,0,0],[1,0],[3]]","4","[[2,1,0],[3,0],[0]]","8","0","","","","","","6","","","","",""
"","","","","","single-stim-button","287","984445","0.0-3.0-34.3-1.3","610a30b7a800f225aa297939","A3","batch1","tol_toboard","999","","","","","","","","","tol_peg_1","999","999","0","[[2,0,0],[1,0],[3]]","4","[[2,1,0],[3,0],[0]]","8","0","","","","","","6","","","","",""
"","","","","","single-stim-button","288","985061","0.0-3.0-34.4-0.4","610a30b7a800f225aa297939","A3","batch1","tol_tohand","616","","","","","","","","","tol_peg_2","616","616","0","[[2,0,0],[0,0],[3]]","5","[[2,1,0],[3,0],[0]]","8","0","","","","","","6","","","","",""
"","","","","","single-stim-button","289","985661","0.0-3.0-34.4-1.4","610a30b7a800f225aa297939","A3","batch1","tol_toboard","599","","","","","","","","","tol_peg_1","599","599","0","[[2,1,0],[0,0],[3]]","5","[[2,1,0],[3,0],[0]]","8","0","","","","","","6","","","","",""
"","","","","","single-stim-button","290","986228","0.0-3.0-34.5-0.5","610a30b7a800f225aa297939","A3","batch1","tol_tohand","566","","","","","","","","","tol_peg_3","566","566","0","[[2,1,0],[0,0],[0]]","6","[[2,1,0],[3,0],[0]]","8","0","","","","","","6","","","","",""
"","","","","","single-stim-button","291","986778","0.0-3.0-34.5-1.5","610a30b7a800f225aa297939","A3","batch1","tol_toboard","548","","","","","","","","","tol_peg_2","548","548","0","[[2,1,0],[3,0],[0]]","6","[[2,1,0],[3,0],[0]]","8","0","","","","","","6","","","","",""
"","","","","","poldrack-single-stim","292","987787","0.0-3.0-35.0","610a30b7a800f225aa297939","A3","batch1","tol_feedback","-1","","","","","true","","","","","1000","1000","500","","","","","","-1","none","true","2933","6194","","","","","",""
"","","","","","html-button-response","293","988662","0.0-3.0-36.0","610a30b7a800f225aa297939","A3","batch1","tol_trial_num","873.7000000029802","<div class = centerbox><p class = center-block-text>problem <strong>10</strong> out of 25 problems</p></div>","0","","","","","","","","","","","","","","","","","","","","","","","","","",""
"","","","","","single-stim-button","294","991912","0.0-3.0-37.0-0.0","610a30b7a800f225aa297939","A3","batch1","tol_tohand","3249","","","","","","","","","tol_peg_3","3249","3249","0","[[3,0,0],[1,0],[0]]","1","[[3,0,0],[2,1],[0]]","9","0","","","","","","3","","","","",""
"","","","","","single-stim-button","295","992529","0.0-3.0-37.0-1.0","610a30b7a800f225aa297939","A3","batch1","tol_toboard","616","","","","","","","","","tol_peg_2","616","616","0","[[3,0,0],[1,2],[0]]","1","[[3,0,0],[2,1],[0]]","9","0","","","","","","3","","","","",""
"","","","","","single-stim-button","296","993446","0.0-3.0-37.1-0.1","610a30b7a800f225aa297939","A3","batch1","tol_tohand","916","","","","","","","","","tol_peg_1","916","916","0","[[0,0,0],[1,2],[0]]","2","[[3,0,0],[2,1],[0]]","9","0","","","","","","3","","","","",""
"","","","","","single-stim-button","297","994113","0.0-3.0-37.1-1.1","610a30b7a800f225aa297939","A3","batch1","tol_toboard","665","","","","","","","","","tol_peg_3","665","665","0","[[0,0,0],[1,2],[3]]","2","[[3,0,0],[2,1],[0]]","9","0","","","","","","3","","","","",""
"","","","","","single-stim-button","298","995113","0.0-3.0-37.2-0.2","610a30b7a800f225aa297939","A3","batch1","tol_tohand","1000","","","","","","","","","tol_peg_2","1000","1000","0","[[0,0,0],[1,0],[3]]","3","[[3,0,0],[2,1],[0]]","9","0","","","","","","3","","","","",""
"","","","","","single-stim-button","299","995613","0.0-3.0-37.2-1.2","610a30b7a800f225aa297939","A3","batch1","tol_toboard","499","","","","","","","","","tol_peg_1","499","499","0","[[2,0,0],[1,0],[3]]","3","[[3,0,0],[2,1],[0]]","9","0","","","","","","3","","","","",""
"","","","","","single-stim-button","300","1000597","0.0-3.0-37.3-0.3","610a30b7a800f225aa297939","A3","batch1","tol_tohand","4982","","","","","","","","","tol_peg_2","4982","4982","0","[[2,0,0],[0,0],[3]]","4","[[3,0,0],[2,1],[0]]","9","0","","","","","","3","","","","",""
"","","","","","single-stim-button","301","1001130","0.0-3.0-37.3-1.3","610a30b7a800f225aa297939","A3","batch1","tol_toboard","532","","","","","","","","","tol_peg_1","532","532","0","[[2,1,0],[0,0],[3]]","4","[[3,0,0],[2,1],[0]]","9","0","","","","","","3","","","","",""
"","","","","","single-stim-button","302","1001914","0.0-3.0-37.4-0.4","610a30b7a800f225aa297939","A3","batch1","tol_tohand","783","","","","","","","","","tol_peg_3","783","783","0","[[2,1,0],[0,0],[0]]","5","[[3,0,0],[2,1],[0]]","9","0","","","","","","3","","","","",""
"","","","","","single-stim-button","303","1003131","0.0-3.0-37.4-1.4","610a30b7a800f225aa297939","A3","batch1","tol_toboard","1216","","","","","","","","","tol_peg_2","1216","1216","0","[[2,1,0],[3,0],[0]]","5","[[3,0,0],[2,1],[0]]","9","0","","","","","","3","","","","",""
"","","","","","single-stim-button","304","1004681","0.0-3.0-37.5-0.5","610a30b7a800f225aa297939","A3","batch1","tol_tohand","1549","","","","","","","","","tol_peg_1","1549","1549","0","[[2,0,0],[3,0],[0]]","6","[[3,0,0],[2,1],[0]]","9","0","","","","","","3","","","","",""
"","","","","","single-stim-button","305","1008132","0.0-3.0-37.5-1.5","610a30b7a800f225aa297939","A3","batch1","tol_toboard","3449","","","","","","","","","tol_peg_2","3449","3449","0","[[2,0,0],[3,1],[0]]","6","[[3,0,0],[2,1],[0]]","9","0","","","","","","3","","","","",""
"","","","","","single-stim-button","306","1013083","0.0-3.0-37.6-0.6","610a30b7a800f225aa297939","A3","batch1","tol_tohand","4949","","","","","","","","","tol_peg_1","4949","4949","0","[[0,0,0],[3,1],[0]]","7","[[3,0,0],[2,1],[0]]","9","0","","","","","","3","","","","",""
"","","","","","single-stim-button","307","1014082","0.0-3.0-37.6-1.6","610a30b7a800f225aa297939","A3","batch1","tol_toboard","999","","","","","","","","","tol_peg_3","999","999","0","[[0,0,0],[3,1],[2]]","7","[[3,0,0],[2,1],[0]]","9","0","","","","","","3","","","","",""
"","","","","","single-stim-button","308","1014816","0.0-3.0-37.7-0.7","610a30b7a800f225aa297939","A3","batch1","tol_tohand","733","","","","","","","","","tol_peg_2","733","733","0","[[0,0,0],[3,0],[2]]","8","[[3,0,0],[2,1],[0]]","9","0","","","","","","3","","","","",""
"","","","","","single-stim-button","309","1015316","0.0-3.0-37.7-1.7","610a30b7a800f225aa297939","A3","batch1","tol_toboard","499","","","","","","","","","tol_peg_1","499","499","0","[[1,0,0],[3,0],[2]]","8","[[3,0,0],[2,1],[0]]","9","0","","","","","","3","","","","",""
"","","","","","single-stim-button","310","1015949","0.0-3.0-37.8-0.8","610a30b7a800f225aa297939","A3","batch1","tol_tohand","632","","","","","","","","","tol_peg_3","632","632","0","[[1,0,0],[3,0],[0]]","9","[[3,0,0],[2,1],[0]]","9","0","","","","","","3","","","","",""
"","","","","","single-stim-button","311","1016549","0.0-3.0-37.8-1.8","610a30b7a800f225aa297939","A3","batch1","tol_toboard","600","","","","","","","","","tol_peg_1","600","600","0","[[1,2,0],[3,0],[0]]","9","[[3,0,0],[2,1],[0]]","9","0","","","","","","3","","","","",""
"","","","","","single-stim-button","312","1017066","0.0-3.0-37.9-0.9","610a30b7a800f225aa297939","A3","batch1","tol_tohand","516","","","","","","","","","tol_peg_2","516","516","0","[[1,2,0],[0,0],[0]]","10","[[3,0,0],[2,1],[0]]","9","0","","","","","","3","","","","",""
"","","","","","single-stim-button","313","1017566","0.0-3.0-37.9-1.9","610a30b7a800f225aa297939","A3","batch1","tol_toboard","499","","","","","","","","","tol_peg_3","499","499","0","[[1,2,0],[0,0],[3]]","10","[[3,0,0],[2,1],[0]]","9","0","","","","","","3","","","","",""
"","","","","","single-stim-button","314","1018183","0.0-3.0-37.10-0.10","610a30b7a800f225aa297939","A3","batch1","tol_tohand","616","","","","","","","","","tol_peg_1","616","616","0","[[1,0,0],[0,0],[3]]","11","[[3,0,0],[2,1],[0]]","9","0","","","","","","3","","","","",""
"","","","","","single-stim-button","315","1018666","0.0-3.0-37.10-1.10","610a30b7a800f225aa297939","A3","batch1","tol_toboard","482","","","","","","","","","tol_peg_2","482","482","0","[[1,0,0],[2,0],[3]]","11","[[3,0,0],[2,1],[0]]","9","0","","","","","","3","","","","",""
"","","","","","single-stim-button","316","1019215","0.0-3.0-37.11-0.11","610a30b7a800f225aa297939","A3","batch1","tol_tohand","548","","","","","","","","","tol_peg_1","548","548","0","[[0,0,0],[2,0],[3]]","12","[[3,0,0],[2,1],[0]]","9","0","","","","","","3","","","","",""
"","","","","","single-stim-button","317","1019667","0.0-3.0-37.11-1.11","610a30b7a800f225aa297939","A3","batch1","tol_toboard","450","","","","","","","","","tol_peg_2","450","450","0","[[0,0,0],[2,1],[3]]","12","[[3,0,0],[2,1],[0]]","9","0","","","","","","3","","","","",""
"","","","","","single-stim-button","318","1020133","0.0-3.0-37.12-0.12","610a30b7a800f225aa297939","A3","batch1","tol_tohand","466","","","","","","","","","tol_peg_3","466","466","0","[[0,0,0],[2,1],[0]]","13","[[3,0,0],[2,1],[0]]","9","0","","","","","","3","","","","",""
"","","","","","single-stim-button","319","1020750","0.0-3.0-37.12-1.12","610a30b7a800f225aa297939","A3","batch1","tol_toboard","616","","","","","","","","","tol_peg_1","616","616","0","[[3,0,0],[2,1],[0]]","13","[[3,0,0],[2,1],[0]]","9","0","","","","","","3","","","","",""
"","","","","","poldrack-single-stim","320","1021755","0.0-3.0-38.0","610a30b7a800f225aa297939","A3","batch1","tol_feedback","-1","","","","","true","","","","","1000","1000","500","","","","","","-1","none","true","3249","20939","","","","","",""
"","","","","","html-button-response","321","1022684","0.0-3.0-39.0","610a30b7a800f225aa297939","A3","batch1","tol_trial_num","927.2999999970198","<div class = centerbox><p class = center-block-text>problem <strong>11</strong> out of 25 problems</p></div>","0","","","","","","","","","","","","","","","","","","","","","","","","","",""
"","","","","","single-stim-button","322","1025684","0.0-3.0-40.0-0.0","610a30b7a800f225aa297939","A3","batch1","tol_tohand","2999","","","","","","","","","tol_peg_2","2999","2999","0","[[1,2,0],[0,0],[0]]","1","[[2,0,0],[1,3],[0]]","10","0","","","","","","6","","","","",""
"","","","","","single-stim-button","323","1028334","0.0-3.0-40.0-1.0","610a30b7a800f225aa297939","A3","batch1","tol_toboard","2649","","","","","","","","","tol_peg_3","2649","2649","0","[[1,2,0],[0,0],[3]]","1","[[2,0,0],[1,3],[0]]","10","0","","","","","","6","","","","",""
"","","","","","single-stim-button","324","1032219","0.0-3.0-40.1-0.1","610a30b7a800f225aa297939","A3","batch1","tol_tohand","3883","","","","","","","","","tol_peg_3","3883","3883","0","[[1,2,0],[0,0],[0]]","2","[[2,0,0],[1,3],[0]]","10","0","","","","","","6","","","","",""
"","","","","","single-stim-button","325","1032919","0.0-3.0-40.1-1.1","610a30b7a800f225aa297939","A3","batch1","tol_toboard","700","","","","","","","","","tol_peg_2","700","700","0","[[1,2,0],[3,0],[0]]","2","[[2,0,0],[1,3],[0]]","10","0","","","","","","6","","","","",""
"","","","","","single-stim-button","326","1033452","0.0-3.0-40.2-0.2","610a30b7a800f225aa297939","A3","batch1","tol_tohand","532","","","","","","","","","tol_peg_1","532","532","0","[[1,0,0],[3,0],[0]]","3","[[2,0,0],[1,3],[0]]","10","0","","","","","","6","","","","",""
"","","","","","single-stim-button","327","1033986","0.0-3.0-40.2-1.2","610a30b7a800f225aa297939","A3","batch1","tol_toboard","532","","","","","","","","","tol_peg_3","532","532","0","[[1,0,0],[3,0],[2]]","3","[[2,0,0],[1,3],[0]]","10","0","","","","","","6","","","","",""
"","","","","","single-stim-button","328","1037870","0.0-3.0-40.3-0.3","610a30b7a800f225aa297939","A3","batch1","tol_tohand","3882","","","","","","","","","tol_peg_1","3882","3882","0","[[0,0,0],[3,0],[2]]","4","[[2,0,0],[1,3],[0]]","10","0","","","","","","6","","","","",""
"","","","","","single-stim-button","329","1038620","0.0-3.0-40.3-1.3","610a30b7a800f225aa297939","A3","batch1","tol_toboard","749","","","","","","","","","tol_peg_2","749","749","0","[[0,0,0],[3,1],[2]]","4","[[2,0,0],[1,3],[0]]","10","0","","","","","","6","","","","",""
"","","","","","single-stim-button","330","1039119","0.0-3.0-40.4-0.4","610a30b7a800f225aa297939","A3","batch1","tol_tohand","499","","","","","","","","","tol_peg_3","499","499","0","[[0,0,0],[3,1],[0]]","5","[[2,0,0],[1,3],[0]]","10","0","","","","","","6","","","","",""
"","","","","","single-stim-button","331","1039853","0.0-3.0-40.4-1.4","610a30b7a800f225aa297939","A3","batch1","tol_toboard","733","","","","","","","","","tol_peg_1","733","733","0","[[2,0,0],[3,1],[0]]","5","[[2,0,0],[1,3],[0]]","10","0","","","","","","6","","","","",""
"","","","","","single-stim-button","332","1040586","0.0-3.0-40.5-0.5","610a30b7a800f225aa297939","A3","batch1","tol_tohand","732","","","","","","","","","tol_peg_2","732","732","0","[[2,0,0],[3,0],[0]]","6","[[2,0,0],[1,3],[0]]","10","0","","","","","","6","","","","",""
"","","","","","single-stim-button","333","1041054","0.0-3.0-40.5-1.5","610a30b7a800f225aa297939","A3","batch1","tol_toboard","466","","","","","","","","","tol_peg_1","466","466","0","[[2,1,0],[3,0],[0]]","6","[[2,0,0],[1,3],[0]]","10","0","","","","","","6","","","","",""
"","","","","","single-stim-button","334","1042354","0.0-3.0-40.6-0.6","610a30b7a800f225aa297939","A3","batch1","tol_tohand","1298","","","","","","","","","tol_peg_2","1298","1298","0","[[2,1,0],[0,0],[0]]","7","[[2,0,0],[1,3],[0]]","10","0","","","","","","6","","","","",""
"","","","","","single-stim-button","335","1042937","0.0-3.0-40.6-1.6","610a30b7a800f225aa297939","A3","batch1","tol_toboard","583","","","","","","","","","tol_peg_3","583","583","0","[[2,1,0],[0,0],[3]]","7","[[2,0,0],[1,3],[0]]","10","0","","","","","","6","","","","",""
"","","","","","single-stim-button","336","1043687","0.0-3.0-40.7-0.7","610a30b7a800f225aa297939","A3","batch1","tol_tohand","749","","","","","","","","","tol_peg_1","749","749","0","[[2,0,0],[0,0],[3]]","8","[[2,0,0],[1,3],[0]]","10","0","","","","","","6","","","","",""
"","","","","","single-stim-button","337","1044404","0.0-3.0-40.7-1.7","610a30b7a800f225aa297939","A3","batch1","tol_toboard","716","","","","","","","","","tol_peg_2","716","716","0","[[2,0,0],[1,0],[3]]","8","[[2,0,0],[1,3],[0]]","10","0","","","","","","6","","","","",""
"","","","","","single-stim-button","338","1044971","0.0-3.0-40.8-0.8","610a30b7a800f225aa297939","A3","batch1","tol_tohand","565","","","","","","","","","tol_peg_3","565","565","0","[[2,0,0],[1,0],[0]]","9","[[2,0,0],[1,3],[0]]","10","0","","","","","","6","","","","",""
"","","","","","single-stim-button","339","1045455","0.0-3.0-40.8-1.8","610a30b7a800f225aa297939","A3","batch1","tol_toboard","483","","","","","","","","","tol_peg_2","483","483","0","[[2,0,0],[1,3],[0]]","9","[[2,0,0],[1,3],[0]]","10","0","","","","","","6","","","","",""
"","","","","","poldrack-single-stim","340","1046458","0.0-3.0-41.0","610a30b7a800f225aa297939","A3","batch1","tol_feedback","-1","","","","","true","","","","","1000","1000","500","","","","","","-1","none","true","2999","15139","","","","","",""
"","","","","","html-button-response","341","1047205","0.0-3.0-42.0","610a30b7a800f225aa297939","A3","batch1","tol_trial_num","745.7000000029802","<div class = centerbox><p class = center-block-text>problem <strong>12</strong> out of 25 problems</p></div>","0","","","","","","","","","","","","","","","","","","","","","","","","","",""
"","","","","","single-stim-button","342","1049438","0.0-3.0-43.0-0.0","610a30b7a800f225aa297939","A3","batch1","tol_tohand","2232","","","","","","","","","tol_peg_1","2232","2232","0","[[1,0,0],[3,0],[0]]","1","[[2,3,0],[0,0],[1]]","11","0","","","","","","4","","","","",""
"","","","","","single-stim-button","343","1051755","0.0-3.0-43.0-1.0","610a30b7a800f225aa297939","A3","batch1","tol_toboard","2316","","","","","","","","","tol_peg_3","2316","2316","0","[[1,0,0],[3,0],[2]]","1","[[2,3,0],[0,0],[1]]","11","0","","","","","","4","","","","",""
"","","","","","single-stim-button","344","1052489","0.0-3.0-43.1-0.1","610a30b7a800f225aa297939","A3","batch1","tol_tohand","732","","","","","","","","","tol_peg_1","732","732","0","[[0,0,0],[3,0],[2]]","2","[[2,3,0],[0,0],[1]]","11","0","","","","","","4","","","","",""
"","","","","","single-stim-button","345","1053072","0.0-3.0-43.1-1.1","610a30b7a800f225aa297939","A3","batch1","tol_toboard","582","","","","","","","","","tol_peg_2","582","582","0","[[0,0,0],[3,1],[2]]","2","[[2,3,0],[0,0],[1]]","11","0","","","","","","4","","","","",""
"","","","","","single-stim-button","346","1054406","0.0-3.0-43.2-0.2","610a30b7a800f225aa297939","A3","batch1","tol_tohand","1332","","","","","","","","","tol_peg_3","1332","1332","0","[[0,0,0],[3,1],[0]]","3","[[2,3,0],[0,0],[1]]","11","0","","","","","","4","","","","",""
"","","","","","single-stim-button","347","1054590","0.0-3.0-43.2-1.2","610a30b7a800f225aa297939","A3","batch1","tol_toboard","182","","","","","","","","","tol_peg_3","182","182","0","[[0,0,0],[3,1],[2]]","3","[[2,3,0],[0,0],[1]]","11","0","","","","","","4","","","","",""
"","","","","","single-stim-button","348","1055423","0.0-3.0-43.3-0.3","610a30b7a800f225aa297939","A3","batch1","tol_tohand","832","","","","","","","","","tol_peg_3","832","832","0","[[0,0,0],[3,1],[0]]","4","[[2,3,0],[0,0],[1]]","11","0","","","","","","4","","","","",""
"","","","","","single-stim-button","349","1056356","0.0-3.0-43.3-1.3","610a30b7a800f225aa297939","A3","batch1","tol_toboard","932","","","","","","","","","tol_peg_1","932","932","0","[[2,0,0],[3,1],[0]]","4","[[2,3,0],[0,0],[1]]","11","0","","","","","","4","","","","",""
"","","","","","single-stim-button","350","1056923","0.0-3.0-43.4-0.4","610a30b7a800f225aa297939","A3","batch1","tol_tohand","565","","","","","","","","","tol_peg_2","565","565","0","[[2,0,0],[3,0],[0]]","5","[[2,3,0],[0,0],[1]]","11","0","","","","","","4","","","","",""
"","","","","","single-stim-button","351","1057489","0.0-3.0-43.4-1.4","610a30b7a800f225aa297939","A3","batch1","tol_toboard","566","","","","","","","","","tol_peg_3","566","566","0","[[2,0,0],[3,0],[1]]","5","[[2,3,0],[0,0],[1]]","11","0","","","","","","4","","","","",""
"","","","","","single-stim-button","352","1058356","0.0-3.0-43.5-0.5","610a30b7a800f225aa297939","A3","batch1","tol_tohand","866","","","","","","","","","tol_peg_2","866","866","0","[[2,0,0],[0,0],[1]]","6","[[2,3,0],[0,0],[1]]","11","0","","","","","","4","","","","",""
"","","","","","single-stim-button","353","1059056","0.0-3.0-43.5-1.5","610a30b7a800f225aa297939","A3","batch1","tol_toboard","699","","","","","","","","","tol_peg_1","699","699","0","[[2,3,0],[0,0],[1]]","6","[[2,3,0],[0,0],[1]]","11","0","","","","","","4","","","","",""
"","","","","","poldrack-single-stim","354","1060070","0.0-3.0-44.0","610a30b7a800f225aa297939","A3","batch1","tol_feedback","-1","","","","","true","","","","","1000","1000","500","","","","","","-1","none","true","2232","6559","","","","","",""
"","","","","","html-button-response","355","1060706","0.0-3.0-45.0","610a30b7a800f225aa297939","A3","batch1","tol_trial_num","635.3999999910593","<div class = centerbox><p class = center-block-text>problem <strong>13</strong> out of 25 problems</p></div>","0","","","","","","","","","","","","","","","","","","","","","","","","","",""
