"success","timeout","failed_images","failed_audio","failed_video","trial_type","trial_index","time_elapsed","internal_node_id","subject_id","study_id","session_id","view_history","rt","task","stimulus","response","correct","mouse_click","stim_duration","block_duration","timing_post_trial","current_position","tol_num_moves_made","tol_target","tol_problem_id","tol_rt","key_press","possible_responses","tol_correct","preplanning","tol_rt_per_trial","tol_min_moves","item","answer","spm_correct","spm_rt","fiar_detect_rt","fiar_detect_correct","total_correct_fiar_detect","post_trial_gap","choices"
"true","false","[]","[]","[]","preload","0","1025","0.0-0.0","610ed1ac68f6c344f9a8b17d","B2","batch2","","","","","","","","","","","","","","","","","","","","","","","","","","","","","",""
"true","","","","","fullscreen","1","6323","0.0-1.0-0.0","610ed1ac68f6c344f9a8b17d","B2","batch2","","","","","","","","","","","","","","","","","","","","","","","","","","","","","",""
"true","","","","","fullscreen","2","8651","0.0-2.0-0.0","610ed1ac68f6c344f9a8b17d","B2","batch2","","","","","","","","","","","","","","","","","","","","","","","","","","","","","",""
"","","","","","instructions","3","38013","0.0-2.0-1.0-0.0-0.0","610ed1ac68f6c344f9a8b17d","B2","batch2","[{""page_index"":0,""viewing_time"":3954.199999988079},{""page_index"":1,""viewing_time"":5615.300000011921},{""page_index"":2,""viewing_time"":4589.199999988079},{""page_index"":3,""viewing_time"":4424.300000011921},{""page_index"":4,""viewing_time"":2437.599999964237},{""page_index"":5,""viewing_time"":5966.800000011921},{""page_index"":6,""viewing_time"":2371.900000035763}]","29359.899999976158","tol-instructions","","","","","","","","","","","","","","","","","","","","","","","","","","",""
"","","","","","html-button-response","4","38967","0.0-2.0-1.0-1.0-0.0","610ed1ac68f6c344f9a8b17d","B2","batch2","","951.3999999761581","tol_enter_quiz","<p class=block-text> Let's answer a few questions <br>","0","","","","","","","","","","","","","","","","","","","","","","","","",""
"","","","","","html-button-response","5","46546","0.0-2.0-1.0-1.0-1.0","610ed1ac68f6c344f9a8b17d","B2","batch2","","7575.700000047684","tol_quiz","<p class = block-text>True or False: You can only move the ball on top of a peg. <br></p>","1","false","","","","","","","","","","","","","","","","","","","","","","","",""
"","","","","","html-button-response","6","47939","0.0-2.0-1.0-1.0-2.0","610ed1ac68f6c344f9a8b17d","B2","batch2","","1390.8999999761581","tol_quiz_feedback","<p class = block-text>Incorrect. Remember, you can only move the ball on top of a peg.</p>","0","","","","","","","","","","","","","","","","","","","","","","","","",""
"","","","","","html-button-response","7","50609","0.0-2.0-1.0-1.0-3.0","610ed1ac68f6c344f9a8b17d","B2","batch2","","2669.400000035763","tol_quiz","<p class = block-text>True or False: You should try to match your board with the target board with fewest moves possible. <br></p>","0","true","","","","","","","","","","","","","","","","","","","","","","","",""
"","","","","","html-button-response","8","51400","0.0-2.0-1.0-1.0-4.0","610ed1ac68f6c344f9a8b17d","B2","batch2","","790.4000000357628","tol_quiz_feedback","<p class = block-text>Correct! </p>","0","","","","","","","","","","","","","","","","","","","","","","","","",""
"","","","","","html-button-response","9","53512","0.0-2.0-1.0-2.0-0.0","610ed1ac68f6c344f9a8b17d","B2","batch2","","2110.400000035763","","<p class = block-text>You made too many incorrect choices.</p><p class = block-text>You will now repeat the instructions and quiz</p>","0","","","","","","","","","","","","","","","","","","","","","","","","",""
"","","","","","instructions","10","64746","0.0-2.0-1.1-0.1-0.1","610ed1ac68f6c344f9a8b17d","B2","batch2","[{""page_index"":0,""viewing_time"":2560.600000023842},{""page_index"":1,""viewing_time"":1671.5999999642372},{""page_index"":2,""viewing_time"":985.8000000119209},{""page_index"":3,""viewing_time"":1613.6000000238419},{""page_index"":4,""viewing_time"":2071},{""page_index"":5,""viewing_time"":1197.199999988079},{""page_index"":6,""viewing_time"":1133.0999999642372}]","11233.300000011921","tol-instructions","","","","","","","","","","","","","","","","","","","","","","","","","","",""
"","","","","","html-button-response","11","65607","0.0-2.0-1.1-1.1-0.1","610ed1ac68f6c344f9a8b17d","B2","batch2","","860.1999999880791","tol_enter_quiz","<p class=block-text> Let's answer a few questions <br>","0","","","","","","","","","","","","","","","","","","","","","","","","",""
"","","","","","html-button-response","12","66995","0.0-2.0-1.1-1.1-1.1","610ed1ac68f6c344f9a8b17d","B2","batch2","","1386.699999988079","tol_quiz","<p class = block-text>True or False: You can only move the ball on top of a peg. <br></p>","0","true","","","","","","","","","","","","","","","","","","","","","","","",""
"","","","","","html-button-response","13","67941","0.0-2.0-1.1-1.1-2.1","610ed1ac68f6c344f9a8b17d","B2","batch2","","943.9000000357628","tol_quiz_feedback","<p class = block-text>Correct! You can only move the ball on top of a peg.</p>","0","","","","","","","","","","","","","","","","","","","","","","","","",""
"","","","","","html-button-response","14","69262","0.0-2.0-1.1-1.1-3.1","610ed1ac68f6c344f9a8b17d","B2","batch2","","1318.7000000476837","tol_quiz","<p class = block-text>True or False: You should try to match your board with the target board with fewest moves possible. <br></p>","0","true","","","","","","","","","","","","","","","","","","","","","","","",""
"","","","","","html-button-response","15","69946","0.0-2.0-1.1-1.1-4.1","610ed1ac68f6c344f9a8b17d","B2","batch2","","682.8000000119209","tol_quiz_feedback","<p class = block-text>Correct! </p>","0","","","","","","","","","","","","","","","","","","","","","","","","",""
"","","","","","html-button-response","16","71014","0.0-2.0-2.0","610ed1ac68f6c344f9a8b17d","B2","batch2","","1065.699999988079","","<p class=block-text> Now that you've understood the game, let's practice a few easier examples before we start!<br> <br>","0","","","","","","","","","","","","","","","","","","","","","","","","",""
"","","","","","single-stim-button","17","74998","0.0-2.0-3.0-0.0","610ed1ac68f6c344f9a8b17d","B2","batch2","","3982","tol_practice","","","","tol_peg_2","3982","3982","0","[[1,2,0],[0,0],[0]]","1","[[1,2,0],[0,0],[3]]","practice","3982","","","","","","","","","","","","","","",""
"","","","","","single-stim-button","18","76899","0.0-2.0-3.0-1.0","610ed1ac68f6c344f9a8b17d","B2","batch2","","1899","tol_practice","","","","tol_peg_3","1899","1899","0","[[1,2,0],[0,0],[3]]","1","[[1,2,0],[0,0],[3]]","practice","1899","","","","","","","","","","","","","","",""
"","","","","","poldrack-single-stim","19","77909","0.0-2.0-4.0","610ed1ac68f6c344f9a8b17d","B2","batch2","","-1","tol_feedback","","","true","","1000","1000","500","","","","","","-1","none","true","","0","","","","","","","","","",""
"","","","","","single-stim-button","20","82072","0.0-2.0-5.0-0.0","610ed1ac68f6c344f9a8b17d","B2","batch2","","4162","tol_practice","","","","tol_peg_1","4162","4162","0","[[1,0,0],[3,0],[0]]","2","[[0,0,0],[3,1],[2]]","practice","4162","","","","","","","","","","","","","","",""
"","","","","","single-stim-button","21","83497","0.0-2.0-5.0-1.0","610ed1ac68f6c344f9a8b17d","B2","batch2","","1425","tol_practice","","","","tol_peg_3","1425","1425","0","[[1,0,0],[3,0],[2]]","2","[[0,0,0],[3,1],[2]]","practice","1425","","","","","","","","","","","","","","",""
"","","","","","single-stim-button","22","85079","0.0-2.0-5.1-0.1","610ed1ac68f6c344f9a8b17d","B2","batch2","","1580","tol_practice","","","","tol_peg_1","1580","1580","0","[[0,0,0],[3,0],[2]]","3","[[0,0,0],[3,1],[2]]","practice","1580","","","","","","","","","","","","","","",""
"","","","","","single-stim-button","23","86016","0.0-2.0-5.1-1.1","610ed1ac68f6c344f9a8b17d","B2","batch2","","936","tol_practice","","","","tol_peg_2","936","936","0","[[0,0,0],[3,1],[2]]","3","[[0,0,0],[3,1],[2]]","practice","936","","","","","","","","","","","","","","",""
"","","","","","poldrack-single-stim","24","87028","0.0-2.0-6.0","610ed1ac68f6c344f9a8b17d","B2","batch2","","-1","tol_feedback","","","true","","1000","1000","500","","","","","","-1","none","true","","0","","","","","","","","","",""
"","","","","","single-stim-button","25","89508","0.0-2.0-7.0-0.0","610ed1ac68f6c344f9a8b17d","B2","batch2","","2479","tol_practice","","","","tol_peg_2","2479","2479","0","[[1,2,0],[0,0],[0]]","4","[[1,0,0],[2,0],[3]]","practice","2479","","","","","","","","","","","","","","",""
"","","","","","single-stim-button","26","90634","0.0-2.0-7.0-1.0","610ed1ac68f6c344f9a8b17d","B2","batch2","","1126","tol_practice","","","","tol_peg_3","1126","1126","0","[[1,2,0],[0,0],[3]]","4","[[1,0,0],[2,0],[3]]","practice","1126","","","","","","","","","","","","","","",""
"","","","","","single-stim-button","27","91629","0.0-2.0-7.1-0.1","610ed1ac68f6c344f9a8b17d","B2","batch2","","993","tol_practice","","","","tol_peg_1","993","993","0","[[1,0,0],[0,0],[3]]","5","[[1,0,0],[2,0],[3]]","practice","993","","","","","","","","","","","","","","",""
"","","","","","single-stim-button","28","92713","0.0-2.0-7.1-1.1","610ed1ac68f6c344f9a8b17d","B2","batch2","","1082","tol_practice","","","","tol_peg_2","1082","1082","0","[[1,0,0],[2,0],[3]]","5","[[1,0,0],[2,0],[3]]","practice","1082","","","","","","","","","","","","","","",""
"","","","","","poldrack-single-stim","29","93725","0.0-2.0-8.0","610ed1ac68f6c344f9a8b17d","B2","batch2","","-1","tol_feedback","","","true","","1000","1000","500","","","","","","-1","none","true","","0","","","","","","","","","",""
"","","","","","html-button-response","30","94963","0.0-2.0-9.0","610ed1ac68f6c344f9a8b17d","B2","batch2","","1236.199999988079","tol_instruction","<div class = centerbox><p class = center-block-text>Great job! You are done with practice trials<br>You are about to start official trials.<br> <br> Problem <strong>1</strong> out of 25 problems</p></div>","0","","","","","","","","","","","","","","","","","","","","","","","","",""
"","","","","","single-stim-button","31","100097","0.0-2.0-10.0-0.0","610ed1ac68f6c344f9a8b17d","B2","batch2","","4124","tol_tohand","","","","tol_peg_1","4124","4124","0","[[1,0,0],[3,0],[0]]","1","[[1,3,0],[2,0],[0]]","0","0","","","","","","3","","","","","","","","",""
"","","","","","single-stim-button","32","103079","0.0-2.0-10.0-1.0","610ed1ac68f6c344f9a8b17d","B2","batch2","","2980","tol_toboard","","","","tol_peg_3","2980","2980","0","[[1,0,0],[3,0],[2]]","1","[[1,3,0],[2,0],[0]]","0","0","","","","","","3","","","","","","","","",""
"","","","","","single-stim-button","33","103772","0.0-2.0-10.1-0.1","610ed1ac68f6c344f9a8b17d","B2","batch2","","691","tol_tohand","","","","tol_peg_2","691","691","0","[[1,0,0],[0,0],[2]]","2","[[1,3,0],[2,0],[0]]","0","0","","","","","","3","","","","","","","","",""
"","","","","","single-stim-button","34","104595","0.0-2.0-10.1-1.1","610ed1ac68f6c344f9a8b17d","B2","batch2","","822","tol_toboard","","","","tol_peg_1","822","822","0","[[1,3,0],[0,0],[2]]","2","[[1,3,0],[2,0],[0]]","0","0","","","","","","3","","","","","","","","",""
"","","","","","single-stim-button","35","105344","0.0-2.0-10.2-0.2","610ed1ac68f6c344f9a8b17d","B2","batch2","","748","tol_tohand","","","","tol_peg_3","748","748","0","[[1,3,0],[0,0],[0]]","3","[[1,3,0],[2,0],[0]]","0","0","","","","","","3","","","","","","","","",""
"","","","","","single-stim-button","36","106062","0.0-2.0-10.2-1.2","610ed1ac68f6c344f9a8b17d","B2","batch2","","717","tol_toboard","","","","tol_peg_2","717","717","0","[[1,3,0],[2,0],[0]]","3","[[1,3,0],[2,0],[0]]","0","0","","","","","","3","","","","","","","","",""
"","","","","","poldrack-single-stim","37","107073","0.0-2.0-11.0","610ed1ac68f6c344f9a8b17d","B2","batch2","","-1","tol_feedback","","","true","","1000","1000","500","","","","","","-1","none","true","4124","5563","","","","","","","","","",""
"","","","","","html-button-response","38","107969","0.0-2.0-12.0","610ed1ac68f6c344f9a8b17d","B2","batch2","","894","tol_trial_num","<div class = centerbox><p class = center-block-text>problem <strong>2</strong> out of 25 problems</p></div>","0","","","","","","","","","","","","","","","","","","","","","","","","",""
"","","","","","single-stim-button","39","112061","0.0-2.0-13.0-0.0","610ed1ac68f6c344f9a8b17d","B2","batch2","","4091","tol_tohand","","","","tol_peg_1","4091","4091","0","[[1,0,0],[3,0],[0]]","1","[[2,1,3],[0,0],[0]]","1","0","","","","","","5","","","","","","","","",""
"","","","","","single-stim-button","40","113356","0.0-2.0-13.0-1.0","610ed1ac68f6c344f9a8b17d","B2","batch2","","1293","tol_toboard","","","","tol_peg_3","1293","1293","0","[[1,0,0],[3,0],[2]]","1","[[2,1,3],[0,0],[0]]","1","0","","","","","","5","","","","","","","","",""
"","","","","","single-stim-button","41","115907","0.0-2.0-13.1-0.1","610ed1ac68f6c344f9a8b17d","B2","batch2","","2549","tol_tohand","","","","tol_peg_1","2549","2549","0","[[0,0,0],[3,0],[2]]","2","[[2,1,3],[0,0],[0]]","1","0","","","","","","5","","","","","","","","",""
"","","","","","single-stim-button","42","116844","0.0-2.0-13.1-1.1","610ed1ac68f6c344f9a8b17d","B2","batch2","","935","tol_toboard","","","","tol_peg_2","935","935","0","[[0,0,0],[3,1],[2]]","2","[[2,1,3],[0,0],[0]]","1","0","","","","","","5","","","","","","","","",""
"","","","","","single-stim-button","43","117609","0.0-2.0-13.2-0.2","610ed1ac68f6c344f9a8b17d","B2","batch2","","764","tol_tohand","","","","tol_peg_3","764","764","0","[[0,0,0],[3,1],[0]]","3","[[2,1,3],[0,0],[0]]","1","0","","","","","","5","","","","","","","","",""
"","","","","","single-stim-button","44","118662","0.0-2.0-13.2-1.2","610ed1ac68f6c344f9a8b17d","B2","batch2","","1051","tol_toboard","","","","tol_peg_1","1051","1051","0","[[2,0,0],[3,1],[0]]","3","[[2,1,3],[0,0],[0]]","1","0","","","","","","5","","","","","","","","",""
"","","","","","single-stim-button","45","119696","0.0-2.0-13.3-0.3","610ed1ac68f6c344f9a8b17d","B2","batch2","","1033","tol_tohand","","","","tol_peg_2","1033","1033","0","[[2,0,0],[3,0],[0]]","4","[[2,1,3],[0,0],[0]]","1","0","","","","","","5","","","","","","","","",""
"","","","","","single-stim-button","46","121669","0.0-2.0-13.3-1.3","610ed1ac68f6c344f9a8b17d","B2","batch2","","1971","tol_toboard","","","","tol_peg_1","1971","1971","0","[[2,1,0],[3,0],[0]]","4","[[2,1,3],[0,0],[0]]","1","0","","","","","","5","","","","","","","","",""
"","","","","","single-stim-button","47","122337","0.0-2.0-13.4-0.4","610ed1ac68f6c344f9a8b17d","B2","batch2","","667","tol_tohand","","","","tol_peg_2","667","667","0","[[2,1,0],[0,0],[0]]","5","[[2,1,3],[0,0],[0]]","1","0","","","","","","5","","","","","","","","",""
"","","","","","single-stim-button","48","123054","0.0-2.0-13.4-1.4","610ed1ac68f6c344f9a8b17d","B2","batch2","","716","tol_toboard","","","","tol_peg_1","716","716","0","[[2,1,3],[0,0],[0]]","5","[[2,1,3],[0,0],[0]]","1","0","","","","","","5","","","","","","","","",""
"","","","","","poldrack-single-stim","49","124065","0.0-2.0-14.0","610ed1ac68f6c344f9a8b17d","B2","batch2","","-1","tol_feedback","","","true","","1000","1000","500","","","","","","-1","none","true","4091","9104","","","","","","","","","",""
"","","","","","html-button-response","50","124896","0.0-2.0-15.0","610ed1ac68f6c344f9a8b17d","B2","batch2","","829.3000000119209","tol_trial_num","<div class = centerbox><p class = center-block-text>problem <strong>3</strong> out of 25 problems</p></div>","0","","","","","","","","","","","","","","","","","","","","","","","","",""
"","","","","","single-stim-button","51","127774","0.0-2.0-16.0-0.0","610ed1ac68f6c344f9a8b17d","B2","batch2","","2876","tol_tohand","","","","tol_peg_1","2876","2876","0","[[2,0,0],[0,0],[1]]","1","[[1,2,0],[3,0],[0]]","2","0","","","","","","4","","","","","","","","",""
"","","","","","single-stim-button","52","131220","0.0-2.0-16.0-1.0","610ed1ac68f6c344f9a8b17d","B2","batch2","","3444","tol_toboard","","","","tol_peg_2","3444","3444","0","[[2,0,0],[3,0],[1]]","1","[[1,2,0],[3,0],[0]]","2","0","","","","","","4","","","","","","","","",""
"","","","","","single-stim-button","53","133749","0.0-2.0-16.1-0.1","610ed1ac68f6c344f9a8b17d","B2","batch2","","2528","tol_tohand","","","","tol_peg_3","2528","2528","0","[[2,0,0],[3,0],[0]]","2","[[1,2,0],[3,0],[0]]","2","0","","","","","","4","","","","","","","","",""
"","","","","","single-stim-button","54","135541","0.0-2.0-16.1-1.1","610ed1ac68f6c344f9a8b17d","B2","batch2","","1791","tol_toboard","","","","tol_peg_2","1791","1791","0","[[2,0,0],[3,1],[0]]","2","[[1,2,0],[3,0],[0]]","2","0","","","","","","4","","","","","","","","",""
"","","","","","single-stim-button","55","136242","0.0-2.0-16.2-0.2","610ed1ac68f6c344f9a8b17d","B2","batch2","","700","tol_tohand","","","","tol_peg_1","700","700","0","[[0,0,0],[3,1],[0]]","3","[[1,2,0],[3,0],[0]]","2","0","","","","","","4","","","","","","","","",""
"","","","","","single-stim-button","56","137024","0.0-2.0-16.2-1.2","610ed1ac68f6c344f9a8b17d","B2","batch2","","781","tol_toboard","","","","tol_peg_3","781","781","0","[[0,0,0],[3,1],[2]]","3","[[1,2,0],[3,0],[0]]","2","0","","","","","","4","","","","","","","","",""
"","","","","","single-stim-button","57","137750","0.0-2.0-16.3-0.3","610ed1ac68f6c344f9a8b17d","B2","batch2","","724","tol_tohand","","","","tol_peg_2","724","724","0","[[0,0,0],[3,0],[2]]","4","[[1,2,0],[3,0],[0]]","2","0","","","","","","4","","","","","","","","",""
"","","","","","single-stim-button","58","138532","0.0-2.0-16.3-1.3","610ed1ac68f6c344f9a8b17d","B2","batch2","","781","tol_toboard","","","","tol_peg_1","781","781","0","[[1,0,0],[3,0],[2]]","4","[[1,2,0],[3,0],[0]]","2","0","","","","","","4","","","","","","","","",""
"","","","","","single-stim-button","59","139233","0.0-2.0-16.4-0.4","610ed1ac68f6c344f9a8b17d","B2","batch2","","700","tol_tohand","","","","tol_peg_3","700","700","0","[[1,0,0],[3,0],[0]]","5","[[1,2,0],[3,0],[0]]","2","0","","","","","","4","","","","","","","","",""
"","","","","","single-stim-button","60","140082","0.0-2.0-16.4-1.4","610ed1ac68f6c344f9a8b17d","B2","batch2","","847","tol_toboard","","","","tol_peg_1","847","847","0","[[1,2,0],[3,0],[0]]","5","[[1,2,0],[3,0],[0]]","2","0","","","","","","4","","","","","","","","",""
"","","","","","poldrack-single-stim","61","141093","0.0-2.0-17.0","610ed1ac68f6c344f9a8b17d","B2","batch2","","-1","tol_feedback","","","true","","1000","1000","500","","","","","","-1","none","true","2876","7528","","","","","","","","","",""
"","","","","","html-button-response","62","141866","0.0-2.0-18.0","610ed1ac68f6c344f9a8b17d","B2","batch2","","770.5","tol_trial_num","<div class = centerbox><p class = center-block-text>problem <strong>4</strong> out of 25 problems</p></div>","0","","","","","","","","","","","","","","","","","","","","","","","","",""
"","","","","","single-stim-button","63","144955","0.0-2.0-19.0-0.0","610ed1ac68f6c344f9a8b17d","B2","batch2","","3088","tol_tohand","","","","tol_peg_2","3088","3088","0","[[3,0,0],[2,0],[0]]","1","[[3,0,0],[1,0],[2]]","3","0","","","","","","3","","","","","","","","",""
"","","","","","single-stim-button","64","147481","0.0-2.0-19.0-1.0","610ed1ac68f6c344f9a8b17d","B2","batch2","","2525","tol_toboard","","","","tol_peg_1","2525","2525","0","[[3,1,0],[2,0],[0]]","1","[[3,0,0],[1,0],[2]]","3","0","","","","","","3","","","","","","","","",""
"","","","","","single-stim-button","65","148231","0.0-2.0-19.1-0.1","610ed1ac68f6c344f9a8b17d","B2","batch2","","749","tol_tohand","","","","tol_peg_2","749","749","0","[[3,1,0],[0,0],[0]]","2","[[3,0,0],[1,0],[2]]","3","0","","","","","","3","","","","","","","","",""
"","","","","","single-stim-button","66","148957","0.0-2.0-19.1-1.1","610ed1ac68f6c344f9a8b17d","B2","batch2","","724","tol_toboard","","","","tol_peg_3","724","724","0","[[3,1,0],[0,0],[2]]","2","[[3,0,0],[1,0],[2]]","3","0","","","","","","3","","","","","","","","",""
"","","","","","single-stim-button","67","149755","0.0-2.0-19.2-0.2","610ed1ac68f6c344f9a8b17d","B2","batch2","","797","tol_tohand","","","","tol_peg_1","797","797","0","[[3,0,0],[0,0],[2]]","3","[[3,0,0],[1,0],[2]]","3","0","","","","","","3","","","","","","","","",""
"","","","","","single-stim-button","68","150300","0.0-2.0-19.2-1.2","610ed1ac68f6c344f9a8b17d","B2","batch2","","544","tol_toboard","","","","tol_peg_2","544","544","0","[[3,0,0],[1,0],[2]]","3","[[3,0,0],[1,0],[2]]","3","0","","","","","","3","","","","","","","","",""
"","","","","","poldrack-single-stim","69","151309","0.0-2.0-20.0","610ed1ac68f6c344f9a8b17d","B2","batch2","","-1","tol_feedback","","","true","","1000","1000","500","","","","","","-1","none","true","3088","4634","","","","","","","","","",""
"","","","","","html-button-response","70","152062","0.0-2.0-21.0","610ed1ac68f6c344f9a8b17d","B2","batch2","","751.2999999523163","tol_trial_num","<div class = centerbox><p class = center-block-text>problem <strong>5</strong> out of 25 problems</p></div>","0","","","","","","","","","","","","","","","","","","","","","","","","",""
"","","","","","single-stim-button","71","156081","0.0-2.0-22.0-0.0","610ed1ac68f6c344f9a8b17d","B2","batch2","","4017","tol_tohand","","","","tol_peg_2","4017","4017","0","[[1,0,0],[0,0],[3]]","1","[[0,0,0],[1,2],[3]]","4","0","","","","","","7","","","","","","","","",""
"","","","","","single-stim-button","72","160140","0.0-2.0-22.0-1.0","610ed1ac68f6c344f9a8b17d","B2","batch2","","4057","tol_toboard","","","","tol_peg_2","4057","4057","0","[[1,0,0],[2,0],[3]]","1","[[0,0,0],[1,2],[3]]","4","0","","","","","","7","","","","","","","","",""
"","","","","","single-stim-button","73","162177","0.0-2.0-22.1-0.1","610ed1ac68f6c344f9a8b17d","B2","batch2","","2035","tol_tohand","","","","tol_peg_3","2035","2035","0","[[1,0,0],[2,0],[0]]","2","[[0,0,0],[1,2],[3]]","4","0","","","","","","7","","","","","","","","",""
"","","","","","single-stim-button","74","162829","0.0-2.0-22.1-1.1","610ed1ac68f6c344f9a8b17d","B2","batch2","","651","tol_toboard","","","","tol_peg_2","651","651","0","[[1,0,0],[2,3],[0]]","2","[[0,0,0],[1,2],[3]]","4","0","","","","","","7","","","","","","","","",""
"","","","","","single-stim-button","75","163440","0.0-2.0-22.2-0.2","610ed1ac68f6c344f9a8b17d","B2","batch2","","610","tol_tohand","","","","tol_peg_1","610","610","0","[[0,0,0],[2,3],[0]]","3","[[0,0,0],[1,2],[3]]","4","0","","","","","","7","","","","","","","","",""
"","","","","","single-stim-button","76","164370","0.0-2.0-22.2-1.2","610ed1ac68f6c344f9a8b17d","B2","batch2","","928","tol_toboard","","","","tol_peg_3","928","928","0","[[0,0,0],[2,3],[1]]","3","[[0,0,0],[1,2],[3]]","4","0","","","","","","7","","","","","","","","",""
"","","","","","single-stim-button","77","168722","0.0-2.0-22.3-0.3","610ed1ac68f6c344f9a8b17d","B2","batch2","","4350","tol_tohand","","","","tol_peg_2","4350","4350","0","[[0,0,0],[2,0],[1]]","4","[[0,0,0],[1,2],[3]]","4","0","","","","","","7","","","","","","","","",""
"","","","","","single-stim-button","78","169609","0.0-2.0-22.3-1.3","610ed1ac68f6c344f9a8b17d","B2","batch2","","886","tol_toboard","","","","tol_peg_1","886","886","0","[[3,0,0],[2,0],[1]]","4","[[0,0,0],[1,2],[3]]","4","0","","","","","","7","","","","","","","","",""
"","","","","","single-stim-button","79","170342","0.0-2.0-22.4-0.4","610ed1ac68f6c344f9a8b17d","B2","batch2","","732","tol_tohand","","","","tol_peg_3","732","732","0","[[3,0,0],[2,0],[0]]","5","[[0,0,0],[1,2],[3]]","4","0","","","","","","7","","","","","","","","",""
"","","","","","single-stim-button","80","170923","0.0-2.0-22.4-1.4","610ed1ac68f6c344f9a8b17d","B2","batch2","","579","tol_toboard","","","","tol_peg_2","579","579","0","[[3,0,0],[2,1],[0]]","5","[[0,0,0],[1,2],[3]]","4","0","","","","","","7","","","","","","","","",""
"","","","","","single-stim-button","81","175390","0.0-2.0-22.5-0.5","610ed1ac68f6c344f9a8b17d","B2","batch2","","4467","tol_tohand","","","","tol_peg_2","4467","4467","0","[[3,0,0],[2,0],[0]]","6","[[0,0,0],[1,2],[3]]","4","0","","","","","","7","","","","","","","","",""
"","","","","","single-stim-button","82","176091","0.0-2.0-22.5-1.5","610ed1ac68f6c344f9a8b17d","B2","batch2","","700","tol_toboard","","","","tol_peg_1","700","700","0","[[3,1,0],[2,0],[0]]","6","[[0,0,0],[1,2],[3]]","4","0","","","","","","7","","","","","","","","",""
"","","","","","single-stim-button","83","176686","0.0-2.0-22.6-0.6","610ed1ac68f6c344f9a8b17d","B2","batch2","","594","tol_tohand","","","","tol_peg_2","594","594","0","[[3,1,0],[0,0],[0]]","7","[[0,0,0],[1,2],[3]]","4","0","","","","","","7","","","","","","","","",""
"","","","","","single-stim-button","84","177257","0.0-2.0-22.6-1.6","610ed1ac68f6c344f9a8b17d","B2","batch2","","569","tol_toboard","","","","tol_peg_3","569","569","0","[[3,1,0],[0,0],[2]]","7","[[0,0,0],[1,2],[3]]","4","0","","","","","","7","","","","","","","","",""
"","","","","","single-stim-button","85","178072","0.0-2.0-22.7-0.7","610ed1ac68f6c344f9a8b17d","B2","batch2","","815","tol_tohand","","","","tol_peg_1","815","815","0","[[3,0,0],[0,0],[2]]","8","[[0,0,0],[1,2],[3]]","4","0","","","","","","7","","","","","","","","",""
"","","","","","single-stim-button","86","179841","0.0-2.0-22.7-1.7","610ed1ac68f6c344f9a8b17d","B2","batch2","","1767","tol_toboard","","","","tol_peg_2","1767","1767","0","[[3,0,0],[1,0],[2]]","8","[[0,0,0],[1,2],[3]]","4","0","","","","","","7","","","","","","","","",""
"","","","","","single-stim-button","87","180461","0.0-2.0-22.8-0.8","610ed1ac68f6c344f9a8b17d","B2","batch2","","619","tol_tohand","","","","tol_peg_3","619","619","0","[[3,0,0],[1,0],[0]]","9","[[0,0,0],[1,2],[3]]","4","0","","","","","","7","","","","","","","","",""
"","","","","","single-stim-button","88","182189","0.0-2.0-22.8-1.8","610ed1ac68f6c344f9a8b17d","B2","batch2","","1727","tol_toboard","","","","tol_peg_1","1727","1727","0","[[3,2,0],[1,0],[0]]","9","[[0,0,0],[1,2],[3]]","4","0","","","","","","7","","","","","","","","",""
"","","","","","single-stim-button","89","184080","0.0-2.0-22.9-0.9","610ed1ac68f6c344f9a8b17d","B2","batch2","","1889","tol_tohand","","","","tol_peg_2","1889","1889","0","[[3,2,0],[0,0],[0]]","10","[[0,0,0],[1,2],[3]]","4","0","","","","","","7","","","","","","","","",""
"","","","","","single-stim-button","90","184699","0.0-2.0-22.9-1.9","610ed1ac68f6c344f9a8b17d","B2","batch2","","618","tol_toboard","","","","tol_peg_3","618","618","0","[[3,2,0],[0,0],[1]]","10","[[0,0,0],[1,2],[3]]","4","0","","","","","","7","","","","","","","","",""
"","","","","","single-stim-button","91","185384","0.0-2.0-22.10-0.10","610ed1ac68f6c344f9a8b17d","B2","batch2","","683","tol_tohand","","","","tol_peg_1","683","683","0","[[3,0,0],[0,0],[1]]","11","[[0,0,0],[1,2],[3]]","4","0","","","","","","7","","","","","","","","",""
"","","","","","single-stim-button","92","188693","0.0-2.0-22.10-1.10","610ed1ac68f6c344f9a8b17d","B2","batch2","","3308","tol_toboard","","","","tol_peg_2","3308","3308","0","[[3,0,0],[2,0],[1]]","11","[[0,0,0],[1,2],[3]]","4","0","","","","","","7","","","","","","","","",""
"","","","","","single-stim-button","93","189370","0.0-2.0-22.11-0.11","610ed1ac68f6c344f9a8b17d","B2","batch2","","676","tol_tohand","","","","tol_peg_1","676","676","0","[[0,0,0],[2,0],[1]]","12","[[0,0,0],[1,2],[3]]","4","0","","","","","","7","","","","","","","","",""
"","","","","","single-stim-button","94","190054","0.0-2.0-22.11-1.11","610ed1ac68f6c344f9a8b17d","B2","batch2","","683","tol_toboard","","","","tol_peg_2","683","683","0","[[0,0,0],[2,3],[1]]","12","[[0,0,0],[1,2],[3]]","4","0","","","","","","7","","","","","","","","",""
"","","","","","single-stim-button","95","190600","0.0-2.0-22.12-0.12","610ed1ac68f6c344f9a8b17d","B2","batch2","","544","tol_tohand","","","","tol_peg_3","544","544","0","[[0,0,0],[2,3],[0]]","13","[[0,0,0],[1,2],[3]]","4","0","","","","","","7","","","","","","","","",""
"","","","","","single-stim-button","96","201002","0.0-2.0-22.12-1.12","610ed1ac68f6c344f9a8b17d","B2","batch2","","10401","tol_toboard","","","","tol_peg_3","10401","10401","0","[[0,0,0],[2,3],[1]]","13","[[0,0,0],[1,2],[3]]","4","0","","","","","","7","","","","","","","","",""
"","","","","","single-stim-button","97","201613","0.0-2.0-22.13-0.13","610ed1ac68f6c344f9a8b17d","B2","batch2","","608","tol_tohand","","","","tol_peg_2","608","608","0","[[0,0,0],[2,0],[1]]","14","[[0,0,0],[1,2],[3]]","4","0","","","","","","7","","","","","","","","",""
"","","","","","single-stim-button","98","202215","0.0-2.0-22.13-1.13","610ed1ac68f6c344f9a8b17d","B2","batch2","","601","tol_toboard","","","","tol_peg_1","601","601","0","[[3,0,0],[2,0],[1]]","14","[[0,0,0],[1,2],[3]]","4","0","","","","","","7","","","","","","","","",""
"","","","","","single-stim-button","99","202654","0.0-2.0-22.14-0.14","610ed1ac68f6c344f9a8b17d","B2","batch2","","439","tol_tohand","","","","tol_peg_2","439","439","0","[[3,0,0],[0,0],[1]]","15","[[0,0,0],[1,2],[3]]","4","0","","","","","","7","","","","","","","","",""
"","","","","","single-stim-button","100","203323","0.0-2.0-22.14-1.14","610ed1ac68f6c344f9a8b17d","B2","batch2","","668","tol_toboard","","","","tol_peg_1","668","668","0","[[3,2,0],[0,0],[1]]","15","[[0,0,0],[1,2],[3]]","4","0","","","","","","7","","","","","","","","",""
"","","","","","single-stim-button","101","204083","0.0-2.0-22.15-0.15","610ed1ac68f6c344f9a8b17d","B2","batch2","","758","tol_tohand","","","","tol_peg_3","758","758","0","[[3,2,0],[0,0],[0]]","16","[[0,0,0],[1,2],[3]]","4","0","","","","","","7","","","","","","","","",""
"","","","","","single-stim-button","102","204563","0.0-2.0-22.15-1.15","610ed1ac68f6c344f9a8b17d","B2","batch2","","480","tol_toboard","","","","tol_peg_2","480","480","0","[[3,2,0],[1,0],[0]]","16","[[0,0,0],[1,2],[3]]","4","0","","","","","","7","","","","","","","","",""
"","","","","","single-stim-button","103","205314","0.0-2.0-22.16-0.16","610ed1ac68f6c344f9a8b17d","B2","batch2","","749","tol_tohand","","","","tol_peg_1","749","749","0","[[3,0,0],[1,0],[0]]","17","[[0,0,0],[1,2],[3]]","4","0","","","","","","7","","","","","","","","",""
"","","","","","single-stim-button","104","205900","0.0-2.0-22.16-1.16","610ed1ac68f6c344f9a8b17d","B2","batch2","","585","tol_toboard","","","","tol_peg_2","585","585","0","[[3,0,0],[1,2],[0]]","17","[[0,0,0],[1,2],[3]]","4","0","","","","","","7","","","","","","","","",""
"","","","","","single-stim-button","105","206430","0.0-2.0-22.17-0.17","610ed1ac68f6c344f9a8b17d","B2","batch2","","528","tol_tohand","","","","tol_peg_1","528","528","0","[[0,0,0],[1,2],[0]]","18","[[0,0,0],[1,2],[3]]","4","0","","","","","","7","","","","","","","","",""
"","","","","","single-stim-button","106","207122","0.0-2.0-22.17-1.17","610ed1ac68f6c344f9a8b17d","B2","batch2","","692","tol_toboard","","","","tol_peg_3","692","692","0","[[0,0,0],[1,2],[3]]","18","[[0,0,0],[1,2],[3]]","4","0","","","","","","7","","","","","","","","",""
"","","","","","poldrack-single-stim","107","208129","0.0-2.0-23.0","610ed1ac68f6c344f9a8b17d","B2","batch2","","-1","tol_feedback","","","true","","1000","1000","500","","","","","","-1","none","true","4017","25113","","","","","","","","","",""
"","","","","","html-button-response","108","208924","0.0-2.0-24.0","610ed1ac68f6c344f9a8b17d","B2","batch2","","792.5999999642372","tol_trial_num","<div class = centerbox><p class = center-block-text>problem <strong>6</strong> out of 25 problems</p></div>","0","","","","","","","","","","","","","","","","","","","","","","","","",""
"","","","","","single-stim-button","109","213912","0.0-2.0-25.0-0.0","610ed1ac68f6c344f9a8b17d","B2","batch2","","4986","tol_tohand","","","","tol_peg_2","4986","4986","0","[[0,0,0],[1,0],[3]]","1","[[1,0,0],[2,3],[0]]","5","0","","","","","","6","","","","","","","","",""
"","","","","","single-stim-button","110","218337","0.0-2.0-25.0-1.0","610ed1ac68f6c344f9a8b17d","B2","batch2","","4424","tol_toboard","","","","tol_peg_2","4424","4424","0","[[0,0,0],[1,2],[3]]","1","[[1,0,0],[2,3],[0]]","5","0","","","","","","6","","","","","","","","",""
"","","","","","single-stim-button","111","218849","0.0-2.0-25.1-0.1","610ed1ac68f6c344f9a8b17d","B2","batch2","","511","tol_tohand","","","","tol_peg_3","511","511","0","[[0,0,0],[1,2],[0]]","2","[[1,0,0],[2,3],[0]]","5","0","","","","","","6","","","","","","","","",""
"","","","","","single-stim-button","112","220407","0.0-2.0-25.1-1.1","610ed1ac68f6c344f9a8b17d","B2","batch2","","1557","tol_toboard","","","","tol_peg_1","1557","1557","0","[[3,0,0],[1,2],[0]]","2","[[1,0,0],[2,3],[0]]","5","0","","","","","","6","","","","","","","","",""
"","","","","","single-stim-button","113","222818","0.0-2.0-25.2-0.2","610ed1ac68f6c344f9a8b17d","B2","batch2","","2410","tol_tohand","","","","tol_peg_2","2410","2410","0","[[3,0,0],[1,0],[0]]","3","[[1,0,0],[2,3],[0]]","5","0","","","","","","6","","","","","","","","",""
"","","","","","single-stim-button","114","223513","0.0-2.0-25.2-1.2","610ed1ac68f6c344f9a8b17d","B2","batch2","","693","tol_toboard","","","","tol_peg_3","693","693","0","[[3,0,0],[1,0],[2]]","3","[[1,0,0],[2,3],[0]]","5","0","","","","","","6","","","","","","","","",""
"","","","","","single-stim-button","115","224294","0.0-2.0-25.3-0.3","610ed1ac68f6c344f9a8b17d","B2","batch2","","781","tol_tohand","","","","tol_peg_2","781","781","0","[[3,0,0],[0,0],[2]]","4","[[1,0,0],[2,3],[0]]","5","0","","","","","","6","","","","","","","","",""
"","","","","","single-stim-button","116","225044","0.0-2.0-25.3-1.3","610ed1ac68f6c344f9a8b17d","B2","batch2","","749","tol_toboard","","","","tol_peg_1","749","749","0","[[3,1,0],[0,0],[2]]","4","[[1,0,0],[2,3],[0]]","5","0","","","","","","6","","","","","","","","",""
"","","","","","single-stim-button","117","225672","0.0-2.0-25.4-0.4","610ed1ac68f6c344f9a8b17d","B2","batch2","","627","tol_tohand","","","","tol_peg_3","627","627","0","[[3,1,0],[0,0],[0]]","5","[[1,0,0],[2,3],[0]]","5","0","","","","","","6","","","","","","","","",""
"","","","","","single-stim-button","118","226324","0.0-2.0-25.4-1.4","610ed1ac68f6c344f9a8b17d","B2","batch2","","651","tol_toboard","","","","tol_peg_2","651","651","0","[[3,1,0],[2,0],[0]]","5","[[1,0,0],[2,3],[0]]","5","0","","","","","","6","","","","","","","","",""
"","","","","","single-stim-button","119","227025","0.0-2.0-25.5-0.5","610ed1ac68f6c344f9a8b17d","B2","batch2","","699","tol_tohand","","","","tol_peg_1","699","699","0","[[3,0,0],[2,0],[0]]","6","[[1,0,0],[2,3],[0]]","5","0","","","","","","6","","","","","","","","",""
"","","","","","single-stim-button","120","227799","0.0-2.0-25.5-1.5","610ed1ac68f6c344f9a8b17d","B2","batch2","","772","tol_toboard","","","","tol_peg_3","772","772","0","[[3,0,0],[2,0],[1]]","6","[[1,0,0],[2,3],[0]]","5","0","","","","","","6","","","","","","","","",""
"","","","","","single-stim-button","121","228516","0.0-2.0-25.6-0.6","610ed1ac68f6c344f9a8b17d","B2","batch2","","717","tol_tohand","","","","tol_peg_1","717","717","0","[[0,0,0],[2,0],[1]]","7","[[1,0,0],[2,3],[0]]","5","0","","","","","","6","","","","","","","","",""
"","","","","","single-stim-button","122","229228","0.0-2.0-25.6-1.6","610ed1ac68f6c344f9a8b17d","B2","batch2","","710","tol_toboard","","","","tol_peg_2","710","710","0","[[0,0,0],[2,3],[1]]","7","[[1,0,0],[2,3],[0]]","5","0","","","","","","6","","","","","","","","",""
"","","","","","single-stim-button","123","229690","0.0-2.0-25.7-0.7","610ed1ac68f6c344f9a8b17d","B2","batch2","","461","tol_tohand","","","","tol_peg_3","461","461","0","[[0,0,0],[2,3],[0]]","8","[[1,0,0],[2,3],[0]]","5","0","","","","","","6","","","","","","","","",""
"","","","","","single-stim-button","124","230359","0.0-2.0-25.7-1.7","610ed1ac68f6c344f9a8b17d","B2","batch2","","668","tol_toboard","","","","tol_peg_1","668","668","0","[[1,0,0],[2,3],[0]]","8","[[1,0,0],[2,3],[0]]","5","0","","","","","","6","","","","","","","","",""
"","","","","","poldrack-single-stim","125","231363","0.0-2.0-26.0","610ed1ac68f6c344f9a8b17d","B2","batch2","","-1","tol_feedback","","","true","","1000","1000","500","","","","","","-1","none","true","4986","11192","","","","","","","","","",""
"","","","","","html-button-response","126","232038","0.0-2.0-27.0","610ed1ac68f6c344f9a8b17d","B2","batch2","","672.8999999761581","tol_trial_num","<div class = centerbox><p class = center-block-text>problem <strong>7</strong> out of 25 problems</p></div>","0","","","","","","","","","","","","","","","","","","","","","","","","",""
"","","","","","single-stim-button","127","235193","0.0-2.0-28.0-0.0","610ed1ac68f6c344f9a8b17d","B2","batch2","","3154","tol_tohand","","","","tol_peg_1","3154","3154","0","[[2,0,0],[0,0],[3]]","1","[[1,2,0],[3,0],[0]]","6","0","","","","","","5","","","","","","","","",""
"","","","","","single-stim-button","128","239872","0.0-2.0-28.0-1.0","610ed1ac68f6c344f9a8b17d","B2","batch2","","4678","tol_toboard","","","","tol_peg_2","4678","4678","0","[[2,0,0],[1,0],[3]]","1","[[1,2,0],[3,0],[0]]","6","0","","","","","","5","","","","","","","","",""
"","","","","","single-stim-button","129","244680","0.0-2.0-28.1-0.1","610ed1ac68f6c344f9a8b17d","B2","batch2","","4807","tol_tohand","","","","tol_peg_3","4807","4807","0","[[2,0,0],[1,0],[0]]","2","[[1,2,0],[3,0],[0]]","6","0","","","","","","5","","","","","","","","",""
"","","","","","single-stim-button","130","245602","0.0-2.0-28.1-1.1","610ed1ac68f6c344f9a8b17d","B2","batch2","","920","tol_toboard","","","","tol_peg_1","920","920","0","[[2,3,0],[1,0],[0]]","2","[[1,2,0],[3,0],[0]]","6","0","","","","","","5","","","","","","","","",""
"","","","","","single-stim-button","131","246116","0.0-2.0-28.2-0.2","610ed1ac68f6c344f9a8b17d","B2","batch2","","512","tol_tohand","","","","tol_peg_2","512","512","0","[[2,3,0],[0,0],[0]]","3","[[1,2,0],[3,0],[0]]","6","0","","","","","","5","","","","","","","","",""
"","","","","","single-stim-button","132","246727","0.0-2.0-28.2-1.2","610ed1ac68f6c344f9a8b17d","B2","batch2","","610","tol_toboard","","","","tol_peg_3","610","610","0","[[2,3,0],[0,0],[1]]","3","[[1,2,0],[3,0],[0]]","6","0","","","","","","5","","","","","","","","",""
"","","","","","single-stim-button","133","247600","0.0-2.0-28.3-0.3","610ed1ac68f6c344f9a8b17d","B2","batch2","","871","tol_tohand","","","","tol_peg_1","871","871","0","[[2,0,0],[0,0],[1]]","4","[[1,2,0],[3,0],[0]]","6","0","","","","","","5","","","","","","","","",""
"","","","","","single-stim-button","134","249229","0.0-2.0-28.3-1.3","610ed1ac68f6c344f9a8b17d","B2","batch2","","1628","tol_toboard","","","","tol_peg_2","1628","1628","0","[[2,0,0],[3,0],[1]]","4","[[1,2,0],[3,0],[0]]","6","0","","","","","","5","","","","","","","","",""
"","","","","","single-stim-button","135","249808","0.0-2.0-28.4-0.4","610ed1ac68f6c344f9a8b17d","B2","batch2","","577","tol_tohand","","","","tol_peg_1","577","577","0","[[0,0,0],[3,0],[1]]","5","[[1,2,0],[3,0],[0]]","6","0","","","","","","5","","","","","","","","",""
"","","","","","single-stim-button","136","250762","0.0-2.0-28.4-1.4","610ed1ac68f6c344f9a8b17d","B2","batch2","","952","tol_toboard","","","","tol_peg_2","952","952","0","[[0,0,0],[3,2],[1]]","5","[[1,2,0],[3,0],[0]]","6","0","","","","","","5","","","","","","","","",""
"","","","","","single-stim-button","137","251324","0.0-2.0-28.5-0.5","610ed1ac68f6c344f9a8b17d","B2","batch2","","560","tol_tohand","","","","tol_peg_3","560","560","0","[[0,0,0],[3,2],[0]]","6","[[1,2,0],[3,0],[0]]","6","0","","","","","","5","","","","","","","","",""
"","","","","","single-stim-button","138","251895","0.0-2.0-28.5-1.5","610ed1ac68f6c344f9a8b17d","B2","batch2","","569","tol_toboard","","","","tol_peg_1","569","569","0","[[1,0,0],[3,2],[0]]","6","[[1,2,0],[3,0],[0]]","6","0","","","","","","5","","","","","","","","",""
"","","","","","single-stim-button","139","252417","0.0-2.0-28.6-0.6","610ed1ac68f6c344f9a8b17d","B2","batch2","","520","tol_tohand","","","","tol_peg_2","520","520","0","[[1,0,0],[3,0],[0]]","7","[[1,2,0],[3,0],[0]]","6","0","","","","","","5","","","","","","","","",""
"","","","","","single-stim-button","140","252986","0.0-2.0-28.6-1.6","610ed1ac68f6c344f9a8b17d","B2","batch2","","568","tol_toboard","","","","tol_peg_1","568","568","0","[[1,2,0],[3,0],[0]]","7","[[1,2,0],[3,0],[0]]","6","0","","","","","","5","","","","","","","","",""
"","","","","","poldrack-single-stim","141","253997","0.0-2.0-29.0","610ed1ac68f6c344f9a8b17d","B2","batch2","","-1","tol_feedback","","","true","","1000","1000","500","","","","","","-1","none","true","3154","11001","","","","","","","","","",""
"","","","","","html-button-response","142","254821","0.0-2.0-30.0","610ed1ac68f6c344f9a8b17d","B2","batch2","","821.8999999761581","tol_trial_num","<div class = centerbox><p class = center-block-text>problem <strong>8</strong> out of 25 problems</p></div>","0","","","","","","","","","","","","","","","","","","","","","","","","",""
"","","","","","single-stim-button","143","257910","0.0-2.0-31.0-0.0","610ed1ac68f6c344f9a8b17d","B2","batch2","","3087","tol_tohand","","","","tol_peg_3","3087","3087","0","[[0,0,0],[2,3],[0]]","1","[[1,2,0],[3,0],[0]]","7","0","","","","","","4","","","","","","","","",""
"","","","","","single-stim-button","144","258920","0.0-2.0-31.0-1.0","610ed1ac68f6c344f9a8b17d","B2","batch2","","1009","tol_toboard","","","","tol_peg_1","1009","1009","0","[[1,0,0],[2,3],[0]]","1","[[1,2,0],[3,0],[0]]","7","0","","","","","","4","","","","","","","","",""
"","","","","","single-stim-button","145","260787","0.0-2.0-31.1-0.1","610ed1ac68f6c344f9a8b17d","B2","batch2","","1866","tol_tohand","","","","tol_peg_2","1866","1866","0","[[1,0,0],[2,0],[0]]","2","[[1,2,0],[3,0],[0]]","7","0","","","","","","4","","","","","","","","",""
"","","","","","single-stim-button","146","261537","0.0-2.0-31.1-1.1","610ed1ac68f6c344f9a8b17d","B2","batch2","","748","tol_toboard","","","","tol_peg_3","748","748","0","[[1,0,0],[2,0],[3]]","2","[[1,2,0],[3,0],[0]]","7","0","","","","","","4","","","","","","","","",""
"","","","","","single-stim-button","147","262026","0.0-2.0-31.2-0.2","610ed1ac68f6c344f9a8b17d","B2","batch2","","488","tol_tohand","","","","tol_peg_2","488","488","0","[[1,0,0],[0,0],[3]]","3","[[1,2,0],[3,0],[0]]","7","0","","","","","","4","","","","","","","","",""
"","","","","","single-stim-button","148","262611","0.0-2.0-31.2-1.2","610ed1ac68f6c344f9a8b17d","B2","batch2","","584","tol_toboard","","","","tol_peg_1","584","584","0","[[1,2,0],[0,0],[3]]","3","[[1,2,0],[3,0],[0]]","7","0","","","","","","4","","","","","","","","",""
"","","","","","single-stim-button","149","263257","0.0-2.0-31.3-0.3","610ed1ac68f6c344f9a8b17d","B2","batch2","","645","tol_tohand","","","","tol_peg_3","645","645","0","[[1,2,0],[0,0],[0]]","4","[[1,2,0],[3,0],[0]]","7","0","","","","","","4","","","","","","","","",""
"","","","","","single-stim-button","150","263771","0.0-2.0-31.3-1.3","610ed1ac68f6c344f9a8b17d","B2","batch2","","512","tol_toboard","","","","tol_peg_2","512","512","0","[[1,2,0],[3,0],[0]]","4","[[1,2,0],[3,0],[0]]","7","0","","","","","","4","","","","","","","","",""
"","","","","","poldrack-single-stim","151","264780","0.0-2.0-32.0","610ed1ac68f6c344f9a8b17d","B2","batch2","","-1","tol_feedback","","","true","","1000","1000","500","","","","","","-1","none","true","3087","6086","","","","","","","","","",""
"","","","","","html-button-response","152","265450","0.0-2.0-33.0","610ed1ac68f6c344f9a8b17d","B2","batch2","","667.4000000357628","tol_trial_num","<div class = centerbox><p class = center-block-text>problem <strong>9</strong> out of 25 problems</p></div>","0","","","","","","","","","","","","","","","","","","","","","","","","",""
"","","","","","single-stim-button","153","275760","0.0-2.0-34.0-0.0","610ed1ac68f6c344f9a8b17d","B2","batch2","","10308","tol_tohand","","","","tol_peg_3","10308","10308","0","[[3,2,0],[0,0],[0]]","1","[[2,1,0],[3,0],[0]]","8","0","","","","","","6","","","","","","","","",""
"","","","","","single-stim-button","154","276379","0.0-2.0-34.0-1.0","610ed1ac68f6c344f9a8b17d","B2","batch2","","618","tol_toboard","","","","tol_peg_2","618","618","0","[[3,2,0],[1,0],[0]]","1","[[2,1,0],[3,0],[0]]","8","0","","","","","","6","","","","","","","","",""
"","","","","","single-stim-button","155","277016","0.0-2.0-34.1-0.1","610ed1ac68f6c344f9a8b17d","B2","batch2","","635","tol_tohand","","","","tol_peg_1","635","635","0","[[3,0,0],[1,0],[0]]","2","[[2,1,0],[3,0],[0]]","8","0","","","","","","6","","","","","","","","",""
"","","","","","single-stim-button","156","278100","0.0-2.0-34.1-1.1","610ed1ac68f6c344f9a8b17d","B2","batch2","","1082","tol_toboard","","","","tol_peg_3","1082","1082","0","[[3,0,0],[1,0],[2]]","2","[[2,1,0],[3,0],[0]]","8","0","","","","","","6","","","","","","","","",""
"","","","","","single-stim-button","157","279177","0.0-2.0-34.2-0.2","610ed1ac68f6c344f9a8b17d","B2","batch2","","1076","tol_tohand","","","","tol_peg_1","1076","1076","0","[[0,0,0],[1,0],[2]]","3","[[2,1,0],[3,0],[0]]","8","0","","","","","","6","","","","","","","","",""
"","","","","","single-stim-button","158","279664","0.0-2.0-34.2-1.2","610ed1ac68f6c344f9a8b17d","B2","batch2","","487","tol_toboard","","","","tol_peg_2","487","487","0","[[0,0,0],[1,3],[2]]","3","[[2,1,0],[3,0],[0]]","8","0","","","","","","6","","","","","","","","",""
"","","","","","single-stim-button","159","280129","0.0-2.0-34.3-0.3","610ed1ac68f6c344f9a8b17d","B2","batch2","","463","tol_tohand","","","","tol_peg_3","463","463","0","[[0,0,0],[1,3],[0]]","4","[[2,1,0],[3,0],[0]]","8","0","","","","","","6","","","","","","","","",""
"","","","","","single-stim-button","160","280855","0.0-2.0-34.3-1.3","610ed1ac68f6c344f9a8b17d","B2","batch2","","725","tol_toboard","","","","tol_peg_1","725","725","0","[[2,0,0],[1,3],[0]]","4","[[2,1,0],[3,0],[0]]","8","0","","","","","","6","","","","","","","","",""
"","","","","","single-stim-button","161","281547","0.0-2.0-34.4-0.4","610ed1ac68f6c344f9a8b17d","B2","batch2","","690","tol_tohand","","","","tol_peg_2","690","690","0","[[2,0,0],[1,0],[0]]","5","[[2,1,0],[3,0],[0]]","8","0","","","","","","6","","","","","","","","",""
"","","","","","single-stim-button","162","282354","0.0-2.0-34.4-1.4","610ed1ac68f6c344f9a8b17d","B2","batch2","","806","tol_toboard","","","","tol_peg_3","806","806","0","[[2,0,0],[1,0],[3]]","5","[[2,1,0],[3,0],[0]]","8","0","","","","","","6","","","","","","","","",""
"","","","","","single-stim-button","163","282924","0.0-2.0-34.5-0.5","610ed1ac68f6c344f9a8b17d","B2","batch2","","569","tol_tohand","","","","tol_peg_2","569","569","0","[[2,0,0],[0,0],[3]]","6","[[2,1,0],[3,0],[0]]","8","0","","","","","","6","","","","","","","","",""
"","","","","","single-stim-button","164","283504","0.0-2.0-34.5-1.5","610ed1ac68f6c344f9a8b17d","B2","batch2","","578","tol_toboard","","","","tol_peg_1","578","578","0","[[2,1,0],[0,0],[3]]","6","[[2,1,0],[3,0],[0]]","8","0","","","","","","6","","","","","","","","",""
"","","","","","single-stim-button","165","284098","0.0-2.0-34.6-0.6","610ed1ac68f6c344f9a8b17d","B2","batch2","","593","tol_tohand","","","","tol_peg_3","593","593","0","[[2,1,0],[0,0],[0]]","7","[[2,1,0],[3,0],[0]]","8","0","","","","","","6","","","","","","","","",""
"","","","","","single-stim-button","166","284580","0.0-2.0-34.6-1.6","610ed1ac68f6c344f9a8b17d","B2","batch2","","480","tol_toboard","","","","tol_peg_2","480","480","0","[[2,1,0],[3,0],[0]]","7","[[2,1,0],[3,0],[0]]","8","0","","","","","","6","","","","","","","","",""
"","","","","","poldrack-single-stim","167","285585","0.0-2.0-35.0","610ed1ac68f6c344f9a8b17d","B2","batch2","","-1","tol_feedback","","","true","","1000","1000","500","","","","","","-1","none","true","10308","14334","","","","","","","","","",""
"","","","","","html-button-response","168","286259","0.0-2.0-36.0","610ed1ac68f6c344f9a8b17d","B2","batch2","","671.7000000476837","tol_trial_num","<div class = centerbox><p class = center-block-text>problem <strong>10</strong> out of 25 problems</p></div>","0","","","","","","","","","","","","","","","","","","","","","","","","",""
"","","","","","single-stim-button","169","289324","0.0-2.0-37.0-0.0","610ed1ac68f6c344f9a8b17d","B2","batch2","","3063","tol_tohand","","","","tol_peg_2","3063","3063","0","[[3,0,0],[0,0],[2]]","1","[[3,0,0],[2,1],[0]]","9","0","","","","","","3","","","","","","","","",""
"","","","","","single-stim-button","170","290072","0.0-2.0-37.0-1.0","610ed1ac68f6c344f9a8b17d","B2","batch2","","747","tol_toboard","","","","tol_peg_1","747","747","0","[[3,1,0],[0,0],[2]]","1","[[3,0,0],[2,1],[0]]","9","0","","","","","","3","","","","","","","","",""
"","","","","","single-stim-button","171","290717","0.0-2.0-37.1-0.1","610ed1ac68f6c344f9a8b17d","B2","batch2","","643","tol_tohand","","","","tol_peg_3","643","643","0","[[3,1,0],[0,0],[0]]","2","[[3,0,0],[2,1],[0]]","9","0","","","","","","3","","","","","","","","",""
"","","","","","single-stim-button","172","291294","0.0-2.0-37.1-1.1","610ed1ac68f6c344f9a8b17d","B2","batch2","","577","tol_toboard","","","","tol_peg_2","577","577","0","[[3,1,0],[2,0],[0]]","2","[[3,0,0],[2,1],[0]]","9","0","","","","","","3","","","","","","","","",""
"","","","","","single-stim-button","173","292028","0.0-2.0-37.2-0.2","610ed1ac68f6c344f9a8b17d","B2","batch2","","733","tol_tohand","","","","tol_peg_1","733","733","0","[[3,0,0],[2,0],[0]]","3","[[3,0,0],[2,1],[0]]","9","0","","","","","","3","","","","","","","","",""
"","","","","","single-stim-button","174","292551","0.0-2.0-37.2-1.2","610ed1ac68f6c344f9a8b17d","B2","batch2","","521","tol_toboard","","","","tol_peg_2","521","521","0","[[3,0,0],[2,1],[0]]","3","[[3,0,0],[2,1],[0]]","9","0","","","","","","3","","","","","","","","",""
"","","","","","poldrack-single-stim","175","293556","0.0-2.0-38.0","610ed1ac68f6c344f9a8b17d","B2","batch2","","-1","tol_feedback","","","true","","1000","1000","500","","","","","","-1","none","true","3063","4439","","","","","","","","","",""
"","","","","","html-button-response","176","294172","0.0-2.0-39.0","610ed1ac68f6c344f9a8b17d","B2","batch2","","615.3000000119209","tol_trial_num","<div class = centerbox><p class = center-block-text>problem <strong>11</strong> out of 25 problems</p></div>","0","","","","","","","","","","","","","","","","","","","","","","","","",""
"","","","","","single-stim-button","177","298078","0.0-2.0-40.0-0.0","610ed1ac68f6c344f9a8b17d","B2","batch2","","3903","tol_tohand","","","","tol_peg_1","3903","3903","0","[[1,0,0],[3,0],[0]]","1","[[2,0,0],[1,3],[0]]","10","0","","","","","","6","","","","","","","","",""
"","","","","","single-stim-button","178","299063","0.0-2.0-40.0-1.0","610ed1ac68f6c344f9a8b17d","B2","batch2","","985","tol_toboard","","","","tol_peg_3","985","985","0","[[1,0,0],[3,0],[2]]","1","[[2,0,0],[1,3],[0]]","10","0","","","","","","6","","","","","","","","",""
"","","","","","single-stim-button","179","299952","0.0-2.0-40.1-0.1","610ed1ac68f6c344f9a8b17d","B2","batch2","","887","tol_tohand","","","","tol_peg_2","887","887","0","[[1,0,0],[0,0],[2]]","2","[[2,0,0],[1,3],[0]]","10","0","","","","","","6","","","","","","","","",""
"","","","","","single-stim-button","180","304694","0.0-2.0-40.1-1.1","610ed1ac68f6c344f9a8b17d","B2","batch2","","4740","tol_toboard","","","","tol_peg_1","4740","4740","0","[[1,3,0],[0,0],[2]]","2","[[2,0,0],[1,3],[0]]","10","0","","","","","","6","","","","","","","","",""
"","","","","","single-stim-button","181","305664","0.0-2.0-40.2-0.2","610ed1ac68f6c344f9a8b17d","B2","batch2","","968","tol_tohand","","","","tol_peg_1","968","968","0","[[1,0,0],[0,0],[2]]","3","[[2,0,0],[1,3],[0]]","10","0","","","","","","6","","","","","","","","",""
"","","","","","single-stim-button","182","306747","0.0-2.0-40.2-1.2","610ed1ac68f6c344f9a8b17d","B2","batch2","","1083","tol_toboard","","","","tol_peg_2","1083","1083","0","[[1,0,0],[3,0],[2]]","3","[[2,0,0],[1,3],[0]]","10","0","","","","","","6","","","","","","","","",""
"","","","","","single-stim-button","183","307163","0.0-2.0-40.3-0.3","610ed1ac68f6c344f9a8b17d","B2","batch2","","415","tol_tohand","","","","tol_peg_1","415","415","0","[[0,0,0],[3,0],[2]]","4","[[2,0,0],[1,3],[0]]","10","0","","","","","","6","","","","","","","","",""
"","","","","","single-stim-button","184","308320","0.0-2.0-40.3-1.3","610ed1ac68f6c344f9a8b17d","B2","batch2","","1156","tol_toboard","","","","tol_peg_2","1156","1156","0","[[0,0,0],[3,1],[2]]","4","[[2,0,0],[1,3],[0]]","10","0","","","","","","6","","","","","","","","",""
"","","","","","single-stim-button","185","309152","0.0-2.0-40.4-0.4","610ed1ac68f6c344f9a8b17d","B2","batch2","","830","tol_tohand","","","","tol_peg_3","830","830","0","[[0,0,0],[3,1],[0]]","5","[[2,0,0],[1,3],[0]]","10","0","","","","","","6","","","","","","","","",""
"","","","","","single-stim-button","186","310024","0.0-2.0-40.4-1.4","610ed1ac68f6c344f9a8b17d","B2","batch2","","870","tol_toboard","","","","tol_peg_1","870","870","0","[[2,0,0],[3,1],[0]]","5","[[2,0,0],[1,3],[0]]","10","0","","","","","","6","","","","","","","","",""
"","","","","","single-stim-button","187","310733","0.0-2.0-40.5-0.5","610ed1ac68f6c344f9a8b17d","B2","batch2","","707","tol_tohand","","","","tol_peg_2","707","707","0","[[2,0,0],[3,0],[0]]","6","[[2,0,0],[1,3],[0]]","10","0","","","","","","6","","","","","","","","",""
"","","","","","single-stim-button","188","311858","0.0-2.0-40.5-1.5","610ed1ac68f6c344f9a8b17d","B2","batch2","","1123","tol_toboard","","","","tol_peg_1","1123","1123","0","[[2,1,0],[3,0],[0]]","6","[[2,0,0],[1,3],[0]]","10","0","","","","","","6","","","","","","","","",""
"","","","","","single-stim-button","189","312338","0.0-2.0-40.6-0.6","610ed1ac68f6c344f9a8b17d","B2","batch2","","480","tol_tohand","","","","tol_peg_2","480","480","0","[[2,1,0],[0,0],[0]]","7","[[2,0,0],[1,3],[0]]","10","0","","","","","","6","","","","","","","","",""
"","","","","","single-stim-button","190","312811","0.0-2.0-40.6-1.6","610ed1ac68f6c344f9a8b17d","B2","batch2","","471","tol_toboard","","","","tol_peg_3","471","471","0","[[2,1,0],[0,0],[3]]","7","[[2,0,0],[1,3],[0]]","10","0","","","","","","6","","","","","","","","",""
"","","","","","single-stim-button","191","313733","0.0-2.0-40.7-0.7","610ed1ac68f6c344f9a8b17d","B2","batch2","","920","tol_tohand","","","","tol_peg_1","920","920","0","[[2,0,0],[0,0],[3]]","8","[[2,0,0],[1,3],[0]]","10","0","","","","","","6","","","","","","","","",""
"","","","","","single-stim-button","192","314310","0.0-2.0-40.7-1.7","610ed1ac68f6c344f9a8b17d","B2","batch2","","576","tol_toboard","","","","tol_peg_2","576","576","0","[[2,0,0],[1,0],[3]]","8","[[2,0,0],[1,3],[0]]","10","0","","","","","","6","","","","","","","","",""
"","","","","","single-stim-button","193","314930","0.0-2.0-40.8-0.8","610ed1ac68f6c344f9a8b17d","B2","batch2","","618","tol_tohand","","","","tol_peg_3","618","618","0","[[2,0,0],[1,0],[0]]","9","[[2,0,0],[1,3],[0]]","10","0","","","","","","6","","","","","","","","",""
"","","","","","single-stim-button","194","315370","0.0-2.0-40.8-1.8","610ed1ac68f6c344f9a8b17d","B2","batch2","","438","tol_toboard","","","","tol_peg_2","438","438","0","[[2,0,0],[1,3],[0]]","9","[[2,0,0],[1,3],[0]]","10","0","","","","","","6","","","","","","","","",""
"","","","","","poldrack-single-stim","195","316381","0.0-2.0-41.0","610ed1ac68f6c344f9a8b17d","B2","batch2","","-1","tol_feedback","","","true","","1000","1000","500","","","","","","-1","none","true","3903","9728","","","","","","","","","",""
"","","","","","html-button-response","196","317098","0.0-2.0-42.0","610ed1ac68f6c344f9a8b17d","B2","batch2","","714.6999999880791","tol_trial_num","<div class = centerbox><p class = center-block-text>problem <strong>12</strong> out of 25 problems</p></div>","0","","","","","","","","","","","","","","","","","","","","","","","","",""
"","","","","","single-stim-button","197","321336","0.0-2.0-43.0-0.0","610ed1ac68f6c344f9a8b17d","B2","batch2","","4236","tol_tohand","","","","tol_peg_1","4236","4236","0","[[1,0,0],[3,0],[0]]","1","[[2,3,0],[0,0],[1]]","11","0","","","","","","4","","","","","","","","",""
"","","","","","single-stim-button","198","321865","0.0-2.0-43.0-1.0","610ed1ac68f6c344f9a8b17d","B2","batch2","","528","tol_toboard","","","","tol_peg_2","528","528","0","[[1,0,0],[3,2],[0]]","1","[[2,3,0],[0,0],[1]]","11","0","","","","","","4","","","","","","","","",""
"","","","","","single-stim-button","199","322484","0.0-2.0-43.1-0.1","610ed1ac68f6c344f9a8b17d","B2","batch2","","618","tol_tohand","","","","tol_peg_1","618","618","0","[[0,0,0],[3,2],[0]]","2","[[2,3,0],[0,0],[1]]","11","0","","","","","","4","","","","","","","","",""
"","","","","","single-stim-button","200","323348","0.0-2.0-43.1-1.1","610ed1ac68f6c344f9a8b17d","B2","batch2","","862","tol_toboard","","","","tol_peg_3","862","862","0","[[0,0,0],[3,2],[1]]","2","[[2,3,0],[0,0],[1]]","11","0","","","","","","4","","","","","","","","",""
"","","","","","single-stim-button","201","323983","0.0-2.0-43.2-0.2","610ed1ac68f6c344f9a8b17d","B2","batch2","","634","tol_tohand","","","","tol_peg_2","634","634","0","[[0,0,0],[3,0],[1]]","3","[[2,3,0],[0,0],[1]]","11","0","","","","","","4","","","","","","","","",""
"","","","","","single-stim-button","202","324595","0.0-2.0-43.2-1.2","610ed1ac68f6c344f9a8b17d","B2","batch2","","610","tol_toboard","","","","tol_peg_1","610","610","0","[[2,0,0],[3,0],[1]]","3","[[2,3,0],[0,0],[1]]","11","0","","","","","","4","","","","","","","","",""
"","","","","","single-stim-button","203","325564","0.0-2.0-43.3-0.3","610ed1ac68f6c344f9a8b17d","B2","batch2","","968","tol_tohand","","","","tol_peg_2","968","968","0","[[2,0,0],[0,0],[1]]","4","[[2,3,0],[0,0],[1]]","11","0","","","","","","4","","","","","","","","",""
"","","","","","single-stim-button","204","325972","0.0-2.0-43.3-1.3","610ed1ac68f6c344f9a8b17d","B2","batch2","","407","tol_toboard","","","","tol_peg_1","407","407","0","[[2,3,0],[0,0],[1]]","4","[[2,3,0],[0,0],[1]]","11","0","","","","","","4","","","","","","","","",""
"","","","","","poldrack-single-stim","205","326981","0.0-2.0-44.0","610ed1ac68f6c344f9a8b17d","B2","batch2","","-1","tol_feedback","","","true","","1000","1000","500","","","","","","-1","none","true","4236","6456","","","","","","","","","",""
"","","","","","html-button-response","206","327732","0.0-2.0-45.0","610ed1ac68f6c344f9a8b17d","B2","batch2","","748.6000000238419","tol_trial_num","<div class = centerbox><p class = center-block-text>problem <strong>13</strong> out of 25 problems</p></div>","0","","","","","","","","","","","","","","","","","","","","","","","","",""
"","","","","","single-stim-button","207","330097","0.0-2.0-46.0-0.0","610ed1ac68f6c344f9a8b17d","B2","batch2","","2363","tol_tohand","","","","tol_peg_1","2363","2363","0","[[1,0,0],[3,0],[0]]","1","[[0,0,0],[2,3],[1]]","12","0","","","","","","4","","","","","","","","",""
"","","","","","single-stim-button","208","331173","0.0-2.0-46.0-1.0","610ed1ac68f6c344f9a8b17d","B2","batch2","","1074","tol_toboard","","","","tol_peg_2","1074","1074","0","[[1,0,0],[3,2],[0]]","1","[[0,0,0],[2,3],[1]]","12","0","","","","","","4","","","","","","","","",""
"","","","","","single-stim-button","209","331799","0.0-2.0-46.1-0.1","610ed1ac68f6c344f9a8b17d","B2","batch2","","625","tol_tohand","","","","tol_peg_1","625","625","0","[[0,0,0],[3,2],[0]]","2","[[0,0,0],[2,3],[1]]","12","0","","","","","","4","","","","","","","","",""
"","","","","","single-stim-button","210","332468","0.0-2.0-46.1-1.1","610ed1ac68f6c344f9a8b17d","B2","batch2","","668","tol_toboard","","","","tol_peg_3","668","668","0","[[0,0,0],[3,2],[1]]","2","[[0,0,0],[2,3],[1]]","12","0","","","","","","4","","","","","","","","",""
"","","","","","single-stim-button","211","333225","0.0-2.0-46.2-0.2","610ed1ac68f6c344f9a8b17d","B2","batch2","","755","tol_tohand","","","","tol_peg_2","755","755","0","[[0,0,0],[3,0],[1]]","3","[[0,0,0],[2,3],[1]]","12","0","","","","","","4","","","","","","","","",""
"","","","","","single-stim-button","212","334171","0.0-2.0-46.2-1.2","610ed1ac68f6c344f9a8b17d","B2","batch2","","945","tol_toboard","","","","tol_peg_1","945","945","0","[[2,0,0],[3,0],[1]]","3","[[0,0,0],[2,3],[1]]","12","0","","","","","","4","","","","","","","","",""
"","","","","","single-stim-button","213","334651","0.0-2.0-46.3-0.3","610ed1ac68f6c344f9a8b17d","B2","batch2","","478","tol_tohand","","","","tol_peg_2","478","478","0","[[2,0,0],[0,0],[1]]","4","[[0,0,0],[2,3],[1]]","12","0","","","","","","4","","","","","","","","",""
"","","","","","single-stim-button","214","335377","0.0-2.0-46.3-1.3","610ed1ac68f6c344f9a8b17d","B2","batch2","","724","tol_toboard","","","","tol_peg_1","724","724","0","[[2,3,0],[0,0],[1]]","4","[[0,0,0],[2,3],[1]]","12","0","","","","","","4","","","","","","","","",""
"","","","","","single-stim-button","215","335980","0.0-2.0-46.4-0.4","610ed1ac68f6c344f9a8b17d","B2","batch2","","601","tol_tohand","","","","tol_peg_1","601","601","0","[[2,0,0],[0,0],[1]]","5","[[0,0,0],[2,3],[1]]","12","0","","","","","","4","","","","","","","","",""
"","","","","","single-stim-button","216","336640","0.0-2.0-46.4-1.4","610ed1ac68f6c344f9a8b17d","B2","batch2","","660","tol_toboard","","","","tol_peg_1","660","660","0","[[2,3,0],[0,0],[1]]","5","[[0,0,0],[2,3],[1]]","12","0","","","","","","4","","","","","","","","",""
"","","","","","single-stim-button","217","337260","0.0-2.0-46.5-0.5","610ed1ac68f6c344f9a8b17d","B2","batch2","","618","tol_tohand","","","","tol_peg_3","618","618","0","[[2,3,0],[0,0],[0]]","6","[[0,0,0],[2,3],[1]]","12","0","","","","","","4","","","","","","","","",""
"","","","","","single-stim-button","218","337675","0.0-2.0-46.5-1.5","610ed1ac68f6c344f9a8b17d","B2","batch2","","413","tol_toboard","","","","tol_peg_2","413","413","0","[[2,3,0],[1,0],[0]]","6","[[0,0,0],[2,3],[1]]","12","0","","","","","","4","","","","","","","","",""
"","","","","","single-stim-button","219","338596","0.0-2.0-46.6-0.6","610ed1ac68f6c344f9a8b17d","B2","batch2","","920","tol_tohand","","","","tol_peg_1","920","920","0","[[2,0,0],[1,0],[0]]","7","[[0,0,0],[2,3],[1]]","12","0","","","","","","4","","","","","","","","",""
"","","","","","single-stim-button","220","339224","0.0-2.0-46.6-1.6","610ed1ac68f6c344f9a8b17d","B2","batch2","","627","tol_toboard","","","","tol_peg_3","627","627","0","[[2,0,0],[1,0],[3]]","7","[[0,0,0],[2,3],[1]]","12","0","","","","","","4","","","","","","","","",""
"","","","","","single-stim-button","221","339917","0.0-2.0-46.7-0.7","610ed1ac68f6c344f9a8b17d","B2","batch2","","691","tol_tohand","","","","tol_peg_1","691","691","0","[[0,0,0],[1,0],[3]]","8","[[0,0,0],[2,3],[1]]","12","0","","","","","","4","","","","","","","","",""
"","","","","","single-stim-button","222","340569","0.0-2.0-46.7-1.7","610ed1ac68f6c344f9a8b17d","B2","batch2","","650","tol_toboard","","","","tol_peg_2","650","650","0","[[0,0,0],[1,2],[3]]","8","[[0,0,0],[2,3],[1]]","12","0","","","","","","4","","","","","","","","",""
"","","","","","single-stim-button","223","341791","0.0-2.0-46.8-0.8","610ed1ac68f6c344f9a8b17d","B2","batch2","","1221","tol_tohand","","","","tol_peg_3","1221","1221","0","[[0,0,0],[1,2],[0]]","9","[[0,0,0],[2,3],[1]]","12","0","","","","","","4","","","","","","","","",""
"","","","","","single-stim-button","224","342476","0.0-2.0-46.8-1.8","610ed1ac68f6c344f9a8b17d","B2","batch2","","683","tol_toboard","","","","tol_peg_1","683","683","0","[[3,0,0],[1,2],[0]]","9","[[0,0,0],[2,3],[1]]","12","0","","","","","","4","","","","","","","","",""
"","","","","","single-stim-button","225","343111","0.0-2.0-46.9-0.9","610ed1ac68f6c344f9a8b17d","B2","batch2","","633","tol_tohand","","","","tol_peg_2","633","633","0","[[3,0,0],[1,0],[0]]","10","[[0,0,0],[2,3],[1]]","12","0","","","","","","4","","","","","","","","",""
"","","","","","single-stim-button","226","343804","0.0-2.0-46.9-1.9","610ed1ac68f6c344f9a8b17d","B2","batch2","","691","tol_toboard","","","","tol_peg_1","691","691","0","[[3,2,0],[1,0],[0]]","10","[[0,0,0],[2,3],[1]]","12","0","","","","","","4","","","","","","","","",""
"","","","","","single-stim-button","227","344375","0.0-2.0-46.10-0.10","610ed1ac68f6c344f9a8b17d","B2","batch2","","570","tol_tohand","","","","tol_peg_2","570","570","0","[[3,2,0],[0,0],[0]]","11","[[0,0,0],[2,3],[1]]","12","0","","","","","","4","","","","","","","","",""
"","","","","","single-stim-button","228","345606","0.0-2.0-46.10-1.10","610ed1ac68f6c344f9a8b17d","B2","batch2","","1229","tol_toboard","","","","tol_peg_3","1229","1229","0","[[3,2,0],[0,0],[1]]","11","[[0,0,0],[2,3],[1]]","12","0","","","","","","4","","","","","","","","",""
"","","","","","single-stim-button","229","346428","0.0-2.0-46.11-0.11","610ed1ac68f6c344f9a8b17d","B2","batch2","","820","tol_tohand","","","","tol_peg_1","820","820","0","[[3,0,0],[0,0],[1]]","12","[[0,0,0],[2,3],[1]]","12","0","","","","","","4","","","","","","","","",""
"","","","","","single-stim-button","230","347252","0.0-2.0-46.11-1.11","610ed1ac68f6c344f9a8b17d","B2","batch2","","823","tol_toboard","","","","tol_peg_2","823","823","0","[[3,0,0],[2,0],[1]]","12","[[0,0,0],[2,3],[1]]","12","0","","","","","","4","","","","","","","","",""
"","","","","","single-stim-button","231","347830","0.0-2.0-46.12-0.12","610ed1ac68f6c344f9a8b17d","B2","batch2","","576","tol_tohand","","","","tol_peg_1","576","576","0","[[0,0,0],[2,0],[1]]","13","[[0,0,0],[2,3],[1]]","12","0","","","","","","4","","","","","","","","",""
"","","","","","single-stim-button","232","348334","0.0-2.0-46.12-1.12","610ed1ac68f6c344f9a8b17d","B2","batch2","","502","tol_toboard","","","","tol_peg_2","502","502","0","[[0,0,0],[2,3],[1]]","13","[[0,0,0],[2,3],[1]]","12","0","","","","","","4","","","","","","","","",""
"","","","","","poldrack-single-stim","233","349340","0.0-2.0-47.0","610ed1ac68f6c344f9a8b17d","B2","batch2","","-1","tol_feedback","","","true","","1000","1000","500","","","","","","-1","none","true","2363","10871","","","","","","","","","",""
"","","","","","html-button-response","234","351841","0.0-2.0-48.0","610ed1ac68f6c344f9a8b17d","B2","batch2","","2499.5","attention_check","<p class = block-text>How many balls are in your board<br></p>","1","true","","","","","","","","","","","","","","","","","","","","","","","",""
"","","","","","html-button-response","235","353104","0.0-2.0-49.0","610ed1ac68f6c344f9a8b17d","B2","batch2","","1260.4000000357628","tol_trial_num","<div class = centerbox><p class = center-block-text>problem <strong>14</strong> out of 25 problems</p></div>","0","","","","","","","","","","","","","","","","","","","","","","","","",""
"","","","","","single-stim-button","236","355182","0.0-2.0-50.0-0.0","610ed1ac68f6c344f9a8b17d","B2","batch2","","2076","tol_tohand","","","","tol_peg_1","2076","2076","0","[[2,0,0],[3,0],[0]]","1","[[1,2,0],[3,0],[0]]","13","0","","","","","","4","","","","","","","","",""
"","","","","","single-stim-button","237","358215","0.0-2.0-50.0-1.0","610ed1ac68f6c344f9a8b17d","B2","batch2","","3031","tol_toboard","","","","tol_peg_3","3031","3031","0","[[2,0,0],[3,0],[1]]","1","[[1,2,0],[3,0],[0]]","13","0","","","","","","4","","","","","","","","",""
"","","","","","single-stim-button","238","358940","0.0-2.0-50.1-0.1","610ed1ac68f6c344f9a8b17d","B2","batch2","","723","tol_tohand","","","","tol_peg_1","723","723","0","[[0,0,0],[3,0],[1]]","2","[[1,2,0],[3,0],[0]]","13","0","","","","","","4","","","","","","","","",""
"","","","","","single-stim-button","239","359470","0.0-2.0-50.1-1.1","610ed1ac68f6c344f9a8b17d","B2","batch2","","529","tol_toboard","","","","tol_peg_2","529","529","0","[[0,0,0],[3,2],[1]]","2","[[1,2,0],[3,0],[0]]","13","0","","","","","","4","","","","","","","","",""
"","","","","","single-stim-button","240","359999","0.0-2.0-50.2-0.2","610ed1ac68f6c344f9a8b17d","B2","batch2","","528","tol_tohand","","","","tol_peg_3","528","528","0","[[0,0,0],[3,2],[0]]","3","[[1,2,0],[3,0],[0]]","13","0","","","","","","4","","","","","","","","",""
"","","","","","single-stim-button","241","360604","0.0-2.0-50.2-1.2","610ed1ac68f6c344f9a8b17d","B2","batch2","","603","tol_toboard","","","","tol_peg_1","603","603","0","[[1,0,0],[3,2],[0]]","3","[[1,2,0],[3,0],[0]]","13","0","","","","","","4","","","","","","","","",""
"","","","","","single-stim-button","242","361076","0.0-2.0-50.3-0.3","610ed1ac68f6c344f9a8b17d","B2","batch2","","470","tol_tohand","","","","tol_peg_2","470","470","0","[[1,0,0],[3,0],[0]]","4","[[1,2,0],[3,0],[0]]","13","0","","","","","","4","","","","","","","","",""
"","","","","","single-stim-button","243","361549","0.0-2.0-50.3-1.3","610ed1ac68f6c344f9a8b17d","B2","batch2","","471","tol_toboard","","","","tol_peg_1","471","471","0","[[1,2,0],[3,0],[0]]","4","[[1,2,0],[3,0],[0]]","13","0","","","","","","4","","","","","","","","",""
"","","","","","poldrack-single-stim","244","362557","0.0-2.0-51.0","610ed1ac68f6c344f9a8b17d","B2","batch2","","-1","tol_feedback","","","true","","1000","1000","500","","","","","","-1","none","true","2076","3797","","","","","","","","","",""
"","","","","","html-button-response","245","363309","0.0-2.0-52.0","610ed1ac68f6c344f9a8b17d","B2","batch2","","750.5","tol_trial_num","<div class = centerbox><p class = center-block-text>problem <strong>15</strong> out of 25 problems</p></div>","0","","","","","","","","","","","","","","","","","","","","","","","","",""
"","","","","","single-stim-button","246","365631","0.0-2.0-53.0-0.0","610ed1ac68f6c344f9a8b17d","B2","batch2","","2321","tol_tohand","","","","tol_peg_1","2321","2321","0","[[1,0,0],[3,0],[0]]","1","[[2,0,0],[3,0],[1]]","14","0","","","","","","3","","","","","","","","",""
"","","","","","single-stim-button","247","366129","0.0-2.0-53.0-1.0","610ed1ac68f6c344f9a8b17d","B2","batch2","","496","tol_toboard","","","","tol_peg_2","496","496","0","[[1,0,0],[3,2],[0]]","1","[[2,0,0],[3,0],[1]]","14","0","","","","","","3","","","","","","","","",""
"","","","","","single-stim-button","248","366709","0.0-2.0-53.1-0.1","610ed1ac68f6c344f9a8b17d","B2","batch2","","578","tol_tohand","","","","tol_peg_1","578","578","0","[[0,0,0],[3,2],[0]]","2","[[2,0,0],[3,0],[1]]","14","0","","","","","","3","","","","","","","","",""
"","","","","","single-stim-button","249","367612","0.0-2.0-53.1-1.1","610ed1ac68f6c344f9a8b17d","B2","batch2","","902","tol_toboard","","","","tol_peg_3","902","902","0","[[0,0,0],[3,2],[1]]","2","[[2,0,0],[3,0],[1]]","14","0","","","","","","3","","","","","","","","",""
"","","","","","single-stim-button","250","368582","0.0-2.0-53.2-0.2","610ed1ac68f6c344f9a8b17d","B2","batch2","","969","tol_tohand","","","","tol_peg_2","969","969","0","[[0,0,0],[3,0],[1]]","3","[[2,0,0],[3,0],[1]]","14","0","","","","","","3","","","","","","","","",""
"","","","","","single-stim-button","251","369113","0.0-2.0-53.2-1.2","610ed1ac68f6c344f9a8b17d","B2","batch2","","529","tol_toboard","","","","tol_peg_1","529","529","0","[[2,0,0],[3,0],[1]]","3","[[2,0,0],[3,0],[1]]","14","0","","","","","","3","","","","","","","","",""
"","","","","","poldrack-single-stim","252","370115","0.0-2.0-54.0","610ed1ac68f6c344f9a8b17d","B2","batch2","","-1","tol_feedback","","","true","","1000","1000","500","","","","","","-1","none","true","2321","3868","","","","","","","","","",""
"","","","","","html-button-response","253","371362","0.0-2.0-55.0","610ed1ac68f6c344f9a8b17d","B2","batch2","","1244.2999999523163","tol_trial_num","<div class = centerbox><p class = center-block-text>problem <strong>16</strong> out of 25 problems</p></div>","0","","","","","","","","","","","","","","","","","","","","","","","","",""
"","","","","","single-stim-button","254","376154","0.0-2.0-56.0-0.0","610ed1ac68f6c344f9a8b17d","B2","batch2","","4791","tol_tohand","","","","tol_peg_3","4791","4791","0","[[0,0,0],[2,3],[0]]","1","[[2,3,0],[1,0],[0]]","15","0","","","","","","7","","","","","","","","",""
"","","","","","single-stim-button","255","377026","0.0-2.0-56.0-1.0","610ed1ac68f6c344f9a8b17d","B2","batch2","","871","tol_toboard","","","","tol_peg_1","871","871","0","[[1,0,0],[2,3],[0]]","1","[[2,3,0],[1,0],[0]]","15","0","","","","","","7","","","","","","","","",""
"","","","","","single-stim-button","256","378745","0.0-2.0-56.1-0.1","610ed1ac68f6c344f9a8b17d","B2","batch2","","1718","tol_tohand","","","","tol_peg_2","1718","1718","0","[[1,0,0],[2,0],[0]]","2","[[2,3,0],[1,0],[0]]","15","0","","","","","","7","","","","","","","","",""
"","","","","","single-stim-button","257","381517","0.0-2.0-56.1-1.1","610ed1ac68f6c344f9a8b17d","B2","batch2","","2771","tol_toboard","","","","tol_peg_1","2771","2771","0","[[1,3,0],[2,0],[0]]","2","[[2,3,0],[1,0],[0]]","15","0","","","","","","7","","","","","","","","",""
"","","","","","single-stim-button","258","382056","0.0-2.0-56.2-0.2","610ed1ac68f6c344f9a8b17d","B2","batch2","","536","tol_tohand","","","","tol_peg_2","536","536","0","[[1,3,0],[0,0],[0]]","3","[[2,3,0],[1,0],[0]]","15","0","","","","","","7","","","","","","","","",""
"","","","","","single-stim-button","259","382627","0.0-2.0-56.2-1.2","610ed1ac68f6c344f9a8b17d","B2","batch2","","570","tol_toboard","","","","tol_peg_3","570","570","0","[[1,3,0],[0,0],[2]]","3","[[2,3,0],[1,0],[0]]","15","0","","","","","","7","","","","","","","","",""
"","","","","","single-stim-button","260","383662","0.0-2.0-56.3-0.3","610ed1ac68f6c344f9a8b17d","B2","batch2","","1033","tol_tohand","","","","tol_peg_1","1033","1033","0","[[1,0,0],[0,0],[2]]","4","[[2,3,0],[1,0],[0]]","15","0","","","","","","7","","","","","","","","",""
"","","","","","single-stim-button","261","385537","0.0-2.0-56.3-1.3","610ed1ac68f6c344f9a8b17d","B2","batch2","","1874","tol_toboard","","","","tol_peg_2","1874","1874","0","[[1,0,0],[3,0],[2]]","4","[[2,3,0],[1,0],[0]]","15","0","","","","","","7","","","","","","","","",""
"","","","","","single-stim-button","262","386123","0.0-2.0-56.4-0.4","610ed1ac68f6c344f9a8b17d","B2","batch2","","584","tol_tohand","","","","tol_peg_1","584","584","0","[[0,0,0],[3,0],[2]]","5","[[2,3,0],[1,0],[0]]","15","0","","","","","","7","","","","","","","","",""
"","","","","","single-stim-button","263","386555","0.0-2.0-56.4-1.4","610ed1ac68f6c344f9a8b17d","B2","batch2","","431","tol_toboard","","","","tol_peg_2","431","431","0","[[0,0,0],[3,1],[2]]","5","[[2,3,0],[1,0],[0]]","15","0","","","","","","7","","","","","","","","",""
"","","","","","single-stim-button","264","387069","0.0-2.0-56.5-0.5","610ed1ac68f6c344f9a8b17d","B2","batch2","","512","tol_tohand","","","","tol_peg_3","512","512","0","[[0,0,0],[3,1],[0]]","6","[[2,3,0],[1,0],[0]]","15","0","","","","","","7","","","","","","","","",""
"","","","","","single-stim-button","265","387631","0.0-2.0-56.5-1.5","610ed1ac68f6c344f9a8b17d","B2","batch2","","560","tol_toboard","","","","tol_peg_1","560","560","0","[[2,0,0],[3,1],[0]]","6","[[2,3,0],[1,0],[0]]","15","0","","","","","","7","","","","","","","","",""
"","","","","","single-stim-button","266","388177","0.0-2.0-56.6-0.6","610ed1ac68f6c344f9a8b17d","B2","batch2","","545","tol_tohand","","","","tol_peg_2","545","545","0","[[2,0,0],[3,0],[0]]","7","[[2,3,0],[1,0],[0]]","15","0","","","","","","7","","","","","","","","",""
"","","","","","single-stim-button","267","388780","0.0-2.0-56.6-1.6","610ed1ac68f6c344f9a8b17d","B2","batch2","","601","tol_toboard","","","","tol_peg_3","601","601","0","[[2,0,0],[3,0],[1]]","7","[[2,3,0],[1,0],[0]]","15","0","","","","","","7","","","","","","","","",""
"","","","","","single-stim-button","268","389228","0.0-2.0-56.7-0.7","610ed1ac68f6c344f9a8b17d","B2","batch2","","446","tol_tohand","","","","tol_peg_2","446","446","0","[[2,0,0],[0,0],[1]]","8","[[2,3,0],[1,0],[0]]","15","0","","","","","","7","","","","","","","","",""
"","","","","","single-stim-button","269","389790","0.0-2.0-56.7-1.7","610ed1ac68f6c344f9a8b17d","B2","batch2","","560","tol_toboard","","","","tol_peg_1","560","560","0","[[2,3,0],[0,0],[1]]","8","[[2,3,0],[1,0],[0]]","15","0","","","","","","7","","","","","","","","",""
"","","","","","single-stim-button","270","390687","0.0-2.0-56.8-0.8","610ed1ac68f6c344f9a8b17d","B2","batch2","","895","tol_tohand","","","","tol_peg_3","895","895","0","[[2,3,0],[0,0],[0]]","9","[[2,3,0],[1,0],[0]]","15","0","","","","","","7","","","","","","","","",""
"","","","","","single-stim-button","271","391551","0.0-2.0-56.8-1.8","610ed1ac68f6c344f9a8b17d","B2","batch2","","863","tol_toboard","","","","tol_peg_2","863","863","0","[[2,3,0],[1,0],[0]]","9","[[2,3,0],[1,0],[0]]","15","0","","","","","","7","","","","","","","","",""
"","","","","","poldrack-single-stim","272","392557","0.0-2.0-57.0","610ed1ac68f6c344f9a8b17d","B2","batch2","","-1","tol_feedback","","","true","","1000","1000","500","","","","","","-1","none","true","4791","11060","","","","","","","","","",""
"","","","","","html-button-response","273","393466","0.0-2.0-58.0","610ed1ac68f6c344f9a8b17d","B2","batch2","","907.5","tol_trial_num","<div class = centerbox><p class = center-block-text>problem <strong>17</strong> out of 25 problems</p></div>","0","","","","","","","","","","","","","","","","","","","","","","","","",""
"","","","","","single-stim-button","274","394999","0.0-2.0-59.0-0.0","610ed1ac68f6c344f9a8b17d","B2","batch2","","1531","tol_tohand","","","","tol_peg_1","1531","1531","0","[[1,0,0],[3,0],[0]]","1","[[3,1,0],[2,0],[0]]","16","0","","","","","","5","","","","","","","","",""
"","","","","","single-stim-button","275","395774","0.0-2.0-59.0-1.0","610ed1ac68f6c344f9a8b17d","B2","batch2","","773","tol_toboard","","","","tol_peg_3","773","773","0","[[1,0,0],[3,0],[2]]","1","[[3,1,0],[2,0],[0]]","16","0","","","","","","5","","","","","","","","",""
"","","","","","single-stim-button","276","396637","0.0-2.0-59.1-0.1","610ed1ac68f6c344f9a8b17d","B2","batch2","","861","tol_tohand","","","","tol_peg_1","861","861","0","[[0,0,0],[3,0],[2]]","2","[[3,1,0],[2,0],[0]]","16","0","","","","","","5","","","","","","","","",""
"","","","","","single-stim-button","277","400924","0.0-2.0-59.1-1.1","610ed1ac68f6c344f9a8b17d","B2","batch2","","4286","tol_toboard","","","","tol_peg_1","4286","4286","0","[[1,0,0],[3,0],[2]]","2","[[3,1,0],[2,0],[0]]","16","0","","","","","","5","","","","","","","","",""
"","","","","","single-stim-button","278","401527","0.0-2.0-59.2-0.2","610ed1ac68f6c344f9a8b17d","B2","batch2","","602","tol_tohand","","","","tol_peg_3","602","602","0","[[1,0,0],[3,0],[0]]","3","[[3,1,0],[2,0],[0]]","16","0","","","","","","5","","","","","","","","",""
"","","","","","single-stim-button","279","402058","0.0-2.0-59.2-1.2","610ed1ac68f6c344f9a8b17d","B2","batch2","","529","tol_toboard","","","","tol_peg_1","529","529","0","[[1,2,0],[3,0],[0]]","3","[[3,1,0],[2,0],[0]]","16","0","","","","","","5","","","","","","","","",""
"","","","","","single-stim-button","280","402465","0.0-2.0-59.3-0.3","610ed1ac68f6c344f9a8b17d","B2","batch2","","405","tol_tohand","","","","tol_peg_2","405","405","0","[[1,2,0],[0,0],[0]]","4","[[3,1,0],[2,0],[0]]","16","0","","","","","","5","","","","","","","","",""
"","","","","","single-stim-button","281","402938","0.0-2.0-59.3-1.3","610ed1ac68f6c344f9a8b17d","B2","batch2","","471","tol_toboard","","","","tol_peg_3","471","471","0","[[1,2,0],[0,0],[3]]","4","[[3,1,0],[2,0],[0]]","16","0","","","","","","5","","","","","","","","",""
"","","","","","single-stim-button","282","403484","0.0-2.0-59.4-0.4","610ed1ac68f6c344f9a8b17d","B2","batch2","","545","tol_tohand","","","","tol_peg_1","545","545","0","[[1,0,0],[0,0],[3]]","5","[[3,1,0],[2,0],[0]]","16","0","","","","","","5","","","","","","","","",""
"","","","","","single-stim-button","283","404143","0.0-2.0-59.4-1.4","610ed1ac68f6c344f9a8b17d","B2","batch2","","658","tol_toboard","","","","tol_peg_2","658","658","0","[[1,0,0],[2,0],[3]]","5","[[3,1,0],[2,0],[0]]","16","0","","","","","","5","","","","","","","","",""
"","","","","","single-stim-button","284","404951","0.0-2.0-59.5-0.5","610ed1ac68f6c344f9a8b17d","B2","batch2","","806","tol_tohand","","","","tol_peg_1","806","806","0","[[0,0,0],[2,0],[3]]","6","[[3,1,0],[2,0],[0]]","16","0","","","","","","5","","","","","","","","",""
"","","","","","single-stim-button","285","405317","0.0-2.0-59.5-1.5","610ed1ac68f6c344f9a8b17d","B2","batch2","","365","tol_toboard","","","","tol_peg_2","365","365","0","[[0,0,0],[2,1],[3]]","6","[[3,1,0],[2,0],[0]]","16","0","","","","","","5","","","","","","","","",""
"","","","","","single-stim-button","286","405766","0.0-2.0-59.6-0.6","610ed1ac68f6c344f9a8b17d","B2","batch2","","447","tol_tohand","","","","tol_peg_3","447","447","0","[[0,0,0],[2,1],[0]]","7","[[3,1,0],[2,0],[0]]","16","0","","","","","","5","","","","","","","","",""
"","","","","","single-stim-button","287","406410","0.0-2.0-59.6-1.6","610ed1ac68f6c344f9a8b17d","B2","batch2","","642","tol_toboard","","","","tol_peg_1","642","642","0","[[3,0,0],[2,1],[0]]","7","[[3,1,0],[2,0],[0]]","16","0","","","","","","5","","","","","","","","",""
"","","","","","single-stim-button","288","406858","0.0-2.0-59.7-0.7","610ed1ac68f6c344f9a8b17d","B2","batch2","","446","tol_tohand","","","","tol_peg_2","446","446","0","[[3,0,0],[2,0],[0]]","8","[[3,1,0],[2,0],[0]]","16","0","","","","","","5","","","","","","","","",""
"","","","","","single-stim-button","289","407388","0.0-2.0-59.7-1.7","610ed1ac68f6c344f9a8b17d","B2","batch2","","528","tol_toboard","","","","tol_peg_1","528","528","0","[[3,1,0],[2,0],[0]]","8","[[3,1,0],[2,0],[0]]","16","0","","","","","","5","","","","","","","","",""
"","","","","","poldrack-single-stim","290","408395","0.0-2.0-60.0","610ed1ac68f6c344f9a8b17d","B2","batch2","","-1","tol_feedback","","","true","","1000","1000","500","","","","","","-1","none","true","1531","5643","","","","","","","","","",""
"","","","","","html-button-response","291","409662","0.0-2.0-61.0","610ed1ac68f6c344f9a8b17d","B2","batch2","","1265","tol_trial_num","<div class = centerbox><p class = center-block-text>problem <strong>18</strong> out of 25 problems</p></div>","0","","","","","","","","","","","","","","","","","","","","","","","","",""
"","","","","","single-stim-button","292","411830","0.0-2.0-62.0-0.0","610ed1ac68f6c344f9a8b17d","B2","batch2","","2166","tol_tohand","","","","tol_peg_1","2166","2166","0","[[1,0,0],[3,0],[0]]","1","[[3,0,0],[2,0],[1]]","17","0","","","","","","5","","","","","","","","",""
"","","","","","single-stim-button","293","412344","0.0-2.0-62.0-1.0","610ed1ac68f6c344f9a8b17d","B2","batch2","","513","tol_toboard","","","","tol_peg_2","513","513","0","[[1,0,0],[3,2],[0]]","1","[[3,0,0],[2,0],[1]]","17","0","","","","","","5","","","","","","","","",""
"","","","","","single-stim-button","294","412980","0.0-2.0-62.1-0.1","610ed1ac68f6c344f9a8b17d","B2","batch2","","634","tol_tohand","","","","tol_peg_1","634","634","0","[[0,0,0],[3,2],[0]]","2","[[3,0,0],[2,0],[1]]","17","0","","","","","","5","","","","","","","","",""
"","","","","","single-stim-button","295","413794","0.0-2.0-62.1-1.1","610ed1ac68f6c344f9a8b17d","B2","batch2","","813","tol_toboard","","","","tol_peg_3","813","813","0","[[0,0,0],[3,2],[1]]","2","[[3,0,0],[2,0],[1]]","17","0","","","","","","5","","","","","","","","",""
"","","","","","single-stim-button","296","415016","0.0-2.0-62.2-0.2","610ed1ac68f6c344f9a8b17d","B2","batch2","","1221","tol_tohand","","","","tol_peg_2","1221","1221","0","[[0,0,0],[3,0],[1]]","3","[[3,0,0],[2,0],[1]]","17","0","","","","","","5","","","","","","","","",""
"","","","","","single-stim-button","297","419605","0.0-2.0-62.2-1.2","610ed1ac68f6c344f9a8b17d","B2","batch2","","4588","tol_toboard","","","","tol_peg_1","4588","4588","0","[[2,0,0],[3,0],[1]]","3","[[3,0,0],[2,0],[1]]","17","0","","","","","","5","","","","","","","","",""
"","","","","","single-stim-button","298","420095","0.0-2.0-62.3-0.3","610ed1ac68f6c344f9a8b17d","B2","batch2","","488","tol_tohand","","","","tol_peg_2","488","488","0","[[2,0,0],[0,0],[1]]","4","[[3,0,0],[2,0],[1]]","17","0","","","","","","5","","","","","","","","",""
"","","","","","single-stim-button","299","420641","0.0-2.0-62.3-1.3","610ed1ac68f6c344f9a8b17d","B2","batch2","","545","tol_toboard","","","","tol_peg_1","545","545","0","[[2,3,0],[0,0],[1]]","4","[[3,0,0],[2,0],[1]]","17","0","","","","","","5","","","","","","","","",""
"","","","","","single-stim-button","300","421235","0.0-2.0-62.4-0.4","610ed1ac68f6c344f9a8b17d","B2","batch2","","592","tol_tohand","","","","tol_peg_3","592","592","0","[[2,3,0],[0,0],[0]]","5","[[3,0,0],[2,0],[1]]","17","0","","","","","","5","","","","","","","","",""
"","","","","","single-stim-button","301","422010","0.0-2.0-62.4-1.4","610ed1ac68f6c344f9a8b17d","B2","batch2","","773","tol_toboard","","","","tol_peg_2","773","773","0","[[2,3,0],[1,0],[0]]","5","[[3,0,0],[2,0],[1]]","17","0","","","","","","5","","","","","","","","",""
"","","","","","single-stim-button","302","423737","0.0-2.0-62.5-0.5","610ed1ac68f6c344f9a8b17d","B2","batch2","","1726","tol_tohand","","","","tol_peg_1","1726","1726","0","[[2,0,0],[1,0],[0]]","6","[[3,0,0],[2,0],[1]]","17","0","","","","","","5","","","","","","","","",""
"","","","","","single-stim-button","303","425270","0.0-2.0-62.5-1.5","610ed1ac68f6c344f9a8b17d","B2","batch2","","1532","tol_toboard","","","","tol_peg_2","1532","1532","0","[[2,0,0],[1,3],[0]]","6","[[3,0,0],[2,0],[1]]","17","0","","","","","","5","","","","","","","","",""
"","","","","","single-stim-button","304","425972","0.0-2.0-62.6-0.6","610ed1ac68f6c344f9a8b17d","B2","batch2","","700","tol_tohand","","","","tol_peg_1","700","700","0","[[0,0,0],[1,3],[0]]","7","[[3,0,0],[2,0],[1]]","17","0","","","","","","5","","","","","","","","",""
"","","","","","single-stim-button","305","426843","0.0-2.0-62.6-1.6","610ed1ac68f6c344f9a8b17d","B2","batch2","","870","tol_toboard","","","","tol_peg_3","870","870","0","[[0,0,0],[1,3],[2]]","7","[[3,0,0],[2,0],[1]]","17","0","","","","","","5","","","","","","","","",""
"","","","","","single-stim-button","306","427390","0.0-2.0-62.7-0.7","610ed1ac68f6c344f9a8b17d","B2","batch2","","545","tol_tohand","","","","tol_peg_2","545","545","0","[[0,0,0],[1,0],[2]]","8","[[3,0,0],[2,0],[1]]","17","0","","","","","","5","","","","","","","","",""
"","","","","","single-stim-button","307","427953","0.0-2.0-62.7-1.7","610ed1ac68f6c344f9a8b17d","B2","batch2","","561","tol_toboard","","","","tol_peg_1","561","561","0","[[3,0,0],[1,0],[2]]","8","[[3,0,0],[2,0],[1]]","17","0","","","","","","5","","","","","","","","",""
"","","","","","single-stim-button","308","429591","0.0-2.0-62.8-0.8","610ed1ac68f6c344f9a8b17d","B2","batch2","","1637","tol_tohand","","","","tol_peg_2","1637","1637","0","[[3,0,0],[0,0],[2]]","9","[[3,0,0],[2,0],[1]]","17","0","","","","","","5","","","","","","","","",""
"","","","","","single-stim-button","309","430104","0.0-2.0-62.8-1.8","610ed1ac68f6c344f9a8b17d","B2","batch2","","512","tol_toboard","","","","tol_peg_1","512","512","0","[[3,1,0],[0,0],[2]]","9","[[3,0,0],[2,0],[1]]","17","0","","","","","","5","","","","","","","","",""
"","","","","","single-stim-button","310","431309","0.0-2.0-62.9-0.9","610ed1ac68f6c344f9a8b17d","B2","batch2","","1204","tol_tohand","","","","tol_peg_3","1204","1204","0","[[3,1,0],[0,0],[0]]","10","[[3,0,0],[2,0],[1]]","17","0","","","","","","5","","","","","","","","",""
"","","","","","single-stim-button","311","431815","0.0-2.0-62.9-1.9","610ed1ac68f6c344f9a8b17d","B2","batch2","","504","tol_toboard","","","","tol_peg_2","504","504","0","[[3,1,0],[2,0],[0]]","10","[[3,0,0],[2,0],[1]]","17","0","","","","","","5","","","","","","","","",""
"","","","","","single-stim-button","312","432509","0.0-2.0-62.10-0.10","610ed1ac68f6c344f9a8b17d","B2","batch2","","693","tol_tohand","","","","tol_peg_1","693","693","0","[[3,0,0],[2,0],[0]]","11","[[3,0,0],[2,0],[1]]","17","0","","","","","","5","","","","","","","","",""
"","","","","","single-stim-button","313","433063","0.0-2.0-62.10-1.10","610ed1ac68f6c344f9a8b17d","B2","batch2","","552","tol_toboard","","","","tol_peg_3","552","552","0","[[3,0,0],[2,0],[1]]","11","[[3,0,0],[2,0],[1]]","17","0","","","","","","5","","","","","","","","",""
"","","","","","poldrack-single-stim","314","434068","0.0-2.0-63.0","610ed1ac68f6c344f9a8b17d","B2","batch2","","-1","tol_feedback","","","true","","1000","1000","500","","","","","","-1","none","true","2166","11606","","","","","","","","","",""
"","","","","","html-button-response","315","434945","0.0-2.0-64.0","610ed1ac68f6c344f9a8b17d","B2","batch2","","874.6999999880791","tol_trial_num","<div class = centerbox><p class = center-block-text>problem <strong>19</strong> out of 25 problems</p></div>","0","","","","","","","","","","","","","","","","","","","","","","","","",""
"","","","","","single-stim-button","316","437114","0.0-2.0-65.0-0.0","610ed1ac68f6c344f9a8b17d","B2","batch2","","2167","tol_tohand","","","","tol_peg_2","2167","2167","0","[[1,2,0],[0,0],[0]]","1","[[0,0,0],[1,2],[3]]","18","0","","","","","","7","","","","","","","","",""
"","","","","","single-stim-button","317","438409","0.0-2.0-65.0-1.0","610ed1ac68f6c344f9a8b17d","B2","batch2","","1294","tol_toboard","","","","tol_peg_2","1294","1294","0","[[1,2,0],[3,0],[0]]","1","[[0,0,0],[1,2],[3]]","18","0","","","","","","7","","","","","","","","",""
"","","","","","single-stim-button","318","439094","0.0-2.0-65.1-0.1","610ed1ac68f6c344f9a8b17d","B2","batch2","","683","tol_tohand","","","","tol_peg_1","683","683","0","[[1,0,0],[3,0],[0]]","2","[[0,0,0],[1,2],[3]]","18","0","","","","","","7","","","","","","","","",""
"","","","","","single-stim-button","319","441933","0.0-2.0-65.1-1.1","610ed1ac68f6c344f9a8b17d","B2","batch2","","2839","tol_toboard","","","","tol_peg_3","2839","2839","0","[[1,0,0],[3,0],[2]]","2","[[0,0,0],[1,2],[3]]","18","0","","","","","","7","","","","","","","","",""
"","","","","","single-stim-button","320","442787","0.0-2.0-65.2-0.2","610ed1ac68f6c344f9a8b17d","B2","batch2","","852","tol_tohand","","","","tol_peg_1","852","852","0","[[0,0,0],[3,0],[2]]","3","[[0,0,0],[1,2],[3]]","18","0","","","","","","7","","","","","","","","",""
"","","","","","single-stim-button","321","443322","0.0-2.0-65.2-1.2","610ed1ac68f6c344f9a8b17d","B2","batch2","","534","tol_toboard","","","","tol_peg_2","534","534","0","[[0,0,0],[3,1],[2]]","3","[[0,0,0],[1,2],[3]]","18","0","","","","","","7","","","","","","","","",""
"","","","","","single-stim-button","322","445150","0.0-2.0-65.3-0.3","610ed1ac68f6c344f9a8b17d","B2","batch2","","1828","tol_tohand","","","","tol_peg_3","1828","1828","0","[[0,0,0],[3,1],[0]]","4","[[0,0,0],[1,2],[3]]","18","0","","","","","","7","","","","","","","","",""
"","","","","","single-stim-button","323","446421","0.0-2.0-65.3-1.3","610ed1ac68f6c344f9a8b17d","B2","batch2","","1270","tol_toboard","","","","tol_peg_1","1270","1270","0","[[2,0,0],[3,1],[0]]","4","[[0,0,0],[1,2],[3]]","18","0","","","","","","7","","","","","","","","",""
"","","","","","single-stim-button","324","450292","0.0-2.0-65.4-0.4","610ed1ac68f6c344f9a8b17d","B2","batch2","","3869","tol_tohand","","","","tol_peg_2","3869","3869","0","[[2,0,0],[3,0],[0]]","5","[[0,0,0],[1,2],[3]]","18","0","","","","","","7","","","","","","","","",""
"","","","","","single-stim-button","325","461107","0.0-2.0-65.4-1.4","610ed1ac68f6c344f9a8b17d","B2","batch2","","10814","tol_toboard","","","","tol_peg_1","10814","10814","0","[[2,1,0],[3,0],[0]]","5","[[0,0,0],[1,2],[3]]","18","0","","","","","","7","","","","","","","","",""
"","","","","","single-stim-button","326","463463","0.0-2.0-65.5-0.5","610ed1ac68f6c344f9a8b17d","B2","batch2","","2354","tol_tohand","","","","tol_peg_2","2354","2354","0","[[2,1,0],[0,0],[0]]","6","[[0,0,0],[1,2],[3]]","18","0","","","","","","7","","","","","","","","",""
"","","","","","single-stim-button","327","464669","0.0-2.0-65.5-1.5","610ed1ac68f6c344f9a8b17d","B2","batch2","","1205","tol_toboard","","","","tol_peg_3","1205","1205","0","[[2,1,0],[0,0],[3]]","6","[[0,0,0],[1,2],[3]]","18","0","","","","","","7","","","","","","","","",""
"","","","","","single-stim-button","328","465347","0.0-2.0-65.6-0.6","610ed1ac68f6c344f9a8b17d","B2","batch2","","676","tol_tohand","","","","tol_peg_1","676","676","0","[[2,0,0],[0,0],[3]]","7","[[0,0,0],[1,2],[3]]","18","0","","","","","","7","","","","","","","","",""
"","","","","","single-stim-button","329","465884","0.0-2.0-65.6-1.6","610ed1ac68f6c344f9a8b17d","B2","batch2","","535","tol_toboard","","","","tol_peg_2","535","535","0","[[2,0,0],[1,0],[3]]","7","[[0,0,0],[1,2],[3]]","18","0","","","","","","7","","","","","","","","",""
"","","","","","single-stim-button","330","467043","0.0-2.0-65.7-0.7","610ed1ac68f6c344f9a8b17d","B2","batch2","","1157","tol_tohand","","","","tol_peg_1","1157","1157","0","[[0,0,0],[1,0],[3]]","8","[[0,0,0],[1,2],[3]]","18","0","","","","","","7","","","","","","","","",""
"","","","","","single-stim-button","331","467677","0.0-2.0-65.7-1.7","610ed1ac68f6c344f9a8b17d","B2","batch2","","633","tol_toboard","","","","tol_peg_2","633","633","0","[[0,0,0],[1,2],[3]]","8","[[0,0,0],[1,2],[3]]","18","0","","","","","","7","","","","","","","","",""
"","","","","","poldrack-single-stim","332","468689","0.0-2.0-66.0","610ed1ac68f6c344f9a8b17d","B2","batch2","","-1","tol_feedback","","","true","","1000","1000","500","","","","","","-1","none","true","2167","13586","","","","","","","","","",""
"","","","","","html-button-response","333","469592","0.0-2.0-67.0","610ed1ac68f6c344f9a8b17d","B2","batch2","","900.6000000238419","tol_trial_num","<div class = centerbox><p class = center-block-text>problem <strong>20</strong> out of 25 problems</p></div>","0","","","","","","","","","","","","","","","","","","","","","","","","",""
"","","","","","single-stim-button","334","470652","0.0-2.0-68.0-0.0","610ed1ac68f6c344f9a8b17d","B2","batch2","","1059","tol_tohand","","","","tol_peg_2","1059","1059","0","[[1,2,0],[0,0],[0]]","1","[[2,1,0],[0,0],[3]]","19","0","","","","","","5","","","","","","","","",""
"","","","","","single-stim-button","335","471223","0.0-2.0-68.0-1.0","610ed1ac68f6c344f9a8b17d","B2","batch2","","570","tol_toboard","","","","tol_peg_3","570","570","0","[[1,2,0],[0,0],[3]]","1","[[2,1,0],[0,0],[3]]","19","0","","","","","","5","","","","","","","","",""
"","","","","","single-stim-button","336","473089","0.0-2.0-68.1-0.1","610ed1ac68f6c344f9a8b17d","B2","batch2","","1864","tol_tohand","","","","tol_peg_1","1864","1864","0","[[1,0,0],[0,0],[3]]","2","[[2,1,0],[0,0],[3]]","19","0","","","","","","5","","","","","","","","",""
"","","","","","single-stim-button","337","473692","0.0-2.0-68.1-1.1","610ed1ac68f6c344f9a8b17d","B2","batch2","","601","tol_toboard","","","","tol_peg_2","601","601","0","[[1,0,0],[2,0],[3]]","2","[[2,1,0],[0,0],[3]]","19","0","","","","","","5","","","","","","","","",""
"","","","","","single-stim-button","338","474564","0.0-2.0-68.2-0.2","610ed1ac68f6c344f9a8b17d","B2","batch2","","870","tol_tohand","","","","tol_peg_1","870","870","0","[[0,0,0],[2,0],[3]]","3","[[2,1,0],[0,0],[3]]","19","0","","","","","","5","","","","","","","","",""
"","","","","","single-stim-button","339","476218","0.0-2.0-68.2-1.2","610ed1ac68f6c344f9a8b17d","B2","batch2","","1652","tol_toboard","","","","tol_peg_2","1652","1652","0","[[0,0,0],[2,1],[3]]","3","[[2,1,0],[0,0],[3]]","19","0","","","","","","5","","","","","","","","",""
"","","","","","single-stim-button","340","476829","0.0-2.0-68.3-0.3","610ed1ac68f6c344f9a8b17d","B2","batch2","","610","tol_tohand","","","","tol_peg_3","610","610","0","[[0,0,0],[2,1],[0]]","4","[[2,1,0],[0,0],[3]]","19","0","","","","","","5","","","","","","","","",""
"","","","","","single-stim-button","341","477523","0.0-2.0-68.3-1.3","610ed1ac68f6c344f9a8b17d","B2","batch2","","692","tol_toboard","","","","tol_peg_1","692","692","0","[[3,0,0],[2,1],[0]]","4","[[2,1,0],[0,0],[3]]","19","0","","","","","","5","","","","","","","","",""
"","","","","","single-stim-button","342","478027","0.0-2.0-68.4-0.4","610ed1ac68f6c344f9a8b17d","B2","batch2","","502","tol_tohand","","","","tol_peg_2","502","502","0","[[3,0,0],[2,0],[0]]","5","[[2,1,0],[0,0],[3]]","19","0","","","","","","5","","","","","","","","",""
"","","","","","single-stim-button","343","478648","0.0-2.0-68.4-1.4","610ed1ac68f6c344f9a8b17d","B2","batch2","","619","tol_toboard","","","","tol_peg_3","619","619","0","[[3,0,0],[2,0],[1]]","5","[[2,1,0],[0,0],[3]]","19","0","","","","","","5","","","","","","","","",""
"","","","","","single-stim-button","344","479259","0.0-2.0-68.5-0.5","610ed1ac68f6c344f9a8b17d","B2","batch2","","609","tol_tohand","","","","tol_peg_1","609","609","0","[[0,0,0],[2,0],[1]]","6","[[2,1,0],[0,0],[3]]","19","0","","","","","","5","","","","","","","","",""
"","","","","","single-stim-button","345","479723","0.0-2.0-68.5-1.5","610ed1ac68f6c344f9a8b17d","B2","batch2","","462","tol_toboard","","","","tol_peg_2","462","462","0","[[0,0,0],[2,3],[1]]","6","[[2,1,0],[0,0],[3]]","19","0","","","","","","5","","","","","","","","",""
"","","","","","single-stim-button","346","480228","0.0-2.0-68.6-0.6","610ed1ac68f6c344f9a8b17d","B2","batch2","","503","tol_tohand","","","","tol_peg_3","503","503","0","[[0,0,0],[2,3],[0]]","7","[[2,1,0],[0,0],[3]]","19","0","","","","","","5","","","","","","","","",""
"","","","","","single-stim-button","347","482029","0.0-2.0-68.6-1.6","610ed1ac68f6c344f9a8b17d","B2","batch2","","1800","tol_toboard","","","","tol_peg_3","1800","1800","0","[[0,0,0],[2,3],[1]]","7","[[2,1,0],[0,0],[3]]","19","0","","","","","","5","","","","","","","","",""
"","","","","","single-stim-button","348","484108","0.0-2.0-68.7-0.7","610ed1ac68f6c344f9a8b17d","B2","batch2","","2077","tol_tohand","","","","tol_peg_2","2077","2077","0","[[0,0,0],[2,0],[1]]","8","[[2,1,0],[0,0],[3]]","19","0","","","","","","5","","","","","","","","",""
"","","","","","single-stim-button","349","484759","0.0-2.0-68.7-1.7","610ed1ac68f6c344f9a8b17d","B2","batch2","","649","tol_toboard","","","","tol_peg_1","649","649","0","[[3,0,0],[2,0],[1]]","8","[[2,1,0],[0,0],[3]]","19","0","","","","","","5","","","","","","","","",""
"","","","","","single-stim-button","350","485175","0.0-2.0-68.8-0.8","610ed1ac68f6c344f9a8b17d","B2","batch2","","415","tol_tohand","","","","tol_peg_2","415","415","0","[[3,0,0],[0,0],[1]]","9","[[2,1,0],[0,0],[3]]","19","0","","","","","","5","","","","","","","","",""
"","","","","","single-stim-button","351","486519","0.0-2.0-68.8-1.8","610ed1ac68f6c344f9a8b17d","B2","batch2","","1343","tol_toboard","","","","tol_peg_1","1343","1343","0","[[3,2,0],[0,0],[1]]","9","[[2,1,0],[0,0],[3]]","19","0","","","","","","5","","","","","","","","",""
"","","","","","single-stim-button","352","490204","0.0-2.0-68.9-0.9","610ed1ac68f6c344f9a8b17d","B2","batch2","","3682","tol_tohand","","","","tol_peg_3","3682","3682","0","[[3,2,0],[0,0],[0]]","10","[[2,1,0],[0,0],[3]]","19","0","","","","","","5","","","","","","","","",""
"","","","","","single-stim-button","353","490971","0.0-2.0-68.9-1.9","610ed1ac68f6c344f9a8b17d","B2","batch2","","765","tol_toboard","","","","tol_peg_2","765","765","0","[[3,2,0],[1,0],[0]]","10","[[2,1,0],[0,0],[3]]","19","0","","","","","","5","","","","","","","","",""
"","","","","","single-stim-button","354","491630","0.0-2.0-68.10-0.10","610ed1ac68f6c344f9a8b17d","B2","batch2","","658","tol_tohand","","","","tol_peg_1","658","658","0","[[3,0,0],[1,0],[0]]","11","[[2,1,0],[0,0],[3]]","19","0","","","","","","5","","","","","","","","",""
