"success","timeout","failed_images","failed_audio","failed_video","trial_type","trial_index","time_elapsed","internal_node_id","subject_id","study_id","session_id","view_history","rt","stimulus","response","task","correct","answer","item","fiar_detect_rt","fiar_detect_correct","total_correct_fiar_detect","post_trial_gap","choices","spm_correct","spm_rt","mouse_click","stim_duration","block_duration","timing_post_trial","current_position","tol_num_moves_made","tol_target","tol_problem_id","tol_rt","key_press","possible_responses","tol_correct","preplanning","tol_rt_per_trial","tol_min_moves"
"true","false","[]","[]","[]","preload","0","2501","0.0-0.0","610ec37ea0648de28b37fb83","C3","batch3","","","","","","","","","","","","","","","","","","","","","","","","","","","","","",""
"true","","","","","fullscreen","1","6775","0.0-1.0-0.0","610ec37ea0648de28b37fb83","C3","batch3","","","","","","","","","","","","","","","","","","","","","","","","","","","","","",""
"true","","","","","fullscreen","2","14996","0.0-2.0-0.0","610ec37ea0648de28b37fb83","C3","batch3","","","","","","","","","","","","","","","","","","","","","","","","","","","","","",""
"","","","","","instructions","3","63440","0.0-2.0-1.0-0.0","610ec37ea0648de28b37fb83","C3","batch3","[{""page_index"":0,""viewing_time"":42959.5},{""page_index"":1,""viewing_time"":5481.5}]","48441.699999928474","","","","","","","","","","","","","","","","","","","","","","","","","","","",""
"","","","","","html-button-response","4","66556","0.0-2.0-1.0-1.0-0.0","610ec37ea0648de28b37fb83","C3","batch3","","3114.0999999046326","<p class=block-text> Let's answer a few questions <br>","0","pattern_enter_quiz","","","","","","","","","","","","","","","","","","","","","","","","",""
"","","","","","html-button-response","5","69794","0.0-2.0-1.0-1.0-1.0","610ec37ea0648de28b37fb83","C3","batch3","","3236.6999999284744","<p class = block-text>True or False: You will have as much time as you want to make each choice. <br></p>","1","pattern_quiz","true","","","","","","","","","","","","","","","","","","","","","","","",""
"","","","","","html-button-response","6","73590","0.0-2.0-1.0-1.0-2.0","610ec37ea0648de28b37fb83","C3","batch3","","3793.8000000715256","<p class = block-text>Correct! You should make your choice <strong> as fast as you can</strong>.</p>","0","pattern_quiz_feedback","","","","","","","","","","","","","","","","","","","","","","","","",""
"","","","","","html-button-response","7","91737","0.0-2.0-1.0-1.0-3.0","610ec37ea0648de28b37fb83","C3","batch3","","18145.5","<p class = block-text>True or False: You will look for 4 pieces in black or white color connected in a row either horizontally, vertically or diagonally. <br></p>","0","pattern_quiz","true","","","","","","","","","","","","","","","","","","","","","","","",""
"","","","","","html-button-response","8","93251","0.0-2.0-1.0-1.0-4.0","610ec37ea0648de28b37fb83","C3","batch3","","1512.2000000476837","<p class = block-text>Correct! </p>","0","pattern_quiz_feedback","","","","","","","","","","","","","","","","","","","","","","","","",""
"","","","","","html-button-response","9","108318","0.0-2.0-2.0","610ec37ea0648de28b37fb83","C3","batch3","","15065.100000023842","<p class=block-text> Now that you've understood the game, let's do a few practice trials before we start!<br> <br>","0","pattern_enter_practice","","","","","","","","","","","","","","","","","","","","","","","","",""
"","","","","","image-keyboard-response","10","115034","0.0-2.0-3.0-0.0","610ec37ea0648de28b37fb83","C3","batch3","","6712.5","stim/prac_no_16_1.png","j","pattern_practice","true","j","","","","","","","","","","","","","","","","","","","","","","",""
"","","","","","html-keyboard-response","11","116045","0.0-2.0-3.0-1.0","610ec37ea0648de28b37fb83","C3","batch3","","null","<p style=""font-size:30px;color:green;"">Correct!</p>","null","pattern_feedback","","","","","","","","","","","","","","","","","","","","","","","","",""
"","","","","","image-keyboard-response","12","117917","0.0-2.0-3.0-0.1","610ec37ea0648de28b37fb83","C3","batch3","","1870.6000000238419","stim/prac_no_18_1.png","j","pattern_practice","true","j","","","","","","","","","","","","","","","","","","","","","","",""
"","","","","","html-keyboard-response","13","118934","0.0-2.0-3.0-1.1","610ec37ea0648de28b37fb83","C3","batch3","","null","<p style=""font-size:30px;color:green;"">Correct!</p>","null","pattern_feedback","","","","","","","","","","","","","","","","","","","","","","","","",""
"","","","","","image-keyboard-response","14","119876","0.0-2.0-3.0-0.2","610ec37ea0648de28b37fb83","C3","batch3","","940.6999999284744","stim/prac_yes_18_hor_w1.png","f","pattern_practice","true","f","","","","","","","","","","","","","","","","","","","","","","",""
"","","","","","html-keyboard-response","15","120883","0.0-2.0-3.0-1.2","610ec37ea0648de28b37fb83","C3","batch3","","null","<p style=""font-size:30px;color:green;"">Correct!</p>","null","pattern_feedback","","","","","","","","","","","","","","","","","","","","","","","","",""
"","","","","","image-keyboard-response","16","121721","0.0-2.0-3.0-0.3","610ec37ea0648de28b37fb83","C3","batch3","","835.6999999284744","stim/prac_yes_16_ver_w1.png","f","pattern_practice","true","f","","","","","","","","","","","","","","","","","","","","","","",""
"","","","","","html-keyboard-response","17","122745","0.0-2.0-3.0-1.3","610ec37ea0648de28b37fb83","C3","batch3","","null","<p style=""font-size:30px;color:green;"">Correct!</p>","null","pattern_feedback","","","","","","","","","","","","","","","","","","","","","","","","",""
"","","","","","image-keyboard-response","18","123864","0.0-2.0-3.0-0.4","610ec37ea0648de28b37fb83","C3","batch3","","1117.8000000715256","stim/prac_yes_20_dia_b1.png","f","pattern_practice","true","f","","","","","","","","","","","","","","","","","","","","","","",""
"","","","","","html-keyboard-response","19","124877","0.0-2.0-3.0-1.4","610ec37ea0648de28b37fb83","C3","batch3","","null","<p style=""font-size:30px;color:green;"">Correct!</p>","null","pattern_feedback","","","","","","","","","","","","","","","","","","","","","","","","",""
"","","","","","html-button-response","20","131038","0.0-2.0-4.0","610ec37ea0648de28b37fb83","C3","batch3","","6160","<p class=block-text> Good job! You are done with practice trials!<br>
        You responded correctly on 100% of the trials.<br>
        Press the button below to start official trials. Now you won't see any feedback about your response</p>","0","pattern_enter_official_trials","","","","","","","","","","","","","","","","","","","","","","","","",""
"","","","","","html-keyboard-response","21","131841","0.0-2.0-5.0-0.0","610ec37ea0648de28b37fb83","C3","batch3","","null","<p class=block-text>Trial 1 out of 78</p>","null","pattern_show_trial_num","","","","","","","","","","","","","","","","","","","","","","","","",""
"","","","","","image-keyboard-response","22","133760","0.0-2.0-5.0-1.0","610ec37ea0648de28b37fb83","C3","batch3","","1917.7000000476837","stim/no_58_1_w.png","j","pattern_response","true","j","pattern_35","1917.7000000476837","true","1","","","","","","","","","","","","","","","","","","",""
"","","","","","html-keyboard-response","23","135081","0.0-2.0-5.0-0.1","610ec37ea0648de28b37fb83","C3","batch3","","null","<p class=block-text>Trial 2 out of 78</p>","null","pattern_show_trial_num","","","","","","","","","","","","","","","","","","","","","","","","",""
"","","","","","image-keyboard-response","24","136095","0.0-2.0-5.0-1.1","610ec37ea0648de28b37fb83","C3","batch3","","1013.3999999761581","stim/no_18_1_b.png","j","pattern_response","true","j","pattern_05","1013.3999999761581","true","2","","","","","","","","","","","","","","","","","","",""
"","","","","","html-keyboard-response","25","137420","0.0-2.0-5.0-0.2","610ec37ea0648de28b37fb83","C3","batch3","","null","<p class=block-text>Trial 3 out of 78</p>","null","pattern_show_trial_num","","","","","","","","","","","","","","","","","","","","","","","","",""
"","","","","","image-keyboard-response","26","138693","0.0-2.0-5.0-1.2","610ec37ea0648de28b37fb83","C3","batch3","","1271.8000000715256","stim/yes_33_dia_w1_w.png","j","pattern_response","false","f","pattern_56","1271.8000000715256","false","2","","","","","","","","","","","","","","","","","","",""
"","","","","","html-keyboard-response","27","140005","0.0-2.0-5.0-0.3","610ec37ea0648de28b37fb83","C3","batch3","","null","<p class=block-text>Trial 4 out of 78</p>","null","pattern_show_trial_num","","","","","","","","","","","","","","","","","","","","","","","","",""
"","","","","","image-keyboard-response","28","140801","0.0-2.0-5.0-1.3","610ec37ea0648de28b37fb83","C3","batch3","","793.7000000476837","stim/yes_53_ver_b1_b.png","f","pattern_response","true","f","pattern_74","793.7000000476837","true","3","","","","","","","","","","","","","","","","","","",""
"","","","","","html-keyboard-response","29","142124","0.0-2.0-5.0-0.4","610ec37ea0648de28b37fb83","C3","batch3","","null","<p class=block-text>Trial 5 out of 78</p>","null","pattern_show_trial_num","","","","","","","","","","","","","","","","","","","","","","","","",""
"","","","","","image-keyboard-response","30","143218","0.0-2.0-5.0-1.4","610ec37ea0648de28b37fb83","C3","batch3","","1092","stim/no_43_2_b.png","f","pattern_response","false","j","pattern_23","1092","false","3","","","","","","","","","","","","","","","","","","",""
"","","","","","html-keyboard-response","31","144532","0.0-2.0-5.0-0.5","610ec37ea0648de28b37fb83","C3","batch3","","null","<p class=block-text>Trial 6 out of 78</p>","null","pattern_show_trial_num","","","","","","","","","","","","","","","","","","","","","","","","",""
"","","","","","image-keyboard-response","32","145360","0.0-2.0-5.0-1.5","610ec37ea0648de28b37fb83","C3","batch3","","825.9000000953674","stim/yes_26_dia_w2_w.png","f","pattern_response","true","f","pattern_50","825.9000000953674","true","4","","","","","","","","","","","","","","","","","","",""
"","","","","","html-keyboard-response","33","146685","0.0-2.0-5.0-0.6","610ec37ea0648de28b37fb83","C3","batch3","","null","<p class=block-text>Trial 7 out of 78</p>","null","pattern_show_trial_num","","","","","","","","","","","","","","","","","","","","","","","","",""
"","","","","","image-keyboard-response","34","148269","0.0-2.0-5.0-1.6","610ec37ea0648de28b37fb83","C3","batch3","","1582","stim/no_49_2_b.png","j","pattern_response","true","j","pattern_29","1582","true","5","","","","","","","","","","","","","","","","","","",""
"","","","","","html-keyboard-response","35","149577","0.0-2.0-5.0-0.7","610ec37ea0648de28b37fb83","C3","batch3","","null","<p class=block-text>Trial 8 out of 78</p>","null","pattern_show_trial_num","","","","","","","","","","","","","","","","","","","","","","","","",""
"","","","","","image-keyboard-response","36","150563","0.0-2.0-5.0-1.7","610ec37ea0648de28b37fb83","C3","batch3","","984.7000000476837","stim/no_47_1_b.png","j","pattern_response","true","j","pattern_27","984.7000000476837","true","6","","","","","","","","","","","","","","","","","","",""
"","","","","","html-keyboard-response","37","151880","0.0-2.0-5.0-0.8","610ec37ea0648de28b37fb83","C3","batch3","","null","<p class=block-text>Trial 9 out of 78</p>","null","pattern_show_trial_num","","","","","","","","","","","","","","","","","","","","","","","","",""
"","","","","","image-keyboard-response","38","152508","0.0-2.0-5.0-1.8","610ec37ea0648de28b37fb83","C3","batch3","","626.5","stim/yes_30_ver_b1_b.png","f","pattern_response","true","f","pattern_54","626.5","true","7","","","","","","","","","","","","","","","","","","",""
"","","","","","html-keyboard-response","39","153821","0.0-2.0-5.0-0.9","610ec37ea0648de28b37fb83","C3","batch3","","null","<p class=block-text>Trial 10 out of 78</p>","null","pattern_show_trial_num","","","","","","","","","","","","","","","","","","","","","","","","",""
"","","","","","image-keyboard-response","40","154556","0.0-2.0-5.0-1.9","610ec37ea0648de28b37fb83","C3","batch3","","732.5","stim/yes_29_hor_b1_b.png","f","pattern_response","true","f","pattern_52","732.5","true","8","","","","","","","","","","","","","","","","","","",""
"","","","","","html-keyboard-response","41","155868","0.0-2.0-5.0-0.10","610ec37ea0648de28b37fb83","C3","batch3","","null","<p class=block-text>Trial 11 out of 78</p>","null","pattern_show_trial_num","","","","","","","","","","","","","","","","","","","","","","","","",""
"","","","","","image-keyboard-response","42","156602","0.0-2.0-5.0-1.10","610ec37ea0648de28b37fb83","C3","batch3","","733.1000000238419","stim/yes_46_ver_b1_b.png","f","pattern_response","true","f","pattern_68","733.1000000238419","true","9","","","","","","","","","","","","","","","","","","",""
"","","","","","html-keyboard-response","43","157931","0.0-2.0-5.0-0.11","610ec37ea0648de28b37fb83","C3","batch3","","null","<p class=block-text>Trial 12 out of 78</p>","null","pattern_show_trial_num","","","","","","","","","","","","","","","","","","","","","","","","",""
"","","","","","image-keyboard-response","44","158599","0.0-2.0-5.0-1.11","610ec37ea0648de28b37fb83","C3","batch3","","666.8000000715256","stim/yes_12_hor_w1_w.png","j","pattern_response","false","f","pattern_42","666.8000000715256","false","9","","","","","","","","","","","","","","","","","","",""
"","","","","","html-keyboard-response","45","159909","0.0-2.0-5.0-0.12","610ec37ea0648de28b37fb83","C3","batch3","","null","<p class=block-text>Trial 13 out of 78</p>","null","pattern_show_trial_num","","","","","","","","","","","","","","","","","","","","","","","","",""
"","","","","","image-keyboard-response","46","161292","0.0-2.0-5.0-1.12","610ec37ea0648de28b37fb83","C3","batch3","","1382.1000000238419","stim/yes_42_dia_w1_w.png","j","pattern_response","false","f","pattern_64","1382.1000000238419","false","9","","","","","","","","","","","","","","","","","","",""
"","","","","","html-keyboard-response","47","162608","0.0-2.0-5.0-0.13","610ec37ea0648de28b37fb83","C3","batch3","","null","<p class=block-text>Trial 14 out of 78</p>","null","pattern_show_trial_num","","","","","","","","","","","","","","","","","","","","","","","","",""
"","","","","","image-keyboard-response","48","164065","0.0-2.0-5.0-1.13","610ec37ea0648de28b37fb83","C3","batch3","","1455.5999999046326","stim/yes_58_dia_w1_w.png","f","pattern_response","true","f","pattern_76","1455.5999999046326","true","10","","","","","","","","","","","","","","","","","","",""
"","","","","","html-keyboard-response","49","165394","0.0-2.0-5.0-0.14","610ec37ea0648de28b37fb83","C3","batch3","","null","<p class=block-text>Trial 15 out of 78</p>","null","pattern_show_trial_num","","","","","","","","","","","","","","","","","","","","","","","","",""
"","","","","","image-keyboard-response","50","166308","0.0-2.0-5.0-1.14","610ec37ea0648de28b37fb83","C3","batch3","","912.3000000715256","stim/yes_37_hor_w1_w.png","f","pattern_response","true","f","pattern_60","912.3000000715256","true","11","","","","","","","","","","","","","","","","","","",""
"","","","","","html-keyboard-response","51","167629","0.0-2.0-5.0-0.15","610ec37ea0648de28b37fb83","C3","batch3","","null","<p class=block-text>Trial 16 out of 78</p>","null","pattern_show_trial_num","","","","","","","","","","","","","","","","","","","","","","","","",""
"","","","","","image-keyboard-response","52","168866","0.0-2.0-5.0-1.15","610ec37ea0648de28b37fb83","C3","batch3","","1236","stim/no_33_1_b.png","j","pattern_response","true","j","pattern_15","1236","true","12","","","","","","","","","","","","","","","","","","",""
"","","","","","html-keyboard-response","53","170174","0.0-2.0-5.0-0.16","610ec37ea0648de28b37fb83","C3","batch3","","null","<p class=block-text>Trial 17 out of 78</p>","null","pattern_show_trial_num","","","","","","","","","","","","","","","","","","","","","","","","",""
"","","","","","image-keyboard-response","54","170773","0.0-2.0-5.0-1.16","610ec37ea0648de28b37fb83","C3","batch3","","596.6000000238419","stim/yes_39_hor_w1_w.png","f","pattern_response","true","f","pattern_62","596.6000000238419","true","13","","","","","","","","","","","","","","","","","","",""
"","","","","","html-keyboard-response","55","172093","0.0-2.0-5.0-0.17","610ec37ea0648de28b37fb83","C3","batch3","","null","<p class=block-text>Trial 18 out of 78</p>","null","pattern_show_trial_num","","","","","","","","","","","","","","","","","","","","","","","","",""
"","","","","","image-keyboard-response","56","173291","0.0-2.0-5.0-1.17","610ec37ea0648de28b37fb83","C3","batch3","","1196.1000000238419","stim/no_53_1_b.png","j","pattern_response","true","j","pattern_33","1196.1000000238419","true","14","","","","","","","","","","","","","","","","","","",""
"","","","","","html-keyboard-response","57","174609","0.0-2.0-5.0-0.18","610ec37ea0648de28b37fb83","C3","batch3","","null","<p class=block-text>Trial 19 out of 78</p>","null","pattern_show_trial_num","","","","","","","","","","","","","","","","","","","","","","","","",""
"","","","","","image-keyboard-response","58","175677","0.0-2.0-5.0-1.18","610ec37ea0648de28b37fb83","C3","batch3","","1065.7999999523163","stim/yes_44_ver_w1_w.png","j","pattern_response","false","f","pattern_66","1065.7999999523163","false","14","","","","","","","","","","","","","","","","","","",""
"","","","","","html-keyboard-response","59","176995","0.0-2.0-5.0-0.19","610ec37ea0648de28b37fb83","C3","batch3","","null","<p class=block-text>Trial 20 out of 78</p>","null","pattern_show_trial_num","","","","","","","","","","","","","","","","","","","","","","","","",""
"","","","","","image-keyboard-response","60","177765","0.0-2.0-5.0-1.19","610ec37ea0648de28b37fb83","C3","batch3","","768.1000000238419","stim/yes_49_hor_w1_b.png","f","pattern_response","true","f","pattern_70","768.1000000238419","true","15","","","","","","","","","","","","","","","","","","",""
"","","","","","html-keyboard-response","61","179084","0.0-2.0-5.0-0.20","610ec37ea0648de28b37fb83","C3","batch3","","null","<p class=block-text>Trial 21 out of 78</p>","null","pattern_show_trial_num","","","","","","","","","","","","","","","","","","","","","","","","",""
"","","","","","image-keyboard-response","62","180061","0.0-2.0-5.0-1.20","610ec37ea0648de28b37fb83","C3","batch3","","975.5","stim/no_67_1.png","f","pattern_response","false","j","pattern_39","975.5","false","15","","","","","","","","","","","","","","","","","","",""
"","","","","","html-keyboard-response","63","181377","0.0-2.0-5.0-0.21","610ec37ea0648de28b37fb83","C3","batch3","","null","<p class=block-text>Trial 22 out of 78</p>","null","pattern_show_trial_num","","","","","","","","","","","","","","","","","","","","","","","","",""
"","","","","","image-keyboard-response","64","182494","0.0-2.0-5.0-1.21","610ec37ea0648de28b37fb83","C3","batch3","","1115.5","stim/no_39_1_w.png","j","pattern_response","true","j","pattern_21","1115.5","true","16","","","","","","","","","","","","","","","","","","",""
"","","","","","html-keyboard-response","65","183813","0.0-2.0-5.0-0.22","610ec37ea0648de28b37fb83","C3","batch3","","null","<p class=block-text>Trial 23 out of 78</p>","null","pattern_show_trial_num","","","","","","","","","","","","","","","","","","","","","","","","",""
"","","","","","image-keyboard-response","66","184603","0.0-2.0-5.0-1.22","610ec37ea0648de28b37fb83","C3","batch3","","788.3999999761581","stim/yes_70_ver_b1.png","f","pattern_response","true","f","pattern_80","788.3999999761581","true","17","","","","","","","","","","","","","","","","","","",""
"","","","","","html-keyboard-response","67","185909","0.0-2.0-5.0-0.23","610ec37ea0648de28b37fb83","C3","batch3","","null","<p class=block-text>Trial 24 out of 78</p>","null","pattern_show_trial_num","","","","","","","","","","","","","","","","","","","","","","","","",""
"","","","","","image-keyboard-response","68","186814","0.0-2.0-5.0-1.23","610ec37ea0648de28b37fb83","C3","batch3","","903.3000000715256","stim/no_25_1_b.png","j","pattern_response","true","j","pattern_09","903.3000000715256","true","18","","","","","","","","","","","","","","","","","","",""
"","","","","","html-keyboard-response","69","188121","0.0-2.0-5.0-0.24","610ec37ea0648de28b37fb83","C3","batch3","","null","<p class=block-text>Trial 25 out of 78</p>","null","pattern_show_trial_num","","","","","","","","","","","","","","","","","","","","","","","","",""
"","","","","","image-keyboard-response","70","189121","0.0-2.0-5.0-1.24","610ec37ea0648de28b37fb83","C3","batch3","","998.5","stim/no_36_1_b.png","f","pattern_response","false","j","pattern_17","998.5","false","18","","","","","","","","","","","","","","","","","","",""
"","","","","","html-keyboard-response","71","190442","0.0-2.0-5.0-0.25","610ec37ea0648de28b37fb83","C3","batch3","","null","<p class=block-text>Trial 26 out of 78</p>","null","pattern_show_trial_num","","","","","","","","","","","","","","","","","","","","","","","","",""
"","","","","","image-keyboard-response","72","191326","0.0-2.0-5.0-1.25","610ec37ea0648de28b37fb83","C3","batch3","","882.8999999761581","stim/yes_36_ver_w1_w.png","f","pattern_response","true","f","pattern_58","882.8999999761581","true","19","","","","","","","","","","","","","","","","","","",""
"","","","","","html-keyboard-response","73","192645","0.0-2.0-5.0-0.26","610ec37ea0648de28b37fb83","C3","batch3","","null","<p class=block-text>Trial 27 out of 78</p>","null","pattern_show_trial_num","","","","","","","","","","","","","","","","","","","","","","","","",""
"","","","","","image-keyboard-response","74","193540","0.0-2.0-5.0-1.26","610ec37ea0648de28b37fb83","C3","batch3","","893.2999999523163","stim/no_28_2.png","j","pattern_response","true","j","pattern_11","893.2999999523163","true","20","","","","","","","","","","","","","","","","","","",""
"","","","","","html-keyboard-response","75","194855","0.0-2.0-5.0-0.27","610ec37ea0648de28b37fb83","C3","batch3","","null","<p class=block-text>Trial 28 out of 78</p>","null","pattern_show_trial_num","","","","","","","","","","","","","","","","","","","","","","","","",""
"","","","","","image-keyboard-response","76","195699","0.0-2.0-5.0-1.27","610ec37ea0648de28b37fb83","C3","batch3","","842.5","stim/yes_15_dia_b1u_b.png","f","pattern_response","true","f","pattern_44","842.5","true","21","","","","","","","","","","","","","","","","","","",""
"","","","","","html-keyboard-response","77","197018","0.0-2.0-5.0-0.28","610ec37ea0648de28b37fb83","C3","batch3","","null","<p class=block-text>Trial 29 out of 78</p>","null","pattern_show_trial_num","","","","","","","","","","","","","","","","","","","","","","","","",""
"","","","","","image-keyboard-response","78","198238","0.0-2.0-5.0-1.28","610ec37ea0648de28b37fb83","C3","batch3","","1218.2000000476837","stim/yes_23_ver_b1.png","j","pattern_response","false","f","pattern_48","1218.2000000476837","false","21","","","","","","","","","","","","","","","","","","",""
"","","","","","html-keyboard-response","79","199558","0.0-2.0-5.0-0.29","610ec37ea0648de28b37fb83","C3","batch3","","null","<p class=block-text>Trial 30 out of 78</p>","null","pattern_show_trial_num","","","","","","","","","","","","","","","","","","","","","","","","",""
"","","","","","image-keyboard-response","80","200888","0.0-2.0-5.0-1.29","610ec37ea0648de28b37fb83","C3","batch3","","1329.6000000238419","stim/no_37_2_w.png","j","pattern_response","true","j","pattern_19","1329.6000000238419","true","22","","","","","","","","","","","","","","","","","","",""
"","","","","","html-keyboard-response","81","202192","0.0-2.0-5.0-0.30","610ec37ea0648de28b37fb83","C3","batch3","","null","<p class=block-text>Trial 31 out of 78</p>","null","pattern_show_trial_num","","","","","","","","","","","","","","","","","","","","","","","","",""
"","","","","","image-keyboard-response","82","203158","0.0-2.0-5.0-1.30","610ec37ea0648de28b37fb83","C3","batch3","","964.7999999523163","stim/no_15_1_w.png","j","pattern_response","true","j","pattern_03","964.7999999523163","true","23","","","","","","","","","","","","","","","","","","",""
"","","","","","html-keyboard-response","83","204476","0.0-2.0-5.0-0.31","610ec37ea0648de28b37fb83","C3","batch3","","null","<p class=block-text>Trial 32 out of 78</p>","null","pattern_show_trial_num","","","","","","","","","","","","","","","","","","","","","","","","",""
"","","","","","image-keyboard-response","84","205574","0.0-2.0-5.0-1.31","610ec37ea0648de28b37fb83","C3","batch3","","1096.1000000238419","stim/no_51_1.png","f","pattern_response","false","j","pattern_31","1096.1000000238419","false","23","","","","","","","","","","","","","","","","","","",""
"","","","","","html-keyboard-response","85","206899","0.0-2.0-5.0-0.32","610ec37ea0648de28b37fb83","C3","batch3","","null","<p class=block-text>Trial 33 out of 78</p>","null","pattern_show_trial_num","","","","","","","","","","","","","","","","","","","","","","","","",""
"","","","","","image-keyboard-response","86","207542","0.0-2.0-5.0-1.32","610ec37ea0648de28b37fb83","C3","batch3","","641","stim/yes_17_ver_b1_b.png","j","pattern_response","false","f","pattern_46","641","false","23","","","","","","","","","","","","","","","","","","",""
"","","","","","html-keyboard-response","87","208849","0.0-2.0-5.0-0.33","610ec37ea0648de28b37fb83","C3","batch3","","null","<p class=block-text>Trial 34 out of 78</p>","null","pattern_show_trial_num","","","","","","","","","","","","","","","","","","","","","","","","",""
"","","","","","image-keyboard-response","88","210701","0.0-2.0-5.0-1.33","610ec37ea0648de28b37fb83","C3","batch3","","1850.2000000476837","stim/yes_51_dia_b1.png","j","pattern_response","false","f","pattern_72","1850.2000000476837","false","23","","","","","","","","","","","","","","","","","","",""
"","","","","","html-keyboard-response","89","212024","0.0-2.0-5.0-0.34","610ec37ea0648de28b37fb83","C3","batch3","","null","<p class=block-text>Trial 35 out of 78</p>","null","pattern_show_trial_num","","","","","","","","","","","","","","","","","","","","","","","","",""
"","","","","","image-keyboard-response","90","213331","0.0-2.0-5.0-1.34","610ec37ea0648de28b37fb83","C3","batch3","","1305","stim/no_22_1_b.png","j","pattern_response","true","j","pattern_07","1305","true","24","","","","","","","","","","","","","","","","","","",""
"","","","","","html-keyboard-response","91","214649","0.0-2.0-5.0-0.35","610ec37ea0648de28b37fb83","C3","batch3","","null","<p class=block-text>Trial 36 out of 78</p>","null","pattern_show_trial_num","","","","","","","","","","","","","","","","","","","","","","","","",""
"","","","","","image-keyboard-response","92","215758","0.0-2.0-5.0-1.35","610ec37ea0648de28b37fb83","C3","batch3","","1107.5","stim/no_12_1.png","j","pattern_response","true","j","pattern_01","1107.5","true","25","","","","","","","","","","","","","","","","","","",""
"","","","","","html-keyboard-response","93","217080","0.0-2.0-5.0-0.36","610ec37ea0648de28b37fb83","C3","batch3","","null","<p class=block-text>Trial 37 out of 78</p>","null","pattern_show_trial_num","","","","","","","","","","","","","","","","","","","","","","","","",""
"","","","","","image-keyboard-response","94","218888","0.0-2.0-5.0-1.36","610ec37ea0648de28b37fb83","C3","batch3","","1806.2999999523163","stim/yes_63_dia_b1.png","f","pattern_response","true","f","pattern_78","1806.2999999523163","true","26","","","","","","","","","","","","","","","","","","",""
"","","","","","html-keyboard-response","95","220211","0.0-2.0-5.0-0.37","610ec37ea0648de28b37fb83","C3","batch3","","null","<p class=block-text>Trial 38 out of 78</p>","null","pattern_show_trial_num","","","","","","","","","","","","","","","","","","","","","","","","",""
"","","","","","image-keyboard-response","96","221964","0.0-2.0-5.0-1.37","610ec37ea0648de28b37fb83","C3","batch3","","1751.2999999523163","stim/no_45_1_w.png","j","pattern_response","true","j","pattern_25","1751.2999999523163","true","27","","","","","","","","","","","","","","","","","","",""
"","","","","","html-keyboard-response","97","223279","0.0-2.0-5.0-0.38","610ec37ea0648de28b37fb83","C3","batch3","","null","<p class=block-text>Trial 39 out of 78</p>","null","pattern_show_trial_num","","","","","","","","","","","","","","","","","","","","","","","","",""
"","","","","","image-keyboard-response","98","224316","0.0-2.0-5.0-1.38","610ec37ea0648de28b37fb83","C3","batch3","","1035.7999999523163","stim/no_30_1_b.png","j","pattern_response","true","j","pattern_13","1035.7999999523163","true","28","","","","","","","","","","","","","","","","","","",""
"","","","","","image-keyboard-response","99","228748","0.0-2.0-6.0","610ec37ea0648de28b37fb83","C3","batch3","","3928.100000023842","stim/empty_board.png","j","attention_check","true","j","","","","","500","[""f"",""j""]","","","","","","","","","","","","","","","","",""
"","","","","","html-keyboard-response","100","229563","0.0-2.0-7.0-0.0","610ec37ea0648de28b37fb83","C3","batch3","","null","<p class=block-text>Trial 40 out of 78</p>","null","pattern_show_trial_num","","","","","","","","","","","","","","","","","","","","","","","","",""
"","","","","","image-keyboard-response","101","230772","0.0-2.0-7.0-1.0","610ec37ea0648de28b37fb83","C3","batch3","","1207","stim/yes_38_hor_b1_b.png","f","pattern_response","true","f","pattern_61","1207","true","29","","","","","","","","","","","","","","","","","","",""
"","","","","","html-keyboard-response","102","232076","0.0-2.0-7.0-0.1","610ec37ea0648de28b37fb83","C3","batch3","","null","<p class=block-text>Trial 41 out of 78</p>","null","pattern_show_trial_num","","","","","","","","","","","","","","","","","","","","","","","","",""
"","","","","","image-keyboard-response","103","233045","0.0-2.0-7.0-1.1","610ec37ea0648de28b37fb83","C3","batch3","","967.3999999761581","stim/yes_25_hor_b1_b.png","f","pattern_response","true","f","pattern_49","967.3999999761581","true","30","","","","","","","","","","","","","","","","","","",""
"","","","","","html-keyboard-response","104","234363","0.0-2.0-7.0-0.2","610ec37ea0648de28b37fb83","C3","batch3","","null","<p class=block-text>Trial 42 out of 78</p>","null","pattern_show_trial_num","","","","","","","","","","","","","","","","","","","","","","","","",""
"","","","","","image-keyboard-response","105","235663","0.0-2.0-7.0-1.2","610ec37ea0648de28b37fb83","C3","batch3","","1298.6000000238419","stim/no_55_1_w.png","j","pattern_response","true","j","pattern_34","1298.6000000238419","true","31","","","","","","","","","","","","","","","","","","",""
"","","","","","html-keyboard-response","106","236976","0.0-2.0-7.0-0.3","610ec37ea0648de28b37fb83","C3","batch3","","null","<p class=block-text>Trial 43 out of 78</p>","null","pattern_show_trial_num","","","","","","","","","","","","","","","","","","","","","","","","",""
"","","","","","image-keyboard-response","107","237918","0.0-2.0-7.0-1.3","610ec37ea0648de28b37fb83","C3","batch3","","940.8999999761581","stim/yes_55_hor_w1_w.png","f","pattern_response","true","f","pattern_75","940.8999999761581","true","32","","","","","","","","","","","","","","","","","","",""
"","","","","","html-keyboard-response","108","239237","0.0-2.0-7.0-0.4","610ec37ea0648de28b37fb83","C3","batch3","","null","<p class=block-text>Trial 44 out of 78</p>","null","pattern_show_trial_num","","","","","","","","","","","","","","","","","","","","","","","","",""
"","","","","","image-keyboard-response","109","240103","0.0-2.0-7.0-1.4","610ec37ea0648de28b37fb83","C3","batch3","","864","stim/no_36_2_w.png","j","pattern_response","true","j","pattern_18","864","true","33","","","","","","","","","","","","","","","","","","",""
"","","","","","html-keyboard-response","110","241416","0.0-2.0-7.0-0.5","610ec37ea0648de28b37fb83","C3","batch3","","null","<p class=block-text>Trial 45 out of 78</p>","null","pattern_show_trial_num","","","","","","","","","","","","","","","","","","","","","","","","",""
"","","","","","image-keyboard-response","111","242346","0.0-2.0-7.0-1.5","610ec37ea0648de28b37fb83","C3","batch3","","928.1999999284744","stim/yes_35_dia_b1.png","f","pattern_response","true","f","pattern_57","928.1999999284744","true","34","","","","","","","","","","","","","","","","","","",""
"","","","","","html-keyboard-response","112","243675","0.0-2.0-7.0-0.6","610ec37ea0648de28b37fb83","C3","batch3","","null","<p class=block-text>Trial 46 out of 78</p>","null","pattern_show_trial_num","","","","","","","","","","","","","","","","","","","","","","","","",""
"","","","","","image-keyboard-response","113","244487","0.0-2.0-7.0-1.6","610ec37ea0648de28b37fb83","C3","batch3","","810.7000000476837","stim/no_23_1.png","j","pattern_response","true","j","pattern_08","810.7000000476837","true","35","","","","","","","","","","","","","","","","","","",""
"","","","","","html-keyboard-response","114","245803","0.0-2.0-7.0-0.7","610ec37ea0648de28b37fb83","C3","batch3","","null","<p class=block-text>Trial 47 out of 78</p>","null","pattern_show_trial_num","","","","","","","","","","","","","","","","","","","","","","","","",""
"","","","","","image-keyboard-response","115","246605","0.0-2.0-7.0-1.7","610ec37ea0648de28b37fb83","C3","batch3","","799.8999999761581","stim/no_48_1_w.png","f","pattern_response","false","j","pattern_28","799.8999999761581","false","35","","","","","","","","","","","","","","","","","","",""
"","","","","","html-keyboard-response","116","247919","0.0-2.0-7.0-0.8","610ec37ea0648de28b37fb83","C3","batch3","","null","<p class=block-text>Trial 48 out of 78</p>","null","pattern_show_trial_num","","","","","","","","","","","","","","","","","","","","","","","","",""
"","","","","","image-keyboard-response","117","248955","0.0-2.0-7.0-1.8","610ec37ea0648de28b37fb83","C3","batch3","","1033.8999999761581","stim/no_20_1_w.png","j","pattern_response","true","j","pattern_06","1033.8999999761581","true","36","","","","","","","","","","","","","","","","","","",""
"","","","","","html-keyboard-response","118","250281","0.0-2.0-7.0-0.9","610ec37ea0648de28b37fb83","C3","batch3","","null","<p class=block-text>Trial 49 out of 78</p>","null","pattern_show_trial_num","","","","","","","","","","","","","","","","","","","","","","","","",""
"","","","","","image-keyboard-response","119","251024","0.0-2.0-7.0-1.9","610ec37ea0648de28b37fb83","C3","batch3","","740.8999999761581","stim/yes_48_dia_w1_w.png","f","pattern_response","true","f","pattern_69","740.8999999761581","true","37","","","","","","","","","","","","","","","","","","",""
"","","","","","html-keyboard-response","120","252335","0.0-2.0-7.0-0.10","610ec37ea0648de28b37fb83","C3","batch3","","null","<p class=block-text>Trial 50 out of 78</p>","null","pattern_show_trial_num","","","","","","","","","","","","","","","","","","","","","","","","",""
"","","","","","image-keyboard-response","121","253139","0.0-2.0-7.0-1.10","610ec37ea0648de28b37fb83","C3","batch3","","802.1000000238419","stim/no_26_1_w.png","j","pattern_response","true","j","pattern_10","802.1000000238419","true","38","","","","","","","","","","","","","","","","","","",""
"","","","","","html-keyboard-response","122","254457","0.0-2.0-7.0-0.11","610ec37ea0648de28b37fb83","C3","batch3","","null","<p class=block-text>Trial 51 out of 78</p>","null","pattern_show_trial_num","","","","","","","","","","","","","","","","","","","","","","","","",""
"","","","","","image-keyboard-response","123","255285","0.0-2.0-7.0-1.11","610ec37ea0648de28b37fb83","C3","batch3","","826.6999999284744","stim/yes_60_ver_b1_b.png","f","pattern_response","true","f","pattern_77","826.6999999284744","true","39","","","","","","","","","","","","","","","","","","",""
"","","","","","html-keyboard-response","124","256605","0.0-2.0-7.0-0.12","610ec37ea0648de28b37fb83","C3","batch3","","null","<p class=block-text>Trial 52 out of 78</p>","null","pattern_show_trial_num","","","","","","","","","","","","","","","","","","","","","","","","",""
"","","","","","image-keyboard-response","125","257742","0.0-2.0-7.0-1.12","610ec37ea0648de28b37fb83","C3","batch3","","1136","stim/no_29_1_b.png","j","pattern_response","true","j","pattern_12","1136","true","40","","","","","","","","","","","","","","","","","","",""
"","","","","","html-keyboard-response","126","259060","0.0-2.0-7.0-0.13","610ec37ea0648de28b37fb83","C3","batch3","","null","<p class=block-text>Trial 53 out of 78</p>","null","pattern_show_trial_num","","","","","","","","","","","","","","","","","","","","","","","","",""
"","","","","","image-keyboard-response","127","260120","0.0-2.0-7.0-1.13","610ec37ea0648de28b37fb83","C3","batch3","","1059.2000000476837","stim/no_44_1.png","f","pattern_response","false","j","pattern_24","1059.2000000476837","false","40","","","","","","","","","","","","","","","","","","",""
"","","","","","html-keyboard-response","128","261441","0.0-2.0-7.0-0.14","610ec37ea0648de28b37fb83","C3","batch3","","null","<p class=block-text>Trial 54 out of 78</p>","null","pattern_show_trial_num","","","","","","","","","","","","","","","","","","","","","","","","",""
"","","","","","image-keyboard-response","129","262288","0.0-2.0-7.0-1.14","610ec37ea0648de28b37fb83","C3","batch3","","845.3999999761581","stim/yes_14_hor_b1_w.png","f","pattern_response","true","f","pattern_43","845.3999999761581","true","41","","","","","","","","","","","","","","","","","","",""
"","","","","","html-keyboard-response","130","263594","0.0-2.0-7.0-0.15","610ec37ea0648de28b37fb83","C3","batch3","","null","<p class=block-text>Trial 55 out of 78</p>","null","pattern_show_trial_num","","","","","","","","","","","","","","","","","","","","","","","","",""
"","","","","","image-keyboard-response","131","264455","0.0-2.0-7.0-1.15","610ec37ea0648de28b37fb83","C3","batch3","","859","stim/no_13_2_b.png","j","pattern_response","true","j","pattern_02","859","true","42","","","","","","","","","","","","","","","","","","",""
"","","","","","html-keyboard-response","132","265766","0.0-2.0-7.0-0.16","610ec37ea0648de28b37fb83","C3","batch3","","null","<p class=block-text>Trial 56 out of 78</p>","null","pattern_show_trial_num","","","","","","","","","","","","","","","","","","","","","","","","",""
"","","","","","image-keyboard-response","133","266734","0.0-2.0-7.0-1.16","610ec37ea0648de28b37fb83","C3","batch3","","966.3999999761581","stim/yes_40_dia_b1_b.png","j","pattern_response","false","f","pattern_63","966.3999999761581","false","42","","","","","","","","","","","","","","","","","","",""
"","","","","","html-keyboard-response","134","268041","0.0-2.0-7.0-0.17","610ec37ea0648de28b37fb83","C3","batch3","","null","<p class=block-text>Trial 57 out of 78</p>","null","pattern_show_trial_num","","","","","","","","","","","","","","","","","","","","","","","","",""
"","","","","","image-keyboard-response","135","269408","0.0-2.0-7.0-1.17","610ec37ea0648de28b37fb83","C3","batch3","","1365.1000000238419","stim/no_52_1.png","j","pattern_response","true","j","pattern_32","1365.1000000238419","true","43","","","","","","","","","","","","","","","","","","",""
"","","","","","html-keyboard-response","136","270720","0.0-2.0-7.0-0.18","610ec37ea0648de28b37fb83","C3","batch3","","null","<p class=block-text>Trial 58 out of 78</p>","null","pattern_show_trial_num","","","","","","","","","","","","","","","","","","","","","","","","",""
"","","","","","image-keyboard-response","137","271388","0.0-2.0-7.0-1.18","610ec37ea0648de28b37fb83","C3","batch3","","666.6000000238419","stim/yes_22_ver_w1.png","f","pattern_response","true","f","pattern_47","666.6000000238419","true","44","","","","","","","","","","","","","","","","","","",""
"","","","","","html-keyboard-response","138","272696","0.0-2.0-7.0-0.19","610ec37ea0648de28b37fb83","C3","batch3","","null","<p class=block-text>Trial 59 out of 78</p>","null","pattern_show_trial_num","","","","","","","","","","","","","","","","","","","","","","","","",""
"","","","","","image-keyboard-response","139","273991","0.0-2.0-7.0-1.19","610ec37ea0648de28b37fb83","C3","batch3","","1292.7000000476837","stim/no_38_1_b.png","j","pattern_response","true","j","pattern_20","1292.7000000476837","true","45","","","","","","","","","","","","","","","","","","",""
"","","","","","html-keyboard-response","140","275311","0.0-2.0-7.0-0.20","610ec37ea0648de28b37fb83","C3","batch3","","null","<p class=block-text>Trial 60 out of 78</p>","null","pattern_show_trial_num","","","","","","","","","","","","","","","","","","","","","","","","",""
"","","","","","image-keyboard-response","141","276591","0.0-2.0-7.0-1.20","610ec37ea0648de28b37fb83","C3","batch3","","1277.6999999284744","stim/yes_67_hor_b1.png","f","pattern_response","true","f","pattern_79","1277.6999999284744","true","46","","","","","","","","","","","","","","","","","","",""
"","","","","","html-keyboard-response","142","277907","0.0-2.0-7.0-0.21","610ec37ea0648de28b37fb83","C3","batch3","","null","<p class=block-text>Trial 61 out of 78</p>","null","pattern_show_trial_num","","","","","","","","","","","","","","","","","","","","","","","","",""
"","","","","","image-keyboard-response","143","279250","0.0-2.0-7.0-1.21","610ec37ea0648de28b37fb83","C3","batch3","","1341.7000000476837","stim/yes_50_dia_w1.png","f","pattern_response","true","f","pattern_71","1341.7000000476837","true","47","","","","","","","","","","","","","","","","","","",""
"","","","","","html-keyboard-response","144","280564","0.0-2.0-7.0-0.22","610ec37ea0648de28b37fb83","C3","batch3","","null","<p class=block-text>Trial 62 out of 78</p>","null","pattern_show_trial_num","","","","","","","","","","","","","","","","","","","","","","","","",""
"","","","","","image-keyboard-response","145","281282","0.0-2.0-7.0-1.22","610ec37ea0648de28b37fb83","C3","batch3","","717.5","stim/yes_17_dia_w1.png","f","pattern_response","true","f","pattern_45","717.5","true","48","","","","","","","","","","","","","","","","","","",""
"","","","","","html-keyboard-response","146","282601","0.0-2.0-7.0-0.23","610ec37ea0648de28b37fb83","C3","batch3","","null","<p class=block-text>Trial 63 out of 78</p>","null","pattern_show_trial_num","","","","","","","","","","","","","","","","","","","","","","","","",""
"","","","","","image-keyboard-response","147","283802","0.0-2.0-7.0-1.23","610ec37ea0648de28b37fb83","C3","batch3","","1199.5","stim/no_34_1_b.png","j","pattern_response","true","j","pattern_16","1199.5","true","49","","","","","","","","","","","","","","","","","","",""
"","","","","","html-keyboard-response","148","285116","0.0-2.0-7.0-0.24","610ec37ea0648de28b37fb83","C3","batch3","","null","<p class=block-text>Trial 64 out of 78</p>","null","pattern_show_trial_num","","","","","","","","","","","","","","","","","","","","","","","","",""
"","","","","","image-keyboard-response","149","285973","0.0-2.0-7.0-1.24","610ec37ea0648de28b37fb83","C3","batch3","","854.6000000238419","stim/yes_52_ver_w1.png","f","pattern_response","true","f","pattern_73","854.6000000238419","true","50","","","","","","","","","","","","","","","","","","",""
"","","","","","html-keyboard-response","150","287288","0.0-2.0-7.0-0.25","610ec37ea0648de28b37fb83","C3","batch3","","null","<p class=block-text>Trial 65 out of 78</p>","null","pattern_show_trial_num","","","","","","","","","","","","","","","","","","","","","","","","",""
"","","","","","image-keyboard-response","151","288528","0.0-2.0-7.0-1.25","610ec37ea0648de28b37fb83","C3","batch3","","1239","stim/no_62_1_w.png","f","pattern_response","false","j","pattern_36","1239","false","50","","","","","","","","","","","","","","","","","","",""
"","","","","","html-keyboard-response","152","289858","0.0-2.0-7.0-0.26","610ec37ea0648de28b37fb83","C3","batch3","","null","<p class=block-text>Trial 66 out of 78</p>","null","pattern_show_trial_num","","","","","","","","","","","","","","","","","","","","","","","","",""
"","","","","","image-keyboard-response","153","291140","0.0-2.0-7.0-1.26","610ec37ea0648de28b37fb83","C3","batch3","","1280.6999999284744","stim/no_32_1_w.png","j","pattern_response","true","j","pattern_14","1280.6999999284744","true","51","","","","","","","","","","","","","","","","","","",""
"","","","","","html-keyboard-response","154","292457","0.0-2.0-7.0-0.27","610ec37ea0648de28b37fb83","C3","batch3","","null","<p class=block-text>Trial 67 out of 78</p>","null","pattern_show_trial_num","","","","","","","","","","","","","","","","","","","","","","","","",""
"","","","","","image-keyboard-response","155","293581","0.0-2.0-7.0-1.27","610ec37ea0648de28b37fb83","C3","batch3","","1122.4000000953674","stim/no_46_1_b.png","j","pattern_response","true","j","pattern_26","1122.4000000953674","true","52","","","","","","","","","","","","","","","","","","",""
"","","","","","html-keyboard-response","156","294902","0.0-2.0-7.0-0.28","610ec37ea0648de28b37fb83","C3","batch3","","null","<p class=block-text>Trial 68 out of 78</p>","null","pattern_show_trial_num","","","","","","","","","","","","","","","","","","","","","","","","",""
"","","","","","image-keyboard-response","157","296355","0.0-2.0-7.0-1.28","610ec37ea0648de28b37fb83","C3","batch3","","1451.4000000953674","stim/no_65_1_b.png","j","pattern_response","true","j","pattern_38","1451.4000000953674","true","53","","","","","","","","","","","","","","","","","","",""
"","","","","","html-keyboard-response","158","297684","0.0-2.0-7.0-0.29","610ec37ea0648de28b37fb83","C3","batch3","","null","<p class=block-text>Trial 69 out of 78</p>","null","pattern_show_trial_num","","","","","","","","","","","","","","","","","","","","","","","","",""
"","","","","","image-keyboard-response","159","299070","0.0-2.0-7.0-1.29","610ec37ea0648de28b37fb83","C3","batch3","","1388.1000000238419","stim/yes_31_hor_b1.png","f","pattern_response","true","f","pattern_55","1388.1000000238419","true","54","","","","","","","","","","","","","","","","","","",""
"","","","","","html-keyboard-response","160","300400","0.0-2.0-7.0-0.30","610ec37ea0648de28b37fb83","C3","batch3","","null","<p class=block-text>Trial 70 out of 78</p>","null","pattern_show_trial_num","","","","","","","","","","","","","","","","","","","","","","","","",""
"","","","","","image-keyboard-response","161","302068","0.0-2.0-7.0-1.30","610ec37ea0648de28b37fb83","C3","batch3","","1666.5999999046326","stim/no_50_1.png","j","pattern_response","true","j","pattern_30","1666.5999999046326","true","55","","","","","","","","","","","","","","","","","","",""
"","","","","","html-keyboard-response","162","303381","0.0-2.0-7.0-0.31","610ec37ea0648de28b37fb83","C3","batch3","","null","<p class=block-text>Trial 71 out of 78</p>","null","pattern_show_trial_num","","","","","","","","","","","","","","","","","","","","","","","","",""
"","","","","","image-keyboard-response","163","304538","0.0-2.0-7.0-1.31","610ec37ea0648de28b37fb83","C3","batch3","","1155","stim/yes_37_dia_w1.png","j","pattern_response","false","f","pattern_59","1155","false","55","","","","","","","","","","","","","","","","","","",""
"","","","","","html-keyboard-response","164","305854","0.0-2.0-7.0-0.32","610ec37ea0648de28b37fb83","C3","batch3","","null","<p class=block-text>Trial 72 out of 78</p>","null","pattern_show_trial_num","","","","","","","","","","","","","","","","","","","","","","","","",""
"","","","","","image-keyboard-response","165","307028","0.0-2.0-7.0-1.32","610ec37ea0648de28b37fb83","C3","batch3","","1172.5","stim/no_42_1_w.png","j","pattern_response","true","j","pattern_22","1172.5","true","56","","","","","","","","","","","","","","","","","","",""
"","","","","","html-keyboard-response","166","308340","0.0-2.0-7.0-0.33","610ec37ea0648de28b37fb83","C3","batch3","","null","<p class=block-text>Trial 73 out of 78</p>","null","pattern_show_trial_num","","","","","","","","","","","","","","","","","","","","","","","","",""
"","","","","","image-keyboard-response","167","309149","0.0-2.0-7.0-1.33","610ec37ea0648de28b37fb83","C3","batch3","","807.1000000238419","stim/yes_28_ver_b1.png","f","pattern_response","true","f","pattern_51","807.1000000238419","true","57","","","","","","","","","","","","","","","","","","",""
"","","","","","html-keyboard-response","168","310456","0.0-2.0-7.0-0.34","610ec37ea0648de28b37fb83","C3","batch3","","null","<p class=block-text>Trial 74 out of 78</p>","null","pattern_show_trial_num","","","","","","","","","","","","","","","","","","","","","","","","",""
"","","","","","image-keyboard-response","169","311306","0.0-2.0-7.0-1.34","610ec37ea0648de28b37fb83","C3","batch3","","847.4000000953674","stim/yes_45_hor_b2_b.png","j","pattern_response","false","f","pattern_67","847.4000000953674","false","57","","","","","","","","","","","","","","","","","","",""
"","","","","","html-keyboard-response","170","312619","0.0-2.0-7.0-0.35","610ec37ea0648de28b37fb83","C3","batch3","","null","<p class=block-text>Trial 75 out of 78</p>","null","pattern_show_trial_num","","","","","","","","","","","","","","","","","","","","","","","","",""
"","","","","","image-keyboard-response","171","313462","0.0-2.0-7.0-1.35","610ec37ea0648de28b37fb83","C3","batch3","","840.7000000476837","stim/no_17_1_w.png","j","pattern_response","true","j","pattern_04","840.7000000476837","true","58","","","","","","","","","","","","","","","","","","",""
"","","","","","html-keyboard-response","172","314776","0.0-2.0-7.0-0.36","610ec37ea0648de28b37fb83","C3","batch3","","null","<p class=block-text>Trial 76 out of 78</p>","null","pattern_show_trial_num","","","","","","","","","","","","","","","","","","","","","","","","",""
"","","","","","image-keyboard-response","173","315692","0.0-2.0-7.0-1.36","610ec37ea0648de28b37fb83","C3","batch3","","914.7000000476837","stim/yes_43_ver_w1_w.png","f","pattern_response","true","f","pattern_65","914.7000000476837","true","59","","","","","","","","","","","","","","","","","","",""
"","","","","","html-keyboard-response","174","317012","0.0-2.0-7.0-0.37","610ec37ea0648de28b37fb83","C3","batch3","","null","<p class=block-text>Trial 77 out of 78</p>","null","pattern_show_trial_num","","","","","","","","","","","","","","","","","","","","","","","","",""
"","","","","","image-keyboard-response","175","317782","0.0-2.0-7.0-1.37","610ec37ea0648de28b37fb83","C3","batch3","","768.6999999284744","stim/yes_29_ver_w1.png","f","pattern_response","true","f","pattern_53","768.6999999284744","true","60","","","","","","","","","","","","","","","","","","",""
"","","","","","html-keyboard-response","176","319092","0.0-2.0-7.0-0.38","610ec37ea0648de28b37fb83","C3","batch3","","null","<p class=block-text>Trial 78 out of 78</p>","null","pattern_show_trial_num","","","","","","","","","","","","","","","","","","","","","","","","",""
"","","","","","image-keyboard-response","177","325489","0.0-2.0-7.0-1.38","610ec37ea0648de28b37fb83","C3","batch3","","6395.200000047684","stim/no_70_2.png","j","pattern_response","true","j","pattern_40","6395.200000047684","true","61","","","","","","","","","","","","","","","","","","",""
"","","","","","html-button-response","178","337386","0.0-2.0-8.0","610ec37ea0648de28b37fb83","C3","batch3","","11385.399999976158","<p class = block-text>This concludes the 4-in-a-row detection game.Thank you for your responses!<br>
            You responded correctly on 78% of the trials.<br>
            When you are ready, press ""Continue"" button to continue </p>","0","","","","","","","","","","","","","","","","","","","","","","","","","",""
"true","","","","","fullscreen","179","343967","0.0-3.0-0.0","610ec37ea0648de28b37fb83","C3","batch3","","","","","spm_fullscreen","","","","","","","","","","","","","","","","","","","","","","","","",""
"","","","","","html-button-response","180","457095","0.0-3.0-1.0","610ec37ea0648de28b37fb83","C3","batch3","","113121.70000004768","<p class = block-text><b>Instructions</b> <br>This is a widely used intelligence test in research. <br>In this test, a figure with a missing piece will be presented.<br>Below the figure are alternative pieces to complete the figure, only one of which is correct.<br> Different figures might involve different principles for obtaining the missing piece<br>Your job is to select the most logical piece to complete the figure.</p>","0","","","","","","","","","","","","","","","","","","","","","","","","","",""
"","","","","","html-keyboard-response","181","457900","0.0-3.0-2.0-0.0","610ec37ea0648de28b37fb83","C3","batch3","","null","<p class=block-text>Trial 1 out of 60</p>","null","spm_show_trial_num","","","","","","","","","","","","","","","","","","","","","","","","",""
"","","","","","image-button-response","182","462801","0.0-3.0-2.0-1.0","610ec37ea0648de28b37fb83","C3","batch3","","4898.5","img/question_1_1.jpeg","3","spm_respsonse","1","4","mat_01","","","","","","1","4898.5","","","","","","","","","","","","","","",""
"","","","","","html-keyboard-response","183","463863","0.0-3.0-2.0-0.1","610ec37ea0648de28b37fb83","C3","batch3","","null","<p class=block-text>Trial 2 out of 60</p>","null","spm_show_trial_num","","","","","","","","","","","","","","","","","","","","","","","","",""
"","","","","","image-button-response","184","466389","0.0-3.0-2.0-1.1","610ec37ea0648de28b37fb83","C3","batch3","","2523.9000000953674","img/question_1_2.jpeg","4","spm_respsonse","1","5","mat_02","","","","","","1","2523.9000000953674","","","","","","","","","","","","","","",""
"","","","","","html-keyboard-response","185","467448","0.0-3.0-2.0-0.2","610ec37ea0648de28b37fb83","C3","batch3","","null","<p class=block-text>Trial 3 out of 60</p>","null","spm_show_trial_num","","","","","","","","","","","","","","","","","","","","","","","","",""
"","","","","","image-button-response","186","469559","0.0-3.0-2.0-1.2","610ec37ea0648de28b37fb83","C3","batch3","","2109.4000000953674","img/question_1_3.jpeg","0","spm_respsonse","1","1","mat_03","","","","","","1","2109.4000000953674","","","","","","","","","","","","","","",""
"","","","","","html-keyboard-response","187","470629","0.0-3.0-2.0-0.3","610ec37ea0648de28b37fb83","C3","batch3","","null","<p class=block-text>Trial 4 out of 60</p>","null","spm_show_trial_num","","","","","","","","","","","","","","","","","","","","","","","","",""
"","","","","","image-button-response","188","472985","0.0-3.0-2.0-1.3","610ec37ea0648de28b37fb83","C3","batch3","","2353.5","img/question_1_4.jpeg","1","spm_respsonse","1","2","mat_04","","","","","","1","2353.5","","","","","","","","","","","","","","",""
"","","","","","html-keyboard-response","189","474055","0.0-3.0-2.0-0.4","610ec37ea0648de28b37fb83","C3","batch3","","null","<p class=block-text>Trial 5 out of 60</p>","null","spm_show_trial_num","","","","","","","","","","","","","","","","","","","","","","","","",""
"","","","","","image-button-response","190","478406","0.0-3.0-2.0-1.4","610ec37ea0648de28b37fb83","C3","batch3","","4348.899999976158","img/question_1_5.jpeg","5","spm_respsonse","1","6","mat_05","","","","","","1","4348.899999976158","","","","","","","","","","","","","","",""
"","","","","","html-keyboard-response","191","479470","0.0-3.0-2.0-0.5","610ec37ea0648de28b37fb83","C3","batch3","","null","<p class=block-text>Trial 6 out of 60</p>","null","spm_show_trial_num","","","","","","","","","","","","","","","","","","","","","","","","",""
"","","","","","image-button-response","192","482820","0.0-3.0-2.0-1.5","610ec37ea0648de28b37fb83","C3","batch3","","3347.5","img/question_1_6.jpeg","2","spm_respsonse","1","3","mat_06","","","","","","1","3347.5","","","","","","","","","","","","","","",""
"","","","","","html-keyboard-response","193","483881","0.0-3.0-2.0-0.6","610ec37ea0648de28b37fb83","C3","batch3","","null","<p class=block-text>Trial 7 out of 60</p>","null","spm_show_trial_num","","","","","","","","","","","","","","","","","","","","","","","","",""
"","","","","","image-button-response","194","488257","0.0-3.0-2.0-1.6","610ec37ea0648de28b37fb83","C3","batch3","","4374","img/question_1_7.jpeg","5","spm_respsonse","1","6","mat_07","","","","","","1","4374","","","","","","","","","","","","","","",""
"","","","","","html-keyboard-response","195","489336","0.0-3.0-2.0-0.7","610ec37ea0648de28b37fb83","C3","batch3","","null","<p class=block-text>Trial 8 out of 60</p>","null","spm_show_trial_num","","","","","","","","","","","","","","","","","","","","","","","","",""
"","","","","","image-button-response","196","493925","0.0-3.0-2.0-1.7","610ec37ea0648de28b37fb83","C3","batch3","","4586.399999976158","img/question_1_8.jpeg","0","spm_respsonse","0","2","mat_08","","","","","","0","4586.399999976158","","","","","","","","","","","","","","",""
"","","","","","html-keyboard-response","197","494994","0.0-3.0-2.0-0.8","610ec37ea0648de28b37fb83","C3","batch3","","null","<p class=block-text>Trial 9 out of 60</p>","null","spm_show_trial_num","","","","","","","","","","","","","","","","","","","","","","","","",""
"","","","","","image-button-response","198","499887","0.0-3.0-2.0-1.8","610ec37ea0648de28b37fb83","C3","batch3","","4890.100000023842","img/question_1_9.jpeg","0","spm_respsonse","1","1","mat_09","","","","","","1","4890.100000023842","","","","","","","","","","","","","","",""
"","","","","","html-keyboard-response","199","500958","0.0-3.0-2.0-0.9","610ec37ea0648de28b37fb83","C3","batch3","","null","<p class=block-text>Trial 10 out of 60</p>","null","spm_show_trial_num","","","","","","","","","","","","","","","","","","","","","","","","",""
"","","","","","image-button-response","200","506444","0.0-3.0-2.0-1.9","610ec37ea0648de28b37fb83","C3","batch3","","5484.200000047684","img/question_1_10.jpeg","4","spm_respsonse","0","3","mat_10","","","","","","0","5484.200000047684","","","","","","","","","","","","","","",""
"","","","","","html-keyboard-response","201","507519","0.0-3.0-2.0-0.10","610ec37ea0648de28b37fb83","C3","batch3","","null","<p class=block-text>Trial 11 out of 60</p>","null","spm_show_trial_num","","","","","","","","","","","","","","","","","","","","","","","","",""
"","","","","","image-button-response","202","516285","0.0-3.0-2.0-1.10","610ec37ea0648de28b37fb83","C3","batch3","","8764.099999904633","img/question_1_11.jpeg","3","spm_respsonse","1","4","mat_11","","","","","","1","8764.099999904633","","","","","","","","","","","","","","",""
"","","","","","html-keyboard-response","203","517346","0.0-3.0-2.0-0.11","610ec37ea0648de28b37fb83","C3","batch3","","null","<p class=block-text>Trial 12 out of 60</p>","null","spm_show_trial_num","","","","","","","","","","","","","","","","","","","","","","","","",""
"","","","","","image-button-response","204","523700","0.0-3.0-2.0-1.11","610ec37ea0648de28b37fb83","C3","batch3","","6351.299999952316","img/question_1_12.jpeg","0","spm_respsonse","0","5","mat_12","","","","","","0","6351.299999952316","","","","","","","","","","","","","","",""
"","","","","","html-keyboard-response","205","524759","0.0-3.0-2.0-0.12","610ec37ea0648de28b37fb83","C3","batch3","","null","<p class=block-text>Trial 13 out of 60</p>","null","spm_show_trial_num","","","","","","","","","","","","","","","","","","","","","","","","",""
"","","","","","image-button-response","206","527309","0.0-3.0-2.0-1.12","610ec37ea0648de28b37fb83","C3","batch3","","2547.5","img/question_2_1.jpeg","1","spm_respsonse","1","2","mat_13","","","","","","1","2547.5","","","","","","","","","","","","","","",""
"","","","","","html-keyboard-response","207","528372","0.0-3.0-2.0-0.13","610ec37ea0648de28b37fb83","C3","batch3","","null","<p class=block-text>Trial 14 out of 60</p>","null","spm_show_trial_num","","","","","","","","","","","","","","","","","","","","","","","","",""
"","","","","","image-button-response","208","532651","0.0-3.0-2.0-1.13","610ec37ea0648de28b37fb83","C3","batch3","","4276.700000047684","img/question_2_2.jpeg","5","spm_respsonse","1","6","mat_14","","","","","","1","4276.700000047684","","","","","","","","","","","","","","",""
"","","","","","html-keyboard-response","209","533713","0.0-3.0-2.0-0.14","610ec37ea0648de28b37fb83","C3","batch3","","null","<p class=block-text>Trial 15 out of 60</p>","null","spm_show_trial_num","","","","","","","","","","","","","","","","","","","","","","","","",""
"","","","","","image-button-response","210","536672","0.0-3.0-2.0-1.14","610ec37ea0648de28b37fb83","C3","batch3","","2955.2999999523163","img/question_2_3.jpeg","0","spm_respsonse","1","1","mat_15","","","","","","1","2955.2999999523163","","","","","","","","","","","","","","",""
"","","","","","html-keyboard-response","211","537730","0.0-3.0-2.0-0.15","610ec37ea0648de28b37fb83","C3","batch3","","null","<p class=block-text>Trial 16 out of 60</p>","null","spm_show_trial_num","","","","","","","","","","","","","","","","","","","","","","","","",""
"","","","","","image-button-response","212","542923","0.0-3.0-2.0-1.15","610ec37ea0648de28b37fb83","C3","batch3","","5190.700000047684","img/question_2_4.jpeg","1","spm_respsonse","1","2","mat_16","","","","","","1","5190.700000047684","","","","","","","","","","","","","","",""
"","","","","","html-keyboard-response","213","543988","0.0-3.0-2.0-0.16","610ec37ea0648de28b37fb83","C3","batch3","","null","<p class=block-text>Trial 17 out of 60</p>","null","spm_show_trial_num","","","","","","","","","","","","","","","","","","","","","","","","",""
"","","","","","image-button-response","214","549442","0.0-3.0-2.0-1.16","610ec37ea0648de28b37fb83","C3","batch3","","5451.399999976158","img/question_2_5.jpeg","0","spm_respsonse","1","1","mat_17","","","","","","1","5451.399999976158","","","","","","","","","","","","","","",""
"","","","","","html-keyboard-response","215","550506","0.0-3.0-2.0-0.17","610ec37ea0648de28b37fb83","C3","batch3","","null","<p class=block-text>Trial 18 out of 60</p>","null","spm_show_trial_num","","","","","","","","","","","","","","","","","","","","","","","","",""
"","","","","","image-button-response","216","554884","0.0-3.0-2.0-1.17","610ec37ea0648de28b37fb83","C3","batch3","","4375.700000047684","img/question_2_6.jpeg","2","spm_respsonse","1","3","mat_18","","","","","","1","4375.700000047684","","","","","","","","","","","","","","",""
"","","","","","html-keyboard-response","217","555955","0.0-3.0-2.0-0.18","610ec37ea0648de28b37fb83","C3","batch3","","null","<p class=block-text>Trial 19 out of 60</p>","null","spm_show_trial_num","","","","","","","","","","","","","","","","","","","","","","","","",""
"","","","","","image-button-response","218","561812","0.0-3.0-2.0-1.18","610ec37ea0648de28b37fb83","C3","batch3","","5854.299999952316","img/question_2_7.jpeg","5","spm_respsonse","0","5","mat_19","","","","","","0","5854.299999952316","","","","","","","","","","","","","","",""
"","","","","","html-keyboard-response","219","562876","0.0-3.0-2.0-0.19","610ec37ea0648de28b37fb83","C3","batch3","","null","<p class=block-text>Trial 20 out of 60</p>","null","spm_show_trial_num","","","","","","","","","","","","","","","","","","","","","","","","",""
"","","","","","image-button-response","220","570247","0.0-3.0-2.0-1.19","610ec37ea0648de28b37fb83","C3","batch3","","7368.699999928474","img/question_2_8.jpeg","5","spm_respsonse","1","6","mat_20","","","","","","1","7368.699999928474","","","","","","","","","","","","","","",""
"","","","","","html-keyboard-response","221","571316","0.0-3.0-2.0-0.20","610ec37ea0648de28b37fb83","C3","batch3","","null","<p class=block-text>Trial 21 out of 60</p>","null","spm_show_trial_num","","","","","","","","","","","","","","","","","","","","","","","","",""
"","","","","","image-button-response","222","576895","0.0-3.0-2.0-1.20","610ec37ea0648de28b37fb83","C3","batch3","","5576.200000047684","img/question_2_9.jpeg","3","spm_respsonse","1","4","mat_21","","","","","","1","5576.200000047684","","","","","","","","","","","","","","",""
"","","","","","html-keyboard-response","223","577963","0.0-3.0-2.0-0.21","610ec37ea0648de28b37fb83","C3","batch3","","null","<p class=block-text>Trial 22 out of 60</p>","null","spm_show_trial_num","","","","","","","","","","","","","","","","","","","","","","","","",""
"","","","","","image-button-response","224","597399","0.0-3.0-2.0-1.21","610ec37ea0648de28b37fb83","C3","batch3","","19432.5","img/question_2_10.jpeg","2","spm_respsonse","1","3","mat_22","","","","","","1","19432.5","","","","","","","","","","","","","","",""
"","","","","","html-keyboard-response","225","598460","0.0-3.0-2.0-0.22","610ec37ea0648de28b37fb83","C3","batch3","","null","<p class=block-text>Trial 23 out of 60</p>","null","spm_show_trial_num","","","","","","","","","","","","","","","","","","","","","","","","",""
"","","","","","image-button-response","226","608413","0.0-3.0-2.0-1.22","610ec37ea0648de28b37fb83","C3","batch3","","9950.399999976158","img/question_2_11.jpeg","4","spm_respsonse","0","4","mat_23","","","","","","0","9950.399999976158","","","","","","","","","","","","","","",""
"","","","","","html-keyboard-response","227","609481","0.0-3.0-2.0-0.23","610ec37ea0648de28b37fb83","C3","batch3","","null","<p class=block-text>Trial 24 out of 60</p>","null","spm_show_trial_num","","","","","","","","","","","","","","","","","","","","","","","","",""
"","","","","","image-button-response","228","625778","0.0-3.0-2.0-1.23","610ec37ea0648de28b37fb83","C3","batch3","","16294.399999976158","img/question_2_12.jpeg","4","spm_respsonse","1","5","mat_24","","","","","","1","16294.399999976158","","","","","","","","","","","","","","",""
"","","","","","html-button-response","229","628401","0.0-3.0-3.0","610ec37ea0648de28b37fb83","C3","batch3","","2364.2999999523163","<p class = block-text>Attention check: Please choose 1<br></p>","0","attention_check","true","","","","","","","","","","","","","","","","","","","","","","","",""
"","","","","","html-keyboard-response","230","629206","0.0-3.0-4.0-0.0","610ec37ea0648de28b37fb83","C3","batch3","","null","<p class=block-text>Trial 25 out of 60</p>","null","spm_show_trial_num","","","","","","","","","","","","","","","","","","","","","","","","",""
"","","","","","image-button-response","231","636848","0.0-3.0-4.0-1.0","610ec37ea0648de28b37fb83","C3","batch3","","7639.600000023842","img/question_3_1.jpeg","7","spm_respsonse","1","8","mat_25","","","","","","1","7639.600000023842","","","","","","","","","","","","","","",""
"","","","","","html-keyboard-response","232","637922","0.0-3.0-4.0-0.1","610ec37ea0648de28b37fb83","C3","batch3","","null","<p class=block-text>Trial 26 out of 60</p>","null","spm_show_trial_num","","","","","","","","","","","","","","","","","","","","","","","","",""
"","","","","","image-button-response","233","642292","0.0-3.0-4.0-1.1","610ec37ea0648de28b37fb83","C3","batch3","","4366.799999952316","img/question_3_2.jpeg","1","spm_respsonse","1","2","mat_26","","","","","","1","4366.799999952316","","","","","","","","","","","","","","",""
"","","","","","html-keyboard-response","234","643351","0.0-3.0-4.0-0.2","610ec37ea0648de28b37fb83","C3","batch3","","null","<p class=block-text>Trial 27 out of 60</p>","null","spm_show_trial_num","","","","","","","","","","","","","","","","","","","","","","","","",""
"","","","","","image-button-response","235","653847","0.0-3.0-4.0-1.2","610ec37ea0648de28b37fb83","C3","batch3","","10493.700000047684","img/question_3_3.jpeg","2","spm_respsonse","1","3","mat_27","","","","","","1","10493.700000047684","","","","","","","","","","","","","","",""
"","","","","","html-keyboard-response","236","654911","0.0-3.0-4.0-0.3","610ec37ea0648de28b37fb83","C3","batch3","","null","<p class=block-text>Trial 28 out of 60</p>","null","spm_show_trial_num","","","","","","","","","","","","","","","","","","","","","","","","",""
"","","","","","image-button-response","237","664424","0.0-3.0-4.0-1.3","610ec37ea0648de28b37fb83","C3","batch3","","9510.299999952316","img/question_3_4.jpeg","7","spm_respsonse","1","8","mat_28","","","","","","1","9510.299999952316","","","","","","","","","","","","","","",""
"","","","","","html-keyboard-response","238","665495","0.0-3.0-4.0-0.4","610ec37ea0648de28b37fb83","C3","batch3","","null","<p class=block-text>Trial 29 out of 60</p>","null","spm_show_trial_num","","","","","","","","","","","","","","","","","","","","","","","","",""
"","","","","","image-button-response","239","671365","0.0-3.0-4.0-1.4","610ec37ea0648de28b37fb83","C3","batch3","","5868.600000023842","img/question_3_5.jpeg","6","spm_respsonse","1","7","mat_29","","","","","","1","5868.600000023842","","","","","","","","","","","","","","",""
"","","","","","html-keyboard-response","240","672443","0.0-3.0-4.0-0.5","610ec37ea0648de28b37fb83","C3","batch3","","null","<p class=block-text>Trial 30 out of 60</p>","null","spm_show_trial_num","","","","","","","","","","","","","","","","","","","","","","","","",""
"","","","","","image-button-response","241","682339","0.0-3.0-4.0-1.5","610ec37ea0648de28b37fb83","C3","batch3","","9893.100000023842","img/question_3_6.jpeg","0","spm_respsonse","0","4","mat_30","","","","","","0","9893.100000023842","","","","","","","","","","","","","","",""
"","","","","","html-keyboard-response","242","683398","0.0-3.0-4.0-0.6","610ec37ea0648de28b37fb83","C3","batch3","","null","<p class=block-text>Trial 31 out of 60</p>","null","spm_show_trial_num","","","","","","","","","","","","","","","","","","","","","","","","",""
"","","","","","image-button-response","243","696129","0.0-3.0-4.0-1.6","610ec37ea0648de28b37fb83","C3","batch3","","12727.899999976158","img/question_3_7.jpeg","7","spm_respsonse","0","5","mat_31","","","","","","0","12727.899999976158","","","","","","","","","","","","","","",""
"","","","","","html-keyboard-response","244","697199","0.0-3.0-4.0-0.7","610ec37ea0648de28b37fb83","C3","batch3","","null","<p class=block-text>Trial 32 out of 60</p>","null","spm_show_trial_num","","","","","","","","","","","","","","","","","","","","","","","","",""
"","","","","","image-button-response","245","719261","0.0-3.0-4.0-1.7","610ec37ea0648de28b37fb83","C3","batch3","","22060.399999976158","img/question_3_8.jpeg","4","spm_respsonse","0","1","mat_32","","","","","","0","22060.399999976158","","","","","","","","","","","","","","",""
"","","","","","html-keyboard-response","246","720318","0.0-3.0-4.0-0.8","610ec37ea0648de28b37fb83","C3","batch3","","null","<p class=block-text>Trial 33 out of 60</p>","null","spm_show_trial_num","","","","","","","","","","","","","","","","","","","","","","","","",""
"","","","","","image-button-response","247","726921","0.0-3.0-4.0-1.8","610ec37ea0648de28b37fb83","C3","batch3","","6600","img/question_3_9.jpeg","5","spm_respsonse","0","7","mat_33","","","","","","0","6600","","","","","","","","","","","","","","",""
"","","","","","html-keyboard-response","248","727989","0.0-3.0-4.0-0.9","610ec37ea0648de28b37fb83","C3","batch3","","null","<p class=block-text>Trial 34 out of 60</p>","null","spm_show_trial_num","","","","","","","","","","","","","","","","","","","","","","","","",""
"","","","","","image-button-response","249","735668","0.0-3.0-4.0-1.9","610ec37ea0648de28b37fb83","C3","batch3","","7676.900000095367","img/question_3_10.jpeg","1","spm_respsonse","0","6","mat_34","","","","","","0","7676.900000095367","","","","","","","","","","","","","","",""
"","","","","","html-keyboard-response","250","736725","0.0-3.0-4.0-0.10","610ec37ea0648de28b37fb83","C3","batch3","","null","<p class=block-text>Trial 35 out of 60</p>","null","spm_show_trial_num","","","","","","","","","","","","","","","","","","","","","","","","",""
"","","","","","image-button-response","251","762130","0.0-3.0-4.0-1.10","610ec37ea0648de28b37fb83","C3","batch3","","25402.200000047684","img/question_3_11.jpeg","5","spm_respsonse","0","1","mat_35","","","","","","0","25402.200000047684","","","","","","","","","","","","","","",""
"","","","","","html-keyboard-response","252","763189","0.0-3.0-4.0-0.11","610ec37ea0648de28b37fb83","C3","batch3","","null","<p class=block-text>Trial 36 out of 60</p>","null","spm_show_trial_num","","","","","","","","","","","","","","","","","","","","","","","","",""
"","","","","","image-button-response","253","777389","0.0-3.0-4.0-1.11","610ec37ea0648de28b37fb83","C3","batch3","","14198","img/question_3_12.jpeg","1","spm_respsonse","1","2","mat_36","","","","","","1","14198","","","","","","","","","","","","","","",""
"","","","","","html-keyboard-response","254","778448","0.0-3.0-4.0-0.12","610ec37ea0648de28b37fb83","C3","batch3","","null","<p class=block-text>Trial 37 out of 60</p>","null","spm_show_trial_num","","","","","","","","","","","","","","","","","","","","","","","","",""
"","","","","","image-button-response","255","782460","0.0-3.0-4.0-1.12","610ec37ea0648de28b37fb83","C3","batch3","","4009.600000023842","img/question_4_1.jpeg","2","spm_respsonse","1","3","mat_37","","","","","","1","4009.600000023842","","","","","","","","","","","","","","",""
"","","","","","html-keyboard-response","256","783525","0.0-3.0-4.0-0.13","610ec37ea0648de28b37fb83","C3","batch3","","null","<p class=block-text>Trial 38 out of 60</p>","null","spm_show_trial_num","","","","","","","","","","","","","","","","","","","","","","","","",""
"","","","","","image-button-response","257","790414","0.0-3.0-4.0-1.13","610ec37ea0648de28b37fb83","C3","batch3","","6886.700000047684","img/question_4_2.jpeg","3","spm_respsonse","1","4","mat_38","","","","","","1","6886.700000047684","","","","","","","","","","","","","","",""
"","","","","","html-keyboard-response","258","791474","0.0-3.0-4.0-0.14","610ec37ea0648de28b37fb83","C3","batch3","","null","<p class=block-text>Trial 39 out of 60</p>","null","spm_show_trial_num","","","","","","","","","","","","","","","","","","","","","","","","",""
"","","","","","image-button-response","259","798733","0.0-3.0-4.0-1.14","610ec37ea0648de28b37fb83","C3","batch3","","7255.300000071526","img/question_4_3.jpeg","2","spm_respsonse","1","3","mat_39","","","","","","1","7255.300000071526","","","","","","","","","","","","","","",""
"","","","","","html-keyboard-response","260","799797","0.0-3.0-4.0-0.15","610ec37ea0648de28b37fb83","C3","batch3","","null","<p class=block-text>Trial 40 out of 60</p>","null","spm_show_trial_num","","","","","","","","","","","","","","","","","","","","","","","","",""
"","","","","","image-button-response","261","804854","0.0-3.0-4.0-1.15","610ec37ea0648de28b37fb83","C3","batch3","","5054.399999976158","img/question_4_4.jpeg","6","spm_respsonse","1","7","mat_40","","","","","","1","5054.399999976158","","","","","","","","","","","","","","",""
"","","","","","html-keyboard-response","262","805922","0.0-3.0-4.0-0.16","610ec37ea0648de28b37fb83","C3","batch3","","null","<p class=block-text>Trial 41 out of 60</p>","null","spm_show_trial_num","","","","","","","","","","","","","","","","","","","","","","","","",""
"","","","","","image-button-response","263","820405","0.0-3.0-4.0-1.16","610ec37ea0648de28b37fb83","C3","batch3","","14481.699999928474","img/question_4_5.jpeg","7","spm_respsonse","1","8","mat_41","","","","","","1","14481.699999928474","","","","","","","","","","","","","","",""
"","","","","","html-keyboard-response","264","821471","0.0-3.0-4.0-0.17","610ec37ea0648de28b37fb83","C3","batch3","","null","<p class=block-text>Trial 42 out of 60</p>","null","spm_show_trial_num","","","","","","","","","","","","","","","","","","","","","","","","",""
"","","","","","image-button-response","265","834959","0.0-3.0-4.0-1.17","610ec37ea0648de28b37fb83","C3","batch3","","13486.5","img/question_4_6.jpeg","5","spm_respsonse","1","6","mat_42","","","","","","1","13486.5","","","","","","","","","","","","","","",""
"","","","","","html-keyboard-response","266","836026","0.0-3.0-4.0-0.18","610ec37ea0648de28b37fb83","C3","batch3","","null","<p class=block-text>Trial 43 out of 60</p>","null","spm_show_trial_num","","","","","","","","","","","","","","","","","","","","","","","","",""
"","","","","","image-button-response","267","850998","0.0-3.0-4.0-1.18","610ec37ea0648de28b37fb83","C3","batch3","","14969.200000047684","img/question_4_7.jpeg","4","spm_respsonse","1","5","mat_43","","","","","","1","14969.200000047684","","","","","","","","","","","","","","",""
"","","","","","html-keyboard-response","268","852064","0.0-3.0-4.0-0.19","610ec37ea0648de28b37fb83","C3","batch3","","null","<p class=block-text>Trial 44 out of 60</p>","null","spm_show_trial_num","","","","","","","","","","","","","","","","","","","","","","","","",""
"","","","","","image-button-response","269","869363","0.0-3.0-4.0-1.19","610ec37ea0648de28b37fb83","C3","batch3","","17295.599999904633","img/question_4_8.jpeg","4","spm_respsonse","0","4","mat_44","","","","","","0","17295.599999904633","","","","","","","","","","","","","","",""
"","","","","","html-keyboard-response","270","870429","0.0-3.0-4.0-0.20","610ec37ea0648de28b37fb83","C3","batch3","","null","<p class=block-text>Trial 45 out of 60</p>","null","spm_show_trial_num","","","","","","","","","","","","","","","","","","","","","","","","",""
"","","","","","image-button-response","271","885326","0.0-3.0-4.0-1.20","610ec37ea0648de28b37fb83","C3","batch3","","14893.200000047684","img/question_4_9.jpeg","0","spm_respsonse","1","1","mat_45","","","","","","1","14893.200000047684","","","","","","","","","","","","","","",""
"","","","","","html-keyboard-response","272","886385","0.0-3.0-4.0-0.21","610ec37ea0648de28b37fb83","C3","batch3","","null","<p class=block-text>Trial 46 out of 60</p>","null","spm_show_trial_num","","","","","","","","","","","","","","","","","","","","","","","","",""
"","","","","","image-button-response","273","912039","0.0-3.0-4.0-1.21","610ec37ea0648de28b37fb83","C3","batch3","","25651","img/question_4_10.jpeg","1","spm_respsonse","1","2","mat_46","","","","","","1","25651","","","","","","","","","","","","","","",""
"","","","","","html-keyboard-response","274","913116","0.0-3.0-4.0-0.22","610ec37ea0648de28b37fb83","C3","batch3","","null","<p class=block-text>Trial 47 out of 60</p>","null","spm_show_trial_num","","","","","","","","","","","","","","","","","","","","","","","","",""
"","","","","","image-button-response","275","948137","0.0-3.0-4.0-1.22","610ec37ea0648de28b37fb83","C3","batch3","","35018.200000047684","img/question_4_11.jpeg","5","spm_respsonse","0","5","mat_47","","","","","","0","35018.200000047684","","","","","","","","","","","","","","",""
"","","","","","html-keyboard-response","276","949209","0.0-3.0-4.0-0.23","610ec37ea0648de28b37fb83","C3","batch3","","null","<p class=block-text>Trial 48 out of 60</p>","null","spm_show_trial_num","","","","","","","","","","","","","","","","","","","","","","","","",""
"","","","","","image-button-response","277","964553","0.0-3.0-4.0-1.23","610ec37ea0648de28b37fb83","C3","batch3","","15341.699999928474","img/question_4_12.jpeg","6","spm_respsonse","0","6","mat_48","","","","","","0","15341.699999928474","","","","","","","","","","","","","","",""
"","","","","","html-keyboard-response","278","965629","0.0-3.0-4.0-0.24","610ec37ea0648de28b37fb83","C3","batch3","","null","<p class=block-text>Trial 49 out of 60</p>","null","spm_show_trial_num","","","","","","","","","","","","","","","","","","","","","","","","",""
"","","","","","image-button-response","279","970157","0.0-3.0-4.0-1.24","610ec37ea0648de28b37fb83","C3","batch3","","4525.700000047684","img/question_5_1.jpeg","0","spm_respsonse","0","7","mat_49","","","","","","0","4525.700000047684","","","","","","","","","","","","","","",""
"","","","","","html-keyboard-response","280","971217","0.0-3.0-4.0-0.25","610ec37ea0648de28b37fb83","C3","batch3","","null","<p class=block-text>Trial 50 out of 60</p>","null","spm_show_trial_num","","","","","","","","","","","","","","","","","","","","","","","","",""
"","","","","","image-button-response","281","983693","0.0-3.0-4.0-1.25","610ec37ea0648de28b37fb83","C3","batch3","","12473.600000023842","img/question_5_2.jpeg","5","spm_respsonse","1","6","mat_50","","","","","","1","12473.600000023842","","","","","","","","","","","","","","",""
"","","","","","html-keyboard-response","282","984751","0.0-3.0-4.0-0.26","610ec37ea0648de28b37fb83","C3","batch3","","null","<p class=block-text>Trial 51 out of 60</p>","null","spm_show_trial_num","","","","","","","","","","","","","","","","","","","","","","","","",""
"","","","","","image-button-response","283","999972","0.0-3.0-4.0-1.26","610ec37ea0648de28b37fb83","C3","batch3","","15218","img/question_5_3.jpeg","2","spm_respsonse","0","8","mat_51","","","","","","0","15218","","","","","","","","","","","","","","",""
"","","","","","html-keyboard-response","284","1001028","0.0-3.0-4.0-0.27","610ec37ea0648de28b37fb83","C3","batch3","","null","<p class=block-text>Trial 52 out of 60</p>","null","spm_show_trial_num","","","","","","","","","","","","","","","","","","","","","","","","",""
"","","","","","image-button-response","285","1009295","0.0-3.0-4.0-1.27","610ec37ea0648de28b37fb83","C3","batch3","","8265.100000023842","img/question_5_4.jpeg","5","spm_respsonse","0","2","mat_52","","","","","","0","8265.100000023842","","","","","","","","","","","","","","",""
"","","","","","html-keyboard-response","286","1010368","0.0-3.0-4.0-0.28","610ec37ea0648de28b37fb83","C3","batch3","","null","<p class=block-text>Trial 53 out of 60</p>","null","spm_show_trial_num","","","","","","","","","","","","","","","","","","","","","","","","",""
"","","","","","image-button-response","287","1017374","0.0-3.0-4.0-1.28","610ec37ea0648de28b37fb83","C3","batch3","","7003.099999904633","img/question_5_5.jpeg","6","spm_respsonse","0","1","mat_53","","","","","","0","7003.099999904633","","","","","","","","","","","","","","",""
"","","","","","html-keyboard-response","288","1018432","0.0-3.0-4.0-0.29","610ec37ea0648de28b37fb83","C3","batch3","","null","<p class=block-text>Trial 54 out of 60</p>","null","spm_show_trial_num","","","","","","","","","","","","","","","","","","","","","","","","",""
"","","","","","image-button-response","289","1029326","0.0-3.0-4.0-1.29","610ec37ea0648de28b37fb83","C3","batch3","","10891.400000095367","img/question_5_6.jpeg","1","spm_respsonse","0","5","mat_54","","","","","","0","10891.400000095367","","","","","","","","","","","","","","",""
"","","","","","html-keyboard-response","290","1030393","0.0-3.0-4.0-0.30","610ec37ea0648de28b37fb83","C3","batch3","","null","<p class=block-text>Trial 55 out of 60</p>","null","spm_show_trial_num","","","","","","","","","","","","","","","","","","","","","","","","",""
"","","","","","image-button-response","291","1075184","0.0-3.0-4.0-1.30","610ec37ea0648de28b37fb83","C3","batch3","","44788.89999997616","img/question_5_7.jpeg","6","spm_respsonse","0","1","mat_55","","","","","","0","44788.89999997616","","","","","","","","","","","","","","",""
"","","","","","html-keyboard-response","292","1076243","0.0-3.0-4.0-0.31","610ec37ea0648de28b37fb83","C3","batch3","","null","<p class=block-text>Trial 56 out of 60</p>","null","spm_show_trial_num","","","","","","","","","","","","","","","","","","","","","","","","",""
"","","","","","image-button-response","293","1088278","0.0-3.0-4.0-1.31","610ec37ea0648de28b37fb83","C3","batch3","","12033","img/question_5_8.jpeg","6","spm_respsonse","0","6","mat_56","","","","","","0","12033","","","","","","","","","","","","","","",""
"","","","","","html-keyboard-response","294","1089341","0.0-3.0-4.0-0.32","610ec37ea0648de28b37fb83","C3","batch3","","null","<p class=block-text>Trial 57 out of 60</p>","null","spm_show_trial_num","","","","","","","","","","","","","","","","","","","","","","","","",""
"","","","","","image-button-response","295","1098535","0.0-3.0-4.0-1.32","610ec37ea0648de28b37fb83","C3","batch3","","9191.399999976158","img/question_5_9.jpeg","1","spm_respsonse","0","3","mat_57","","","","","","0","9191.399999976158","","","","","","","","","","","","","","",""
"","","","","","html-keyboard-response","296","1099602","0.0-3.0-4.0-0.33","610ec37ea0648de28b37fb83","C3","batch3","","null","<p class=block-text>Trial 58 out of 60</p>","null","spm_show_trial_num","","","","","","","","","","","","","","","","","","","","","","","","",""
"","","","","","image-button-response","297","1111243","0.0-3.0-4.0-1.33","610ec37ea0648de28b37fb83","C3","batch3","","11638.5","img/question_5_10.jpeg","6","spm_respsonse","0","2","mat_58","","","","","","0","11638.5","","","","","","","","","","","","","","",""
"","","","","","html-keyboard-response","298","1112299","0.0-3.0-4.0-0.34","610ec37ea0648de28b37fb83","C3","batch3","","null","<p class=block-text>Trial 59 out of 60</p>","null","spm_show_trial_num","","","","","","","","","","","","","","","","","","","","","","","","",""
"","","","","","image-button-response","299","1133976","0.0-3.0-4.0-1.34","610ec37ea0648de28b37fb83","C3","batch3","","21675.100000023842","img/question_5_11.jpeg","4","spm_respsonse","0","4","mat_59","","","","","","0","21675.100000023842","","","","","","","","","","","","","","",""
"","","","","","html-keyboard-response","300","1135041","0.0-3.0-4.0-0.35","610ec37ea0648de28b37fb83","C3","batch3","","null","<p class=block-text>Trial 60 out of 60</p>","null","spm_show_trial_num","","","","","","","","","","","","","","","","","","","","","","","","",""
"","","","","","image-button-response","301","1142152","0.0-3.0-4.0-1.35","610ec37ea0648de28b37fb83","C3","batch3","","7108.699999928474","img/question_5_12.jpeg","1","spm_respsonse","0","5","mat_60","","","","","","0","7108.699999928474","","","","","","","","","","","","","","",""
"","","","","","html-button-response","302","1143985","0.0-3.0-5.0","610ec37ea0648de28b37fb83","C3","batch3","","1574.8000000715256","<p class= block-text>This concludes the Standard Progressive Matrix game. Thank you for your responses!<br> When you are ready, click the button continue</p>","0","spm_goodbye","","","","","","","","","","","","","","","","","","","","","","","","",""
"true","","","","","fullscreen","303","1147696","0.0-4.0-0.0","610ec37ea0648de28b37fb83","C3","batch3","","","","","","","","","","","","","","","","","","","","","","","","","","","","","",""
"","","","","","instructions","304","1313716","0.0-4.0-1.0-0.0-0.0","610ec37ea0648de28b37fb83","C3","batch3","[{""page_index"":0,""viewing_time"":16363.900000095367},{""page_index"":1,""viewing_time"":9612.5},{""page_index"":2,""viewing_time"":13966.799999952316},{""page_index"":3,""viewing_time"":20653.600000023842},{""page_index"":4,""viewing_time"":13162.5},{""page_index"":5,""viewing_time"":45495.89999997616},{""page_index"":6,""viewing_time"":46762.200000047684}]","166017.80000007153","","","tol-instructions","","","","","","","","","","","","","","","","","","","","","","","","",""
"","","","","","html-button-response","305","1316175","0.0-4.0-1.0-1.0-0.0","610ec37ea0648de28b37fb83","C3","batch3","","2458.4000000953674","<p class=block-text> Let's answer a few questions <br>","0","tol_enter_quiz","","","","","","","","","","","","","","","","","","","","","","","","",""
"","","","","","html-button-response","306","1322899","0.0-4.0-1.0-1.0-1.0","610ec37ea0648de28b37fb83","C3","batch3","","6722.5","<p class = block-text>True or False: You can only move the ball on top of a peg. <br></p>","0","tol_quiz","true","","","","","","","","","","","","","","","","","","","","","","","",""
"","","","","","html-button-response","307","1325453","0.0-4.0-1.0-1.0-2.0","610ec37ea0648de28b37fb83","C3","batch3","","2552","<p class = block-text>Correct! You can only move the ball on top of a peg.</p>","0","tol_quiz_feedback","","","","","","","","","","","","","","","","","","","","","","","","",""
"","","","","","html-button-response","308","1330524","0.0-4.0-1.0-1.0-3.0","610ec37ea0648de28b37fb83","C3","batch3","","5070.300000071526","<p class = block-text>True or False: You should try to match your board with the target board with fewest moves possible. <br></p>","0","tol_quiz","true","","","","","","","","","","","","","","","","","","","","","","","",""
"","","","","","html-button-response","309","1334158","0.0-4.0-1.0-1.0-4.0","610ec37ea0648de28b37fb83","C3","batch3","","3633.3000000715256","<p class = block-text>Correct! </p>","0","tol_quiz_feedback","","","","","","","","","","","","","","","","","","","","","","","","",""
"","","","","","html-button-response","310","1340159","0.0-4.0-2.0","610ec37ea0648de28b37fb83","C3","batch3","","5999.700000047684","<p class=block-text> Now that you've understood the game, let's practice a few easier examples before we start!<br> <br>","0","","","","","","","","","","","","","","","","","","","","","","","","","",""
"","","","","","single-stim-button","311","1343214","0.0-4.0-3.0-0.0","610ec37ea0648de28b37fb83","C3","batch3","","3053","","","tol_practice","","","","","","","","","","","tol_peg_2","3053","3053","0","[[1,2,0],[0,0],[0]]","1","[[1,2,0],[0,0],[3]]","practice","3053","","","","","",""
"","","","","","single-stim-button","312","1345206","0.0-4.0-3.0-1.0","610ec37ea0648de28b37fb83","C3","batch3","","1991","","","tol_practice","","","","","","","","","","","tol_peg_3","1991","1991","0","[[1,2,0],[0,0],[3]]","1","[[1,2,0],[0,0],[3]]","practice","1991","","","","","",""
"","","","","","poldrack-single-stim","313","1346213","0.0-4.0-4.0","610ec37ea0648de28b37fb83","C3","batch3","","-1","","","tol_feedback","true","","","","","","","","","","","1000","1000","500","","","","","","-1","none","true","","0",""
"","","","","","single-stim-button","314","1349761","0.0-4.0-5.0-0.0","610ec37ea0648de28b37fb83","C3","batch3","","3547","","","tol_practice","","","","","","","","","","","tol_peg_1","3547","3547","0","[[1,0,0],[3,0],[0]]","2","[[0,0,0],[3,1],[2]]","practice","3547","","","","","",""
"","","","","","single-stim-button","315","1351577","0.0-4.0-5.0-1.0","610ec37ea0648de28b37fb83","C3","batch3","","1814","","","tol_practice","","","","","","","","","","","tol_peg_3","1814","1814","0","[[1,0,0],[3,0],[2]]","2","[[0,0,0],[3,1],[2]]","practice","1814","","","","","",""
"","","","","","single-stim-button","316","1352691","0.0-4.0-5.1-0.1","610ec37ea0648de28b37fb83","C3","batch3","","1113","","","tol_practice","","","","","","","","","","","tol_peg_1","1113","1113","0","[[0,0,0],[3,0],[2]]","3","[[0,0,0],[3,1],[2]]","practice","1113","","","","","",""
"","","","","","single-stim-button","317","1353703","0.0-4.0-5.1-1.1","610ec37ea0648de28b37fb83","C3","batch3","","1012","","","tol_practice","","","","","","","","","","","tol_peg_2","1012","1012","0","[[0,0,0],[3,1],[2]]","3","[[0,0,0],[3,1],[2]]","practice","1012","","","","","",""
"","","","","","poldrack-single-stim","318","1354709","0.0-4.0-6.0","610ec37ea0648de28b37fb83","C3","batch3","","-1","","","tol_feedback","true","","","","","","","","","","","1000","1000","500","","","","","","-1","none","true","","0",""
"","","","","","single-stim-button","319","1360507","0.0-4.0-7.0-0.0","610ec37ea0648de28b37fb83","C3","batch3","","5797","","","tol_practice","","","","","","","","","","","tol_peg_2","5797","5797","0","[[1,2,0],[0,0],[0]]","4","[[1,0,0],[2,0],[3]]","practice","5797","","","","","",""
"","","","","","single-stim-button","320","1361821","0.0-4.0-7.0-1.0","610ec37ea0648de28b37fb83","C3","batch3","","1312","","","tol_practice","","","","","","","","","","","tol_peg_3","1312","1312","0","[[1,2,0],[0,0],[3]]","4","[[1,0,0],[2,0],[3]]","practice","1312","","","","","",""
"","","","","","single-stim-button","321","1363073","0.0-4.0-7.1-0.1","610ec37ea0648de28b37fb83","C3","batch3","","1251","","","tol_practice","","","","","","","","","","","tol_peg_1","1251","1251","0","[[1,0,0],[0,0],[3]]","5","[[1,0,0],[2,0],[3]]","practice","1251","","","","","",""
"","","","","","single-stim-button","322","1364334","0.0-4.0-7.1-1.1","610ec37ea0648de28b37fb83","C3","batch3","","1261","","","tol_practice","","","","","","","","","","","tol_peg_2","1261","1261","0","[[1,0,0],[2,0],[3]]","5","[[1,0,0],[2,0],[3]]","practice","1261","","","","","",""
"","","","","","poldrack-single-stim","323","1365337","0.0-4.0-8.0","610ec37ea0648de28b37fb83","C3","batch3","","-1","","","tol_feedback","true","","","","","","","","","","","1000","1000","500","","","","","","-1","none","true","","0",""
"","","","","","html-button-response","324","1371936","0.0-4.0-9.0","610ec37ea0648de28b37fb83","C3","batch3","","6599.200000047684","<div class = centerbox><p class = center-block-text>Great job! You are done with practice trials<br>You are about to start official trials.<br> <br> Problem <strong>1</strong> out of 25 problems</p></div>","0","tol_instruction","","","","","","","","","","","","","","","","","","","","","","","","",""
"","","","","","single-stim-button","325","1376769","0.0-4.0-10.0-0.0","610ec37ea0648de28b37fb83","C3","batch3","","3824","","","tol_tohand","","","","","","","","","","","tol_peg_1","3824","3824","0","[[1,0,0],[3,0],[0]]","1","[[1,3,0],[2,0],[0]]","0","0","","","","","","3"
"","","","","","single-stim-button","326","1380108","0.0-4.0-10.0-1.0","610ec37ea0648de28b37fb83","C3","batch3","","3337","","","tol_toboard","","","","","","","","","","","tol_peg_3","3337","3337","0","[[1,0,0],[3,0],[2]]","1","[[1,3,0],[2,0],[0]]","0","0","","","","","","3"
"","","","","","single-stim-button","327","1381143","0.0-4.0-10.1-0.1","610ec37ea0648de28b37fb83","C3","batch3","","1033","","","tol_tohand","","","","","","","","","","","tol_peg_2","1033","1033","0","[[1,0,0],[0,0],[2]]","2","[[1,3,0],[2,0],[0]]","0","0","","","","","","3"
"","","","","","single-stim-button","328","1382451","0.0-4.0-10.1-1.1","610ec37ea0648de28b37fb83","C3","batch3","","1308","","","tol_toboard","","","","","","","","","","","tol_peg_1","1308","1308","0","[[1,3,0],[0,0],[2]]","2","[[1,3,0],[2,0],[0]]","0","0","","","","","","3"
"","","","","","single-stim-button","329","1383579","0.0-4.0-10.2-0.2","610ec37ea0648de28b37fb83","C3","batch3","","1126","","","tol_tohand","","","","","","","","","","","tol_peg_3","1126","1126","0","[[1,3,0],[0,0],[0]]","3","[[1,3,0],[2,0],[0]]","0","0","","","","","","3"
"","","","","","single-stim-button","330","1384537","0.0-4.0-10.2-1.2","610ec37ea0648de28b37fb83","C3","batch3","","957","","","tol_toboard","","","","","","","","","","","tol_peg_2","957","957","0","[[1,3,0],[2,0],[0]]","3","[[1,3,0],[2,0],[0]]","0","0","","","","","","3"
"","","","","","poldrack-single-stim","331","1385539","0.0-4.0-11.0","610ec37ea0648de28b37fb83","C3","batch3","","-1","","","tol_feedback","true","","","","","","","","","","","1000","1000","500","","","","","","-1","none","true","3824","5983",""
"","","","","","html-button-response","332","1387018","0.0-4.0-12.0","610ec37ea0648de28b37fb83","C3","batch3","","1477.5999999046326","<div class = centerbox><p class = center-block-text>problem <strong>2</strong> out of 25 problems</p></div>","0","tol_trial_num","","","","","","","","","","","","","","","","","","","","","","","","",""
"","","","","","single-stim-button","333","1394961","0.0-4.0-13.0-0.0","610ec37ea0648de28b37fb83","C3","batch3","","7942","","","tol_tohand","","","","","","","","","","","tol_peg_1","7942","7942","0","[[1,0,0],[3,0],[0]]","1","[[2,1,3],[0,0],[0]]","1","0","","","","","","5"
"","","","","","single-stim-button","334","1396740","0.0-4.0-13.0-1.0","610ec37ea0648de28b37fb83","C3","batch3","","1777","","","tol_toboard","","","","","","","","","","","tol_peg_3","1777","1777","0","[[1,0,0],[3,0],[2]]","1","[[2,1,3],[0,0],[0]]","1","0","","","","","","5"
"","","","","","single-stim-button","335","1397668","0.0-4.0-13.1-0.1","610ec37ea0648de28b37fb83","C3","batch3","","927","","","tol_tohand","","","","","","","","","","","tol_peg_1","927","927","0","[[0,0,0],[3,0],[2]]","2","[[2,1,3],[0,0],[0]]","1","0","","","","","","5"
"","","","","","single-stim-button","336","1403096","0.0-4.0-13.1-1.1","610ec37ea0648de28b37fb83","C3","batch3","","5427","","","tol_toboard","","","","","","","","","","","tol_peg_1","5427","5427","0","[[1,0,0],[3,0],[2]]","2","[[2,1,3],[0,0],[0]]","1","0","","","","","","5"
"","","","","","single-stim-button","337","1404348","0.0-4.0-13.2-0.2","610ec37ea0648de28b37fb83","C3","batch3","","1252","","","tol_tohand","","","","","","","","","","","tol_peg_2","1252","1252","0","[[1,0,0],[0,0],[2]]","3","[[2,1,3],[0,0],[0]]","1","0","","","","","","5"
"","","","","","single-stim-button","338","1405314","0.0-4.0-13.2-1.2","610ec37ea0648de28b37fb83","C3","batch3","","964","","","tol_toboard","","","","","","","","","","","tol_peg_1","964","964","0","[[1,3,0],[0,0],[2]]","3","[[2,1,3],[0,0],[0]]","1","0","","","","","","5"
"","","","","","single-stim-button","339","1411447","0.0-4.0-13.3-0.3","610ec37ea0648de28b37fb83","C3","batch3","","6132","","","tol_tohand","","","","","","","","","","","tol_peg_1","6132","6132","0","[[1,0,0],[0,0],[2]]","4","[[2,1,3],[0,0],[0]]","1","0","","","","","","5"
"","","","","","single-stim-button","340","1412180","0.0-4.0-13.3-1.3","610ec37ea0648de28b37fb83","C3","batch3","","733","","","tol_toboard","","","","","","","","","","","tol_peg_1","733","733","0","[[1,3,0],[0,0],[2]]","4","[[2,1,3],[0,0],[0]]","1","0","","","","","","5"
"","","","","","single-stim-button","341","1416502","0.0-4.0-13.4-0.4","610ec37ea0648de28b37fb83","C3","batch3","","4321","","","tol_tohand","","","","","","","","","","","tol_peg_1","4321","4321","0","[[1,0,0],[0,0],[2]]","5","[[2,1,3],[0,0],[0]]","1","0","","","","","","5"
"","","","","","single-stim-button","342","1418227","0.0-4.0-13.4-1.4","610ec37ea0648de28b37fb83","C3","batch3","","1724","","","tol_toboard","","","","","","","","","","","tol_peg_2","1724","1724","0","[[1,0,0],[3,0],[2]]","5","[[2,1,3],[0,0],[0]]","1","0","","","","","","5"
"","","","","","single-stim-button","343","1419171","0.0-4.0-13.5-0.5","610ec37ea0648de28b37fb83","C3","batch3","","942","","","tol_tohand","","","","","","","","","","","tol_peg_1","942","942","0","[[0,0,0],[3,0],[2]]","6","[[2,1,3],[0,0],[0]]","1","0","","","","","","5"
"","","","","","single-stim-button","344","1420252","0.0-4.0-13.5-1.5","610ec37ea0648de28b37fb83","C3","batch3","","1081","","","tol_toboard","","","","","","","","","","","tol_peg_2","1081","1081","0","[[0,0,0],[3,1],[2]]","6","[[2,1,3],[0,0],[0]]","1","0","","","","","","5"
"","","","","","single-stim-button","345","1421165","0.0-4.0-13.6-0.6","610ec37ea0648de28b37fb83","C3","batch3","","911","","","tol_tohand","","","","","","","","","","","tol_peg_3","911","911","0","[[0,0,0],[3,1],[0]]","7","[[2,1,3],[0,0],[0]]","1","0","","","","","","5"
"","","","","","single-stim-button","346","1422996","0.0-4.0-13.6-1.6","610ec37ea0648de28b37fb83","C3","batch3","","1831","","","tol_toboard","","","","","","","","","","","tol_peg_1","1831","1831","0","[[2,0,0],[3,1],[0]]","7","[[2,1,3],[0,0],[0]]","1","0","","","","","","5"
"","","","","","single-stim-button","347","1424072","0.0-4.0-13.7-0.7","610ec37ea0648de28b37fb83","C3","batch3","","1074","","","tol_tohand","","","","","","","","","","","tol_peg_2","1074","1074","0","[[2,0,0],[3,0],[0]]","8","[[2,1,3],[0,0],[0]]","1","0","","","","","","5"
"","","","","","single-stim-button","348","1425278","0.0-4.0-13.7-1.7","610ec37ea0648de28b37fb83","C3","batch3","","1206","","","tol_toboard","","","","","","","","","","","tol_peg_1","1206","1206","0","[[2,1,0],[3,0],[0]]","8","[[2,1,3],[0,0],[0]]","1","0","","","","","","5"
