"success","timeout","failed_images","failed_audio","failed_video","trial_type","trial_index","time_elapsed","internal_node_id","subject_id","study_id","session_id","view_history","rt","stimulus","response","task","correct","answer","item","fiar_detect_rt","fiar_detect_correct","total_correct_fiar_detect","post_trial_gap","choices","spm_correct","spm_rt","mouse_click","stim_duration","block_duration","timing_post_trial","current_position","tol_num_moves_made","tol_target","tol_problem_id","tol_rt","key_press","possible_responses","tol_correct","preplanning","tol_rt_per_trial","tol_min_moves"
"true","false","[]","[]","[]","preload","0","2826","0.0-0.0","610e6880f784d836a872a9a5","E1","batch5","","","","","","","","","","","","","","","","","","","","","","","","","","","","","",""
"true","","","","","fullscreen","1","16475","0.0-1.0-0.0","610e6880f784d836a872a9a5","E1","batch5","","","","","","","","","","","","","","","","","","","","","","","","","","","","","",""
"true","","","","","fullscreen","2","21179","0.0-2.0-0.0","610e6880f784d836a872a9a5","E1","batch5","","","","","","","","","","","","","","","","","","","","","","","","","","","","","",""
"","","","","","instructions","3","37750","0.0-2.0-1.0-0.0","610e6880f784d836a872a9a5","E1","batch5","[{""page_index"":0,""viewing_time"":9004.79999999702},{""page_index"":1,""viewing_time"":7561.300000011921}]","16567.5","","","","","","","","","","","","","","","","","","","","","","","","","","","",""
"","","","","","html-button-response","4","39856","0.0-2.0-1.0-1.0-0.0","610e6880f784d836a872a9a5","E1","batch5","","2095.9000000059605","<p class=block-text> Let's answer a few questions <br>","0","pattern_enter_quiz","","","","","","","","","","","","","","","","","","","","","","","","",""
"","","","","","html-button-response","5","44814","0.0-2.0-1.0-1.0-1.0","610e6880f784d836a872a9a5","E1","batch5","","4951.4000000059605","<p class = block-text>True or False: You will have as much time as you want to make each choice. <br></p>","1","pattern_quiz","true","","","","","","","","","","","","","","","","","","","","","","","",""
"","","","","","html-button-response","6","47040","0.0-2.0-1.0-1.0-2.0","610e6880f784d836a872a9a5","E1","batch5","","2220.9000000059605","<p class = block-text>Correct! You should make your choice <strong> as fast as you can</strong>.</p>","0","pattern_quiz_feedback","","","","","","","","","","","","","","","","","","","","","","","","",""
"","","","","","html-button-response","7","50440","0.0-2.0-1.0-1.0-3.0","610e6880f784d836a872a9a5","E1","batch5","","3394.8999999910593","<p class = block-text>True or False: You will look for 4 pieces in black or white color connected in a row either horizontally, vertically or diagonally. <br></p>","0","pattern_quiz","true","","","","","","","","","","","","","","","","","","","","","","","",""
"","","","","","html-button-response","8","51366","0.0-2.0-1.0-1.0-4.0","610e6880f784d836a872a9a5","E1","batch5","","921.4000000059605","<p class = block-text>Correct! </p>","0","pattern_quiz_feedback","","","","","","","","","","","","","","","","","","","","","","","","",""
"","","","","","html-button-response","9","52770","0.0-2.0-2.0","610e6880f784d836a872a9a5","E1","batch5","","1397.1000000089407","<p class=block-text> Now that you've understood the game, let's do a few practice trials before we start!<br> <br>","0","pattern_enter_practice","","","","","","","","","","","","","","","","","","","","","","","","",""
"","","","","","image-keyboard-response","10","55310","0.0-2.0-3.0-0.0","610e6880f784d836a872a9a5","E1","batch5","","2504.7999999970198","stim/prac_yes_16_ver_w1.png","f","pattern_practice","true","f","","","","","","","","","","","","","","","","","","","","","","",""
"","","","","","html-keyboard-response","11","56315","0.0-2.0-3.0-1.0","610e6880f784d836a872a9a5","E1","batch5","","null","<p style=""font-size:30px;color:green;"">Correct!</p>","null","pattern_feedback","","","","","","","","","","","","","","","","","","","","","","","","",""
"","","","","","image-keyboard-response","12","58413","0.0-2.0-3.0-0.1","610e6880f784d836a872a9a5","E1","batch5","","2092.9000000059605","stim/prac_no_16_1.png","j","pattern_practice","true","j","","","","","","","","","","","","","","","","","","","","","","",""
"","","","","","html-keyboard-response","13","59419","0.0-2.0-3.0-1.1","610e6880f784d836a872a9a5","E1","batch5","","null","<p style=""font-size:30px;color:green;"">Correct!</p>","null","pattern_feedback","","","","","","","","","","","","","","","","","","","","","","","","",""
"","","","","","image-keyboard-response","14","60749","0.0-2.0-3.0-0.2","610e6880f784d836a872a9a5","E1","batch5","","1324.5999999940395","stim/prac_yes_20_dia_b1.png","j","pattern_practice","false","f","","","","","","","","","","","","","","","","","","","","","","",""
"","","","","","html-keyboard-response","15","61755","0.0-2.0-3.0-1.2","610e6880f784d836a872a9a5","E1","batch5","","null","<p style=""font-size:30px;color:red;"">Wrong.</p>","null","pattern_feedback","","","","","","","","","","","","","","","","","","","","","","","","",""
"","","","","","image-keyboard-response","16","62988","0.0-2.0-3.0-0.3","610e6880f784d836a872a9a5","E1","batch5","","1227.7000000029802","stim/prac_yes_18_hor_w1.png","f","pattern_practice","true","f","","","","","","","","","","","","","","","","","","","","","","",""
"","","","","","html-keyboard-response","17","63995","0.0-2.0-3.0-1.3","610e6880f784d836a872a9a5","E1","batch5","","null","<p style=""font-size:30px;color:green;"">Correct!</p>","null","pattern_feedback","","","","","","","","","","","","","","","","","","","","","","","","",""
"","","","","","image-keyboard-response","18","65291","0.0-2.0-3.0-0.4","610e6880f784d836a872a9a5","E1","batch5","","1287.2000000029802","stim/prac_no_18_1.png","f","pattern_practice","false","j","","","","","","","","","","","","","","","","","","","","","","",""
"","","","","","html-keyboard-response","19","66299","0.0-2.0-3.0-1.4","610e6880f784d836a872a9a5","E1","batch5","","null","<p style=""font-size:30px;color:red;"">Wrong.</p>","null","pattern_feedback","","","","","","","","","","","","","","","","","","","","","","","","",""
"","","","","","html-button-response","20","73158","0.0-2.0-4.0","610e6880f784d836a872a9a5","E1","batch5","","6855.29999999702","<p class=block-text> Good job! You are done with practice trials!<br>
        You responded correctly on 60% of the trials.<br>
        Press the button below to start official trials. Now you won't see any feedback about your response</p>","0","pattern_enter_official_trials","","","","","","","","","","","","","","","","","","","","","","","","",""
"","","","","","html-keyboard-response","21","73963","0.0-2.0-5.0-0.0","610e6880f784d836a872a9a5","E1","batch5","","null","<p class=block-text>Trial 1 out of 78</p>","null","pattern_show_trial_num","","","","","","","","","","","","","","","","","","","","","","","","",""
"","","","","","image-keyboard-response","22","75419","0.0-2.0-5.0-1.0","610e6880f784d836a872a9a5","E1","batch5","","1448.4000000059605","stim/yes_29_hor_b1_b.png","j","pattern_response","false","f","pattern_52","1448.4000000059605","false","0","","","","","","","","","","","","","","","","","","",""
"","","","","","html-keyboard-response","23","76731","0.0-2.0-5.0-0.1","610e6880f784d836a872a9a5","E1","batch5","","null","<p class=block-text>Trial 2 out of 78</p>","null","pattern_show_trial_num","","","","","","","","","","","","","","","","","","","","","","","","",""
"","","","","","image-keyboard-response","24","78235","0.0-2.0-5.0-1.1","610e6880f784d836a872a9a5","E1","batch5","","1499","stim/yes_12_hor_w1_w.png","f","pattern_response","true","f","pattern_42","1499","true","1","","","","","","","","","","","","","","","","","","",""
"","","","","","html-keyboard-response","25","79547","0.0-2.0-5.0-0.2","610e6880f784d836a872a9a5","E1","batch5","","null","<p class=block-text>Trial 3 out of 78</p>","null","pattern_show_trial_num","","","","","","","","","","","","","","","","","","","","","","","","",""
"","","","","","image-keyboard-response","26","81931","0.0-2.0-5.0-1.2","610e6880f784d836a872a9a5","E1","batch5","","2379.9000000059605","stim/no_51_1.png","j","pattern_response","true","j","pattern_31","2379.9000000059605","true","2","","","","","","","","","","","","","","","","","","",""
"","","","","","html-keyboard-response","27","83243","0.0-2.0-5.0-0.3","610e6880f784d836a872a9a5","E1","batch5","","null","<p class=block-text>Trial 4 out of 78</p>","null","pattern_show_trial_num","","","","","","","","","","","","","","","","","","","","","","","","",""
"","","","","","image-keyboard-response","28","84765","0.0-2.0-5.0-1.3","610e6880f784d836a872a9a5","E1","batch5","","1515.9000000059605","stim/yes_46_ver_b1_b.png","f","pattern_response","true","f","pattern_68","1515.9000000059605","true","3","","","","","","","","","","","","","","","","","","",""
"","","","","","html-keyboard-response","29","86075","0.0-2.0-5.0-0.4","610e6880f784d836a872a9a5","E1","batch5","","null","<p class=block-text>Trial 5 out of 78</p>","null","pattern_show_trial_num","","","","","","","","","","","","","","","","","","","","","","","","",""
"","","","","","image-keyboard-response","30","87051","0.0-2.0-5.0-1.4","610e6880f784d836a872a9a5","E1","batch5","","971","stim/yes_33_dia_w1_w.png","j","pattern_response","false","f","pattern_56","971","false","3","","","","","","","","","","","","","","","","","","",""
"","","","","","html-keyboard-response","31","88363","0.0-2.0-5.0-0.5","610e6880f784d836a872a9a5","E1","batch5","","null","<p class=block-text>Trial 6 out of 78</p>","null","pattern_show_trial_num","","","","","","","","","","","","","","","","","","","","","","","","",""
"","","","","","image-keyboard-response","32","91404","0.0-2.0-5.0-1.5","610e6880f784d836a872a9a5","E1","batch5","","3035.7999999970198","stim/yes_58_dia_w1_w.png","j","pattern_response","false","f","pattern_76","3035.7999999970198","false","3","","","","","","","","","","","","","","","","","","",""
"","","","","","html-keyboard-response","33","92715","0.0-2.0-5.0-0.6","610e6880f784d836a872a9a5","E1","batch5","","null","<p class=block-text>Trial 7 out of 78</p>","null","pattern_show_trial_num","","","","","","","","","","","","","","","","","","","","","","","","",""
"","","","","","image-keyboard-response","34","94475","0.0-2.0-5.0-1.6","610e6880f784d836a872a9a5","E1","batch5","","1753.5","stim/yes_37_hor_w1_w.png","f","pattern_response","true","f","pattern_60","1753.5","true","4","","","","","","","","","","","","","","","","","","",""
"","","","","","html-keyboard-response","35","95787","0.0-2.0-5.0-0.7","610e6880f784d836a872a9a5","E1","batch5","","null","<p class=block-text>Trial 8 out of 78</p>","null","pattern_show_trial_num","","","","","","","","","","","","","","","","","","","","","","","","",""
"","","","","","image-keyboard-response","36","99085","0.0-2.0-5.0-1.7","610e6880f784d836a872a9a5","E1","batch5","","3292.0999999940395","stim/yes_70_ver_b1.png","j","pattern_response","false","f","pattern_80","3292.0999999940395","false","4","","","","","","","","","","","","","","","","","","",""
"","","","","","html-keyboard-response","37","100395","0.0-2.0-5.0-0.8","610e6880f784d836a872a9a5","E1","batch5","","null","<p class=block-text>Trial 9 out of 78</p>","null","pattern_show_trial_num","","","","","","","","","","","","","","","","","","","","","","","","",""
"","","","","","image-keyboard-response","38","103435","0.0-2.0-5.0-1.8","610e6880f784d836a872a9a5","E1","batch5","","3032.7000000029802","stim/yes_49_hor_w1_b.png","j","pattern_response","false","f","pattern_70","3032.7000000029802","false","4","","","","","","","","","","","","","","","","","","",""
"","","","","","html-keyboard-response","39","104747","0.0-2.0-5.0-0.9","610e6880f784d836a872a9a5","E1","batch5","","null","<p class=block-text>Trial 10 out of 78</p>","null","pattern_show_trial_num","","","","","","","","","","","","","","","","","","","","","","","","",""
"","","","","","image-keyboard-response","40","106764","0.0-2.0-5.0-1.9","610e6880f784d836a872a9a5","E1","batch5","","2010.7000000029802","stim/no_43_2_b.png","j","pattern_response","true","j","pattern_23","2010.7000000029802","true","5","","","","","","","","","","","","","","","","","","",""
"","","","","","html-keyboard-response","41","108075","0.0-2.0-5.0-0.10","610e6880f784d836a872a9a5","E1","batch5","","null","<p class=block-text>Trial 11 out of 78</p>","null","pattern_show_trial_num","","","","","","","","","","","","","","","","","","","","","","","","",""
"","","","","","image-keyboard-response","42","109581","0.0-2.0-5.0-1.10","610e6880f784d836a872a9a5","E1","batch5","","1501.4000000059605","stim/yes_17_ver_b1_b.png","f","pattern_response","true","f","pattern_46","1501.4000000059605","true","6","","","","","","","","","","","","","","","","","","",""
"","","","","","html-keyboard-response","43","110891","0.0-2.0-5.0-0.11","610e6880f784d836a872a9a5","E1","batch5","","null","<p class=block-text>Trial 12 out of 78</p>","null","pattern_show_trial_num","","","","","","","","","","","","","","","","","","","","","","","","",""
"","","","","","image-keyboard-response","44","112651","0.0-2.0-5.0-1.11","610e6880f784d836a872a9a5","E1","batch5","","1752.699999988079","stim/no_25_1_b.png","f","pattern_response","false","j","pattern_09","1752.699999988079","false","6","","","","","","","","","","","","","","","","","","",""
"","","","","","html-keyboard-response","45","113964","0.0-2.0-5.0-0.12","610e6880f784d836a872a9a5","E1","batch5","","null","<p class=block-text>Trial 13 out of 78</p>","null","pattern_show_trial_num","","","","","","","","","","","","","","","","","","","","","","","","",""
"","","","","","image-keyboard-response","46","115211","0.0-2.0-5.0-1.12","610e6880f784d836a872a9a5","E1","batch5","","1242.800000011921","stim/no_12_1.png","f","pattern_response","false","j","pattern_01","1242.800000011921","false","6","","","","","","","","","","","","","","","","","","",""
"","","","","","html-keyboard-response","47","116523","0.0-2.0-5.0-0.13","610e6880f784d836a872a9a5","E1","batch5","","null","<p class=block-text>Trial 14 out of 78</p>","null","pattern_show_trial_num","","","","","","","","","","","","","","","","","","","","","","","","",""
"","","","","","image-keyboard-response","48","119052","0.0-2.0-5.0-1.13","610e6880f784d836a872a9a5","E1","batch5","","2524.1000000089407","stim/yes_42_dia_w1_w.png","f","pattern_response","true","f","pattern_64","2524.1000000089407","true","7","","","","","","","","","","","","","","","","","","",""
"","","","","","html-keyboard-response","49","120363","0.0-2.0-5.0-0.14","610e6880f784d836a872a9a5","E1","batch5","","null","<p class=block-text>Trial 15 out of 78</p>","null","pattern_show_trial_num","","","","","","","","","","","","","","","","","","","","","","","","",""
"","","","","","image-keyboard-response","50","124430","0.0-2.0-5.0-1.14","610e6880f784d836a872a9a5","E1","batch5","","4060.4000000059605","stim/no_58_1_w.png","j","pattern_response","true","j","pattern_35","4060.4000000059605","true","8","","","","","","","","","","","","","","","","","","",""
"","","","","","html-keyboard-response","51","125739","0.0-2.0-5.0-0.15","610e6880f784d836a872a9a5","E1","batch5","","null","<p class=block-text>Trial 16 out of 78</p>","null","pattern_show_trial_num","","","","","","","","","","","","","","","","","","","","","","","","",""
"","","","","","image-keyboard-response","52","127500","0.0-2.0-5.0-1.15","610e6880f784d836a872a9a5","E1","batch5","","1754.7000000029802","stim/yes_53_ver_b1_b.png","f","pattern_response","true","f","pattern_74","1754.7000000029802","true","9","","","","","","","","","","","","","","","","","","",""
"","","","","","html-keyboard-response","53","128811","0.0-2.0-5.0-0.16","610e6880f784d836a872a9a5","E1","batch5","","null","<p class=block-text>Trial 17 out of 78</p>","null","pattern_show_trial_num","","","","","","","","","","","","","","","","","","","","","","","","",""
"","","","","","image-keyboard-response","54","130059","0.0-2.0-5.0-1.16","610e6880f784d836a872a9a5","E1","batch5","","1242.199999988079","stim/yes_30_ver_b1_b.png","f","pattern_response","true","f","pattern_54","1242.199999988079","true","10","","","","","","","","","","","","","","","","","","",""
"","","","","","html-keyboard-response","55","131371","0.0-2.0-5.0-0.17","610e6880f784d836a872a9a5","E1","batch5","","null","<p class=block-text>Trial 18 out of 78</p>","null","pattern_show_trial_num","","","","","","","","","","","","","","","","","","","","","","","","",""
"","","","","","image-keyboard-response","56","134156","0.0-2.0-5.0-1.17","610e6880f784d836a872a9a5","E1","batch5","","2767","stim/yes_51_dia_b1.png","j","pattern_response","false","f","pattern_72","2767","false","10","","","","","","","","","","","","","","","","","","",""
"","","","","","html-keyboard-response","57","135467","0.0-2.0-5.0-0.18","610e6880f784d836a872a9a5","E1","batch5","","null","<p class=block-text>Trial 19 out of 78</p>","null","pattern_show_trial_num","","","","","","","","","","","","","","","","","","","","","","","","",""
"","","","","","image-keyboard-response","58","137742","0.0-2.0-5.0-1.18","610e6880f784d836a872a9a5","E1","batch5","","2268.6000000089407","stim/no_39_1_w.png","j","pattern_response","true","j","pattern_21","2268.6000000089407","true","11","","","","","","","","","","","","","","","","","","",""
"","","","","","html-keyboard-response","59","139052","0.0-2.0-5.0-0.19","610e6880f784d836a872a9a5","E1","batch5","","null","<p class=block-text>Trial 20 out of 78</p>","null","pattern_show_trial_num","","","","","","","","","","","","","","","","","","","","","","","","",""
"","","","","","image-keyboard-response","60","140811","0.0-2.0-5.0-1.19","610e6880f784d836a872a9a5","E1","batch5","","1754.5","stim/no_15_1_w.png","j","pattern_response","true","j","pattern_03","1754.5","true","12","","","","","","","","","","","","","","","","","","",""
"","","","","","html-keyboard-response","61","142123","0.0-2.0-5.0-0.20","610e6880f784d836a872a9a5","E1","batch5","","null","<p class=block-text>Trial 21 out of 78</p>","null","pattern_show_trial_num","","","","","","","","","","","","","","","","","","","","","","","","",""
"","","","","","image-keyboard-response","62","145420","0.0-2.0-5.0-1.20","610e6880f784d836a872a9a5","E1","batch5","","3292.199999988079","stim/no_36_1_b.png","j","pattern_response","true","j","pattern_17","3292.199999988079","true","13","","","","","","","","","","","","","","","","","","",""
"","","","","","html-keyboard-response","63","146731","0.0-2.0-5.0-0.21","610e6880f784d836a872a9a5","E1","batch5","","null","<p class=block-text>Trial 22 out of 78</p>","null","pattern_show_trial_num","","","","","","","","","","","","","","","","","","","","","","","","",""
"","","","","","image-keyboard-response","64","148540","0.0-2.0-5.0-1.21","610e6880f784d836a872a9a5","E1","batch5","","1803.5","stim/yes_26_dia_w2_w.png","j","pattern_response","false","f","pattern_50","1803.5","false","13","","","","","","","","","","","","","","","","","","",""
"","","","","","html-keyboard-response","65","149851","0.0-2.0-5.0-0.22","610e6880f784d836a872a9a5","E1","batch5","","null","<p class=block-text>Trial 23 out of 78</p>","null","pattern_show_trial_num","","","","","","","","","","","","","","","","","","","","","","","","",""
"","","","","","image-keyboard-response","66","152669","0.0-2.0-5.0-1.22","610e6880f784d836a872a9a5","E1","batch5","","2811.9000000059605","stim/yes_44_ver_w1_w.png","f","pattern_response","true","f","pattern_66","2811.9000000059605","true","14","","","","","","","","","","","","","","","","","","",""
"","","","","","html-keyboard-response","67","153979","0.0-2.0-5.0-0.23","610e6880f784d836a872a9a5","E1","batch5","","null","<p class=block-text>Trial 24 out of 78</p>","null","pattern_show_trial_num","","","","","","","","","","","","","","","","","","","","","","","","",""
"","","","","","image-keyboard-response","68","154812","0.0-2.0-5.0-1.23","610e6880f784d836a872a9a5","E1","batch5","","826.7000000029802","stim/no_18_1_b.png","j","pattern_response","true","j","pattern_05","826.7000000029802","true","15","","","","","","","","","","","","","","","","","","",""
"","","","","","html-keyboard-response","69","156123","0.0-2.0-5.0-0.24","610e6880f784d836a872a9a5","E1","batch5","","null","<p class=block-text>Trial 25 out of 78</p>","null","pattern_show_trial_num","","","","","","","","","","","","","","","","","","","","","","","","",""
"","","","","","image-keyboard-response","70","158365","0.0-2.0-5.0-1.24","610e6880f784d836a872a9a5","E1","batch5","","2236.7999999970198","stim/no_33_1_b.png","j","pattern_response","true","j","pattern_15","2236.7999999970198","true","16","","","","","","","","","","","","","","","","","","",""
"","","","","","html-keyboard-response","71","159675","0.0-2.0-5.0-0.25","610e6880f784d836a872a9a5","E1","batch5","","null","<p class=block-text>Trial 26 out of 78</p>","null","pattern_show_trial_num","","","","","","","","","","","","","","","","","","","","","","","","",""
"","","","","","image-keyboard-response","72","161909","0.0-2.0-5.0-1.25","610e6880f784d836a872a9a5","E1","batch5","","2227.3999999910593","stim/no_49_2_b.png","j","pattern_response","true","j","pattern_29","2227.3999999910593","true","17","","","","","","","","","","","","","","","","","","",""
"","","","","","html-keyboard-response","73","163219","0.0-2.0-5.0-0.26","610e6880f784d836a872a9a5","E1","batch5","","null","<p class=block-text>Trial 27 out of 78</p>","null","pattern_show_trial_num","","","","","","","","","","","","","","","","","","","","","","","","",""
"","","","","","image-keyboard-response","74","164158","0.0-2.0-5.0-1.26","610e6880f784d836a872a9a5","E1","batch5","","932.5999999940395","stim/no_47_1_b.png","j","pattern_response","true","j","pattern_27","932.5999999940395","true","18","","","","","","","","","","","","","","","","","","",""
"","","","","","html-keyboard-response","75","165467","0.0-2.0-5.0-0.27","610e6880f784d836a872a9a5","E1","batch5","","null","<p class=block-text>Trial 28 out of 78</p>","null","pattern_show_trial_num","","","","","","","","","","","","","","","","","","","","","","","","",""
"","","","","","image-keyboard-response","76","166909","0.0-2.0-5.0-1.27","610e6880f784d836a872a9a5","E1","batch5","","1437.2000000029802","stim/yes_23_ver_b1.png","f","pattern_response","true","f","pattern_48","1437.2000000029802","true","19","","","","","","","","","","","","","","","","","","",""
"","","","","","html-keyboard-response","77","168227","0.0-2.0-5.0-0.28","610e6880f784d836a872a9a5","E1","batch5","","null","<p class=block-text>Trial 29 out of 78</p>","null","pattern_show_trial_num","","","","","","","","","","","","","","","","","","","","","","","","",""
"","","","","","image-keyboard-response","78","169710","0.0-2.0-5.0-1.28","610e6880f784d836a872a9a5","E1","batch5","","1477.2999999970198","stim/yes_15_dia_b1u_b.png","j","pattern_response","false","f","pattern_44","1477.2999999970198","false","19","","","","","","","","","","","","","","","","","","",""
"","","","","","html-keyboard-response","79","171019","0.0-2.0-5.0-0.29","610e6880f784d836a872a9a5","E1","batch5","","null","<p class=block-text>Trial 30 out of 78</p>","null","pattern_show_trial_num","","","","","","","","","","","","","","","","","","","","","","","","",""
"","","","","","image-keyboard-response","80","177042","0.0-2.0-5.0-1.29","610e6880f784d836a872a9a5","E1","batch5","","6016.600000008941","stim/yes_63_dia_b1.png","j","pattern_response","false","f","pattern_78","6016.600000008941","false","19","","","","","","","","","","","","","","","","","","",""
"","","","","","html-keyboard-response","81","178355","0.0-2.0-5.0-0.30","610e6880f784d836a872a9a5","E1","batch5","","null","<p class=block-text>Trial 31 out of 78</p>","null","pattern_show_trial_num","","","","","","","","","","","","","","","","","","","","","","","","",""
"","","","","","image-keyboard-response","82","180637","0.0-2.0-5.0-1.30","610e6880f784d836a872a9a5","E1","batch5","","2275.2999999970198","stim/no_30_1_b.png","j","pattern_response","true","j","pattern_13","2275.2999999970198","true","20","","","","","","","","","","","","","","","","","","",""
"","","","","","html-keyboard-response","83","181947","0.0-2.0-5.0-0.31","610e6880f784d836a872a9a5","E1","batch5","","null","<p class=block-text>Trial 32 out of 78</p>","null","pattern_show_trial_num","","","","","","","","","","","","","","","","","","","","","","","","",""
"","","","","","image-keyboard-response","84","184572","0.0-2.0-5.0-1.31","610e6880f784d836a872a9a5","E1","batch5","","2618.6000000089407","stim/no_37_2_w.png","j","pattern_response","true","j","pattern_19","2618.6000000089407","true","21","","","","","","","","","","","","","","","","","","",""
"","","","","","html-keyboard-response","85","185883","0.0-2.0-5.0-0.32","610e6880f784d836a872a9a5","E1","batch5","","null","<p class=block-text>Trial 33 out of 78</p>","null","pattern_show_trial_num","","","","","","","","","","","","","","","","","","","","","","","","",""
"","","","","","image-keyboard-response","86","187781","0.0-2.0-5.0-1.32","610e6880f784d836a872a9a5","E1","batch5","","1891.4000000059605","stim/no_28_2.png","j","pattern_response","true","j","pattern_11","1891.4000000059605","true","22","","","","","","","","","","","","","","","","","","",""
"","","","","","html-keyboard-response","87","189091","0.0-2.0-5.0-0.33","610e6880f784d836a872a9a5","E1","batch5","","null","<p class=block-text>Trial 34 out of 78</p>","null","pattern_show_trial_num","","","","","","","","","","","","","","","","","","","","","","","","",""
"","","","","","image-keyboard-response","88","194317","0.0-2.0-5.0-1.33","610e6880f784d836a872a9a5","E1","batch5","","5219","stim/no_67_1.png","j","pattern_response","true","j","pattern_39","5219","true","23","","","","","","","","","","","","","","","","","","",""
"","","","","","html-keyboard-response","89","195627","0.0-2.0-5.0-0.34","610e6880f784d836a872a9a5","E1","batch5","","null","<p class=block-text>Trial 35 out of 78</p>","null","pattern_show_trial_num","","","","","","","","","","","","","","","","","","","","","","","","",""
"","","","","","image-keyboard-response","90","199139","0.0-2.0-5.0-1.34","610e6880f784d836a872a9a5","E1","batch5","","3505.7000000029802","stim/no_53_1_b.png","j","pattern_response","true","j","pattern_33","3505.7000000029802","true","24","","","","","","","","","","","","","","","","","","",""
"","","","","","html-keyboard-response","91","200451","0.0-2.0-5.0-0.35","610e6880f784d836a872a9a5","E1","batch5","","null","<p class=block-text>Trial 36 out of 78</p>","null","pattern_show_trial_num","","","","","","","","","","","","","","","","","","","","","","","","",""
"","","","","","image-keyboard-response","92","201533","0.0-2.0-5.0-1.35","610e6880f784d836a872a9a5","E1","batch5","","1075.5","stim/yes_36_ver_w1_w.png","f","pattern_response","true","f","pattern_58","1075.5","true","25","","","","","","","","","","","","","","","","","","",""
"","","","","","html-keyboard-response","93","202843","0.0-2.0-5.0-0.36","610e6880f784d836a872a9a5","E1","batch5","","null","<p class=block-text>Trial 37 out of 78</p>","null","pattern_show_trial_num","","","","","","","","","","","","","","","","","","","","","","","","",""
"","","","","","image-keyboard-response","94","203660","0.0-2.0-5.0-1.36","610e6880f784d836a872a9a5","E1","batch5","","811.6999999880791","stim/yes_39_hor_w1_w.png","f","pattern_response","true","f","pattern_62","811.6999999880791","true","26","","","","","","","","","","","","","","","","","","",""
"","","","","","html-keyboard-response","95","204971","0.0-2.0-5.0-0.37","610e6880f784d836a872a9a5","E1","batch5","","null","<p class=block-text>Trial 38 out of 78</p>","null","pattern_show_trial_num","","","","","","","","","","","","","","","","","","","","","","","","",""
"","","","","","image-keyboard-response","96","208652","0.0-2.0-5.0-1.37","610e6880f784d836a872a9a5","E1","batch5","","3676.0999999940395","stim/no_45_1_w.png","j","pattern_response","true","j","pattern_25","3676.0999999940395","true","27","","","","","","","","","","","","","","","","","","",""
"","","","","","html-keyboard-response","97","209963","0.0-2.0-5.0-0.38","610e6880f784d836a872a9a5","E1","batch5","","null","<p class=block-text>Trial 39 out of 78</p>","null","pattern_show_trial_num","","","","","","","","","","","","","","","","","","","","","","","","",""
"","","","","","image-keyboard-response","98","211617","0.0-2.0-5.0-1.38","610e6880f784d836a872a9a5","E1","batch5","","1647.5","stim/no_22_1_b.png","j","pattern_response","true","j","pattern_07","1647.5","true","28","","","","","","","","","","","","","","","","","","",""
"","","","","","image-keyboard-response","99","213933","0.0-2.0-6.0","610e6880f784d836a872a9a5","E1","batch5","","1805.7999999970198","stim/empty_board.png","j","attention_check","true","j","","","","","500","[""f"",""j""]","","","","","","","","","","","","","","","","",""
"","","","","","html-keyboard-response","100","214739","0.0-2.0-7.0-0.0","610e6880f784d836a872a9a5","E1","batch5","","null","<p class=block-text>Trial 40 out of 78</p>","null","pattern_show_trial_num","","","","","","","","","","","","","","","","","","","","","","","","",""
"","","","","","image-keyboard-response","101","217372","0.0-2.0-7.0-1.0","610e6880f784d836a872a9a5","E1","batch5","","2627","stim/no_36_2_w.png","j","pattern_response","true","j","pattern_18","2627","true","29","","","","","","","","","","","","","","","","","","",""
"","","","","","html-keyboard-response","102","218683","0.0-2.0-7.0-0.1","610e6880f784d836a872a9a5","E1","batch5","","null","<p class=block-text>Trial 41 out of 78</p>","null","pattern_show_trial_num","","","","","","","","","","","","","","","","","","","","","","","","",""
"","","","","","image-keyboard-response","103","219597","0.0-2.0-7.0-1.1","610e6880f784d836a872a9a5","E1","batch5","","908","stim/yes_25_hor_b1_b.png","f","pattern_response","true","f","pattern_49","908","true","30","","","","","","","","","","","","","","","","","","",""
"","","","","","html-keyboard-response","104","220908","0.0-2.0-7.0-0.2","610e6880f784d836a872a9a5","E1","batch5","","null","<p class=block-text>Trial 42 out of 78</p>","null","pattern_show_trial_num","","","","","","","","","","","","","","","","","","","","","","","","",""
"","","","","","image-keyboard-response","105","222241","0.0-2.0-7.0-1.2","610e6880f784d836a872a9a5","E1","batch5","","1328.0999999940395","stim/no_23_1.png","j","pattern_response","true","j","pattern_08","1328.0999999940395","true","31","","","","","","","","","","","","","","","","","","",""
"","","","","","html-keyboard-response","106","223555","0.0-2.0-7.0-0.3","610e6880f784d836a872a9a5","E1","batch5","","null","<p class=block-text>Trial 43 out of 78</p>","null","pattern_show_trial_num","","","","","","","","","","","","","","","","","","","","","","","","",""
"","","","","","image-keyboard-response","107","228332","0.0-2.0-7.0-1.3","610e6880f784d836a872a9a5","E1","batch5","","4770.9000000059605","stim/no_55_1_w.png","f","pattern_response","false","j","pattern_34","4770.9000000059605","false","31","","","","","","","","","","","","","","","","","","",""
"","","","","","html-keyboard-response","108","229643","0.0-2.0-7.0-0.4","610e6880f784d836a872a9a5","E1","batch5","","null","<p class=block-text>Trial 44 out of 78</p>","null","pattern_show_trial_num","","","","","","","","","","","","","","","","","","","","","","","","",""
"","","","","","image-keyboard-response","109","232203","0.0-2.0-7.0-1.4","610e6880f784d836a872a9a5","E1","batch5","","2553.6000000089407","stim/yes_45_hor_b2_b.png","f","pattern_response","true","f","pattern_67","2553.6000000089407","true","32","","","","","","","","","","","","","","","","","","",""
"","","","","","html-keyboard-response","110","233515","0.0-2.0-7.0-0.5","610e6880f784d836a872a9a5","E1","batch5","","null","<p class=block-text>Trial 45 out of 78</p>","null","pattern_show_trial_num","","","","","","","","","","","","","","","","","","","","","","","","",""
"","","","","","image-keyboard-response","111","234765","0.0-2.0-7.0-1.5","610e6880f784d836a872a9a5","E1","batch5","","1244.4000000059605","stim/no_26_1_w.png","j","pattern_response","true","j","pattern_10","1244.4000000059605","true","33","","","","","","","","","","","","","","","","","","",""
"","","","","","html-keyboard-response","112","236075","0.0-2.0-7.0-0.6","610e6880f784d836a872a9a5","E1","batch5","","null","<p class=block-text>Trial 46 out of 78</p>","null","pattern_show_trial_num","","","","","","","","","","","","","","","","","","","","","","","","",""
"","","","","","image-keyboard-response","113","238604","0.0-2.0-7.0-1.6","610e6880f784d836a872a9a5","E1","batch5","","2524.2999999970198","stim/yes_14_hor_b1_w.png","f","pattern_response","true","f","pattern_43","2524.2999999970198","true","34","","","","","","","","","","","","","","","","","","",""
"","","","","","html-keyboard-response","114","239915","0.0-2.0-7.0-0.7","610e6880f784d836a872a9a5","E1","batch5","","null","<p class=block-text>Trial 47 out of 78</p>","null","pattern_show_trial_num","","","","","","","","","","","","","","","","","","","","","","","","",""
"","","","","","image-keyboard-response","115","241419","0.0-2.0-7.0-1.7","610e6880f784d836a872a9a5","E1","batch5","","1497.2999999970198","stim/no_29_1_b.png","j","pattern_response","true","j","pattern_12","1497.2999999970198","true","35","","","","","","","","","","","","","","","","","","",""
"","","","","","html-keyboard-response","116","242731","0.0-2.0-7.0-0.8","610e6880f784d836a872a9a5","E1","batch5","","null","<p class=block-text>Trial 48 out of 78</p>","null","pattern_show_trial_num","","","","","","","","","","","","","","","","","","","","","","","","",""
"","","","","","image-keyboard-response","117","247821","0.0-2.0-7.0-1.8","610e6880f784d836a872a9a5","E1","batch5","","5085.5","stim/no_62_1_w.png","j","pattern_response","true","j","pattern_36","5085.5","true","36","","","","","","","","","","","","","","","","","","",""
"","","","","","html-keyboard-response","118","249133","0.0-2.0-7.0-0.9","610e6880f784d836a872a9a5","E1","batch5","","null","<p class=block-text>Trial 49 out of 78</p>","null","pattern_show_trial_num","","","","","","","","","","","","","","","","","","","","","","","","",""
"","","","","","image-keyboard-response","119","251147","0.0-2.0-7.0-1.9","610e6880f784d836a872a9a5","E1","batch5","","2006.2999999970198","stim/yes_37_dia_w1.png","j","pattern_response","false","f","pattern_59","2006.2999999970198","false","36","","","","","","","","","","","","","","","","","","",""
"","","","","","html-keyboard-response","120","252459","0.0-2.0-7.0-0.10","610e6880f784d836a872a9a5","E1","batch5","","null","<p class=block-text>Trial 50 out of 78</p>","null","pattern_show_trial_num","","","","","","","","","","","","","","","","","","","","","","","","",""
"","","","","","image-keyboard-response","121","256011","0.0-2.0-7.0-1.10","610e6880f784d836a872a9a5","E1","batch5","","3546","stim/no_38_1_b.png","j","pattern_response","true","j","pattern_20","3546","true","37","","","","","","","","","","","","","","","","","","",""
"","","","","","html-keyboard-response","122","257323","0.0-2.0-7.0-0.11","610e6880f784d836a872a9a5","E1","batch5","","null","<p class=block-text>Trial 51 out of 78</p>","null","pattern_show_trial_num","","","","","","","","","","","","","","","","","","","","","","","","",""
"","","","","","image-keyboard-response","123","262157","0.0-2.0-7.0-1.11","610e6880f784d836a872a9a5","E1","batch5","","4827.70000000298","stim/yes_50_dia_w1.png","j","pattern_response","false","f","pattern_71","4827.70000000298","false","37","","","","","","","","","","","","","","","","","","",""
"","","","","","html-keyboard-response","124","263467","0.0-2.0-7.0-0.12","610e6880f784d836a872a9a5","E1","batch5","","null","<p class=block-text>Trial 52 out of 78</p>","null","pattern_show_trial_num","","","","","","","","","","","","","","","","","","","","","","","","",""
"","","","","","image-keyboard-response","125","267275","0.0-2.0-7.0-1.12","610e6880f784d836a872a9a5","E1","batch5","","3802.300000011921","stim/no_50_1.png","j","pattern_response","true","j","pattern_30","3802.300000011921","true","38","","","","","","","","","","","","","","","","","","",""
"","","","","","html-keyboard-response","126","268587","0.0-2.0-7.0-0.13","610e6880f784d836a872a9a5","E1","batch5","","null","<p class=block-text>Trial 53 out of 78</p>","null","pattern_show_trial_num","","","","","","","","","","","","","","","","","","","","","","","","",""
"","","","","","image-keyboard-response","127","273092","0.0-2.0-7.0-1.13","610e6880f784d836a872a9a5","E1","batch5","","4498.9000000059605","stim/yes_40_dia_b1_b.png","j","pattern_response","false","f","pattern_63","4498.9000000059605","false","38","","","","","","","","","","","","","","","","","","",""
"","","","","","html-keyboard-response","128","274403","0.0-2.0-7.0-0.14","610e6880f784d836a872a9a5","E1","batch5","","null","<p class=block-text>Trial 54 out of 78</p>","null","pattern_show_trial_num","","","","","","","","","","","","","","","","","","","","","","","","",""
"","","","","","image-keyboard-response","129","282493","0.0-2.0-7.0-1.14","610e6880f784d836a872a9a5","E1","batch5","","8083.20000000298","stim/no_70_2.png","j","pattern_response","true","j","pattern_40","8083.20000000298","true","39","","","","","","","","","","","","","","","","","","",""
"","","","","","html-keyboard-response","130","283803","0.0-2.0-7.0-0.15","610e6880f784d836a872a9a5","E1","batch5","","null","<p class=block-text>Trial 55 out of 78</p>","null","pattern_show_trial_num","","","","","","","","","","","","","","","","","","","","","","","","",""
"","","","","","image-keyboard-response","131","286642","0.0-2.0-7.0-1.15","610e6880f784d836a872a9a5","E1","batch5","","2832.7999999970198","stim/no_44_1.png","j","pattern_response","true","j","pattern_24","2832.7999999970198","true","40","","","","","","","","","","","","","","","","","","",""
"","","","","","html-keyboard-response","132","287955","0.0-2.0-7.0-0.16","610e6880f784d836a872a9a5","E1","batch5","","null","<p class=block-text>Trial 56 out of 78</p>","null","pattern_show_trial_num","","","","","","","","","","","","","","","","","","","","","","","","",""
"","","","","","image-keyboard-response","133","289117","0.0-2.0-7.0-1.16","610e6880f784d836a872a9a5","E1","batch5","","1154.7999999970198","stim/yes_22_ver_w1.png","f","pattern_response","true","f","pattern_47","1154.7999999970198","true","41","","","","","","","","","","","","","","","","","","",""
"","","","","","html-keyboard-response","134","290427","0.0-2.0-7.0-0.17","610e6880f784d836a872a9a5","E1","batch5","","null","<p class=block-text>Trial 57 out of 78</p>","null","pattern_show_trial_num","","","","","","","","","","","","","","","","","","","","","","","","",""
"","","","","","image-keyboard-response","135","292509","0.0-2.0-7.0-1.17","610e6880f784d836a872a9a5","E1","batch5","","2077.2999999970198","stim/yes_48_dia_w1_w.png","j","pattern_response","false","f","pattern_69","2077.2999999970198","false","41","","","","","","","","","","","","","","","","","","",""
"","","","","","html-keyboard-response","136","293819","0.0-2.0-7.0-0.18","610e6880f784d836a872a9a5","E1","batch5","","null","<p class=block-text>Trial 58 out of 78</p>","null","pattern_show_trial_num","","","","","","","","","","","","","","","","","","","","","","","","",""
"","","","","","image-keyboard-response","137","297510","0.0-2.0-7.0-1.18","610e6880f784d836a872a9a5","E1","batch5","","3684.7000000029802","stim/no_42_1_w.png","j","pattern_response","true","j","pattern_22","3684.7000000029802","true","42","","","","","","","","","","","","","","","","","","",""
"","","","","","html-keyboard-response","138","298819","0.0-2.0-7.0-0.19","610e6880f784d836a872a9a5","E1","batch5","","null","<p class=block-text>Trial 59 out of 78</p>","null","pattern_show_trial_num","","","","","","","","","","","","","","","","","","","","","","","","",""
"","","","","","image-keyboard-response","139","300700","0.0-2.0-7.0-1.19","610e6880f784d836a872a9a5","E1","batch5","","1874.3999999910593","stim/yes_29_ver_w1.png","f","pattern_response","true","f","pattern_53","1874.3999999910593","true","43","","","","","","","","","","","","","","","","","","",""
"","","","","","html-keyboard-response","140","302011","0.0-2.0-7.0-0.20","610e6880f784d836a872a9a5","E1","batch5","","null","<p class=block-text>Trial 60 out of 78</p>","null","pattern_show_trial_num","","","","","","","","","","","","","","","","","","","","","","","","",""
"","","","","","image-keyboard-response","141","307714","0.0-2.0-7.0-1.20","610e6880f784d836a872a9a5","E1","batch5","","5696.9000000059605","stim/no_46_1_b.png","j","pattern_response","true","j","pattern_26","5696.9000000059605","true","44","","","","","","","","","","","","","","","","","","",""
"","","","","","html-keyboard-response","142","309027","0.0-2.0-7.0-0.21","610e6880f784d836a872a9a5","E1","batch5","","null","<p class=block-text>Trial 61 out of 78</p>","null","pattern_show_trial_num","","","","","","","","","","","","","","","","","","","","","","","","",""
"","","","","","image-keyboard-response","143","313278","0.0-2.0-7.0-1.21","610e6880f784d836a872a9a5","E1","batch5","","4244.100000008941","stim/no_48_1_w.png","j","pattern_response","true","j","pattern_28","4244.100000008941","true","45","","","","","","","","","","","","","","","","","","",""
"","","","","","html-keyboard-response","144","314627","0.0-2.0-7.0-0.22","610e6880f784d836a872a9a5","E1","batch5","","null","<p class=block-text>Trial 62 out of 78</p>","null","pattern_show_trial_num","","","","","","","","","","","","","","","","","","","","","","","","",""
"","","","","","image-keyboard-response","145","316061","0.0-2.0-7.0-1.22","610e6880f784d836a872a9a5","E1","batch5","","1426.8999999910593","stim/yes_43_ver_w1_w.png","f","pattern_response","true","f","pattern_65","1426.8999999910593","true","46","","","","","","","","","","","","","","","","","","",""
"","","","","","html-keyboard-response","146","317371","0.0-2.0-7.0-0.23","610e6880f784d836a872a9a5","E1","batch5","","null","<p class=block-text>Trial 63 out of 78</p>","null","pattern_show_trial_num","","","","","","","","","","","","","","","","","","","","","","","","",""
"","","","","","image-keyboard-response","147","318497","0.0-2.0-7.0-1.23","610e6880f784d836a872a9a5","E1","batch5","","1121.2999999970198","stim/yes_17_dia_w1.png","j","pattern_response","false","f","pattern_45","1121.2999999970198","false","46","","","","","","","","","","","","","","","","","","",""
"","","","","","html-keyboard-response","148","319811","0.0-2.0-7.0-0.24","610e6880f784d836a872a9a5","E1","batch5","","null","<p class=block-text>Trial 64 out of 78</p>","null","pattern_show_trial_num","","","","","","","","","","","","","","","","","","","","","","","","",""
"","","","","","image-keyboard-response","149","326590","0.0-2.0-7.0-1.24","610e6880f784d836a872a9a5","E1","batch5","","6773.100000008941","stim/no_65_1_b.png","j","pattern_response","true","j","pattern_38","6773.100000008941","true","47","","","","","","","","","","","","","","","","","","",""
"","","","","","html-keyboard-response","150","327899","0.0-2.0-7.0-0.25","610e6880f784d836a872a9a5","E1","batch5","","null","<p class=block-text>Trial 65 out of 78</p>","null","pattern_show_trial_num","","","","","","","","","","","","","","","","","","","","","","","","",""
"","","","","","image-keyboard-response","151","329124","0.0-2.0-7.0-1.25","610e6880f784d836a872a9a5","E1","batch5","","1218.6000000089407","stim/yes_55_hor_w1_w.png","f","pattern_response","true","f","pattern_75","1218.6000000089407","true","48","","","","","","","","","","","","","","","","","","",""
"","","","","","html-keyboard-response","152","330435","0.0-2.0-7.0-0.26","610e6880f784d836a872a9a5","E1","batch5","","null","<p class=block-text>Trial 66 out of 78</p>","null","pattern_show_trial_num","","","","","","","","","","","","","","","","","","","","","","","","",""
"","","","","","image-keyboard-response","153","332076","0.0-2.0-7.0-1.26","610e6880f784d836a872a9a5","E1","batch5","","1636.3999999910593","stim/no_32_1_w.png","j","pattern_response","true","j","pattern_14","1636.3999999910593","true","49","","","","","","","","","","","","","","","","","","",""
"","","","","","html-keyboard-response","154","333387","0.0-2.0-7.0-0.27","610e6880f784d836a872a9a5","E1","batch5","","null","<p class=block-text>Trial 67 out of 78</p>","null","pattern_show_trial_num","","","","","","","","","","","","","","","","","","","","","","","","",""
"","","","","","image-keyboard-response","155","334765","0.0-2.0-7.0-1.27","610e6880f784d836a872a9a5","E1","batch5","","1373.0999999940395","stim/no_20_1_w.png","j","pattern_response","true","j","pattern_06","1373.0999999940395","true","50","","","","","","","","","","","","","","","","","","",""
"","","","","","html-keyboard-response","156","336075","0.0-2.0-7.0-0.28","610e6880f784d836a872a9a5","E1","batch5","","null","<p class=block-text>Trial 68 out of 78</p>","null","pattern_show_trial_num","","","","","","","","","","","","","","","","","","","","","","","","",""
"","","","","","image-keyboard-response","157","336908","0.0-2.0-7.0-1.28","610e6880f784d836a872a9a5","E1","batch5","","830.7000000029802","stim/yes_28_ver_b1.png","f","pattern_response","true","f","pattern_51","830.7000000029802","true","51","","","","","","","","","","","","","","","","","","",""
"","","","","","html-keyboard-response","158","338219","0.0-2.0-7.0-0.29","610e6880f784d836a872a9a5","E1","batch5","","null","<p class=block-text>Trial 69 out of 78</p>","null","pattern_show_trial_num","","","","","","","","","","","","","","","","","","","","","","","","",""
"","","","","","image-keyboard-response","159","339745","0.0-2.0-7.0-1.29","610e6880f784d836a872a9a5","E1","batch5","","1521.0999999940395","stim/no_34_1_b.png","j","pattern_response","true","j","pattern_16","1521.0999999940395","true","52","","","","","","","","","","","","","","","","","","",""
"","","","","","html-keyboard-response","160","341059","0.0-2.0-7.0-0.30","610e6880f784d836a872a9a5","E1","batch5","","null","<p class=block-text>Trial 70 out of 78</p>","null","pattern_show_trial_num","","","","","","","","","","","","","","","","","","","","","","","","",""
"","","","","","image-keyboard-response","161","342509","0.0-2.0-7.0-1.30","610e6880f784d836a872a9a5","E1","batch5","","1444.7000000029802","stim/yes_35_dia_b1.png","j","pattern_response","false","f","pattern_57","1444.7000000029802","false","52","","","","","","","","","","","","","","","","","","",""
"","","","","","html-keyboard-response","162","343819","0.0-2.0-7.0-0.31","610e6880f784d836a872a9a5","E1","batch5","","null","<p class=block-text>Trial 71 out of 78</p>","null","pattern_show_trial_num","","","","","","","","","","","","","","","","","","","","","","","","",""
"","","","","","image-keyboard-response","163","347725","0.0-2.0-7.0-1.31","610e6880f784d836a872a9a5","E1","batch5","","3900.2000000029802","stim/yes_60_ver_b1_b.png","f","pattern_response","true","f","pattern_77","3900.2000000029802","true","53","","","","","","","","","","","","","","","","","","",""
"","","","","","html-keyboard-response","164","349035","0.0-2.0-7.0-0.32","610e6880f784d836a872a9a5","E1","batch5","","null","<p class=block-text>Trial 72 out of 78</p>","null","pattern_show_trial_num","","","","","","","","","","","","","","","","","","","","","","","","",""
"","","","","","image-keyboard-response","165","350770","0.0-2.0-7.0-1.32","610e6880f784d836a872a9a5","E1","batch5","","1727.7999999970198","stim/yes_31_hor_b1.png","f","pattern_response","true","f","pattern_55","1727.7999999970198","true","54","","","","","","","","","","","","","","","","","","",""
"","","","","","html-keyboard-response","166","352083","0.0-2.0-7.0-0.33","610e6880f784d836a872a9a5","E1","batch5","","null","<p class=block-text>Trial 73 out of 78</p>","null","pattern_show_trial_num","","","","","","","","","","","","","","","","","","","","","","","","",""
"","","","","","image-keyboard-response","167","353116","0.0-2.0-7.0-1.33","610e6880f784d836a872a9a5","E1","batch5","","1027.1000000089407","stim/no_17_1_w.png","j","pattern_response","true","j","pattern_04","1027.1000000089407","true","55","","","","","","","","","","","","","","","","","","",""
"","","","","","html-keyboard-response","168","354427","0.0-2.0-7.0-0.34","610e6880f784d836a872a9a5","E1","batch5","","null","<p class=block-text>Trial 74 out of 78</p>","null","pattern_show_trial_num","","","","","","","","","","","","","","","","","","","","","","","","",""
"","","","","","image-keyboard-response","169","355805","0.0-2.0-7.0-1.34","610e6880f784d836a872a9a5","E1","batch5","","1373.1000000089407","stim/yes_52_ver_w1.png","f","pattern_response","true","f","pattern_73","1373.1000000089407","true","56","","","","","","","","","","","","","","","","","","",""
"","","","","","html-keyboard-response","170","357115","0.0-2.0-7.0-0.35","610e6880f784d836a872a9a5","E1","batch5","","null","<p class=block-text>Trial 75 out of 78</p>","null","pattern_show_trial_num","","","","","","","","","","","","","","","","","","","","","","","","",""
"","","","","","image-keyboard-response","171","358190","0.0-2.0-7.0-1.35","610e6880f784d836a872a9a5","E1","batch5","","1069.3999999910593","stim/no_13_2_b.png","j","pattern_response","true","j","pattern_02","1069.3999999910593","true","57","","","","","","","","","","","","","","","","","","",""
"","","","","","html-keyboard-response","172","359499","0.0-2.0-7.0-0.36","610e6880f784d836a872a9a5","E1","batch5","","null","<p class=block-text>Trial 76 out of 78</p>","null","pattern_show_trial_num","","","","","","","","","","","","","","","","","","","","","","","","",""
"","","","","","image-keyboard-response","173","366642","0.0-2.0-7.0-1.36","610e6880f784d836a872a9a5","E1","batch5","","7116.5","stim/yes_67_hor_b1.png","f","pattern_response","true","f","pattern_79","7116.5","true","58","","","","","","","","","","","","","","","","","","",""
"","","","","","html-keyboard-response","174","367955","0.0-2.0-7.0-0.37","610e6880f784d836a872a9a5","E1","batch5","","null","<p class=block-text>Trial 77 out of 78</p>","null","pattern_show_trial_num","","","","","","","","","","","","","","","","","","","","","","","","",""
"","","","","","image-keyboard-response","175","371357","0.0-2.0-7.0-1.37","610e6880f784d836a872a9a5","E1","batch5","","3395","stim/no_52_1.png","j","pattern_response","true","j","pattern_32","3395","true","59","","","","","","","","","","","","","","","","","","",""
"","","","","","html-keyboard-response","176","372667","0.0-2.0-7.0-0.38","610e6880f784d836a872a9a5","E1","batch5","","null","<p class=block-text>Trial 78 out of 78</p>","null","pattern_show_trial_num","","","","","","","","","","","","","","","","","","","","","","","","",""
"","","","","","image-keyboard-response","177","376380","0.0-2.0-7.0-1.38","610e6880f784d836a872a9a5","E1","batch5","","3707","stim/yes_38_hor_b1_b.png","f","pattern_response","true","f","pattern_61","3707","true","60","","","","","","","","","","","","","","","","","","",""
"","","","","","html-button-response","178","383691","0.0-2.0-8.0","610e6880f784d836a872a9a5","E1","batch5","","6799.699999988079","<p class = block-text>This concludes the 4-in-a-row detection game.Thank you for your responses!<br>
            You responded correctly on 77% of the trials.<br>
            When you are ready, press ""Continue"" button to continue </p>","0","","","","","","","","","","","","","","","","","","","","","","","","","",""
"true","","","","","fullscreen","179","499307","0.0-3.0-0.0","610e6880f784d836a872a9a5","E1","batch5","","","","","spm_fullscreen","","","","","","","","","","","","","","","","","","","","","","","","",""
"","","","","","html-button-response","180","524996","0.0-3.0-1.0","610e6880f784d836a872a9a5","E1","batch5","","25684.19999998808","<p class = block-text><b>Instructions</b> <br>This is a widely used intelligence test in research. <br>In this test, a figure with a missing piece will be presented.<br>Below the figure are alternative pieces to complete the figure, only one of which is correct.<br> Different figures might involve different principles for obtaining the missing piece<br>Your job is to select the most logical piece to complete the figure.</p>","0","","","","","","","","","","","","","","","","","","","","","","","","","",""
"","","","","","html-keyboard-response","181","525803","0.0-3.0-2.0-0.0","610e6880f784d836a872a9a5","E1","batch5","","null","<p class=block-text>Trial 1 out of 60</p>","null","spm_show_trial_num","","","","","","","","","","","","","","","","","","","","","","","","",""
"","","","","","image-button-response","182","531926","0.0-3.0-2.0-1.0","610e6880f784d836a872a9a5","E1","batch5","","6112.899999991059","img/question_1_1.jpeg","3","spm_respsonse","1","4","mat_01","","","","","","1","6112.899999991059","","","","","","","","","","","","","","",""
"","","","","","html-keyboard-response","183","532987","0.0-3.0-2.0-0.1","610e6880f784d836a872a9a5","E1","batch5","","null","<p class=block-text>Trial 2 out of 60</p>","null","spm_show_trial_num","","","","","","","","","","","","","","","","","","","","","","","","",""
"","","","","","image-button-response","184","535475","0.0-3.0-2.0-1.1","610e6880f784d836a872a9a5","E1","batch5","","2478.5","img/question_1_2.jpeg","4","spm_respsonse","1","5","mat_02","","","","","","1","2478.5","","","","","","","","","","","","","","",""
"","","","","","html-keyboard-response","185","536539","0.0-3.0-2.0-0.2","610e6880f784d836a872a9a5","E1","batch5","","null","<p class=block-text>Trial 3 out of 60</p>","null","spm_show_trial_num","","","","","","","","","","","","","","","","","","","","","","","","",""
"","","","","","image-button-response","186","539051","0.0-3.0-2.0-1.2","610e6880f784d836a872a9a5","E1","batch5","","2502.699999988079","img/question_1_3.jpeg","0","spm_respsonse","1","1","mat_03","","","","","","1","2502.699999988079","","","","","","","","","","","","","","",""
"","","","","","html-keyboard-response","187","540115","0.0-3.0-2.0-0.3","610e6880f784d836a872a9a5","E1","batch5","","null","<p class=block-text>Trial 4 out of 60</p>","null","spm_show_trial_num","","","","","","","","","","","","","","","","","","","","","","","","",""
"","","","","","image-button-response","188","543287","0.0-3.0-2.0-1.3","610e6880f784d836a872a9a5","E1","batch5","","3160.0999999940395","img/question_1_4.jpeg","1","spm_respsonse","1","2","mat_04","","","","","","1","3160.0999999940395","","","","","","","","","","","","","","",""
"","","","","","html-keyboard-response","189","544347","0.0-3.0-2.0-0.4","610e6880f784d836a872a9a5","E1","batch5","","null","<p class=block-text>Trial 5 out of 60</p>","null","spm_show_trial_num","","","","","","","","","","","","","","","","","","","","","","","","",""
"","","","","","image-button-response","190","550211","0.0-3.0-2.0-1.4","610e6880f784d836a872a9a5","E1","batch5","","5854.79999999702","img/question_1_5.jpeg","5","spm_respsonse","1","6","mat_05","","","","","","1","5854.79999999702","","","","","","","","","","","","","","",""
"","","","","","html-keyboard-response","191","551275","0.0-3.0-2.0-0.5","610e6880f784d836a872a9a5","E1","batch5","","null","<p class=block-text>Trial 6 out of 60</p>","null","spm_show_trial_num","","","","","","","","","","","","","","","","","","","","","","","","",""
"","","","","","image-button-response","192","554819","0.0-3.0-2.0-1.5","610e6880f784d836a872a9a5","E1","batch5","","3534","img/question_1_6.jpeg","2","spm_respsonse","1","3","mat_06","","","","","","1","3534","","","","","","","","","","","","","","",""
"","","","","","html-keyboard-response","193","555883","0.0-3.0-2.0-0.6","610e6880f784d836a872a9a5","E1","batch5","","null","<p class=block-text>Trial 7 out of 60</p>","null","spm_show_trial_num","","","","","","","","","","","","","","","","","","","","","","","","",""
"","","","","","image-button-response","194","561429","0.0-3.0-2.0-1.6","610e6880f784d836a872a9a5","E1","batch5","","5534.9000000059605","img/question_1_7.jpeg","5","spm_respsonse","1","6","mat_07","","","","","","1","5534.9000000059605","","","","","","","","","","","","","","",""
"","","","","","html-keyboard-response","195","562491","0.0-3.0-2.0-0.7","610e6880f784d836a872a9a5","E1","batch5","","null","<p class=block-text>Trial 8 out of 60</p>","null","spm_show_trial_num","","","","","","","","","","","","","","","","","","","","","","","","",""
"","","","","","image-button-response","196","568942","0.0-3.0-2.0-1.7","610e6880f784d836a872a9a5","E1","batch5","","6442.5","img/question_1_8.jpeg","1","spm_respsonse","1","2","mat_08","","","","","","1","6442.5","","","","","","","","","","","","","","",""
"","","","","","html-keyboard-response","197","570003","0.0-3.0-2.0-0.8","610e6880f784d836a872a9a5","E1","batch5","","null","<p class=block-text>Trial 9 out of 60</p>","null","spm_show_trial_num","","","","","","","","","","","","","","","","","","","","","","","","",""
"","","","","","image-button-response","198","575389","0.0-3.0-2.0-1.8","610e6880f784d836a872a9a5","E1","batch5","","5379.5","img/question_1_9.jpeg","0","spm_respsonse","1","1","mat_09","","","","","","1","5379.5","","","","","","","","","","","","","","",""
"","","","","","html-keyboard-response","199","576451","0.0-3.0-2.0-0.9","610e6880f784d836a872a9a5","E1","batch5","","null","<p class=block-text>Trial 10 out of 60</p>","null","spm_show_trial_num","","","","","","","","","","","","","","","","","","","","","","","","",""
"","","","","","image-button-response","200","581179","0.0-3.0-2.0-1.9","610e6880f784d836a872a9a5","E1","batch5","","4723.5","img/question_1_10.jpeg","2","spm_respsonse","1","3","mat_10","","","","","","1","4723.5","","","","","","","","","","","","","","",""
"","","","","","html-keyboard-response","201","582243","0.0-3.0-2.0-0.10","610e6880f784d836a872a9a5","E1","batch5","","null","<p class=block-text>Trial 11 out of 60</p>","null","spm_show_trial_num","","","","","","","","","","","","","","","","","","","","","","","","",""
"","","","","","image-button-response","202","588920","0.0-3.0-2.0-1.10","610e6880f784d836a872a9a5","E1","batch5","","6668.5","img/question_1_11.jpeg","3","spm_respsonse","1","4","mat_11","","","","","","1","6668.5","","","","","","","","","","","","","","",""
"","","","","","html-keyboard-response","203","589979","0.0-3.0-2.0-0.11","610e6880f784d836a872a9a5","E1","batch5","","null","<p class=block-text>Trial 12 out of 60</p>","null","spm_show_trial_num","","","","","","","","","","","","","","","","","","","","","","","","",""
"","","","","","image-button-response","204","601221","0.0-3.0-2.0-1.11","610e6880f784d836a872a9a5","E1","batch5","","11233.59999999404","img/question_1_12.jpeg","4","spm_respsonse","1","5","mat_12","","","","","","1","11233.59999999404","","","","","","","","","","","","","","",""
"","","","","","html-keyboard-response","205","602283","0.0-3.0-2.0-0.12","610e6880f784d836a872a9a5","E1","batch5","","null","<p class=block-text>Trial 13 out of 60</p>","null","spm_show_trial_num","","","","","","","","","","","","","","","","","","","","","","","","",""
"","","","","","image-button-response","206","604353","0.0-3.0-2.0-1.12","610e6880f784d836a872a9a5","E1","batch5","","2064.2999999970198","img/question_2_1.jpeg","1","spm_respsonse","1","2","mat_13","","","","","","1","2064.2999999970198","","","","","","","","","","","","","","",""
"","","","","","html-keyboard-response","207","605419","0.0-3.0-2.0-0.13","610e6880f784d836a872a9a5","E1","batch5","","null","<p class=block-text>Trial 14 out of 60</p>","null","spm_show_trial_num","","","","","","","","","","","","","","","","","","","","","","","","",""
"","","","","","image-button-response","208","610877","0.0-3.0-2.0-1.13","610e6880f784d836a872a9a5","E1","batch5","","5454.5999999940395","img/question_2_2.jpeg","5","spm_respsonse","1","6","mat_14","","","","","","1","5454.5999999940395","","","","","","","","","","","","","","",""
"","","","","","html-keyboard-response","209","611939","0.0-3.0-2.0-0.14","610e6880f784d836a872a9a5","E1","batch5","","null","<p class=block-text>Trial 15 out of 60</p>","null","spm_show_trial_num","","","","","","","","","","","","","","","","","","","","","","","","",""
"","","","","","image-button-response","210","616220","0.0-3.0-2.0-1.14","610e6880f784d836a872a9a5","E1","batch5","","4273.9000000059605","img/question_2_3.jpeg","0","spm_respsonse","1","1","mat_15","","","","","","1","4273.9000000059605","","","","","","","","","","","","","","",""
"","","","","","html-keyboard-response","211","617283","0.0-3.0-2.0-0.15","610e6880f784d836a872a9a5","E1","batch5","","null","<p class=block-text>Trial 16 out of 60</p>","null","spm_show_trial_num","","","","","","","","","","","","","","","","","","","","","","","","",""
"","","","","","image-button-response","212","621184","0.0-3.0-2.0-1.15","610e6880f784d836a872a9a5","E1","batch5","","3892.7000000029802","img/question_2_4.jpeg","1","spm_respsonse","1","2","mat_16","","","","","","1","3892.7000000029802","","","","","","","","","","","","","","",""
"","","","","","html-keyboard-response","213","622251","0.0-3.0-2.0-0.16","610e6880f784d836a872a9a5","E1","batch5","","null","<p class=block-text>Trial 17 out of 60</p>","null","spm_show_trial_num","","","","","","","","","","","","","","","","","","","","","","","","",""
"","","","","","image-button-response","214","627741","0.0-3.0-2.0-1.16","610e6880f784d836a872a9a5","E1","batch5","","5482.300000011921","img/question_2_5.jpeg","0","spm_respsonse","1","1","mat_17","","","","","","1","5482.300000011921","","","","","","","","","","","","","","",""
"","","","","","html-keyboard-response","215","628803","0.0-3.0-2.0-0.17","610e6880f784d836a872a9a5","E1","batch5","","null","<p class=block-text>Trial 18 out of 60</p>","null","spm_show_trial_num","","","","","","","","","","","","","","","","","","","","","","","","",""
"","","","","","image-button-response","216","646872","0.0-3.0-2.0-1.17","610e6880f784d836a872a9a5","E1","batch5","","18059.79999999702","img/question_2_6.jpeg","2","spm_respsonse","1","3","mat_18","","","","","","1","18059.79999999702","","","","","","","","","","","","","","",""
"","","","","","html-keyboard-response","217","647939","0.0-3.0-2.0-0.18","610e6880f784d836a872a9a5","E1","batch5","","null","<p class=block-text>Trial 19 out of 60</p>","null","spm_show_trial_num","","","","","","","","","","","","","","","","","","","","","","","","",""
"","","","","","image-button-response","218","656784","0.0-3.0-2.0-1.18","610e6880f784d836a872a9a5","E1","batch5","","8835.79999999702","img/question_2_7.jpeg","4","spm_respsonse","1","5","mat_19","","","","","","1","8835.79999999702","","","","","","","","","","","","","","",""
"","","","","","html-keyboard-response","219","657851","0.0-3.0-2.0-0.19","610e6880f784d836a872a9a5","E1","batch5","","null","<p class=block-text>Trial 20 out of 60</p>","null","spm_show_trial_num","","","","","","","","","","","","","","","","","","","","","","","","",""
"","","","","","image-button-response","220","662966","0.0-3.0-2.0-1.19","610e6880f784d836a872a9a5","E1","batch5","","5105.399999991059","img/question_2_8.jpeg","5","spm_respsonse","1","6","mat_20","","","","","","1","5105.399999991059","","","","","","","","","","","","","","",""
"","","","","","html-keyboard-response","221","664027","0.0-3.0-2.0-0.20","610e6880f784d836a872a9a5","E1","batch5","","null","<p class=block-text>Trial 21 out of 60</p>","null","spm_show_trial_num","","","","","","","","","","","","","","","","","","","","","","","","",""
"","","","","","image-button-response","222","672291","0.0-3.0-2.0-1.20","610e6880f784d836a872a9a5","E1","batch5","","8251.89999999106","img/question_2_9.jpeg","3","spm_respsonse","1","4","mat_21","","","","","","1","8251.89999999106","","","","","","","","","","","","","","",""
"","","","","","html-keyboard-response","223","673355","0.0-3.0-2.0-0.21","610e6880f784d836a872a9a5","E1","batch5","","null","<p class=block-text>Trial 22 out of 60</p>","null","spm_show_trial_num","","","","","","","","","","","","","","","","","","","","","","","","",""
"","","","","","image-button-response","224","682716","0.0-3.0-2.0-1.21","610e6880f784d836a872a9a5","E1","batch5","","9350.800000011921","img/question_2_10.jpeg","2","spm_respsonse","1","3","mat_22","","","","","","1","9350.800000011921","","","","","","","","","","","","","","",""
"","","","","","html-keyboard-response","225","683779","0.0-3.0-2.0-0.22","610e6880f784d836a872a9a5","E1","batch5","","null","<p class=block-text>Trial 23 out of 60</p>","null","spm_show_trial_num","","","","","","","","","","","","","","","","","","","","","","","","",""
"","","","","","image-button-response","226","688287","0.0-3.0-2.0-1.22","610e6880f784d836a872a9a5","E1","batch5","","4453.399999991059","img/question_2_11.jpeg","3","spm_respsonse","1","4","mat_23","","","","","","1","4453.399999991059","","","","","","","","","","","","","","",""
"","","","","","html-keyboard-response","227","689347","0.0-3.0-2.0-0.23","610e6880f784d836a872a9a5","E1","batch5","","null","<p class=block-text>Trial 24 out of 60</p>","null","spm_show_trial_num","","","","","","","","","","","","","","","","","","","","","","","","",""
"","","","","","image-button-response","228","713145","0.0-3.0-2.0-1.23","610e6880f784d836a872a9a5","E1","batch5","","23788.5","img/question_2_12.jpeg","5","spm_respsonse","0","5","mat_24","","","","","","0","23788.5","","","","","","","","","","","","","","",""
"","","","","","html-button-response","229","715093","0.0-3.0-3.0","610e6880f784d836a872a9a5","E1","batch5","","1688.5","<p class = block-text>Attention check: Please choose 1<br></p>","0","attention_check","true","","","","","","","","","","","","","","","","","","","","","","","",""
"","","","","","html-keyboard-response","230","715899","0.0-3.0-4.0-0.0","610e6880f784d836a872a9a5","E1","batch5","","null","<p class=block-text>Trial 25 out of 60</p>","null","spm_show_trial_num","","","","","","","","","","","","","","","","","","","","","","","","",""
"","","","","","image-button-response","231","721020","0.0-3.0-4.0-1.0","610e6880f784d836a872a9a5","E1","batch5","","5112","img/question_3_1.jpeg","7","spm_respsonse","1","8","mat_25","","","","","","1","5112","","","","","","","","","","","","","","",""
"","","","","","html-keyboard-response","232","722084","0.0-3.0-4.0-0.1","610e6880f784d836a872a9a5","E1","batch5","","null","<p class=block-text>Trial 26 out of 60</p>","null","spm_show_trial_num","","","","","","","","","","","","","","","","","","","","","","","","",""
"","","","","","image-button-response","233","728408","0.0-3.0-4.0-1.1","610e6880f784d836a872a9a5","E1","batch5","","6310.100000008941","img/question_3_2.jpeg","1","spm_respsonse","1","2","mat_26","","","","","","1","6310.100000008941","","","","","","","","","","","","","","",""
"","","","","","html-keyboard-response","234","729475","0.0-3.0-4.0-0.2","610e6880f784d836a872a9a5","E1","batch5","","null","<p class=block-text>Trial 27 out of 60</p>","null","spm_show_trial_num","","","","","","","","","","","","","","","","","","","","","","","","",""
"","","","","","image-button-response","235","744924","0.0-3.0-4.0-1.2","610e6880f784d836a872a9a5","E1","batch5","","15416.29999999702","img/question_3_3.jpeg","0","spm_respsonse","0","3","mat_27","","","","","","0","15416.29999999702","","","","","","","","","","","","","","",""
"","","","","","html-keyboard-response","236","745987","0.0-3.0-4.0-0.3","610e6880f784d836a872a9a5","E1","batch5","","null","<p class=block-text>Trial 28 out of 60</p>","null","spm_show_trial_num","","","","","","","","","","","","","","","","","","","","","","","","",""
"","","","","","image-button-response","237","764245","0.0-3.0-4.0-1.3","610e6880f784d836a872a9a5","E1","batch5","","18248.69999998808","img/question_3_4.jpeg","7","spm_respsonse","1","8","mat_28","","","","","","1","18248.69999998808","","","","","","","","","","","","","","",""
"","","","","","html-keyboard-response","238","765303","0.0-3.0-4.0-0.4","610e6880f784d836a872a9a5","E1","batch5","","null","<p class=block-text>Trial 29 out of 60</p>","null","spm_show_trial_num","","","","","","","","","","","","","","","","","","","","","","","","",""
"","","","","","image-button-response","239","780581","0.0-3.0-4.0-1.4","610e6880f784d836a872a9a5","E1","batch5","","15267.699999988079","img/question_3_5.jpeg","6","spm_respsonse","1","7","mat_29","","","","","","1","15267.699999988079","","","","","","","","","","","","","","",""
"","","","","","html-keyboard-response","240","781637","0.0-3.0-4.0-0.5","610e6880f784d836a872a9a5","E1","batch5","","null","<p class=block-text>Trial 30 out of 60</p>","null","spm_show_trial_num","","","","","","","","","","","","","","","","","","","","","","","","",""
"","","","","","image-button-response","241","788277","0.0-3.0-4.0-1.5","610e6880f784d836a872a9a5","E1","batch5","","6628.5999999940395","img/question_3_6.jpeg","3","spm_respsonse","1","4","mat_30","","","","","","1","6628.5999999940395","","","","","","","","","","","","","","",""
"","","","","","html-keyboard-response","242","789339","0.0-3.0-4.0-0.6","610e6880f784d836a872a9a5","E1","batch5","","null","<p class=block-text>Trial 31 out of 60</p>","null","spm_show_trial_num","","","","","","","","","","","","","","","","","","","","","","","","",""
"","","","","","image-button-response","243","805313","0.0-3.0-4.0-1.6","610e6880f784d836a872a9a5","E1","batch5","","15964.10000000894","img/question_3_7.jpeg","4","spm_respsonse","1","5","mat_31","","","","","","1","15964.10000000894","","","","","","","","","","","","","","",""
"","","","","","html-keyboard-response","244","806379","0.0-3.0-4.0-0.7","610e6880f784d836a872a9a5","E1","batch5","","null","<p class=block-text>Trial 32 out of 60</p>","null","spm_show_trial_num","","","","","","","","","","","","","","","","","","","","","","","","",""
"","","","","","image-button-response","245","815159","0.0-3.0-4.0-1.7","610e6880f784d836a872a9a5","E1","batch5","","8772.5","img/question_3_8.jpeg","0","spm_respsonse","1","1","mat_32","","","","","","1","8772.5","","","","","","","","","","","","","","",""
"","","","","","html-keyboard-response","246","816219","0.0-3.0-4.0-0.8","610e6880f784d836a872a9a5","E1","batch5","","null","<p class=block-text>Trial 33 out of 60</p>","null","spm_show_trial_num","","","","","","","","","","","","","","","","","","","","","","","","",""
"","","","","","image-button-response","247","827113","0.0-3.0-4.0-1.8","610e6880f784d836a872a9a5","E1","batch5","","10883.40000000596","img/question_3_9.jpeg","6","spm_respsonse","1","7","mat_33","","","","","","1","10883.40000000596","","","","","","","","","","","","","","",""
"","","","","","html-keyboard-response","248","828179","0.0-3.0-4.0-0.9","610e6880f784d836a872a9a5","E1","batch5","","null","<p class=block-text>Trial 34 out of 60</p>","null","spm_show_trial_num","","","","","","","","","","","","","","","","","","","","","","","","",""
"","","","","","image-button-response","249","861830","0.0-3.0-4.0-1.9","610e6880f784d836a872a9a5","E1","batch5","","33641.29999999702","img/question_3_10.jpeg","3","spm_respsonse","0","6","mat_34","","","","","","0","33641.29999999702","","","","","","","","","","","","","","",""
"","","","","","html-keyboard-response","250","862892","0.0-3.0-4.0-0.10","610e6880f784d836a872a9a5","E1","batch5","","null","<p class=block-text>Trial 35 out of 60</p>","null","spm_show_trial_num","","","","","","","","","","","","","","","","","","","","","","","","",""
"","","","","","image-button-response","251","896962","0.0-3.0-4.0-1.10","610e6880f784d836a872a9a5","E1","batch5","","34061.30000001192","img/question_3_11.jpeg","4","spm_respsonse","0","1","mat_35","","","","","","0","34061.30000001192","","","","","","","","","","","","","","",""
"","","","","","html-keyboard-response","252","898027","0.0-3.0-4.0-0.11","610e6880f784d836a872a9a5","E1","batch5","","null","<p class=block-text>Trial 36 out of 60</p>","null","spm_show_trial_num","","","","","","","","","","","","","","","","","","","","","","","","",""
"","","","","","image-button-response","253","913835","0.0-3.0-4.0-1.11","610e6880f784d836a872a9a5","E1","batch5","","15799.20000000298","img/question_3_12.jpeg","4","spm_respsonse","0","2","mat_36","","","","","","0","15799.20000000298","","","","","","","","","","","","","","",""
"","","","","","html-keyboard-response","254","914894","0.0-3.0-4.0-0.12","610e6880f784d836a872a9a5","E1","batch5","","null","<p class=block-text>Trial 37 out of 60</p>","null","spm_show_trial_num","","","","","","","","","","","","","","","","","","","","","","","","",""
"","","","","","image-button-response","255","917788","0.0-3.0-4.0-1.12","610e6880f784d836a872a9a5","E1","batch5","","2884.5","img/question_4_1.jpeg","2","spm_respsonse","1","3","mat_37","","","","","","1","2884.5","","","","","","","","","","","","","","",""
"","","","","","html-keyboard-response","256","918851","0.0-3.0-4.0-0.13","610e6880f784d836a872a9a5","E1","batch5","","null","<p class=block-text>Trial 38 out of 60</p>","null","spm_show_trial_num","","","","","","","","","","","","","","","","","","","","","","","","",""
"","","","","","image-button-response","257","926111","0.0-3.0-4.0-1.13","610e6880f784d836a872a9a5","E1","batch5","","7250.899999991059","img/question_4_2.jpeg","2","spm_respsonse","0","4","mat_38","","","","","","0","7250.899999991059","","","","","","","","","","","","","","",""
"","","","","","html-keyboard-response","258","927171","0.0-3.0-4.0-0.14","610e6880f784d836a872a9a5","E1","batch5","","null","<p class=block-text>Trial 39 out of 60</p>","null","spm_show_trial_num","","","","","","","","","","","","","","","","","","","","","","","","",""
"","","","","","image-button-response","259","953309","0.0-3.0-4.0-1.14","610e6880f784d836a872a9a5","E1","batch5","","26129","img/question_4_3.jpeg","2","spm_respsonse","1","3","mat_39","","","","","","1","26129","","","","","","","","","","","","","","",""
"","","","","","html-keyboard-response","260","954379","0.0-3.0-4.0-0.15","610e6880f784d836a872a9a5","E1","batch5","","null","<p class=block-text>Trial 40 out of 60</p>","null","spm_show_trial_num","","","","","","","","","","","","","","","","","","","","","","","","",""
"","","","","","image-button-response","261","969254","0.0-3.0-4.0-1.15","610e6880f784d836a872a9a5","E1","batch5","","14865.79999999702","img/question_4_4.jpeg","6","spm_respsonse","1","7","mat_40","","","","","","1","14865.79999999702","","","","","","","","","","","","","","",""
"","","","","","html-keyboard-response","262","970314","0.0-3.0-4.0-0.16","610e6880f784d836a872a9a5","E1","batch5","","null","<p class=block-text>Trial 41 out of 60</p>","null","spm_show_trial_num","","","","","","","","","","","","","","","","","","","","","","","","",""
"","","","","","image-button-response","263","982657","0.0-3.0-4.0-1.16","610e6880f784d836a872a9a5","E1","batch5","","12319.5","img/question_4_5.jpeg","7","spm_respsonse","1","8","mat_41","","","","","","1","12319.5","","","","","","","","","","","","","","",""
"","","","","","html-keyboard-response","264","983723","0.0-3.0-4.0-0.17","610e6880f784d836a872a9a5","E1","batch5","","null","<p class=block-text>Trial 42 out of 60</p>","null","spm_show_trial_num","","","","","","","","","","","","","","","","","","","","","","","","",""
"","","","","","image-button-response","265","995681","0.0-3.0-4.0-1.17","610e6880f784d836a872a9a5","E1","batch5","","11948.199999988079","img/question_4_6.jpeg","5","spm_respsonse","1","6","mat_42","","","","","","1","11948.199999988079","","","","","","","","","","","","","","",""
"","","","","","html-keyboard-response","266","996739","0.0-3.0-4.0-0.18","610e6880f784d836a872a9a5","E1","batch5","","null","<p class=block-text>Trial 43 out of 60</p>","null","spm_show_trial_num","","","","","","","","","","","","","","","","","","","","","","","","",""
"","","","","","image-button-response","267","1014148","0.0-3.0-4.0-1.18","610e6880f784d836a872a9a5","E1","batch5","","17400.70000000298","img/question_4_7.jpeg","0","spm_respsonse","0","5","mat_43","","","","","","0","17400.70000000298","","","","","","","","","","","","","","",""
"","","","","","html-keyboard-response","268","1015211","0.0-3.0-4.0-0.19","610e6880f784d836a872a9a5","E1","batch5","","null","<p class=block-text>Trial 44 out of 60</p>","null","spm_show_trial_num","","","","","","","","","","","","","","","","","","","","","","","","",""
"","","","","","image-button-response","269","1036625","0.0-3.0-4.0-1.19","610e6880f784d836a872a9a5","E1","batch5","","21409.70000000298","img/question_4_8.jpeg","5","spm_respsonse","0","4","mat_44","","","","","","0","21409.70000000298","","","","","","","","","","","","","","",""
"","","","","","html-keyboard-response","270","1037691","0.0-3.0-4.0-0.20","610e6880f784d836a872a9a5","E1","batch5","","null","<p class=block-text>Trial 45 out of 60</p>","null","spm_show_trial_num","","","","","","","","","","","","","","","","","","","","","","","","",""
"","","","","","image-button-response","271","1075060","0.0-3.0-4.0-1.20","610e6880f784d836a872a9a5","E1","batch5","","37361.29999999702","img/question_4_9.jpeg","0","spm_respsonse","1","1","mat_45","","","","","","1","37361.29999999702","","","","","","","","","","","","","","",""
"","","","","","html-keyboard-response","272","1076123","0.0-3.0-4.0-0.21","610e6880f784d836a872a9a5","E1","batch5","","null","<p class=block-text>Trial 46 out of 60</p>","null","spm_show_trial_num","","","","","","","","","","","","","","","","","","","","","","","","",""
"","","","","","image-button-response","273","1090248","0.0-3.0-4.0-1.21","610e6880f784d836a872a9a5","E1","batch5","","14116","img/question_4_10.jpeg","4","spm_respsonse","0","2","mat_46","","","","","","0","14116","","","","","","","","","","","","","","",""
"","","","","","html-keyboard-response","274","1091307","0.0-3.0-4.0-0.22","610e6880f784d836a872a9a5","E1","batch5","","null","<p class=block-text>Trial 47 out of 60</p>","null","spm_show_trial_num","","","","","","","","","","","","","","","","","","","","","","","","",""
"","","","","","image-button-response","275","1126193","0.0-3.0-4.0-1.22","610e6880f784d836a872a9a5","E1","batch5","","34877.20000000298","img/question_4_11.jpeg","1","spm_respsonse","0","5","mat_47","","","","","","0","34877.20000000298","","","","","","","","","","","","","","",""
"","","","","","html-keyboard-response","276","1127259","0.0-3.0-4.0-0.23","610e6880f784d836a872a9a5","E1","batch5","","null","<p class=block-text>Trial 48 out of 60</p>","null","spm_show_trial_num","","","","","","","","","","","","","","","","","","","","","","","","",""
"","","","","","image-button-response","277","1149978","0.0-3.0-4.0-1.23","610e6880f784d836a872a9a5","E1","batch5","","22708.40000000596","img/question_4_12.jpeg","3","spm_respsonse","0","6","mat_48","","","","","","0","22708.40000000596","","","","","","","","","","","","","","",""
"","","","","","html-keyboard-response","278","1151043","0.0-3.0-4.0-0.24","610e6880f784d836a872a9a5","E1","batch5","","null","<p class=block-text>Trial 49 out of 60</p>","null","spm_show_trial_num","","","","","","","","","","","","","","","","","","","","","","","","",""
"","","","","","image-button-response","279","1160822","0.0-3.0-4.0-1.24","610e6880f784d836a872a9a5","E1","batch5","","9770.10000000894","img/question_5_1.jpeg","6","spm_respsonse","1","7","mat_49","","","","","","1","9770.10000000894","","","","","","","","","","","","","","",""
"","","","","","html-keyboard-response","280","1161883","0.0-3.0-4.0-0.25","610e6880f784d836a872a9a5","E1","batch5","","null","<p class=block-text>Trial 50 out of 60</p>","null","spm_show_trial_num","","","","","","","","","","","","","","","","","","","","","","","","",""
"","","","","","image-button-response","281","1181300","0.0-3.0-4.0-1.25","610e6880f784d836a872a9a5","E1","batch5","","19408.20000000298","img/question_5_2.jpeg","5","spm_respsonse","1","6","mat_50","","","","","","1","19408.20000000298","","","","","","","","","","","","","","",""
"","","","","","html-keyboard-response","282","1182363","0.0-3.0-4.0-0.26","610e6880f784d836a872a9a5","E1","batch5","","null","<p class=block-text>Trial 51 out of 60</p>","null","spm_show_trial_num","","","","","","","","","","","","","","","","","","","","","","","","",""
"","","","","","image-button-response","283","1198083","0.0-3.0-4.0-1.26","610e6880f784d836a872a9a5","E1","batch5","","15712.39999999106","img/question_5_3.jpeg","7","spm_respsonse","1","8","mat_51","","","","","","1","15712.39999999106","","","","","","","","","","","","","","",""
"","","","","","html-keyboard-response","284","1199147","0.0-3.0-4.0-0.27","610e6880f784d836a872a9a5","E1","batch5","","null","<p class=block-text>Trial 52 out of 60</p>","null","spm_show_trial_num","","","","","","","","","","","","","","","","","","","","","","","","",""
"","","","","","image-button-response","285","1219251","0.0-3.0-4.0-1.27","610e6880f784d836a872a9a5","E1","batch5","","20094.5","img/question_5_4.jpeg","2","spm_respsonse","0","2","mat_52","","","","","","0","20094.5","","","","","","","","","","","","","","",""
"","","","","","html-keyboard-response","286","1220307","0.0-3.0-4.0-0.28","610e6880f784d836a872a9a5","E1","batch5","","null","<p class=block-text>Trial 53 out of 60</p>","null","spm_show_trial_num","","","","","","","","","","","","","","","","","","","","","","","","",""
"","","","","","image-button-response","287","1242229","0.0-3.0-4.0-1.28","610e6880f784d836a872a9a5","E1","batch5","","21913","img/question_5_5.jpeg","0","spm_respsonse","1","1","mat_53","","","","","","1","21913","","","","","","","","","","","","","","",""
"","","","","","html-keyboard-response","288","1243291","0.0-3.0-4.0-0.29","610e6880f784d836a872a9a5","E1","batch5","","null","<p class=block-text>Trial 54 out of 60</p>","null","spm_show_trial_num","","","","","","","","","","","","","","","","","","","","","","","","",""
"","","","","","image-button-response","289","1258309","0.0-3.0-4.0-1.29","610e6880f784d836a872a9a5","E1","batch5","","15008.40000000596","img/question_5_6.jpeg","4","spm_respsonse","1","5","mat_54","","","","","","1","15008.40000000596","","","","","","","","","","","","","","",""
"","","","","","html-keyboard-response","290","1259371","0.0-3.0-4.0-0.30","610e6880f784d836a872a9a5","E1","batch5","","null","<p class=block-text>Trial 55 out of 60</p>","null","spm_show_trial_num","","","","","","","","","","","","","","","","","","","","","","","","",""
"","","","","","image-button-response","291","1292400","0.0-3.0-4.0-1.30","610e6880f784d836a872a9a5","E1","batch5","","33020","img/question_5_7.jpeg","2","spm_respsonse","0","1","mat_55","","","","","","0","33020","","","","","","","","","","","","","","",""
"","","","","","html-keyboard-response","292","1293467","0.0-3.0-4.0-0.31","610e6880f784d836a872a9a5","E1","batch5","","null","<p class=block-text>Trial 56 out of 60</p>","null","spm_show_trial_num","","","","","","","","","","","","","","","","","","","","","","","","",""
"","","","","","image-button-response","293","1316118","0.0-3.0-4.0-1.31","610e6880f784d836a872a9a5","E1","batch5","","22642","img/question_5_8.jpeg","1","spm_respsonse","0","6","mat_56","","","","","","0","22642","","","","","","","","","","","","","","",""
"","","","","","html-keyboard-response","294","1317179","0.0-3.0-4.0-0.32","610e6880f784d836a872a9a5","E1","batch5","","null","<p class=block-text>Trial 57 out of 60</p>","null","spm_show_trial_num","","","","","","","","","","","","","","","","","","","","","","","","",""
"","","","","","image-button-response","295","1328620","0.0-3.0-4.0-1.32","610e6880f784d836a872a9a5","E1","batch5","","11433.09999999404","img/question_5_9.jpeg","2","spm_respsonse","1","3","mat_57","","","","","","1","11433.09999999404","","","","","","","","","","","","","","",""
"","","","","","html-keyboard-response","296","1329683","0.0-3.0-4.0-0.33","610e6880f784d836a872a9a5","E1","batch5","","null","<p class=block-text>Trial 58 out of 60</p>","null","spm_show_trial_num","","","","","","","","","","","","","","","","","","","","","","","","",""
"","","","","","image-button-response","297","1353669","0.0-3.0-4.0-1.33","610e6880f784d836a872a9a5","E1","batch5","","23976.60000000894","img/question_5_10.jpeg","6","spm_respsonse","0","2","mat_58","","","","","","0","23976.60000000894","","","","","","","","","","","","","","",""
"","","","","","html-keyboard-response","298","1354731","0.0-3.0-4.0-0.34","610e6880f784d836a872a9a5","E1","batch5","","null","<p class=block-text>Trial 59 out of 60</p>","null","spm_show_trial_num","","","","","","","","","","","","","","","","","","","","","","","","",""
"","","","","","image-button-response","299","1362290","0.0-3.0-4.0-1.34","610e6880f784d836a872a9a5","E1","batch5","","7549.899999991059","img/question_5_11.jpeg","2","spm_respsonse","0","4","mat_59","","","","","","0","7549.899999991059","","","","","","","","","","","","","","",""
"","","","","","html-keyboard-response","300","1363355","0.0-3.0-4.0-0.35","610e6880f784d836a872a9a5","E1","batch5","","null","<p class=block-text>Trial 60 out of 60</p>","null","spm_show_trial_num","","","","","","","","","","","","","","","","","","","","","","","","",""
"","","","","","image-button-response","301","1385682","0.0-3.0-4.0-1.35","610e6880f784d836a872a9a5","E1","batch5","","22316.70000000298","img/question_5_12.jpeg","2","spm_respsonse","0","5","mat_60","","","","","","0","22316.70000000298","","","","","","","","","","","","","","",""
"","","","","","html-button-response","302","1388147","0.0-3.0-5.0","610e6880f784d836a872a9a5","E1","batch5","","2205","<p class= block-text>This concludes the Standard Progressive Matrix game. Thank you for your responses!<br> When you are ready, click the button continue</p>","0","spm_goodbye","","","","","","","","","","","","","","","","","","","","","","","","",""
"true","","","","","fullscreen","303","1392675","0.0-4.0-0.0","610e6880f784d836a872a9a5","E1","batch5","","","","","","","","","","","","","","","","","","","","","","","","","","","","","",""
"","","","","","instructions","304","1435558","0.0-4.0-1.0-0.0-0.0","610e6880f784d836a872a9a5","E1","batch5","[{""page_index"":0,""viewing_time"":6457.5999999940395},{""page_index"":1,""viewing_time"":3207.7999999970198},{""page_index"":2,""viewing_time"":3949.7000000029802},{""page_index"":3,""viewing_time"":12828.29999999702},{""page_index"":4,""viewing_time"":9201.300000011921},{""page_index"":5,""viewing_time"":4840.199999988079},{""page_index"":6,""viewing_time"":2394.2000000029802}]","42880.70000000298","","","tol-instructions","","","","","","","","","","","","","","","","","","","","","","","","",""
"","","","","","html-button-response","305","1437383","0.0-4.0-1.0-1.0-0.0","610e6880f784d836a872a9a5","E1","batch5","","1820.300000011921","<p class=block-text> Let's answer a few questions <br>","0","tol_enter_quiz","","","","","","","","","","","","","","","","","","","","","","","","",""
"","","","","","html-button-response","306","1441654","0.0-4.0-1.0-1.0-1.0","610e6880f784d836a872a9a5","E1","batch5","","4267.100000008941","<p class = block-text>True or False: You can only move the ball on top of a peg. <br></p>","0","tol_quiz","true","","","","","","","","","","","","","","","","","","","","","","","",""
"","","","","","html-button-response","307","1443276","0.0-4.0-1.0-1.0-2.0","610e6880f784d836a872a9a5","E1","batch5","","1613.9000000059605","<p class = block-text>Correct! You can only move the ball on top of a peg.</p>","0","tol_quiz_feedback","","","","","","","","","","","","","","","","","","","","","","","","",""
"","","","","","html-button-response","308","1446159","0.0-4.0-1.0-1.0-3.0","610e6880f784d836a872a9a5","E1","batch5","","2879","<p class = block-text>True or False: You should try to match your board with the target board with fewest moves possible. <br></p>","0","tol_quiz","true","","","","","","","","","","","","","","","","","","","","","","","",""
"","","","","","html-button-response","309","1447052","0.0-4.0-1.0-1.0-4.0","610e6880f784d836a872a9a5","E1","batch5","","887.2000000029802","<p class = block-text>Correct! </p>","0","tol_quiz_feedback","","","","","","","","","","","","","","","","","","","","","","","","",""
"","","","","","html-button-response","310","1449986","0.0-4.0-2.0","610e6880f784d836a872a9a5","E1","batch5","","2926.2999999970198","<p class=block-text> Now that you've understood the game, let's practice a few easier examples before we start!<br> <br>","0","","","","","","","","","","","","","","","","","","","","","","","","","",""
"","","","","","single-stim-button","311","1452745","0.0-4.0-3.0-0.0","610e6880f784d836a872a9a5","E1","batch5","","2749","","","tol_practice","","","","","","","","","","","tol_peg_2","2749","2749","0","[[1,2,0],[0,0],[0]]","1","[[1,2,0],[0,0],[3]]","practice","2749","","","","","",""
"","","","","","single-stim-button","312","1455686","0.0-4.0-3.0-1.0","610e6880f784d836a872a9a5","E1","batch5","","2937","","","tol_practice","","","","","","","","","","","tol_peg_3","2937","2937","0","[[1,2,0],[0,0],[3]]","1","[[1,2,0],[0,0],[3]]","practice","2937","","","","","",""
"","","","","","poldrack-single-stim","313","1456703","0.0-4.0-4.0","610e6880f784d836a872a9a5","E1","batch5","","-1","","","tol_feedback","true","","","","","","","","","","","1000","1000","500","","","","","","-1","none","true","","0",""
"","","","","","single-stim-button","314","1461228","0.0-4.0-5.0-0.0","610e6880f784d836a872a9a5","E1","batch5","","4522","","","tol_practice","","","","","","","","","","","tol_peg_1","4522","4522","0","[[1,0,0],[3,0],[0]]","2","[[0,0,0],[3,1],[2]]","practice","4522","","","","","",""
"","","","","","single-stim-button","315","1462680","0.0-4.0-5.0-1.0","610e6880f784d836a872a9a5","E1","batch5","","1449","","","tol_practice","","","","","","","","","","","tol_peg_3","1449","1449","0","[[1,0,0],[3,0],[2]]","2","[[0,0,0],[3,1],[2]]","practice","1449","","","","","",""
"","","","","","single-stim-button","316","1464344","0.0-4.0-5.1-0.1","610e6880f784d836a872a9a5","E1","batch5","","1659","","","tol_practice","","","","","","","","","","","tol_peg_1","1659","1659","0","[[0,0,0],[3,0],[2]]","3","[[0,0,0],[3,1],[2]]","practice","1659","","","","","",""
"","","","","","single-stim-button","317","1465731","0.0-4.0-5.1-1.1","610e6880f784d836a872a9a5","E1","batch5","","1383","","","tol_practice","","","","","","","","","","","tol_peg_2","1383","1383","0","[[0,0,0],[3,1],[2]]","3","[[0,0,0],[3,1],[2]]","practice","1383","","","","","",""
"","","","","","poldrack-single-stim","318","1466740","0.0-4.0-6.0","610e6880f784d836a872a9a5","E1","batch5","","-1","","","tol_feedback","true","","","","","","","","","","","1000","1000","500","","","","","","-1","none","true","","0",""
"","","","","","single-stim-button","319","1468782","0.0-4.0-7.0-0.0","610e6880f784d836a872a9a5","E1","batch5","","2040","","","tol_practice","","","","","","","","","","","tol_peg_2","2040","2040","0","[[1,2,0],[0,0],[0]]","4","[[1,0,0],[2,0],[3]]","practice","2040","","","","","",""
"","","","","","single-stim-button","320","1470231","0.0-4.0-7.0-1.0","610e6880f784d836a872a9a5","E1","batch5","","1445","","","tol_practice","","","","","","","","","","","tol_peg_3","1445","1445","0","[[1,2,0],[0,0],[3]]","4","[[1,0,0],[2,0],[3]]","practice","1445","","","","","",""
"","","","","","single-stim-button","321","1471607","0.0-4.0-7.1-0.1","610e6880f784d836a872a9a5","E1","batch5","","1372","","","tol_practice","","","","","","","","","","","tol_peg_1","1372","1372","0","[[1,0,0],[0,0],[3]]","5","[[1,0,0],[2,0],[3]]","practice","1372","","","","","",""
"","","","","","single-stim-button","322","1472699","0.0-4.0-7.1-1.1","610e6880f784d836a872a9a5","E1","batch5","","1089","","","tol_practice","","","","","","","","","","","tol_peg_2","1089","1089","0","[[1,0,0],[2,0],[3]]","5","[[1,0,0],[2,0],[3]]","practice","1089","","","","","",""
"","","","","","poldrack-single-stim","323","1473708","0.0-4.0-8.0","610e6880f784d836a872a9a5","E1","batch5","","-1","","","tol_feedback","true","","","","","","","","","","","1000","1000","500","","","","","","-1","none","true","","0",""
"","","","","","html-button-response","324","1478748","0.0-4.0-9.0","610e6880f784d836a872a9a5","E1","batch5","","5035.79999999702","<div class = centerbox><p class = center-block-text>Great job! You are done with practice trials<br>You are about to start official trials.<br> <br> Problem <strong>1</strong> out of 25 problems</p></div>","0","tol_instruction","","","","","","","","","","","","","","","","","","","","","","","","",""
"","","","","","single-stim-button","325","1482324","0.0-4.0-10.0-0.0","610e6880f784d836a872a9a5","E1","batch5","","2564","","","tol_tohand","","","","","","","","","","","tol_peg_1","2564","2564","0","[[1,0,0],[3,0],[0]]","1","[[1,3,0],[2,0],[0]]","0","0","","","","","","3"
"","","","","","single-stim-button","326","1485083","0.0-4.0-10.0-1.0","610e6880f784d836a872a9a5","E1","batch5","","2755","","","tol_toboard","","","","","","","","","","","tol_peg_3","2755","2755","0","[[1,0,0],[3,0],[2]]","1","[[1,3,0],[2,0],[0]]","0","0","","","","","","3"
"","","","","","single-stim-button","327","1485963","0.0-4.0-10.1-0.1","610e6880f784d836a872a9a5","E1","batch5","","875","","","tol_tohand","","","","","","","","","","","tol_peg_2","875","875","0","[[1,0,0],[0,0],[2]]","2","[[1,3,0],[2,0],[0]]","0","0","","","","","","3"
"","","","","","single-stim-button","328","1487107","0.0-4.0-10.1-1.1","610e6880f784d836a872a9a5","E1","batch5","","1142","","","tol_toboard","","","","","","","","","","","tol_peg_1","1142","1142","0","[[1,3,0],[0,0],[2]]","2","[[1,3,0],[2,0],[0]]","0","0","","","","","","3"
"","","","","","single-stim-button","329","1487890","0.0-4.0-10.2-0.2","610e6880f784d836a872a9a5","E1","batch5","","779","","","tol_tohand","","","","","","","","","","","tol_peg_3","779","779","0","[[1,3,0],[0,0],[0]]","3","[[1,3,0],[2,0],[0]]","0","0","","","","","","3"
"","","","","","single-stim-button","330","1489006","0.0-4.0-10.2-1.2","610e6880f784d836a872a9a5","E1","batch5","","1112","","","tol_toboard","","","","","","","","","","","tol_peg_2","1112","1112","0","[[1,3,0],[2,0],[0]]","3","[[1,3,0],[2,0],[0]]","0","0","","","","","","3"
"","","","","","poldrack-single-stim","331","1490020","0.0-4.0-11.0","610e6880f784d836a872a9a5","E1","batch5","","-1","","","tol_feedback","true","","","","","","","","","","","1000","1000","500","","","","","","-1","none","true","2564","4218",""
"","","","","","html-button-response","332","1491067","0.0-4.0-12.0","610e6880f784d836a872a9a5","E1","batch5","","1043.1000000089407","<div class = centerbox><p class = center-block-text>problem <strong>2</strong> out of 25 problems</p></div>","0","tol_trial_num","","","","","","","","","","","","","","","","","","","","","","","","",""
"","","","","","single-stim-button","333","1494113","0.0-4.0-13.0-0.0","610e6880f784d836a872a9a5","E1","batch5","","3041","","","tol_tohand","","","","","","","","","","","tol_peg_1","3041","3041","0","[[1,0,0],[3,0],[0]]","1","[[2,1,3],[0,0],[0]]","1","0","","","","","","5"
"","","","","","single-stim-button","334","1497491","0.0-4.0-13.0-1.0","610e6880f784d836a872a9a5","E1","batch5","","3374","","","tol_toboard","","","","","","","","","","","tol_peg_1","3374","3374","0","[[1,2,0],[3,0],[0]]","1","[[2,1,3],[0,0],[0]]","1","0","","","","","","5"
"","","","","","single-stim-button","335","1498450","0.0-4.0-13.1-0.1","610e6880f784d836a872a9a5","E1","batch5","","955","","","tol_tohand","","","","","","","","","","","tol_peg_1","955","955","0","[[1,0,0],[3,0],[0]]","2","[[2,1,3],[0,0],[0]]","1","0","","","","","","5"
"","","","","","single-stim-button","336","1500446","0.0-4.0-13.1-1.1","610e6880f784d836a872a9a5","E1","batch5","","1994","","","tol_toboard","","","","","","","","","","","tol_peg_3","1994","1994","0","[[1,0,0],[3,0],[2]]","2","[[2,1,3],[0,0],[0]]","1","0","","","","","","5"
"","","","","","single-stim-button","337","1501226","0.0-4.0-13.2-0.2","610e6880f784d836a872a9a5","E1","batch5","","776","","","tol_tohand","","","","","","","","","","","tol_peg_1","776","776","0","[[0,0,0],[3,0],[2]]","3","[[2,1,3],[0,0],[0]]","1","0","","","","","","5"
"","","","","","single-stim-button","338","1503934","0.0-4.0-13.2-1.2","610e6880f784d836a872a9a5","E1","batch5","","2704","","","tol_toboard","","","","","","","","","","","tol_peg_1","2704","2704","0","[[1,0,0],[3,0],[2]]","3","[[2,1,3],[0,0],[0]]","1","0","","","","","","5"
"","","","","","single-stim-button","339","1504869","0.0-4.0-13.3-0.3","610e6880f784d836a872a9a5","E1","batch5","","930","","","tol_tohand","","","","","","","","","","","tol_peg_1","930","930","0","[[0,0,0],[3,0],[2]]","4","[[2,1,3],[0,0],[0]]","1","0","","","","","","5"
"","","","","","single-stim-button","340","1514002","0.0-4.0-13.3-1.3","610e6880f784d836a872a9a5","E1","batch5","","9129","","","tol_toboard","","","","","","","","","","","tol_peg_2","9129","9129","0","[[0,0,0],[3,1],[2]]","4","[[2,1,3],[0,0],[0]]","1","0","","","","","","5"
"","","","","","single-stim-button","341","1514942","0.0-4.0-13.4-0.4","610e6880f784d836a872a9a5","E1","batch5","","936","","","tol_tohand","","","","","","","","","","","tol_peg_3","936","936","0","[[0,0,0],[3,1],[0]]","5","[[2,1,3],[0,0],[0]]","1","0","","","","","","5"
"","","","","","single-stim-button","342","1516014","0.0-4.0-13.4-1.4","610e6880f784d836a872a9a5","E1","batch5","","1069","","","tol_toboard","","","","","","","","","","","tol_peg_1","1069","1069","0","[[2,0,0],[3,1],[0]]","5","[[2,1,3],[0,0],[0]]","1","0","","","","","","5"
"","","","","","single-stim-button","343","1517615","0.0-4.0-13.5-0.5","610e6880f784d836a872a9a5","E1","batch5","","1597","","","tol_tohand","","","","","","","","","","","tol_peg_2","1597","1597","0","[[2,0,0],[3,0],[0]]","6","[[2,1,3],[0,0],[0]]","1","0","","","","","","5"
"","","","","","single-stim-button","344","1519034","0.0-4.0-13.5-1.5","610e6880f784d836a872a9a5","E1","batch5","","1417","","","tol_toboard","","","","","","","","","","","tol_peg_1","1417","1417","0","[[2,1,0],[3,0],[0]]","6","[[2,1,3],[0,0],[0]]","1","0","","","","","","5"
"","","","","","single-stim-button","345","1519920","0.0-4.0-13.6-0.6","610e6880f784d836a872a9a5","E1","batch5","","882","","","tol_tohand","","","","","","","","","","","tol_peg_2","882","882","0","[[2,1,0],[0,0],[0]]","7","[[2,1,3],[0,0],[0]]","1","0","","","","","","5"
"","","","","","single-stim-button","346","1521036","0.0-4.0-13.6-1.6","610e6880f784d836a872a9a5","E1","batch5","","1113","","","tol_toboard","","","","","","","","","","","tol_peg_1","1113","1113","0","[[2,1,3],[0,0],[0]]","7","[[2,1,3],[0,0],[0]]","1","0","","","","","","5"
"","","","","","poldrack-single-stim","347","1522044","0.0-4.0-14.0","610e6880f784d836a872a9a5","E1","batch5","","-1","","","tol_feedback","true","","","","","","","","","","","1000","1000","500","","","","","","-1","none","true","3041","9117",""
