"success","timeout","failed_images","failed_audio","failed_video","trial_type","trial_index","time_elapsed","internal_node_id","subject_id","study_id","session_id","view_history","rt","task","stimulus","response","correct","mouse_click","stim_duration","block_duration","timing_post_trial","current_position","tol_num_moves_made","tol_target","tol_problem_id","tol_rt","key_press","possible_responses","tol_correct","preplanning","tol_rt_per_trial","tol_min_moves","answer","item","fiar_detect_rt","fiar_detect_correct","total_correct_fiar_detect","post_trial_gap","choices","spm_correct","spm_rt"
"true","false","[]","[]","[]","preload","0","21599","0.0-0.0","611195657110219178aa70e1","C3","batch3","","","","","","","","","","","","","","","","","","","","","","","","","","","","","",""
"true","","","","","fullscreen","1","27886","0.0-1.0-0.0","611195657110219178aa70e1","C3","batch3","","","","","","","","","","","","","","","","","","","","","","","","","","","","","",""
"true","","","","","fullscreen","2","33830","0.0-2.0-0.0","611195657110219178aa70e1","C3","batch3","","","","","","","","","","","","","","","","","","","","","","","","","","","","","",""
"","","","","","instructions","3","73064","0.0-2.0-1.0-0.0-0.0","611195657110219178aa70e1","C3","batch3","[{""page_index"":0,""viewing_time"":8980},{""page_index"":1,""viewing_time"":4431},{""page_index"":2,""viewing_time"":3288.0999999940395},{""page_index"":3,""viewing_time"":8417.10000000149},{""page_index"":4,""viewing_time"":4158.39999999851},{""page_index"":5,""viewing_time"":8032.5},{""page_index"":6,""viewing_time"":1922.7000000029802}]","39230.39999999851","tol-instructions","","","","","","","","","","","","","","","","","","","","","","","","","","",""
"","","","","","html-button-response","4","74084","0.0-2.0-1.0-1.0-0.0","611195657110219178aa70e1","C3","batch3","","1017.8000000044703","tol_enter_quiz","<p class=block-text> Let's answer a few questions <br>","0","","","","","","","","","","","","","","","","","","","","","","","","",""
"","","","","","html-button-response","5","78809","0.0-2.0-1.0-1.0-1.0","611195657110219178aa70e1","C3","batch3","","4722.30000000447","tol_quiz","<p class = block-text>True or False: You can only move the ball on top of a peg. <br></p>","1","false","","","","","","","","","","","","","","","","","","","","","","","",""
"","","","","","html-button-response","6","80012","0.0-2.0-1.0-1.0-2.0","611195657110219178aa70e1","C3","batch3","","1200.7000000029802","tol_quiz_feedback","<p class = block-text>Incorrect. Remember, you can only move the ball on top of a peg.</p>","0","","","","","","","","","","","","","","","","","","","","","","","","",""
"","","","","","html-button-response","7","83867","0.0-2.0-1.0-1.0-3.0","611195657110219178aa70e1","C3","batch3","","3853.1999999955297","tol_quiz","<p class = block-text>True or False: You should try to match your board with the target board with fewest moves possible. <br></p>","0","true","","","","","","","","","","","","","","","","","","","","","","","",""
"","","","","","html-button-response","8","85365","0.0-2.0-1.0-1.0-4.0","611195657110219178aa70e1","C3","batch3","","1496.2999999970198","tol_quiz_feedback","<p class = block-text>Correct! </p>","0","","","","","","","","","","","","","","","","","","","","","","","","",""
"","","","","","html-button-response","9","87875","0.0-2.0-1.0-2.0-0.0","611195657110219178aa70e1","C3","batch3","","2507","","<p class = block-text>You made too many incorrect choices.</p><p class = block-text>You will now repeat the instructions and quiz</p>","0","","","","","","","","","","","","","","","","","","","","","","","","",""
"","","","","","instructions","10","93229","0.0-2.0-1.1-0.1-0.1","611195657110219178aa70e1","C3","batch3","[{""page_index"":0,""viewing_time"":1142},{""page_index"":1,""viewing_time"":900.8000000044703},{""page_index"":2,""viewing_time"":505.8999999985099},{""page_index"":3,""viewing_time"":556.5},{""page_index"":4,""viewing_time"":526.2999999970198},{""page_index"":5,""viewing_time"":536.3000000044703},{""page_index"":6,""viewing_time"":1184.3999999985099}]","5352.80000000447","tol-instructions","","","","","","","","","","","","","","","","","","","","","","","","","","",""
"","","","","","html-button-response","11","93957","0.0-2.0-1.1-1.1-0.1","611195657110219178aa70e1","C3","batch3","","726.5","tol_enter_quiz","<p class=block-text> Let's answer a few questions <br>","0","","","","","","","","","","","","","","","","","","","","","","","","",""
"","","","","","html-button-response","12","95131","0.0-2.0-1.1-1.1-1.1","611195657110219178aa70e1","C3","batch3","","1172.1000000014901","tol_quiz","<p class = block-text>True or False: You can only move the ball on top of a peg. <br></p>","0","true","","","","","","","","","","","","","","","","","","","","","","","",""
"","","","","","html-button-response","13","96082","0.0-2.0-1.1-1.1-2.1","611195657110219178aa70e1","C3","batch3","","950.1999999955297","tol_quiz_feedback","<p class = block-text>Correct! You can only move the ball on top of a peg.</p>","0","","","","","","","","","","","","","","","","","","","","","","","","",""
"","","","","","html-button-response","14","97954","0.0-2.0-1.1-1.1-3.1","611195657110219178aa70e1","C3","batch3","","1870","tol_quiz","<p class = block-text>True or False: You should try to match your board with the target board with fewest moves possible. <br></p>","0","true","","","","","","","","","","","","","","","","","","","","","","","",""
"","","","","","html-button-response","15","98612","0.0-2.0-1.1-1.1-4.1","611195657110219178aa70e1","C3","batch3","","655.7999999970198","tol_quiz_feedback","<p class = block-text>Correct! </p>","0","","","","","","","","","","","","","","","","","","","","","","","","",""
"","","","","","html-button-response","16","99310","0.0-2.0-2.0","611195657110219178aa70e1","C3","batch3","","696.7000000029802","","<p class=block-text> Now that you've understood the game, let's practice a few easier examples before we start!<br> <br>","0","","","","","","","","","","","","","","","","","","","","","","","","",""
"","","","","","single-stim-button","17","101811","0.0-2.0-3.0-0.0","611195657110219178aa70e1","C3","batch3","","2498","tol_practice","","","","tol_peg_2","2498","2498","0","[[1,2,0],[0,0],[0]]","1","[[1,2,0],[0,0],[3]]","practice","2498","","","","","","","","","","","","","","",""
"","","","","","single-stim-button","18","102853","0.0-2.0-3.0-1.0","611195657110219178aa70e1","C3","batch3","","1040","tol_practice","","","","tol_peg_3","1040","1040","0","[[1,2,0],[0,0],[3]]","1","[[1,2,0],[0,0],[3]]","practice","1040","","","","","","","","","","","","","","",""
"","","","","","poldrack-single-stim","19","103863","0.0-2.0-4.0","611195657110219178aa70e1","C3","batch3","","-1","tol_feedback","","","true","","1000","1000","500","","","","","","-1","none","true","","0","","","","","","","","","",""
"","","","","","single-stim-button","20","107831","0.0-2.0-5.0-0.0","611195657110219178aa70e1","C3","batch3","","3966","tol_practice","","","","tol_peg_1","3966","3966","0","[[1,0,0],[3,0],[0]]","2","[[0,0,0],[3,1],[2]]","practice","3966","","","","","","","","","","","","","","",""
"","","","","","single-stim-button","21","108630","0.0-2.0-5.0-1.0","611195657110219178aa70e1","C3","batch3","","798","tol_practice","","","","tol_peg_3","798","798","0","[[1,0,0],[3,0],[2]]","2","[[0,0,0],[3,1],[2]]","practice","798","","","","","","","","","","","","","","",""
"","","","","","single-stim-button","22","109612","0.0-2.0-5.1-0.1","611195657110219178aa70e1","C3","batch3","","980","tol_practice","","","","tol_peg_1","980","980","0","[[0,0,0],[3,0],[2]]","3","[[0,0,0],[3,1],[2]]","practice","980","","","","","","","","","","","","","","",""
"","","","","","single-stim-button","23","110401","0.0-2.0-5.1-1.1","611195657110219178aa70e1","C3","batch3","","789","tol_practice","","","","tol_peg_2","789","789","0","[[0,0,0],[3,1],[2]]","3","[[0,0,0],[3,1],[2]]","practice","789","","","","","","","","","","","","","","",""
"","","","","","poldrack-single-stim","24","111407","0.0-2.0-6.0","611195657110219178aa70e1","C3","batch3","","-1","tol_feedback","","","true","","1000","1000","500","","","","","","-1","none","true","","0","","","","","","","","","",""
"","","","","","single-stim-button","25","113548","0.0-2.0-7.0-0.0","611195657110219178aa70e1","C3","batch3","","2140","tol_practice","","","","tol_peg_2","2140","2140","0","[[1,2,0],[0,0],[0]]","4","[[1,0,0],[2,0],[3]]","practice","2140","","","","","","","","","","","","","","",""
"","","","","","single-stim-button","26","114581","0.0-2.0-7.0-1.0","611195657110219178aa70e1","C3","batch3","","1031","tol_practice","","","","tol_peg_3","1031","1031","0","[[1,2,0],[0,0],[3]]","4","[[1,0,0],[2,0],[3]]","practice","1031","","","","","","","","","","","","","","",""
"","","","","","single-stim-button","27","115693","0.0-2.0-7.1-0.1","611195657110219178aa70e1","C3","batch3","","1112","tol_practice","","","","tol_peg_1","1112","1112","0","[[1,0,0],[0,0],[3]]","5","[[1,0,0],[2,0],[3]]","practice","1112","","","","","","","","","","","","","","",""
"","","","","","single-stim-button","28","116584","0.0-2.0-7.1-1.1","611195657110219178aa70e1","C3","batch3","","889","tol_practice","","","","tol_peg_2","889","889","0","[[1,0,0],[2,0],[3]]","5","[[1,0,0],[2,0],[3]]","practice","889","","","","","","","","","","","","","","",""
"","","","","","poldrack-single-stim","29","117591","0.0-2.0-8.0","611195657110219178aa70e1","C3","batch3","","-1","tol_feedback","","","true","","1000","1000","500","","","","","","-1","none","true","","0","","","","","","","","","",""
"","","","","","html-button-response","30","119032","0.0-2.0-9.0","611195657110219178aa70e1","C3","batch3","","1440.0999999940395","tol_instruction","<div class = centerbox><p class = center-block-text>Great job! You are done with practice trials<br>You are about to start official trials.<br> <br> Problem <strong>1</strong> out of 25 problems</p></div>","0","","","","","","","","","","","","","","","","","","","","","","","","",""
"","","","","","single-stim-button","31","124577","0.0-2.0-10.0-0.0","611195657110219178aa70e1","C3","batch3","","4537","tol_tohand","","","","tol_peg_1","4537","4537","0","[[1,0,0],[3,0],[0]]","1","[[1,3,0],[2,0],[0]]","0","0","","","","","","3","","","","","","","","",""
"","","","","","single-stim-button","32","125538","0.0-2.0-10.0-1.0","611195657110219178aa70e1","C3","batch3","","960","tol_toboard","","","","tol_peg_3","960","960","0","[[1,0,0],[3,0],[2]]","1","[[1,3,0],[2,0],[0]]","0","0","","","","","","3","","","","","","","","",""
"","","","","","single-stim-button","33","126287","0.0-2.0-10.1-0.1","611195657110219178aa70e1","C3","batch3","","747","tol_tohand","","","","tol_peg_2","747","747","0","[[1,0,0],[0,0],[2]]","2","[[1,3,0],[2,0],[0]]","0","0","","","","","","3","","","","","","","","",""
"","","","","","single-stim-button","34","127289","0.0-2.0-10.1-1.1","611195657110219178aa70e1","C3","batch3","","1001","tol_toboard","","","","tol_peg_1","1001","1001","0","[[1,3,0],[0,0],[2]]","2","[[1,3,0],[2,0],[0]]","0","0","","","","","","3","","","","","","","","",""
"","","","","","single-stim-button","35","128361","0.0-2.0-10.2-0.2","611195657110219178aa70e1","C3","batch3","","1072","tol_tohand","","","","tol_peg_3","1072","1072","0","[[1,3,0],[0,0],[0]]","3","[[1,3,0],[2,0],[0]]","0","0","","","","","","3","","","","","","","","",""
"","","","","","single-stim-button","36","129121","0.0-2.0-10.2-1.2","611195657110219178aa70e1","C3","batch3","","758","tol_toboard","","","","tol_peg_2","758","758","0","[[1,3,0],[2,0],[0]]","3","[[1,3,0],[2,0],[0]]","0","0","","","","","","3","","","","","","","","",""
"","","","","","poldrack-single-stim","37","130126","0.0-2.0-11.0","611195657110219178aa70e1","C3","batch3","","-1","tol_feedback","","","true","","1000","1000","500","","","","","","-1","none","true","4537","6356","","","","","","","","","",""
"","","","","","html-button-response","38","131062","0.0-2.0-12.0","611195657110219178aa70e1","C3","batch3","","934.7000000029802","tol_trial_num","<div class = centerbox><p class = center-block-text>problem <strong>2</strong> out of 25 problems</p></div>","0","","","","","","","","","","","","","","","","","","","","","","","","",""
"","","","","","single-stim-button","39","134179","0.0-2.0-13.0-0.0","611195657110219178aa70e1","C3","batch3","","3116","tol_tohand","","","","tol_peg_1","3116","3116","0","[[1,0,0],[3,0],[0]]","1","[[2,1,3],[0,0],[0]]","1","0","","","","","","5","","","","","","","","",""
"","","","","","single-stim-button","40","135586","0.0-2.0-13.0-1.0","611195657110219178aa70e1","C3","batch3","","1405","tol_toboard","","","","tol_peg_3","1405","1405","0","[[1,0,0],[3,0],[2]]","1","[[2,1,3],[0,0],[0]]","1","0","","","","","","5","","","","","","","","",""
"","","","","","single-stim-button","41","138915","0.0-2.0-13.1-0.1","611195657110219178aa70e1","C3","batch3","","3328","tol_tohand","","","","tol_peg_1","3328","3328","0","[[0,0,0],[3,0],[2]]","2","[[2,1,3],[0,0],[0]]","1","0","","","","","","5","","","","","","","","",""
"","","","","","single-stim-button","42","140780","0.0-2.0-13.1-1.1","611195657110219178aa70e1","C3","batch3","","1864","tol_toboard","","","","tol_peg_2","1864","1864","0","[[0,0,0],[3,1],[2]]","2","[[2,1,3],[0,0],[0]]","1","0","","","","","","5","","","","","","","","",""
"","","","","","single-stim-button","43","141819","0.0-2.0-13.2-0.2","611195657110219178aa70e1","C3","batch3","","1038","tol_tohand","","","","tol_peg_3","1038","1038","0","[[0,0,0],[3,1],[0]]","3","[[2,1,3],[0,0],[0]]","1","0","","","","","","5","","","","","","","","",""
"","","","","","single-stim-button","44","142477","0.0-2.0-13.2-1.2","611195657110219178aa70e1","C3","batch3","","657","tol_toboard","","","","tol_peg_1","657","657","0","[[2,0,0],[3,1],[0]]","3","[[2,1,3],[0,0],[0]]","1","0","","","","","","5","","","","","","","","",""
"","","","","","single-stim-button","45","143216","0.0-2.0-13.3-0.3","611195657110219178aa70e1","C3","batch3","","737","tol_tohand","","","","tol_peg_2","737","737","0","[[2,0,0],[3,0],[0]]","4","[[2,1,3],[0,0],[0]]","1","0","","","","","","5","","","","","","","","",""
"","","","","","single-stim-button","46","144036","0.0-2.0-13.3-1.3","611195657110219178aa70e1","C3","batch3","","819","tol_toboard","","","","tol_peg_1","819","819","0","[[2,1,0],[3,0],[0]]","4","[[2,1,3],[0,0],[0]]","1","0","","","","","","5","","","","","","","","",""
"","","","","","single-stim-button","47","144805","0.0-2.0-13.4-0.4","611195657110219178aa70e1","C3","batch3","","768","tol_tohand","","","","tol_peg_2","768","768","0","[[2,1,0],[0,0],[0]]","5","[[2,1,3],[0,0],[0]]","1","0","","","","","","5","","","","","","","","",""
"","","","","","single-stim-button","48","145878","0.0-2.0-13.4-1.4","611195657110219178aa70e1","C3","batch3","","1071","tol_toboard","","","","tol_peg_1","1071","1071","0","[[2,1,3],[0,0],[0]]","5","[[2,1,3],[0,0],[0]]","1","0","","","","","","5","","","","","","","","",""
"","","","","","poldrack-single-stim","49","146886","0.0-2.0-14.0","611195657110219178aa70e1","C3","batch3","","-1","tol_feedback","","","true","","1000","1000","500","","","","","","-1","none","true","3116","8987","","","","","","","","","",""
"","","","","","html-button-response","50","148225","0.0-2.0-15.0","611195657110219178aa70e1","C3","batch3","","1337.1000000014901","tol_trial_num","<div class = centerbox><p class = center-block-text>problem <strong>3</strong> out of 25 problems</p></div>","0","","","","","","","","","","","","","","","","","","","","","","","","",""
"","","","","","single-stim-button","51","151280","0.0-2.0-16.0-0.0","611195657110219178aa70e1","C3","batch3","","3054","tol_tohand","","","","tol_peg_1","3054","3054","0","[[2,0,0],[0,0],[1]]","1","[[1,2,0],[3,0],[0]]","2","0","","","","","","4","","","","","","","","",""
"","","","","","single-stim-button","52","152040","0.0-2.0-16.0-1.0","611195657110219178aa70e1","C3","batch3","","758","tol_toboard","","","","tol_peg_2","758","758","0","[[2,0,0],[3,0],[1]]","1","[[1,2,0],[3,0],[0]]","2","0","","","","","","4","","","","","","","","",""
"","","","","","single-stim-button","53","152718","0.0-2.0-16.1-0.1","611195657110219178aa70e1","C3","batch3","","677","tol_tohand","","","","tol_peg_3","677","677","0","[[2,0,0],[3,0],[0]]","2","[[1,2,0],[3,0],[0]]","2","0","","","","","","4","","","","","","","","",""
"","","","","","single-stim-button","54","157453","0.0-2.0-16.1-1.1","611195657110219178aa70e1","C3","batch3","","4734","tol_toboard","","","","tol_peg_3","4734","4734","0","[[2,0,0],[3,0],[1]]","2","[[1,2,0],[3,0],[0]]","2","0","","","","","","4","","","","","","","","",""
"","","","","","single-stim-button","55","158343","0.0-2.0-16.2-0.2","611195657110219178aa70e1","C3","batch3","","890","tol_tohand","","","","tol_peg_1","890","890","0","[[0,0,0],[3,0],[1]]","3","[[1,2,0],[3,0],[0]]","2","0","","","","","","4","","","","","","","","",""
"","","","","","single-stim-button","56","159052","0.0-2.0-16.2-1.2","611195657110219178aa70e1","C3","batch3","","707","tol_toboard","","","","tol_peg_2","707","707","0","[[0,0,0],[3,2],[1]]","3","[[1,2,0],[3,0],[0]]","2","0","","","","","","4","","","","","","","","",""
"","","","","","single-stim-button","57","159881","0.0-2.0-16.3-0.3","611195657110219178aa70e1","C3","batch3","","827","tol_tohand","","","","tol_peg_3","827","827","0","[[0,0,0],[3,2],[0]]","4","[[1,2,0],[3,0],[0]]","2","0","","","","","","4","","","","","","","","",""
"","","","","","single-stim-button","58","160954","0.0-2.0-16.3-1.3","611195657110219178aa70e1","C3","batch3","","1071","tol_toboard","","","","tol_peg_1","1071","1071","0","[[1,0,0],[3,2],[0]]","4","[[1,2,0],[3,0],[0]]","2","0","","","","","","4","","","","","","","","",""
"","","","","","single-stim-button","59","161622","0.0-2.0-16.4-0.4","611195657110219178aa70e1","C3","batch3","","667","tol_tohand","","","","tol_peg_2","667","667","0","[[1,0,0],[3,0],[0]]","5","[[1,2,0],[3,0],[0]]","2","0","","","","","","4","","","","","","","","",""
"","","","","","single-stim-button","60","162441","0.0-2.0-16.4-1.4","611195657110219178aa70e1","C3","batch3","","819","tol_toboard","","","","tol_peg_1","819","819","0","[[1,2,0],[3,0],[0]]","5","[[1,2,0],[3,0],[0]]","2","0","","","","","","4","","","","","","","","",""
"","","","","","poldrack-single-stim","61","163446","0.0-2.0-17.0","611195657110219178aa70e1","C3","batch3","","-1","tol_feedback","","","true","","1000","1000","500","","","","","","-1","none","true","3054","6115","","","","","","","","","",""
"","","","","","html-button-response","62","164819","0.0-2.0-18.0","611195657110219178aa70e1","C3","batch3","","1371.5999999940395","tol_trial_num","<div class = centerbox><p class = center-block-text>problem <strong>4</strong> out of 25 problems</p></div>","0","","","","","","","","","","","","","","","","","","","","","","","","",""
"","","","","","single-stim-button","63","168371","0.0-2.0-19.0-0.0","611195657110219178aa70e1","C3","batch3","","3550","tol_tohand","","","","tol_peg_2","3550","3550","0","[[3,0,0],[2,0],[0]]","1","[[3,0,0],[1,0],[2]]","3","0","","","","","","3","","","","","","","","",""
"","","","","","single-stim-button","64","169514","0.0-2.0-19.0-1.0","611195657110219178aa70e1","C3","batch3","","1143","tol_toboard","","","","tol_peg_1","1143","1143","0","[[3,1,0],[2,0],[0]]","1","[[3,0,0],[1,0],[2]]","3","0","","","","","","3","","","","","","","","",""
"","","","","","single-stim-button","65","170192","0.0-2.0-19.1-0.1","611195657110219178aa70e1","C3","batch3","","677","tol_tohand","","","","tol_peg_2","677","677","0","[[3,1,0],[0,0],[0]]","2","[[3,0,0],[1,0],[2]]","3","0","","","","","","3","","","","","","","","",""
"","","","","","single-stim-button","66","170951","0.0-2.0-19.1-1.1","611195657110219178aa70e1","C3","batch3","","758","tol_toboard","","","","tol_peg_3","758","758","0","[[3,1,0],[0,0],[2]]","2","[[3,0,0],[1,0],[2]]","3","0","","","","","","3","","","","","","","","",""
"","","","","","single-stim-button","67","171731","0.0-2.0-19.2-0.2","611195657110219178aa70e1","C3","batch3","","778","tol_tohand","","","","tol_peg_1","778","778","0","[[3,0,0],[0,0],[2]]","3","[[3,0,0],[1,0],[2]]","3","0","","","","","","3","","","","","","","","",""
"","","","","","single-stim-button","68","172590","0.0-2.0-19.2-1.2","611195657110219178aa70e1","C3","batch3","","859","tol_toboard","","","","tol_peg_2","859","859","0","[[3,0,0],[1,0],[2]]","3","[[3,0,0],[1,0],[2]]","3","0","","","","","","3","","","","","","","","",""
"","","","","","poldrack-single-stim","69","173598","0.0-2.0-20.0","611195657110219178aa70e1","C3","batch3","","-1","tol_feedback","","","true","","1000","1000","500","","","","","","-1","none","true","3550","5005","","","","","","","","","",""
"","","","","","html-button-response","70","174493","0.0-2.0-21.0","611195657110219178aa70e1","C3","batch3","","893.2000000029802","tol_trial_num","<div class = centerbox><p class = center-block-text>problem <strong>5</strong> out of 25 problems</p></div>","0","","","","","","","","","","","","","","","","","","","","","","","","",""
"","","","","","single-stim-button","71","198654","0.0-2.0-22.0-0.0","611195657110219178aa70e1","C3","batch3","","24160","tol_tohand","","","","tol_peg_1","24160","24160","0","[[0,0,0],[2,0],[3]]","1","[[0,0,0],[1,2],[3]]","4","0","","","","","","7","","","","","","","","",""
"","","","","","single-stim-button","72","204270","0.0-2.0-22.0-1.0","611195657110219178aa70e1","C3","batch3","","5614","tol_toboard","","","","tol_peg_1","5614","5614","0","[[1,0,0],[2,0],[3]]","1","[[0,0,0],[1,2],[3]]","4","0","","","","","","7","","","","","","","","",""
"","","","","","single-stim-button","73","205271","0.0-2.0-22.1-0.1","611195657110219178aa70e1","C3","batch3","","1001","tol_tohand","","","","tol_peg_3","1001","1001","0","[[1,0,0],[2,0],[0]]","2","[[0,0,0],[1,2],[3]]","4","0","","","","","","7","","","","","","","","",""
"","","","","","single-stim-button","74","206799","0.0-2.0-22.1-1.1","611195657110219178aa70e1","C3","batch3","","1526","tol_toboard","","","","tol_peg_1","1526","1526","0","[[1,3,0],[2,0],[0]]","2","[[0,0,0],[1,2],[3]]","4","0","","","","","","7","","","","","","","","",""
"","","","","","single-stim-button","75","207892","0.0-2.0-22.2-0.2","611195657110219178aa70e1","C3","batch3","","1092","tol_tohand","","","","tol_peg_2","1092","1092","0","[[1,3,0],[0,0],[0]]","3","[[0,0,0],[1,2],[3]]","4","0","","","","","","7","","","","","","","","",""
"","","","","","single-stim-button","76","208631","0.0-2.0-22.2-1.2","611195657110219178aa70e1","C3","batch3","","738","tol_toboard","","","","tol_peg_3","738","738","0","[[1,3,0],[0,0],[2]]","3","[[0,0,0],[1,2],[3]]","4","0","","","","","","7","","","","","","","","",""
"","","","","","single-stim-button","77","210482","0.0-2.0-22.3-0.3","611195657110219178aa70e1","C3","batch3","","1851","tol_tohand","","","","tol_peg_1","1851","1851","0","[[1,0,0],[0,0],[2]]","4","[[0,0,0],[1,2],[3]]","4","0","","","","","","7","","","","","","","","",""
"","","","","","single-stim-button","78","211828","0.0-2.0-22.3-1.3","611195657110219178aa70e1","C3","batch3","","1345","tol_toboard","","","","tol_peg_2","1345","1345","0","[[1,0,0],[3,0],[2]]","4","[[0,0,0],[1,2],[3]]","4","0","","","","","","7","","","","","","","","",""
"","","","","","single-stim-button","79","212496","0.0-2.0-22.4-0.4","611195657110219178aa70e1","C3","batch3","","666","tol_tohand","","","","tol_peg_1","666","666","0","[[0,0,0],[3,0],[2]]","5","[[0,0,0],[1,2],[3]]","4","0","","","","","","7","","","","","","","","",""
"","","","","","single-stim-button","80","213963","0.0-2.0-22.4-1.4","611195657110219178aa70e1","C3","batch3","","1467","tol_toboard","","","","tol_peg_2","1467","1467","0","[[0,0,0],[3,1],[2]]","5","[[0,0,0],[1,2],[3]]","4","0","","","","","","7","","","","","","","","",""
"","","","","","single-stim-button","81","215228","0.0-2.0-22.5-0.5","611195657110219178aa70e1","C3","batch3","","1263","tol_tohand","","","","tol_peg_3","1263","1263","0","[[0,0,0],[3,1],[0]]","6","[[0,0,0],[1,2],[3]]","4","0","","","","","","7","","","","","","","","",""
"","","","","","single-stim-button","82","216320","0.0-2.0-22.5-1.5","611195657110219178aa70e1","C3","batch3","","1092","tol_toboard","","","","tol_peg_1","1092","1092","0","[[2,0,0],[3,1],[0]]","6","[[0,0,0],[1,2],[3]]","4","0","","","","","","7","","","","","","","","",""
"","","","","","single-stim-button","83","216998","0.0-2.0-22.6-0.6","611195657110219178aa70e1","C3","batch3","","677","tol_tohand","","","","tol_peg_2","677","677","0","[[2,0,0],[3,0],[0]]","7","[[0,0,0],[1,2],[3]]","4","0","","","","","","7","","","","","","","","",""
"","","","","","single-stim-button","84","217808","0.0-2.0-22.6-1.6","611195657110219178aa70e1","C3","batch3","","808","tol_toboard","","","","tol_peg_3","808","808","0","[[2,0,0],[3,0],[1]]","7","[[0,0,0],[1,2],[3]]","4","0","","","","","","7","","","","","","","","",""
"","","","","","single-stim-button","85","218566","0.0-2.0-22.7-0.7","611195657110219178aa70e1","C3","batch3","","758","tol_tohand","","","","tol_peg_2","758","758","0","[[2,0,0],[0,0],[1]]","8","[[0,0,0],[1,2],[3]]","4","0","","","","","","7","","","","","","","","",""
"","","","","","single-stim-button","86","220499","0.0-2.0-22.7-1.7","611195657110219178aa70e1","C3","batch3","","1931","tol_toboard","","","","tol_peg_1","1931","1931","0","[[2,3,0],[0,0],[1]]","8","[[0,0,0],[1,2],[3]]","4","0","","","","","","7","","","","","","","","",""
"","","","","","single-stim-button","87","221703","0.0-2.0-22.8-0.8","611195657110219178aa70e1","C3","batch3","","1203","tol_tohand","","","","tol_peg_3","1203","1203","0","[[2,3,0],[0,0],[0]]","9","[[0,0,0],[1,2],[3]]","4","0","","","","","","7","","","","","","","","",""
"","","","","","single-stim-button","88","222816","0.0-2.0-22.8-1.8","611195657110219178aa70e1","C3","batch3","","1112","tol_toboard","","","","tol_peg_2","1112","1112","0","[[2,3,0],[1,0],[0]]","9","[[0,0,0],[1,2],[3]]","4","0","","","","","","7","","","","","","","","",""
"","","","","","single-stim-button","89","223514","0.0-2.0-22.9-0.9","611195657110219178aa70e1","C3","batch3","","698","tol_tohand","","","","tol_peg_1","698","698","0","[[2,0,0],[1,0],[0]]","10","[[0,0,0],[1,2],[3]]","4","0","","","","","","7","","","","","","","","",""
"","","","","","single-stim-button","90","224273","0.0-2.0-22.9-1.9","611195657110219178aa70e1","C3","batch3","","757","tol_toboard","","","","tol_peg_3","757","757","0","[[2,0,0],[1,0],[3]]","10","[[0,0,0],[1,2],[3]]","4","0","","","","","","7","","","","","","","","",""
"","","","","","single-stim-button","91","225285","0.0-2.0-22.10-0.10","611195657110219178aa70e1","C3","batch3","","1010","tol_tohand","","","","tol_peg_1","1010","1010","0","[[0,0,0],[1,0],[3]]","11","[[0,0,0],[1,2],[3]]","4","0","","","","","","7","","","","","","","","",""
"","","","","","single-stim-button","92","225933","0.0-2.0-22.10-1.10","611195657110219178aa70e1","C3","batch3","","646","tol_toboard","","","","tol_peg_2","646","646","0","[[0,0,0],[1,2],[3]]","11","[[0,0,0],[1,2],[3]]","4","0","","","","","","7","","","","","","","","",""
"","","","","","poldrack-single-stim","93","226934","0.0-2.0-23.0","611195657110219178aa70e1","C3","batch3","","-1","tol_feedback","","","true","","1000","1000","500","","","","","","-1","none","true","24160","34379","","","","","","","","","",""
"","","","","","html-button-response","94","228321","0.0-2.0-24.0","611195657110219178aa70e1","C3","batch3","","1385","tol_trial_num","<div class = centerbox><p class = center-block-text>problem <strong>6</strong> out of 25 problems</p></div>","0","","","","","","","","","","","","","","","","","","","","","","","","",""
"","","","","","single-stim-button","95","238681","0.0-2.0-25.0-0.0","611195657110219178aa70e1","C3","batch3","","10359","tol_tohand","","","","tol_peg_2","10359","10359","0","[[0,0,0],[1,0],[3]]","1","[[1,0,0],[2,3],[0]]","5","0","","","","","","6","","","","","","","","",""
"","","","","","single-stim-button","96","251875","0.0-2.0-25.0-1.0","611195657110219178aa70e1","C3","batch3","","13192","tol_toboard","","","","tol_peg_2","13192","13192","0","[[0,0,0],[1,2],[3]]","1","[[1,0,0],[2,3],[0]]","5","0","","","","","","6","","","","","","","","",""
"","","","","","single-stim-button","97","252725","0.0-2.0-25.1-0.1","611195657110219178aa70e1","C3","batch3","","849","tol_tohand","","","","tol_peg_3","849","849","0","[[0,0,0],[1,2],[0]]","2","[[1,0,0],[2,3],[0]]","5","0","","","","","","6","","","","","","","","",""
"","","","","","single-stim-button","98","253544","0.0-2.0-25.1-1.1","611195657110219178aa70e1","C3","batch3","","819","tol_toboard","","","","tol_peg_1","819","819","0","[[3,0,0],[1,2],[0]]","2","[[1,0,0],[2,3],[0]]","5","0","","","","","","6","","","","","","","","",""
"","","","","","single-stim-button","99","254344","0.0-2.0-25.2-0.2","611195657110219178aa70e1","C3","batch3","","798","tol_tohand","","","","tol_peg_2","798","798","0","[[3,0,0],[1,0],[0]]","3","[[1,0,0],[2,3],[0]]","5","0","","","","","","6","","","","","","","","",""
"","","","","","single-stim-button","100","255183","0.0-2.0-25.2-1.2","611195657110219178aa70e1","C3","batch3","","839","tol_toboard","","","","tol_peg_3","839","839","0","[[3,0,0],[1,0],[2]]","3","[[1,0,0],[2,3],[0]]","5","0","","","","","","6","","","","","","","","",""
"","","","","","single-stim-button","101","257318","0.0-2.0-25.3-0.3","611195657110219178aa70e1","C3","batch3","","2133","tol_tohand","","","","tol_peg_2","2133","2133","0","[[3,0,0],[0,0],[2]]","4","[[1,0,0],[2,3],[0]]","5","0","","","","","","6","","","","","","","","",""
"","","","","","single-stim-button","102","259523","0.0-2.0-25.3-1.3","611195657110219178aa70e1","C3","batch3","","2205","tol_toboard","","","","tol_peg_2","2205","2205","0","[[3,0,0],[1,0],[2]]","4","[[1,0,0],[2,3],[0]]","5","0","","","","","","6","","","","","","","","",""
"","","","","","single-stim-button","103","260768","0.0-2.0-25.4-0.4","611195657110219178aa70e1","C3","batch3","","1243","tol_tohand","","","","tol_peg_3","1243","1243","0","[[3,0,0],[1,0],[0]]","5","[[1,0,0],[2,3],[0]]","5","0","","","","","","6","","","","","","","","",""
"","","","","","single-stim-button","104","262437","0.0-2.0-25.4-1.4","611195657110219178aa70e1","C3","batch3","","1669","tol_toboard","","","","tol_peg_1","1669","1669","0","[[3,2,0],[1,0],[0]]","5","[[1,0,0],[2,3],[0]]","5","0","","","","","","6","","","","","","","","",""
"","","","","","single-stim-button","105","263267","0.0-2.0-25.5-0.5","611195657110219178aa70e1","C3","batch3","","829","tol_tohand","","","","tol_peg_2","829","829","0","[[3,2,0],[0,0],[0]]","6","[[1,0,0],[2,3],[0]]","5","0","","","","","","6","","","","","","","","",""
"","","","","","single-stim-button","106","264168","0.0-2.0-25.5-1.5","611195657110219178aa70e1","C3","batch3","","899","tol_toboard","","","","tol_peg_3","899","899","0","[[3,2,0],[0,0],[1]]","6","[[1,0,0],[2,3],[0]]","5","0","","","","","","6","","","","","","","","",""
"","","","","","single-stim-button","107","266040","0.0-2.0-25.6-0.6","611195657110219178aa70e1","C3","batch3","","1870","tol_tohand","","","","tol_peg_1","1870","1870","0","[[3,0,0],[0,0],[1]]","7","[[1,0,0],[2,3],[0]]","5","0","","","","","","6","","","","","","","","",""
"","","","","","single-stim-button","108","266778","0.0-2.0-25.6-1.6","611195657110219178aa70e1","C3","batch3","","738","tol_toboard","","","","tol_peg_2","738","738","0","[[3,0,0],[2,0],[1]]","7","[[1,0,0],[2,3],[0]]","5","0","","","","","","6","","","","","","","","",""
"","","","","","single-stim-button","109","267557","0.0-2.0-25.7-0.7","611195657110219178aa70e1","C3","batch3","","778","tol_tohand","","","","tol_peg_1","778","778","0","[[0,0,0],[2,0],[1]]","8","[[1,0,0],[2,3],[0]]","5","0","","","","","","6","","","","","","","","",""
"","","","","","single-stim-button","110","268964","0.0-2.0-25.7-1.7","611195657110219178aa70e1","C3","batch3","","1406","tol_toboard","","","","tol_peg_2","1406","1406","0","[[0,0,0],[2,3],[1]]","8","[[1,0,0],[2,3],[0]]","5","0","","","","","","6","","","","","","","","",""
"","","","","","single-stim-button","111","270047","0.0-2.0-25.8-0.8","611195657110219178aa70e1","C3","batch3","","1082","tol_tohand","","","","tol_peg_3","1082","1082","0","[[0,0,0],[2,3],[0]]","9","[[1,0,0],[2,3],[0]]","5","0","","","","","","6","","","","","","","","",""
"","","","","","single-stim-button","112","271099","0.0-2.0-25.8-1.8","611195657110219178aa70e1","C3","batch3","","1051","tol_toboard","","","","tol_peg_1","1051","1051","0","[[1,0,0],[2,3],[0]]","9","[[1,0,0],[2,3],[0]]","5","0","","","","","","6","","","","","","","","",""
"","","","","","poldrack-single-stim","113","272102","0.0-2.0-26.0","611195657110219178aa70e1","C3","batch3","","-1","tol_feedback","","","true","","1000","1000","500","","","","","","-1","none","true","10359","19941","","","","","","","","","",""
"","","","","","html-button-response","114","273285","0.0-2.0-27.0","611195657110219178aa70e1","C3","batch3","","1181.2000000029802","tol_trial_num","<div class = centerbox><p class = center-block-text>problem <strong>7</strong> out of 25 problems</p></div>","0","","","","","","","","","","","","","","","","","","","","","","","","",""
"","","","","","single-stim-button","115","275440","0.0-2.0-28.0-0.0","611195657110219178aa70e1","C3","batch3","","2153","tol_tohand","","","","tol_peg_1","2153","2153","0","[[2,0,0],[0,0],[3]]","1","[[1,2,0],[3,0],[0]]","6","0","","","","","","5","","","","","","","","",""
"","","","","","single-stim-button","116","276240","0.0-2.0-28.0-1.0","611195657110219178aa70e1","C3","batch3","","798","tol_toboard","","","","tol_peg_2","798","798","0","[[2,0,0],[1,0],[3]]","1","[[1,2,0],[3,0],[0]]","6","0","","","","","","5","","","","","","","","",""
"","","","","","single-stim-button","117","282766","0.0-2.0-28.1-0.1","611195657110219178aa70e1","C3","batch3","","6526","tol_tohand","","","","tol_peg_3","6526","6526","0","[[2,0,0],[1,0],[0]]","2","[[1,2,0],[3,0],[0]]","6","0","","","","","","5","","","","","","","","",""
"","","","","","single-stim-button","118","283788","0.0-2.0-28.1-1.1","611195657110219178aa70e1","C3","batch3","","1020","tol_toboard","","","","tol_peg_1","1020","1020","0","[[2,3,0],[1,0],[0]]","2","[[1,2,0],[3,0],[0]]","6","0","","","","","","5","","","","","","","","",""
"","","","","","single-stim-button","119","284567","0.0-2.0-28.2-0.2","611195657110219178aa70e1","C3","batch3","","777","tol_tohand","","","","tol_peg_2","777","777","0","[[2,3,0],[0,0],[0]]","3","[[1,2,0],[3,0],[0]]","6","0","","","","","","5","","","","","","","","",""
"","","","","","single-stim-button","120","285346","0.0-2.0-28.2-1.2","611195657110219178aa70e1","C3","batch3","","777","tol_toboard","","","","tol_peg_3","777","777","0","[[2,3,0],[0,0],[1]]","3","[[1,2,0],[3,0],[0]]","6","0","","","","","","5","","","","","","","","",""
"","","","","","single-stim-button","121","286378","0.0-2.0-28.3-0.3","611195657110219178aa70e1","C3","batch3","","1031","tol_tohand","","","","tol_peg_1","1031","1031","0","[[2,0,0],[0,0],[1]]","4","[[1,2,0],[3,0],[0]]","6","0","","","","","","5","","","","","","","","",""
"","","","","","single-stim-button","122","287289","0.0-2.0-28.3-1.3","611195657110219178aa70e1","C3","batch3","","910","tol_toboard","","","","tol_peg_2","910","910","0","[[2,0,0],[3,0],[1]]","4","[[1,2,0],[3,0],[0]]","6","0","","","","","","5","","","","","","","","",""
"","","","","","single-stim-button","123","288018","0.0-2.0-28.4-0.4","611195657110219178aa70e1","C3","batch3","","727","tol_tohand","","","","tol_peg_1","727","727","0","[[0,0,0],[3,0],[1]]","5","[[1,2,0],[3,0],[0]]","6","0","","","","","","5","","","","","","","","",""
"","","","","","single-stim-button","124","292591","0.0-2.0-28.4-1.4","611195657110219178aa70e1","C3","batch3","","4573","tol_toboard","","","","tol_peg_2","4573","4573","0","[[0,0,0],[3,2],[1]]","5","[[1,2,0],[3,0],[0]]","6","0","","","","","","5","","","","","","","","",""
"","","","","","single-stim-button","125","293451","0.0-2.0-28.5-0.5","611195657110219178aa70e1","C3","batch3","","859","tol_tohand","","","","tol_peg_3","859","859","0","[[0,0,0],[3,2],[0]]","6","[[1,2,0],[3,0],[0]]","6","0","","","","","","5","","","","","","","","",""
"","","","","","single-stim-button","126","294241","0.0-2.0-28.5-1.5","611195657110219178aa70e1","C3","batch3","","788","tol_toboard","","","","tol_peg_1","788","788","0","[[1,0,0],[3,2],[0]]","6","[[1,2,0],[3,0],[0]]","6","0","","","","","","5","","","","","","","","",""
"","","","","","single-stim-button","127","295020","0.0-2.0-28.6-0.6","611195657110219178aa70e1","C3","batch3","","778","tol_tohand","","","","tol_peg_2","778","778","0","[[1,0,0],[3,0],[0]]","7","[[1,2,0],[3,0],[0]]","6","0","","","","","","5","","","","","","","","",""
"","","","","","single-stim-button","128","295758","0.0-2.0-28.6-1.6","611195657110219178aa70e1","C3","batch3","","738","tol_toboard","","","","tol_peg_1","738","738","0","[[1,2,0],[3,0],[0]]","7","[[1,2,0],[3,0],[0]]","6","0","","","","","","5","","","","","","","","",""
"","","","","","poldrack-single-stim","129","296766","0.0-2.0-29.0","611195657110219178aa70e1","C3","batch3","","-1","tol_feedback","","","true","","1000","1000","500","","","","","","-1","none","true","2153","12851","","","","","","","","","",""
"","","","","","html-button-response","130","298197","0.0-2.0-30.0","611195657110219178aa70e1","C3","batch3","","1429.4000000059605","tol_trial_num","<div class = centerbox><p class = center-block-text>problem <strong>8</strong> out of 25 problems</p></div>","0","","","","","","","","","","","","","","","","","","","","","","","","",""
"","","","","","single-stim-button","131","301840","0.0-2.0-31.0-0.0","611195657110219178aa70e1","C3","batch3","","3642","tol_tohand","","","","tol_peg_3","3642","3642","0","[[0,0,0],[2,3],[0]]","1","[[1,2,0],[3,0],[0]]","7","0","","","","","","4","","","","","","","","",""
"","","","","","single-stim-button","132","302629","0.0-2.0-31.0-1.0","611195657110219178aa70e1","C3","batch3","","788","tol_toboard","","","","tol_peg_1","788","788","0","[[1,0,0],[2,3],[0]]","1","[[1,2,0],[3,0],[0]]","7","0","","","","","","4","","","","","","","","",""
"","","","","","single-stim-button","133","303317","0.0-2.0-31.1-0.1","611195657110219178aa70e1","C3","batch3","","687","tol_tohand","","","","tol_peg_2","687","687","0","[[1,0,0],[2,0],[0]]","2","[[1,2,0],[3,0],[0]]","7","0","","","","","","4","","","","","","","","",""
"","","","","","single-stim-button","134","304045","0.0-2.0-31.1-1.1","611195657110219178aa70e1","C3","batch3","","727","tol_toboard","","","","tol_peg_3","727","727","0","[[1,0,0],[2,0],[3]]","2","[[1,2,0],[3,0],[0]]","7","0","","","","","","4","","","","","","","","",""
"","","","","","single-stim-button","135","305179","0.0-2.0-31.2-0.2","611195657110219178aa70e1","C3","batch3","","1132","tol_tohand","","","","tol_peg_2","1132","1132","0","[[1,0,0],[0,0],[3]]","3","[[1,2,0],[3,0],[0]]","7","0","","","","","","4","","","","","","","","",""
"","","","","","single-stim-button","136","306160","0.0-2.0-31.2-1.2","611195657110219178aa70e1","C3","batch3","","980","tol_toboard","","","","tol_peg_1","980","980","0","[[1,2,0],[0,0],[3]]","3","[[1,2,0],[3,0],[0]]","7","0","","","","","","4","","","","","","","","",""
"","","","","","single-stim-button","137","307729","0.0-2.0-31.3-0.3","611195657110219178aa70e1","C3","batch3","","1567","tol_tohand","","","","tol_peg_3","1567","1567","0","[[1,2,0],[0,0],[0]]","4","[[1,2,0],[3,0],[0]]","7","0","","","","","","4","","","","","","","","",""
"","","","","","single-stim-button","138","308498","0.0-2.0-31.3-1.3","611195657110219178aa70e1","C3","batch3","","768","tol_toboard","","","","tol_peg_2","768","768","0","[[1,2,0],[3,0],[0]]","4","[[1,2,0],[3,0],[0]]","7","0","","","","","","4","","","","","","","","",""
"","","","","","poldrack-single-stim","139","309502","0.0-2.0-32.0","611195657110219178aa70e1","C3","batch3","","-1","tol_feedback","","","true","","1000","1000","500","","","","","","-1","none","true","3642","7028","","","","","","","","","",""
"","","","","","html-button-response","140","310859","0.0-2.0-33.0","611195657110219178aa70e1","C3","batch3","","1356.1000000014901","tol_trial_num","<div class = centerbox><p class = center-block-text>problem <strong>9</strong> out of 25 problems</p></div>","0","","","","","","","","","","","","","","","","","","","","","","","","",""
"","","","","","single-stim-button","141","319881","0.0-2.0-34.0-0.0","611195657110219178aa70e1","C3","batch3","","9021","tol_tohand","","","","tol_peg_3","9021","9021","0","[[3,2,0],[0,0],[0]]","1","[[2,1,0],[3,0],[0]]","8","0","","","","","","6","","","","","","","","",""
"","","","","","single-stim-button","142","324759","0.0-2.0-34.0-1.0","611195657110219178aa70e1","C3","batch3","","4876","tol_toboard","","","","tol_peg_2","4876","4876","0","[[3,2,0],[1,0],[0]]","1","[[2,1,0],[3,0],[0]]","8","0","","","","","","6","","","","","","","","",""
"","","","","","single-stim-button","143","327886","0.0-2.0-34.1-0.1","611195657110219178aa70e1","C3","batch3","","3126","tol_tohand","","","","tol_peg_1","3126","3126","0","[[3,0,0],[1,0],[0]]","2","[[2,1,0],[3,0],[0]]","8","0","","","","","","6","","","","","","","","",""
"","","","","","single-stim-button","144","328695","0.0-2.0-34.1-1.1","611195657110219178aa70e1","C3","batch3","","808","tol_toboard","","","","tol_peg_2","808","808","0","[[3,0,0],[1,2],[0]]","2","[[2,1,0],[3,0],[0]]","8","0","","","","","","6","","","","","","","","",""
"","","","","","single-stim-button","145","329433","0.0-2.0-34.2-0.2","611195657110219178aa70e1","C3","batch3","","737","tol_tohand","","","","tol_peg_1","737","737","0","[[0,0,0],[1,2],[0]]","3","[[2,1,0],[3,0],[0]]","8","0","","","","","","6","","","","","","","","",""
"","","","","","single-stim-button","146","330294","0.0-2.0-34.2-1.2","611195657110219178aa70e1","C3","batch3","","859","tol_toboard","","","","tol_peg_3","859","859","0","[[0,0,0],[1,2],[3]]","3","[[2,1,0],[3,0],[0]]","8","0","","","","","","6","","","","","","","","",""
"","","","","","single-stim-button","147","332054","0.0-2.0-34.3-0.3","611195657110219178aa70e1","C3","batch3","","1759","tol_tohand","","","","tol_peg_2","1759","1759","0","[[0,0,0],[1,0],[3]]","4","[[2,1,0],[3,0],[0]]","8","0","","","","","","6","","","","","","","","",""
"","","","","","single-stim-button","148","333754","0.0-2.0-34.3-1.3","611195657110219178aa70e1","C3","batch3","","1699","tol_toboard","","","","tol_peg_1","1699","1699","0","[[2,0,0],[1,0],[3]]","4","[[2,1,0],[3,0],[0]]","8","0","","","","","","6","","","","","","","","",""
"","","","","","single-stim-button","149","335019","0.0-2.0-34.4-0.4","611195657110219178aa70e1","C3","batch3","","1263","tol_tohand","","","","tol_peg_2","1263","1263","0","[[2,0,0],[0,0],[3]]","5","[[2,1,0],[3,0],[0]]","8","0","","","","","","6","","","","","","","","",""
"","","","","","single-stim-button","150","335848","0.0-2.0-34.4-1.4","611195657110219178aa70e1","C3","batch3","","829","tol_toboard","","","","tol_peg_1","829","829","0","[[2,1,0],[0,0],[3]]","5","[[2,1,0],[3,0],[0]]","8","0","","","","","","6","","","","","","","","",""
"","","","","","single-stim-button","151","336809","0.0-2.0-34.5-0.5","611195657110219178aa70e1","C3","batch3","","960","tol_tohand","","","","tol_peg_3","960","960","0","[[2,1,0],[0,0],[0]]","6","[[2,1,0],[3,0],[0]]","8","0","","","","","","6","","","","","","","","",""
"","","","","","single-stim-button","152","337639","0.0-2.0-34.5-1.5","611195657110219178aa70e1","C3","batch3","","829","tol_toboard","","","","tol_peg_2","829","829","0","[[2,1,0],[3,0],[0]]","6","[[2,1,0],[3,0],[0]]","8","0","","","","","","6","","","","","","","","",""
"","","","","","poldrack-single-stim","153","338646","0.0-2.0-35.0","611195657110219178aa70e1","C3","batch3","","-1","tol_feedback","","","true","","1000","1000","500","","","","","","-1","none","true","9021","16866","","","","","","","","","",""
"","","","","","html-button-response","154","339814","0.0-2.0-36.0","611195657110219178aa70e1","C3","batch3","","1166.5","tol_trial_num","<div class = centerbox><p class = center-block-text>problem <strong>10</strong> out of 25 problems</p></div>","0","","","","","","","","","","","","","","","","","","","","","","","","",""
"","","","","","single-stim-button","155","342809","0.0-2.0-37.0-0.0","611195657110219178aa70e1","C3","batch3","","2994","tol_tohand","","","","tol_peg_2","2994","2994","0","[[3,0,0],[0,0],[2]]","1","[[3,0,0],[2,1],[0]]","9","0","","","","","","3","","","","","","","","",""
"","","","","","single-stim-button","156","343446","0.0-2.0-37.0-1.0","611195657110219178aa70e1","C3","batch3","","636","tol_toboard","","","","tol_peg_1","636","636","0","[[3,1,0],[0,0],[2]]","1","[[3,0,0],[2,1],[0]]","9","0","","","","","","3","","","","","","","","",""
"","","","","","single-stim-button","157","344276","0.0-2.0-37.1-0.1","611195657110219178aa70e1","C3","batch3","","829","tol_tohand","","","","tol_peg_3","829","829","0","[[3,1,0],[0,0],[0]]","2","[[3,0,0],[2,1],[0]]","9","0","","","","","","3","","","","","","","","",""
"","","","","","single-stim-button","158","345095","0.0-2.0-37.1-1.1","611195657110219178aa70e1","C3","batch3","","818","tol_toboard","","","","tol_peg_2","818","818","0","[[3,1,0],[2,0],[0]]","2","[[3,0,0],[2,1],[0]]","9","0","","","","","","3","","","","","","","","",""
"","","","","","single-stim-button","159","345825","0.0-2.0-37.2-0.2","611195657110219178aa70e1","C3","batch3","","728","tol_tohand","","","","tol_peg_1","728","728","0","[[3,0,0],[2,0],[0]]","3","[[3,0,0],[2,1],[0]]","9","0","","","","","","3","","","","","","","","",""
"","","","","","single-stim-button","160","346583","0.0-2.0-37.2-1.2","611195657110219178aa70e1","C3","batch3","","758","tol_toboard","","","","tol_peg_2","758","758","0","[[3,0,0],[2,1],[0]]","3","[[3,0,0],[2,1],[0]]","9","0","","","","","","3","","","","","","","","",""
"","","","","","poldrack-single-stim","161","347584","0.0-2.0-38.0","611195657110219178aa70e1","C3","batch3","","-1","tol_feedback","","","true","","1000","1000","500","","","","","","-1","none","true","2994","4551","","","","","","","","","",""
"","","","","","html-button-response","162","348761","0.0-2.0-39.0","611195657110219178aa70e1","C3","batch3","","1175.5","tol_trial_num","<div class = centerbox><p class = center-block-text>problem <strong>11</strong> out of 25 problems</p></div>","0","","","","","","","","","","","","","","","","","","","","","","","","",""
"","","","","","single-stim-button","163","364382","0.0-2.0-40.0-0.0","611195657110219178aa70e1","C3","batch3","","15619","tol_tohand","","","","tol_peg_1","15619","15619","0","[[1,0,0],[3,0],[0]]","1","[[2,0,0],[1,3],[0]]","10","0","","","","","","6","","","","","","","","",""
"","","","","","single-stim-button","164","366588","0.0-2.0-40.0-1.0","611195657110219178aa70e1","C3","batch3","","2204","tol_toboard","","","","tol_peg_3","2204","2204","0","[[1,0,0],[3,0],[2]]","1","[[2,0,0],[1,3],[0]]","10","0","","","","","","6","","","","","","","","",""
"","","","","","single-stim-button","165","367225","0.0-2.0-40.1-0.1","611195657110219178aa70e1","C3","batch3","","637","tol_tohand","","","","tol_peg_2","637","637","0","[[1,0,0],[0,0],[2]]","2","[[2,0,0],[1,3],[0]]","10","0","","","","","","6","","","","","","","","",""
"","","","","","single-stim-button","166","374915","0.0-2.0-40.1-1.1","611195657110219178aa70e1","C3","batch3","","7689","tol_toboard","","","","tol_peg_2","7689","7689","0","[[1,0,0],[3,0],[2]]","2","[[2,0,0],[1,3],[0]]","10","0","","","","","","6","","","","","","","","",""
"","","","","","single-stim-button","167","376362","0.0-2.0-40.2-0.2","611195657110219178aa70e1","C3","batch3","","1445","tol_tohand","","","","tol_peg_3","1445","1445","0","[[1,0,0],[3,0],[0]]","3","[[2,0,0],[1,3],[0]]","10","0","","","","","","6","","","","","","","","",""
"","","","","","single-stim-button","168","378993","0.0-2.0-40.2-1.2","611195657110219178aa70e1","C3","batch3","","2630","tol_toboard","","","","tol_peg_2","2630","2630","0","[[1,0,0],[3,2],[0]]","3","[[2,0,0],[1,3],[0]]","10","0","","","","","","6","","","","","","","","",""
"","","","","","single-stim-button","169","379650","0.0-2.0-40.3-0.3","611195657110219178aa70e1","C3","batch3","","656","tol_tohand","","","","tol_peg_1","656","656","0","[[0,0,0],[3,2],[0]]","4","[[2,0,0],[1,3],[0]]","10","0","","","","","","6","","","","","","","","",""
"","","","","","single-stim-button","170","380541","0.0-2.0-40.3-1.3","611195657110219178aa70e1","C3","batch3","","890","tol_toboard","","","","tol_peg_3","890","890","0","[[0,0,0],[3,2],[1]]","4","[[2,0,0],[1,3],[0]]","10","0","","","","","","6","","","","","","","","",""
"","","","","","single-stim-button","171","381472","0.0-2.0-40.4-0.4","611195657110219178aa70e1","C3","batch3","","929","tol_tohand","","","","tol_peg_2","929","929","0","[[0,0,0],[3,0],[1]]","5","[[2,0,0],[1,3],[0]]","10","0","","","","","","6","","","","","","","","",""
"","","","","","single-stim-button","172","382220","0.0-2.0-40.4-1.4","611195657110219178aa70e1","C3","batch3","","748","tol_toboard","","","","tol_peg_1","748","748","0","[[2,0,0],[3,0],[1]]","5","[[2,0,0],[1,3],[0]]","10","0","","","","","","6","","","","","","","","",""
"","","","","","single-stim-button","173","382848","0.0-2.0-40.5-0.5","611195657110219178aa70e1","C3","batch3","","626","tol_tohand","","","","tol_peg_2","626","626","0","[[2,0,0],[0,0],[1]]","6","[[2,0,0],[1,3],[0]]","10","0","","","","","","6","","","","","","","","",""
"","","","","","single-stim-button","174","383678","0.0-2.0-40.5-1.5","611195657110219178aa70e1","C3","batch3","","829","tol_toboard","","","","tol_peg_1","829","829","0","[[2,3,0],[0,0],[1]]","6","[[2,0,0],[1,3],[0]]","10","0","","","","","","6","","","","","","","","",""
"","","","","","single-stim-button","175","384345","0.0-2.0-40.6-0.6","611195657110219178aa70e1","C3","batch3","","667","tol_tohand","","","","tol_peg_3","667","667","0","[[2,3,0],[0,0],[0]]","7","[[2,0,0],[1,3],[0]]","10","0","","","","","","6","","","","","","","","",""
"","","","","","single-stim-button","176","385600","0.0-2.0-40.6-1.6","611195657110219178aa70e1","C3","batch3","","1254","tol_toboard","","","","tol_peg_2","1254","1254","0","[[2,3,0],[1,0],[0]]","7","[[2,0,0],[1,3],[0]]","10","0","","","","","","6","","","","","","","","",""
"","","","","","single-stim-button","177","386431","0.0-2.0-40.7-0.7","611195657110219178aa70e1","C3","batch3","","829","tol_tohand","","","","tol_peg_1","829","829","0","[[2,0,0],[1,0],[0]]","8","[[2,0,0],[1,3],[0]]","10","0","","","","","","6","","","","","","","","",""
"","","","","","single-stim-button","178","387098","0.0-2.0-40.7-1.7","611195657110219178aa70e1","C3","batch3","","667","tol_toboard","","","","tol_peg_2","667","667","0","[[2,0,0],[1,3],[0]]","8","[[2,0,0],[1,3],[0]]","10","0","","","","","","6","","","","","","","","",""
"","","","","","poldrack-single-stim","179","388102","0.0-2.0-41.0","611195657110219178aa70e1","C3","batch3","","-1","tol_feedback","","","true","","1000","1000","500","","","","","","-1","none","true","15619","21408","","","","","","","","","",""
"","","","","","html-button-response","180","389284","0.0-2.0-42.0","611195657110219178aa70e1","C3","batch3","","1180.3000000044703","tol_trial_num","<div class = centerbox><p class = center-block-text>problem <strong>12</strong> out of 25 problems</p></div>","0","","","","","","","","","","","","","","","","","","","","","","","","",""
"","","","","","single-stim-button","181","393220","0.0-2.0-43.0-0.0","611195657110219178aa70e1","C3","batch3","","3936","tol_tohand","","","","tol_peg_1","3936","3936","0","[[1,0,0],[3,0],[0]]","1","[[2,3,0],[0,0],[1]]","11","0","","","","","","4","","","","","","","","",""
"","","","","","single-stim-button","182","393848","0.0-2.0-43.0-1.0","611195657110219178aa70e1","C3","batch3","","626","tol_toboard","","","","tol_peg_2","626","626","0","[[1,0,0],[3,2],[0]]","1","[[2,3,0],[0,0],[1]]","11","0","","","","","","4","","","","","","","","",""
"","","","","","single-stim-button","183","401509","0.0-2.0-43.1-0.1","611195657110219178aa70e1","C3","batch3","","7660","tol_tohand","","","","tol_peg_2","7660","7660","0","[[1,0,0],[3,0],[0]]","2","[[2,3,0],[0,0],[1]]","11","0","","","","","","4","","","","","","","","",""
"","","","","","single-stim-button","184","402925","0.0-2.0-43.1-1.1","611195657110219178aa70e1","C3","batch3","","1415","tol_toboard","","","","tol_peg_3","1415","1415","0","[[1,0,0],[3,0],[2]]","2","[[2,3,0],[0,0],[1]]","11","0","","","","","","4","","","","","","","","",""
"","","","","","single-stim-button","185","403735","0.0-2.0-43.2-0.2","611195657110219178aa70e1","C3","batch3","","808","tol_tohand","","","","tol_peg_2","808","808","0","[[1,0,0],[0,0],[2]]","3","[[2,3,0],[0,0],[1]]","11","0","","","","","","4","","","","","","","","",""
"","","","","","single-stim-button","186","404859","0.0-2.0-43.2-1.2","611195657110219178aa70e1","C3","batch3","","1123","tol_toboard","","","","tol_peg_2","1123","1123","0","[[1,0,0],[3,0],[2]]","3","[[2,3,0],[0,0],[1]]","11","0","","","","","","4","","","","","","","","",""
"","","","","","single-stim-button","187","405718","0.0-2.0-43.3-0.3","611195657110219178aa70e1","C3","batch3","","859","tol_tohand","","","","tol_peg_1","859","859","0","[[0,0,0],[3,0],[2]]","4","[[2,3,0],[0,0],[1]]","11","0","","","","","","4","","","","","","","","",""
"","","","","","single-stim-button","188","406700","0.0-2.0-43.3-1.3","611195657110219178aa70e1","C3","batch3","","980","tol_toboard","","","","tol_peg_2","980","980","0","[[0,0,0],[3,1],[2]]","4","[[2,3,0],[0,0],[1]]","11","0","","","","","","4","","","","","","","","",""
"","","","","","single-stim-button","189","407601","0.0-2.0-43.4-0.4","611195657110219178aa70e1","C3","batch3","","900","tol_tohand","","","","tol_peg_3","900","900","0","[[0,0,0],[3,1],[0]]","5","[[2,3,0],[0,0],[1]]","11","0","","","","","","4","","","","","","","","",""
"","","","","","single-stim-button","190","408390","0.0-2.0-43.4-1.4","611195657110219178aa70e1","C3","batch3","","788","tol_toboard","","","","tol_peg_1","788","788","0","[[2,0,0],[3,1],[0]]","5","[[2,3,0],[0,0],[1]]","11","0","","","","","","4","","","","","","","","",""
"","","","","","single-stim-button","191","409038","0.0-2.0-43.5-0.5","611195657110219178aa70e1","C3","batch3","","646","tol_tohand","","","","tol_peg_2","646","646","0","[[2,0,0],[3,0],[0]]","6","[[2,3,0],[0,0],[1]]","11","0","","","","","","4","","","","","","","","",""
"","","","","","single-stim-button","192","409766","0.0-2.0-43.5-1.5","611195657110219178aa70e1","C3","batch3","","727","tol_toboard","","","","tol_peg_3","727","727","0","[[2,0,0],[3,0],[1]]","6","[[2,3,0],[0,0],[1]]","11","0","","","","","","4","","","","","","","","",""
"","","","","","single-stim-button","193","410828","0.0-2.0-43.6-0.6","611195657110219178aa70e1","C3","batch3","","1062","tol_tohand","","","","tol_peg_2","1062","1062","0","[[2,0,0],[0,0],[1]]","7","[[2,3,0],[0,0],[1]]","11","0","","","","","","4","","","","","","","","",""
"","","","","","single-stim-button","194","411476","0.0-2.0-43.6-1.6","611195657110219178aa70e1","C3","batch3","","647","tol_toboard","","","","tol_peg_1","647","647","0","[[2,3,0],[0,0],[1]]","7","[[2,3,0],[0,0],[1]]","11","0","","","","","","4","","","","","","","","",""
"","","","","","poldrack-single-stim","195","412479","0.0-2.0-44.0","611195657110219178aa70e1","C3","batch3","","-1","tol_feedback","","","true","","1000","1000","500","","","","","","-1","none","true","3936","15871","","","","","","","","","",""
"","","","","","html-button-response","196","413308","0.0-2.0-45.0","611195657110219178aa70e1","C3","batch3","","828","tol_trial_num","<div class = centerbox><p class = center-block-text>problem <strong>13</strong> out of 25 problems</p></div>","0","","","","","","","","","","","","","","","","","","","","","","","","",""
"","","","","","single-stim-button","197","427820","0.0-2.0-46.0-0.0","611195657110219178aa70e1","C3","batch3","","14510","tol_tohand","","","","tol_peg_1","14510","14510","0","[[1,0,0],[3,0],[0]]","1","[[0,0,0],[2,3],[1]]","12","0","","","","","","4","","","","","","","","",""
"","","","","","single-stim-button","198","428588","0.0-2.0-46.0-1.0","611195657110219178aa70e1","C3","batch3","","768","tol_toboard","","","","tol_peg_2","768","768","0","[[1,0,0],[3,2],[0]]","1","[[0,0,0],[2,3],[1]]","12","0","","","","","","4","","","","","","","","",""
"","","","","","single-stim-button","199","429338","0.0-2.0-46.1-0.1","611195657110219178aa70e1","C3","batch3","","748","tol_tohand","","","","tol_peg_1","748","748","0","[[0,0,0],[3,2],[0]]","2","[[0,0,0],[2,3],[1]]","12","0","","","","","","4","","","","","","","","",""
"","","","","","single-stim-button","200","430218","0.0-2.0-46.1-1.1","611195657110219178aa70e1","C3","batch3","","879","tol_toboard","","","","tol_peg_3","879","879","0","[[0,0,0],[3,2],[1]]","2","[[0,0,0],[2,3],[1]]","12","0","","","","","","4","","","","","","","","",""
"","","","","","single-stim-button","201","433588","0.0-2.0-46.2-0.2","611195657110219178aa70e1","C3","batch3","","3369","tol_tohand","","","","tol_peg_3","3369","3369","0","[[0,0,0],[3,2],[0]]","3","[[0,0,0],[2,3],[1]]","12","0","","","","","","4","","","","","","","","",""
"","","","","","single-stim-button","202","434387","0.0-2.0-46.2-1.2","611195657110219178aa70e1","C3","batch3","","798","tol_toboard","","","","tol_peg_1","798","798","0","[[1,0,0],[3,2],[0]]","3","[[0,0,0],[2,3],[1]]","12","0","","","","","","4","","","","","","","","",""
"","","","","","single-stim-button","203","436076","0.0-2.0-46.3-0.3","611195657110219178aa70e1","C3","batch3","","1689","tol_tohand","","","","tol_peg_2","1689","1689","0","[[1,0,0],[3,0],[0]]","4","[[0,0,0],[2,3],[1]]","12","0","","","","","","4","","","","","","","","",""
"","","","","","single-stim-button","204","437210","0.0-2.0-46.3-1.3","611195657110219178aa70e1","C3","batch3","","1133","tol_toboard","","","","tol_peg_1","1133","1133","0","[[1,2,0],[3,0],[0]]","4","[[0,0,0],[2,3],[1]]","12","0","","","","","","4","","","","","","","","",""
"","","","","","single-stim-button","205","438182","0.0-2.0-46.4-0.4","611195657110219178aa70e1","C3","batch3","","970","tol_tohand","","","","tol_peg_2","970","970","0","[[1,2,0],[0,0],[0]]","5","[[0,0,0],[2,3],[1]]","12","0","","","","","","4","","","","","","","","",""
"","","","","","single-stim-button","206","439426","0.0-2.0-46.4-1.4","611195657110219178aa70e1","C3","batch3","","1243","tol_toboard","","","","tol_peg_3","1243","1243","0","[[1,2,0],[0,0],[3]]","5","[[0,0,0],[2,3],[1]]","12","0","","","","","","4","","","","","","","","",""
"","","","","","single-stim-button","207","440185","0.0-2.0-46.5-0.5","611195657110219178aa70e1","C3","batch3","","758","tol_tohand","","","","tol_peg_1","758","758","0","[[1,0,0],[0,0],[3]]","6","[[0,0,0],[2,3],[1]]","12","0","","","","","","4","","","","","","","","",""
"","","","","","single-stim-button","208","441025","0.0-2.0-46.5-1.5","611195657110219178aa70e1","C3","batch3","","839","tol_toboard","","","","tol_peg_2","839","839","0","[[1,0,0],[2,0],[3]]","6","[[0,0,0],[2,3],[1]]","12","0","","","","","","4","","","","","","","","",""
"","","","","","single-stim-button","209","441764","0.0-2.0-46.6-0.6","611195657110219178aa70e1","C3","batch3","","737","tol_tohand","","","","tol_peg_3","737","737","0","[[1,0,0],[2,0],[0]]","7","[[0,0,0],[2,3],[1]]","12","0","","","","","","4","","","","","","","","",""
"","","","","","single-stim-button","210","442553","0.0-2.0-46.6-1.6","611195657110219178aa70e1","C3","batch3","","789","tol_toboard","","","","tol_peg_2","789","789","0","[[1,0,0],[2,3],[0]]","7","[[0,0,0],[2,3],[1]]","12","0","","","","","","4","","","","","","","","",""
"","","","","","single-stim-button","211","443191","0.0-2.0-46.7-0.7","611195657110219178aa70e1","C3","batch3","","636","tol_tohand","","","","tol_peg_1","636","636","0","[[0,0,0],[2,3],[0]]","8","[[0,0,0],[2,3],[1]]","12","0","","","","","","4","","","","","","","","",""
"","","","","","single-stim-button","212","444010","0.0-2.0-46.7-1.7","611195657110219178aa70e1","C3","batch3","","819","tol_toboard","","","","tol_peg_3","819","819","0","[[0,0,0],[2,3],[1]]","8","[[0,0,0],[2,3],[1]]","12","0","","","","","","4","","","","","","","","",""
"","","","","","poldrack-single-stim","213","445014","0.0-2.0-47.0","611195657110219178aa70e1","C3","batch3","","-1","tol_feedback","","","true","","1000","1000","500","","","","","","-1","none","true","14510","23417","","","","","","","","","",""
"","","","","","html-button-response","214","446964","0.0-2.0-48.0","611195657110219178aa70e1","C3","batch3","","1949.3999999985099","attention_check","<p class = block-text>How many balls are in your board<br></p>","1","true","","","","","","","","","","","","","","","","","","","","","","","",""
"","","","","","html-button-response","215","447846","0.0-2.0-49.0","611195657110219178aa70e1","C3","batch3","","879.1000000014901","tol_trial_num","<div class = centerbox><p class = center-block-text>problem <strong>14</strong> out of 25 problems</p></div>","0","","","","","","","","","","","","","","","","","","","","","","","","",""
"","","","","","single-stim-button","216","450142","0.0-2.0-50.0-0.0","611195657110219178aa70e1","C3","batch3","","2294","tol_tohand","","","","tol_peg_1","2294","2294","0","[[2,0,0],[3,0],[0]]","1","[[1,2,0],[3,0],[0]]","13","0","","","","","","4","","","","","","","","",""
"","","","","","single-stim-button","217","450779","0.0-2.0-50.0-1.0","611195657110219178aa70e1","C3","batch3","","637","tol_toboard","","","","tol_peg_2","637","637","0","[[2,0,0],[3,1],[0]]","1","[[1,2,0],[3,0],[0]]","13","0","","","","","","4","","","","","","","","",""
"","","","","","single-stim-button","218","452297","0.0-2.0-50.1-0.1","611195657110219178aa70e1","C3","batch3","","1516","tol_tohand","","","","tol_peg_1","1516","1516","0","[[0,0,0],[3,1],[0]]","2","[[1,2,0],[3,0],[0]]","13","0","","","","","","4","","","","","","","","",""
"","","","","","single-stim-button","219","453127","0.0-2.0-50.1-1.1","611195657110219178aa70e1","C3","batch3","","829","tol_toboard","","","","tol_peg_3","829","829","0","[[0,0,0],[3,1],[2]]","2","[[1,2,0],[3,0],[0]]","13","0","","","","","","4","","","","","","","","",""
"","","","","","single-stim-button","220","454250","0.0-2.0-50.2-0.2","611195657110219178aa70e1","C3","batch3","","1122","tol_tohand","","","","tol_peg_2","1122","1122","0","[[0,0,0],[3,0],[2]]","3","[[1,2,0],[3,0],[0]]","13","0","","","","","","4","","","","","","","","",""
"","","","","","single-stim-button","221","455050","0.0-2.0-50.2-1.2","611195657110219178aa70e1","C3","batch3","","798","tol_toboard","","","","tol_peg_1","798","798","0","[[1,0,0],[3,0],[2]]","3","[[1,2,0],[3,0],[0]]","13","0","","","","","","4","","","","","","","","",""
"","","","","","single-stim-button","222","455869","0.0-2.0-50.3-0.3","611195657110219178aa70e1","C3","batch3","","819","tol_tohand","","","","tol_peg_3","819","819","0","[[1,0,0],[3,0],[0]]","4","[[1,2,0],[3,0],[0]]","13","0","","","","","","4","","","","","","","","",""
"","","","","","single-stim-button","223","456729","0.0-2.0-50.3-1.3","611195657110219178aa70e1","C3","batch3","","859","tol_toboard","","","","tol_peg_1","859","859","0","[[1,2,0],[3,0],[0]]","4","[[1,2,0],[3,0],[0]]","13","0","","","","","","4","","","","","","","","",""
"","","","","","poldrack-single-stim","224","457730","0.0-2.0-51.0","611195657110219178aa70e1","C3","batch3","","-1","tol_feedback","","","true","","1000","1000","500","","","","","","-1","none","true","2294","5751","","","","","","","","","",""
"","","","","","html-button-response","225","458621","0.0-2.0-52.0","611195657110219178aa70e1","C3","batch3","","889.2999999970198","tol_trial_num","<div class = centerbox><p class = center-block-text>problem <strong>15</strong> out of 25 problems</p></div>","0","","","","","","","","","","","","","","","","","","","","","","","","",""
"","","","","","single-stim-button","226","462507","0.0-2.0-53.0-0.0","611195657110219178aa70e1","C3","batch3","","3885","tol_tohand","","","","tol_peg_1","3885","3885","0","[[1,0,0],[3,0],[0]]","1","[[2,0,0],[3,0],[1]]","14","0","","","","","","3","","","","","","","","",""
"","","","","","single-stim-button","227","463307","0.0-2.0-53.0-1.0","611195657110219178aa70e1","C3","batch3","","798","tol_toboard","","","","tol_peg_2","798","798","0","[[1,0,0],[3,2],[0]]","1","[[2,0,0],[3,0],[1]]","14","0","","","","","","3","","","","","","","","",""
"","","","","","single-stim-button","228","464055","0.0-2.0-53.1-0.1","611195657110219178aa70e1","C3","batch3","","748","tol_tohand","","","","tol_peg_1","748","748","0","[[0,0,0],[3,2],[0]]","2","[[2,0,0],[3,0],[1]]","14","0","","","","","","3","","","","","","","","",""
"","","","","","single-stim-button","229","464895","0.0-2.0-53.1-1.1","611195657110219178aa70e1","C3","batch3","","839","tol_toboard","","","","tol_peg_3","839","839","0","[[0,0,0],[3,2],[1]]","2","[[2,0,0],[3,0],[1]]","14","0","","","","","","3","","","","","","","","",""
"","","","","","single-stim-button","230","465725","0.0-2.0-53.2-0.2","611195657110219178aa70e1","C3","batch3","","828","tol_tohand","","","","tol_peg_2","828","828","0","[[0,0,0],[3,0],[1]]","3","[[2,0,0],[3,0],[1]]","14","0","","","","","","3","","","","","","","","",""
"","","","","","single-stim-button","231","466515","0.0-2.0-53.2-1.2","611195657110219178aa70e1","C3","batch3","","788","tol_toboard","","","","tol_peg_1","788","788","0","[[2,0,0],[3,0],[1]]","3","[[2,0,0],[3,0],[1]]","14","0","","","","","","3","","","","","","","","",""
"","","","","","poldrack-single-stim","232","467518","0.0-2.0-54.0","611195657110219178aa70e1","C3","batch3","","-1","tol_feedback","","","true","","1000","1000","500","","","","","","-1","none","true","3885","5461","","","","","","","","","",""
"","","","","","html-button-response","233","468548","0.0-2.0-55.0","611195657110219178aa70e1","C3","batch3","","1028.5","tol_trial_num","<div class = centerbox><p class = center-block-text>problem <strong>16</strong> out of 25 problems</p></div>","0","","","","","","","","","","","","","","","","","","","","","","","","",""
"","","","","","single-stim-button","234","472019","0.0-2.0-56.0-0.0","611195657110219178aa70e1","C3","batch3","","3470","tol_tohand","","","","tol_peg_3","3470","3470","0","[[0,0,0],[2,3],[0]]","1","[[2,3,0],[1,0],[0]]","15","0","","","","","","7","","","","","","","","",""
"","","","","","single-stim-button","235","473669","0.0-2.0-56.0-1.0","611195657110219178aa70e1","C3","batch3","","1648","tol_toboard","","","","tol_peg_1","1648","1648","0","[[1,0,0],[2,3],[0]]","1","[[2,3,0],[1,0],[0]]","15","0","","","","","","7","","","","","","","","",""
"","","","","","single-stim-button","236","474428","0.0-2.0-56.1-0.1","611195657110219178aa70e1","C3","batch3","","758","tol_tohand","","","","tol_peg_2","758","758","0","[[1,0,0],[2,0],[0]]","2","[[2,3,0],[1,0],[0]]","15","0","","","","","","7","","","","","","","","",""
"","","","","","single-stim-button","237","475187","0.0-2.0-56.1-1.1","611195657110219178aa70e1","C3","batch3","","758","tol_toboard","","","","tol_peg_1","758","758","0","[[1,3,0],[2,0],[0]]","2","[[2,3,0],[1,0],[0]]","15","0","","","","","","7","","","","","","","","",""
"","","","","","single-stim-button","238","476938","0.0-2.0-56.2-0.2","611195657110219178aa70e1","C3","batch3","","1750","tol_tohand","","","","tol_peg_2","1750","1750","0","[[1,3,0],[0,0],[0]]","3","[[2,3,0],[1,0],[0]]","15","0","","","","","","7","","","","","","","","",""
"","","","","","single-stim-button","239","477808","0.0-2.0-56.2-1.2","611195657110219178aa70e1","C3","batch3","","869","tol_toboard","","","","tol_peg_3","869","869","0","[[1,3,0],[0,0],[2]]","3","[[2,3,0],[1,0],[0]]","15","0","","","","","","7","","","","","","","","",""
"","","","","","single-stim-button","240","481046","0.0-2.0-56.3-0.3","611195657110219178aa70e1","C3","batch3","","3237","tol_tohand","","","","tol_peg_3","3237","3237","0","[[1,3,0],[0,0],[0]]","4","[[2,3,0],[1,0],[0]]","15","0","","","","","","7","","","","","","","","",""
"","","","","","single-stim-button","241","481825","0.0-2.0-56.3-1.3","611195657110219178aa70e1","C3","batch3","","777","tol_toboard","","","","tol_peg_2","777","777","0","[[1,3,0],[2,0],[0]]","4","[[2,3,0],[1,0],[0]]","15","0","","","","","","7","","","","","","","","",""
"","","","","","single-stim-button","242","482797","0.0-2.0-56.4-0.4","611195657110219178aa70e1","C3","batch3","","971","tol_tohand","","","","tol_peg_1","971","971","0","[[1,0,0],[2,0],[0]]","5","[[2,3,0],[1,0],[0]]","15","0","","","","","","7","","","","","","","","",""
"","","","","","single-stim-button","243","484112","0.0-2.0-56.4-1.4","611195657110219178aa70e1","C3","batch3","","1314","tol_toboard","","","","tol_peg_3","1314","1314","0","[[1,0,0],[2,0],[3]]","5","[[2,3,0],[1,0],[0]]","15","0","","","","","","7","","","","","","","","",""
"","","","","","single-stim-button","244","487654","0.0-2.0-56.5-0.5","611195657110219178aa70e1","C3","batch3","","3541","tol_tohand","","","","tol_peg_1","3541","3541","0","[[0,0,0],[2,0],[3]]","6","[[2,3,0],[1,0],[0]]","15","0","","","","","","7","","","","","","","","",""
"","","","","","single-stim-button","245","490144","0.0-2.0-56.5-1.5","611195657110219178aa70e1","C3","batch3","","2489","tol_toboard","","","","tol_peg_1","2489","2489","0","[[1,0,0],[2,0],[3]]","6","[[2,3,0],[1,0],[0]]","15","0","","","","","","7","","","","","","","","",""
"","","","","","single-stim-button","246","490832","0.0-2.0-56.6-0.6","611195657110219178aa70e1","C3","batch3","","686","tol_tohand","","","","tol_peg_3","686","686","0","[[1,0,0],[2,0],[0]]","7","[[2,3,0],[1,0],[0]]","15","0","","","","","","7","","","","","","","","",""
"","","","","","single-stim-button","247","492886","0.0-2.0-56.6-1.6","611195657110219178aa70e1","C3","batch3","","2054","tol_toboard","","","","tol_peg_1","2054","2054","0","[[1,3,0],[2,0],[0]]","7","[[2,3,0],[1,0],[0]]","15","0","","","","","","7","","","","","","","","",""
"","","","","","single-stim-button","248","493554","0.0-2.0-56.7-0.7","611195657110219178aa70e1","C3","batch3","","667","tol_tohand","","","","tol_peg_2","667","667","0","[[1,3,0],[0,0],[0]]","8","[[2,3,0],[1,0],[0]]","15","0","","","","","","7","","","","","","","","",""
"","","","","","single-stim-button","249","494698","0.0-2.0-56.7-1.7","611195657110219178aa70e1","C3","batch3","","1143","tol_toboard","","","","tol_peg_3","1143","1143","0","[[1,3,0],[0,0],[2]]","8","[[2,3,0],[1,0],[0]]","15","0","","","","","","7","","","","","","","","",""
"","","","","","single-stim-button","250","495953","0.0-2.0-56.8-0.8","611195657110219178aa70e1","C3","batch3","","1254","tol_tohand","","","","tol_peg_1","1254","1254","0","[[1,0,0],[0,0],[2]]","9","[[2,3,0],[1,0],[0]]","15","0","","","","","","7","","","","","","","","",""
"","","","","","single-stim-button","251","496784","0.0-2.0-56.8-1.8","611195657110219178aa70e1","C3","batch3","","829","tol_toboard","","","","tol_peg_2","829","829","0","[[1,0,0],[3,0],[2]]","9","[[2,3,0],[1,0],[0]]","15","0","","","","","","7","","","","","","","","",""
"","","","","","single-stim-button","252","497684","0.0-2.0-56.9-0.9","611195657110219178aa70e1","C3","batch3","","899","tol_tohand","","","","tol_peg_1","899","899","0","[[0,0,0],[3,0],[2]]","10","[[2,3,0],[1,0],[0]]","15","0","","","","","","7","","","","","","","","",""
"","","","","","single-stim-button","253","498453","0.0-2.0-56.9-1.9","611195657110219178aa70e1","C3","batch3","","768","tol_toboard","","","","tol_peg_2","768","768","0","[[0,0,0],[3,1],[2]]","10","[[2,3,0],[1,0],[0]]","15","0","","","","","","7","","","","","","","","",""
"","","","","","single-stim-button","254","499202","0.0-2.0-56.10-0.10","611195657110219178aa70e1","C3","batch3","","747","tol_tohand","","","","tol_peg_3","747","747","0","[[0,0,0],[3,1],[0]]","11","[[2,3,0],[1,0],[0]]","15","0","","","","","","7","","","","","","","","",""
"","","","","","single-stim-button","255","500072","0.0-2.0-56.10-1.10","611195657110219178aa70e1","C3","batch3","","870","tol_toboard","","","","tol_peg_1","870","870","0","[[2,0,0],[3,1],[0]]","11","[[2,3,0],[1,0],[0]]","15","0","","","","","","7","","","","","","","","",""
"","","","","","single-stim-button","256","500760","0.0-2.0-56.11-0.11","611195657110219178aa70e1","C3","batch3","","687","tol_tohand","","","","tol_peg_2","687","687","0","[[2,0,0],[3,0],[0]]","12","[[2,3,0],[1,0],[0]]","15","0","","","","","","7","","","","","","","","",""
"","","","","","single-stim-button","257","501510","0.0-2.0-56.11-1.11","611195657110219178aa70e1","C3","batch3","","748","tol_toboard","","","","tol_peg_3","748","748","0","[[2,0,0],[3,0],[1]]","12","[[2,3,0],[1,0],[0]]","15","0","","","","","","7","","","","","","","","",""
"","","","","","single-stim-button","258","502299","0.0-2.0-56.12-0.12","611195657110219178aa70e1","C3","batch3","","782","tol_tohand","","","","tol_peg_2","782","782","0","[[2,0,0],[0,0],[1]]","13","[[2,3,0],[1,0],[0]]","15","0","","","","","","7","","","","","","","","",""
"","","","","","single-stim-button","259","503170","0.0-2.0-56.12-1.12","611195657110219178aa70e1","C3","batch3","","869","tol_toboard","","","","tol_peg_1","869","869","0","[[2,3,0],[0,0],[1]]","13","[[2,3,0],[1,0],[0]]","15","0","","","","","","7","","","","","","","","",""
"","","","","","single-stim-button","260","503939","0.0-2.0-56.13-0.13","611195657110219178aa70e1","C3","batch3","","768","tol_tohand","","","","tol_peg_3","768","768","0","[[2,3,0],[0,0],[0]]","14","[[2,3,0],[1,0],[0]]","15","0","","","","","","7","","","","","","","","",""
"","","","","","single-stim-button","261","504688","0.0-2.0-56.13-1.13","611195657110219178aa70e1","C3","batch3","","748","tol_toboard","","","","tol_peg_2","748","748","0","[[2,3,0],[1,0],[0]]","14","[[2,3,0],[1,0],[0]]","15","0","","","","","","7","","","","","","","","",""
"","","","","","poldrack-single-stim","262","505689","0.0-2.0-57.0","611195657110219178aa70e1","C3","batch3","","-1","tol_feedback","","","true","","1000","1000","500","","","","","","-1","none","true","3470","20217","","","","","","","","","",""
"","","","","","html-button-response","263","506652","0.0-2.0-58.0","611195657110219178aa70e1","C3","batch3","","960.5","tol_trial_num","<div class = centerbox><p class = center-block-text>problem <strong>17</strong> out of 25 problems</p></div>","0","","","","","","","","","","","","","","","","","","","","","","","","",""
"","","","","","single-stim-button","264","509850","0.0-2.0-59.0-0.0","611195657110219178aa70e1","C3","batch3","","3196","tol_tohand","","","","tol_peg_1","3196","3196","0","[[1,0,0],[3,0],[0]]","1","[[3,1,0],[2,0],[0]]","16","0","","","","","","5","","","","","","","","",""
"","","","","","single-stim-button","265","513907","0.0-2.0-59.0-1.0","611195657110219178aa70e1","C3","batch3","","4050","tol_toboard","","","","tol_peg_1","4050","4050","0","[[1,2,0],[3,0],[0]]","1","[[3,1,0],[2,0],[0]]","16","0","","","","","","5","","","","","","","","",""
"","","","","","single-stim-button","266","514687","0.0-2.0-59.1-0.1","611195657110219178aa70e1","C3","batch3","","778","tol_tohand","","","","tol_peg_2","778","778","0","[[1,2,0],[0,0],[0]]","2","[[3,1,0],[2,0],[0]]","16","0","","","","","","5","","","","","","","","",""
"","","","","","single-stim-button","267","515507","0.0-2.0-59.1-1.1","611195657110219178aa70e1","C3","batch3","","819","tol_toboard","","","","tol_peg_3","819","819","0","[[1,2,0],[0,0],[3]]","2","[[3,1,0],[2,0],[0]]","16","0","","","","","","5","","","","","","","","",""
"","","","","","single-stim-button","268","516550","0.0-2.0-59.2-0.2","611195657110219178aa70e1","C3","batch3","","1042","tol_tohand","","","","tol_peg_1","1042","1042","0","[[1,0,0],[0,0],[3]]","3","[[3,1,0],[2,0],[0]]","16","0","","","","","","5","","","","","","","","",""
"","","","","","single-stim-button","269","517472","0.0-2.0-59.2-1.2","611195657110219178aa70e1","C3","batch3","","920","tol_toboard","","","","tol_peg_2","920","920","0","[[1,0,0],[2,0],[3]]","3","[[3,1,0],[2,0],[0]]","16","0","","","","","","5","","","","","","","","",""
"","","","","","single-stim-button","270","518747","0.0-2.0-59.3-0.3","611195657110219178aa70e1","C3","batch3","","1274","tol_tohand","","","","tol_peg_1","1274","1274","0","[[0,0,0],[2,0],[3]]","4","[[3,1,0],[2,0],[0]]","16","0","","","","","","5","","","","","","","","",""
"","","","","","single-stim-button","271","519506","0.0-2.0-59.3-1.3","611195657110219178aa70e1","C3","batch3","","758","tol_toboard","","","","tol_peg_2","758","758","0","[[0,0,0],[2,1],[3]]","4","[[3,1,0],[2,0],[0]]","16","0","","","","","","5","","","","","","","","",""
"","","","","","single-stim-button","272","520224","0.0-2.0-59.4-0.4","611195657110219178aa70e1","C3","batch3","","717","tol_tohand","","","","tol_peg_3","717","717","0","[[0,0,0],[2,1],[0]]","5","[[3,1,0],[2,0],[0]]","16","0","","","","","","5","","","","","","","","",""
"","","","","","single-stim-button","273","521115","0.0-2.0-59.4-1.4","611195657110219178aa70e1","C3","batch3","","890","tol_toboard","","","","tol_peg_1","890","890","0","[[3,0,0],[2,1],[0]]","5","[[3,1,0],[2,0],[0]]","16","0","","","","","","5","","","","","","","","",""
"","","","","","single-stim-button","274","521813","0.0-2.0-59.5-0.5","611195657110219178aa70e1","C3","batch3","","697","tol_tohand","","","","tol_peg_2","697","697","0","[[3,0,0],[2,0],[0]]","6","[[3,1,0],[2,0],[0]]","16","0","","","","","","5","","","","","","","","",""
"","","","","","single-stim-button","275","522663","0.0-2.0-59.5-1.5","611195657110219178aa70e1","C3","batch3","","849","tol_toboard","","","","tol_peg_1","849","849","0","[[3,1,0],[2,0],[0]]","6","[[3,1,0],[2,0],[0]]","16","0","","","","","","5","","","","","","","","",""
"","","","","","poldrack-single-stim","276","523671","0.0-2.0-60.0","611195657110219178aa70e1","C3","batch3","","-1","tol_feedback","","","true","","1000","1000","500","","","","","","-1","none","true","3196","7704","","","","","","","","","",""
"","","","","","html-button-response","277","524576","0.0-2.0-61.0","611195657110219178aa70e1","C3","batch3","","904.1000000014901","tol_trial_num","<div class = centerbox><p class = center-block-text>problem <strong>18</strong> out of 25 problems</p></div>","0","","","","","","","","","","","","","","","","","","","","","","","","",""
"","","","","","single-stim-button","278","530638","0.0-2.0-62.0-0.0","611195657110219178aa70e1","C3","batch3","","6061","tol_tohand","","","","tol_peg_2","6061","6061","0","[[1,2,0],[0,0],[0]]","1","[[3,0,0],[2,0],[1]]","17","0","","","","","","5","","","","","","","","",""
"","","","","","single-stim-button","279","531459","0.0-2.0-62.0-1.0","611195657110219178aa70e1","C3","batch3","","820","tol_toboard","","","","tol_peg_3","820","820","0","[[1,2,0],[0,0],[3]]","1","[[3,0,0],[2,0],[1]]","17","0","","","","","","5","","","","","","","","",""
"","","","","","single-stim-button","280","532401","0.0-2.0-62.1-0.1","611195657110219178aa70e1","C3","batch3","","940","tol_tohand","","","","tol_peg_1","940","940","0","[[1,0,0],[0,0],[3]]","2","[[3,0,0],[2,0],[1]]","17","0","","","","","","5","","","","","","","","",""
"","","","","","single-stim-button","281","533240","0.0-2.0-62.1-1.1","611195657110219178aa70e1","C3","batch3","","839","tol_toboard","","","","tol_peg_2","839","839","0","[[1,0,0],[2,0],[3]]","2","[[3,0,0],[2,0],[1]]","17","0","","","","","","5","","","","","","","","",""
"","","","","","single-stim-button","282","534101","0.0-2.0-62.2-0.2","611195657110219178aa70e1","C3","batch3","","859","tol_tohand","","","","tol_peg_1","859","859","0","[[0,0,0],[2,0],[3]]","3","[[3,0,0],[2,0],[1]]","17","0","","","","","","5","","","","","","","","",""
"","","","","","single-stim-button","283","534849","0.0-2.0-62.2-1.2","611195657110219178aa70e1","C3","batch3","","748","tol_toboard","","","","tol_peg_2","748","748","0","[[0,0,0],[2,1],[3]]","3","[[3,0,0],[2,0],[1]]","17","0","","","","","","5","","","","","","","","",""
"","","","","","single-stim-button","284","535538","0.0-2.0-62.3-0.3","611195657110219178aa70e1","C3","batch3","","687","tol_tohand","","","","tol_peg_3","687","687","0","[[0,0,0],[2,1],[0]]","4","[[3,0,0],[2,0],[1]]","17","0","","","","","","5","","","","","","","","",""
"","","","","","single-stim-button","285","536560","0.0-2.0-62.3-1.3","611195657110219178aa70e1","C3","batch3","","1021","tol_toboard","","","","tol_peg_1","1021","1021","0","[[3,0,0],[2,1],[0]]","4","[[3,0,0],[2,0],[1]]","17","0","","","","","","5","","","","","","","","",""
"","","","","","single-stim-button","286","537289","0.0-2.0-62.4-0.4","611195657110219178aa70e1","C3","batch3","","727","tol_tohand","","","","tol_peg_2","727","727","0","[[3,0,0],[2,0],[0]]","5","[[3,0,0],[2,0],[1]]","17","0","","","","","","5","","","","","","","","",""
"","","","","","single-stim-button","287","537997","0.0-2.0-62.4-1.4","611195657110219178aa70e1","C3","batch3","","707","tol_toboard","","","","tol_peg_3","707","707","0","[[3,0,0],[2,0],[1]]","5","[[3,0,0],[2,0],[1]]","17","0","","","","","","5","","","","","","","","",""
"","","","","","poldrack-single-stim","288","538999","0.0-2.0-63.0","611195657110219178aa70e1","C3","batch3","","-1","tol_feedback","","","true","","1000","1000","500","","","","","","-1","none","true","6061","9274","","","","","","","","","",""
"","","","","","html-button-response","289","539940","0.0-2.0-64.0","611195657110219178aa70e1","C3","batch3","","939.7999999970198","tol_trial_num","<div class = centerbox><p class = center-block-text>problem <strong>19</strong> out of 25 problems</p></div>","0","","","","","","","","","","","","","","","","","","","","","","","","",""
"","","","","","single-stim-button","290","542864","0.0-2.0-65.0-0.0","611195657110219178aa70e1","C3","batch3","","2923","tol_tohand","","","","tol_peg_2","2923","2923","0","[[1,2,0],[0,0],[0]]","1","[[0,0,0],[1,2],[3]]","18","0","","","","","","7","","","","","","","","",""
"","","","","","single-stim-button","291","544827","0.0-2.0-65.0-1.0","611195657110219178aa70e1","C3","batch3","","1962","tol_toboard","","","","tol_peg_2","1962","1962","0","[[1,2,0],[3,0],[0]]","1","[[0,0,0],[1,2],[3]]","18","0","","","","","","7","","","","","","","","",""
"","","","","","single-stim-button","292","546720","0.0-2.0-65.1-0.1","611195657110219178aa70e1","C3","batch3","","1891","tol_tohand","","","","tol_peg_1","1891","1891","0","[[1,0,0],[3,0],[0]]","2","[[0,0,0],[1,2],[3]]","18","0","","","","","","7","","","","","","","","",""
"","","","","","single-stim-button","293","547449","0.0-2.0-65.1-1.1","611195657110219178aa70e1","C3","batch3","","728","tol_toboard","","","","tol_peg_2","728","728","0","[[1,0,0],[3,2],[0]]","2","[[0,0,0],[1,2],[3]]","18","0","","","","","","7","","","","","","","","",""
"","","","","","single-stim-button","294","548167","0.0-2.0-65.2-0.2","611195657110219178aa70e1","C3","batch3","","717","tol_tohand","","","","tol_peg_1","717","717","0","[[0,0,0],[3,2],[0]]","3","[[0,0,0],[1,2],[3]]","18","0","","","","","","7","","","","","","","","",""
"","","","","","single-stim-button","295","549018","0.0-2.0-65.2-1.2","611195657110219178aa70e1","C3","batch3","","850","tol_toboard","","","","tol_peg_3","850","850","0","[[0,0,0],[3,2],[1]]","3","[[0,0,0],[1,2],[3]]","18","0","","","","","","7","","","","","","","","",""
"","","","","","single-stim-button","296","553967","0.0-2.0-65.3-0.3","611195657110219178aa70e1","C3","batch3","","4948","tol_tohand","","","","tol_peg_2","4948","4948","0","[[0,0,0],[3,0],[1]]","4","[[0,0,0],[1,2],[3]]","18","0","","","","","","7","","","","","","","","",""
"","","","","","single-stim-button","297","555091","0.0-2.0-65.3-1.3","611195657110219178aa70e1","C3","batch3","","1123","tol_toboard","","","","tol_peg_1","1123","1123","0","[[2,0,0],[3,0],[1]]","4","[[0,0,0],[1,2],[3]]","18","0","","","","","","7","","","","","","","","",""
"","","","","","single-stim-button","298","556063","0.0-2.0-65.4-0.4","611195657110219178aa70e1","C3","batch3","","970","tol_tohand","","","","tol_peg_2","970","970","0","[[2,0,0],[0,0],[1]]","5","[[0,0,0],[1,2],[3]]","18","0","","","","","","7","","","","","","","","",""
"","","","","","single-stim-button","299","556822","0.0-2.0-65.4-1.4","611195657110219178aa70e1","C3","batch3","","758","tol_toboard","","","","tol_peg_1","758","758","0","[[2,3,0],[0,0],[1]]","5","[[0,0,0],[1,2],[3]]","18","0","","","","","","7","","","","","","","","",""
"","","","","","single-stim-button","300","557561","0.0-2.0-65.5-0.5","611195657110219178aa70e1","C3","batch3","","737","tol_tohand","","","","tol_peg_3","737","737","0","[[2,3,0],[0,0],[0]]","6","[[0,0,0],[1,2],[3]]","18","0","","","","","","7","","","","","","","","",""
"","","","","","single-stim-button","301","558412","0.0-2.0-65.5-1.5","611195657110219178aa70e1","C3","batch3","","850","tol_toboard","","","","tol_peg_2","850","850","0","[[2,3,0],[1,0],[0]]","6","[[0,0,0],[1,2],[3]]","18","0","","","","","","7","","","","","","","","",""
"","","","","","single-stim-button","302","559221","0.0-2.0-65.6-0.6","611195657110219178aa70e1","C3","batch3","","809","tol_tohand","","","","tol_peg_1","809","809","0","[[2,0,0],[1,0],[0]]","7","[[0,0,0],[1,2],[3]]","18","0","","","","","","7","","","","","","","","",""
"","","","","","single-stim-button","303","560031","0.0-2.0-65.6-1.6","611195657110219178aa70e1","C3","batch3","","808","tol_toboard","","","","tol_peg_3","808","808","0","[[2,0,0],[1,0],[3]]","7","[[0,0,0],[1,2],[3]]","18","0","","","","","","7","","","","","","","","",""
"","","","","","single-stim-button","304","560739","0.0-2.0-65.7-0.7","611195657110219178aa70e1","C3","batch3","","707","tol_tohand","","","","tol_peg_1","707","707","0","[[0,0,0],[1,0],[3]]","8","[[0,0,0],[1,2],[3]]","18","0","","","","","","7","","","","","","","","",""
"","","","","","single-stim-button","305","561488","0.0-2.0-65.7-1.7","611195657110219178aa70e1","C3","batch3","","747","tol_toboard","","","","tol_peg_2","747","747","0","[[0,0,0],[1,2],[3]]","8","[[0,0,0],[1,2],[3]]","18","0","","","","","","7","","","","","","","","",""
"","","","","","poldrack-single-stim","306","562494","0.0-2.0-66.0","611195657110219178aa70e1","C3","batch3","","-1","tol_feedback","","","true","","1000","1000","500","","","","","","-1","none","true","2923","13702","","","","","","","","","",""
"","","","","","html-button-response","307","563229","0.0-2.0-67.0","611195657110219178aa70e1","C3","batch3","","733.1000000014901","tol_trial_num","<div class = centerbox><p class = center-block-text>problem <strong>20</strong> out of 25 problems</p></div>","0","","","","","","","","","","","","","","","","","","","","","","","","",""
"","","","","","single-stim-button","308","565921","0.0-2.0-68.0-0.0","611195657110219178aa70e1","C3","batch3","","2690","tol_tohand","","","","tol_peg_1","2690","2690","0","[[1,0,0],[3,0],[0]]","1","[[2,1,0],[0,0],[3]]","19","0","","","","","","5","","","","","","","","",""
"","","","","","single-stim-button","309","567044","0.0-2.0-68.0-1.0","611195657110219178aa70e1","C3","batch3","","1122","tol_toboard","","","","tol_peg_2","1122","1122","0","[[1,0,0],[3,2],[0]]","1","[[2,1,0],[0,0],[3]]","19","0","","","","","","5","","","","","","","","",""
"","","","","","single-stim-button","310","567742","0.0-2.0-68.1-0.1","611195657110219178aa70e1","C3","batch3","","697","tol_tohand","","","","tol_peg_1","697","697","0","[[0,0,0],[3,2],[0]]","2","[[2,1,0],[0,0],[3]]","19","0","","","","","","5","","","","","","","","",""
"","","","","","single-stim-button","311","569655","0.0-2.0-68.1-1.1","611195657110219178aa70e1","C3","batch3","","1911","tol_toboard","","","","tol_peg_3","1911","1911","0","[[0,0,0],[3,2],[1]]","2","[[2,1,0],[0,0],[3]]","19","0","","","","","","5","","","","","","","","",""
"","","","","","single-stim-button","312","570393","0.0-2.0-68.2-0.2","611195657110219178aa70e1","C3","batch3","","737","tol_tohand","","","","tol_peg_2","737","737","0","[[0,0,0],[3,0],[1]]","3","[[2,1,0],[0,0],[3]]","19","0","","","","","","5","","","","","","","","",""
"","","","","","single-stim-button","313","571162","0.0-2.0-68.2-1.2","611195657110219178aa70e1","C3","batch3","","768","tol_toboard","","","","tol_peg_1","768","768","0","[[2,0,0],[3,0],[1]]","3","[[2,1,0],[0,0],[3]]","19","0","","","","","","5","","","","","","","","",""
"","","","","","single-stim-button","314","572093","0.0-2.0-68.3-0.3","611195657110219178aa70e1","C3","batch3","","930","tol_tohand","","","","tol_peg_3","930","930","0","[[2,0,0],[3,0],[0]]","4","[[2,1,0],[0,0],[3]]","19","0","","","","","","5","","","","","","","","",""
"","","","","","single-stim-button","315","572822","0.0-2.0-68.3-1.3","611195657110219178aa70e1","C3","batch3","","727","tol_toboard","","","","tol_peg_1","727","727","0","[[2,1,0],[3,0],[0]]","4","[[2,1,0],[0,0],[3]]","19","0","","","","","","5","","","","","","","","",""
"","","","","","single-stim-button","316","573510","0.0-2.0-68.4-0.4","611195657110219178aa70e1","C3","batch3","","688","tol_tohand","","","","tol_peg_2","688","688","0","[[2,1,0],[0,0],[0]]","5","[[2,1,0],[0,0],[3]]","19","0","","","","","","5","","","","","","","","",""
"","","","","","single-stim-button","317","574562","0.0-2.0-68.4-1.4","611195657110219178aa70e1","C3","batch3","","1051","tol_toboard","","","","tol_peg_3","1051","1051","0","[[2,1,0],[0,0],[3]]","5","[[2,1,0],[0,0],[3]]","19","0","","","","","","5","","","","","","","","",""
"","","","","","poldrack-single-stim","318","575564","0.0-2.0-69.0","611195657110219178aa70e1","C3","batch3","","-1","tol_feedback","","","true","","1000","1000","500","","","","","","-1","none","true","2690","5742","","","","","","","","","",""
"","","","","","html-button-response","319","576050","0.0-2.0-70.0","611195657110219178aa70e1","C3","batch3","","484.59999999403954","tol_trial_num","<div class = centerbox><p class = center-block-text>problem <strong>21</strong> out of 25 problems</p></div>","0","","","","","","","","","","","","","","","","","","","","","","","","",""
"","","","","","single-stim-button","320","579350","0.0-2.0-71.0-0.0","611195657110219178aa70e1","C3","batch3","","3297","tol_tohand","","","","tol_peg_2","3297","3297","0","[[1,2,0],[0,0],[0]]","1","[[3,2,0],[0,0],[1]]","20","0","","","","","","6","","","","","","","","",""
"","","","","","single-stim-button","321","580210","0.0-2.0-71.0-1.0","611195657110219178aa70e1","C3","batch3","","859","tol_toboard","","","","tol_peg_3","859","859","0","[[1,2,0],[0,0],[3]]","1","[[3,2,0],[0,0],[1]]","20","0","","","","","","6","","","","","","","","",""
"","","","","","single-stim-button","322","581212","0.0-2.0-71.1-0.1","611195657110219178aa70e1","C3","batch3","","1001","tol_tohand","","","","tol_peg_1","1001","1001","0","[[1,0,0],[0,0],[3]]","2","[[3,2,0],[0,0],[1]]","20","0","","","","","","6","","","","","","","","",""
"","","","","","single-stim-button","323","583276","0.0-2.0-71.1-1.1","611195657110219178aa70e1","C3","batch3","","2064","tol_toboard","","","","tol_peg_2","2064","2064","0","[[1,0,0],[2,0],[3]]","2","[[3,2,0],[0,0],[1]]","20","0","","","","","","6","","","","","","","","",""
"","","","","","single-stim-button","324","583975","0.0-2.0-71.2-0.2","611195657110219178aa70e1","C3","batch3","","698","tol_tohand","","","","tol_peg_1","698","698","0","[[0,0,0],[2,0],[3]]","3","[[3,2,0],[0,0],[1]]","20","0","","","","","","6","","","","","","","","",""
"","","","","","single-stim-button","325","584653","0.0-2.0-71.2-1.2","611195657110219178aa70e1","C3","batch3","","677","tol_toboard","","","","tol_peg_2","677","677","0","[[0,0,0],[2,1],[3]]","3","[[3,2,0],[0,0],[1]]","20","0","","","","","","6","","","","","","","","",""
"","","","","","single-stim-button","326","585504","0.0-2.0-71.3-0.3","611195657110219178aa70e1","C3","batch3","","849","tol_tohand","","","","tol_peg_3","849","849","0","[[0,0,0],[2,1],[0]]","4","[[3,2,0],[0,0],[1]]","20","0","","","","","","6","","","","","","","","",""
"","","","","","single-stim-button","327","586444","0.0-2.0-71.3-1.3","611195657110219178aa70e1","C3","batch3","","940","tol_toboard","","","","tol_peg_1","940","940","0","[[3,0,0],[2,1],[0]]","4","[[3,2,0],[0,0],[1]]","20","0","","","","","","6","","","","","","","","",""
"","","","","","single-stim-button","328","587315","0.0-2.0-71.4-0.4","611195657110219178aa70e1","C3","batch3","","869","tol_tohand","","","","tol_peg_2","869","869","0","[[3,0,0],[2,0],[0]]","5","[[3,2,0],[0,0],[1]]","20","0","","","","","","6","","","","","","","","",""
"","","","","","single-stim-button","329","588347","0.0-2.0-71.4-1.4","611195657110219178aa70e1","C3","batch3","","1031","tol_toboard","","","","tol_peg_3","1031","1031","0","[[3,0,0],[2,0],[1]]","5","[[3,2,0],[0,0],[1]]","20","0","","","","","","6","","","","","","","","",""
"","","","","","single-stim-button","330","589136","0.0-2.0-71.5-0.5","611195657110219178aa70e1","C3","batch3","","789","tol_tohand","","","","tol_peg_2","789","789","0","[[3,0,0],[0,0],[1]]","6","[[3,2,0],[0,0],[1]]","20","0","","","","","","6","","","","","","","","",""
"","","","","","single-stim-button","331","590028","0.0-2.0-71.5-1.5","611195657110219178aa70e1","C3","batch3","","889","tol_toboard","","","","tol_peg_1","889","889","0","[[3,2,0],[0,0],[1]]","6","[[3,2,0],[0,0],[1]]","20","0","","","","","","6","","","","","","","","",""
"","","","","","poldrack-single-stim","332","591030","0.0-2.0-72.0","611195657110219178aa70e1","C3","batch3","","-1","tol_feedback","","","true","","1000","1000","500","","","","","","-1","none","true","3297","7503","","","","","","","","","",""
"","","","","","html-button-response","333","592709","0.0-2.0-73.0","611195657110219178aa70e1","C3","batch3","","1677.5","tol_trial_num","<div class = centerbox><p class = center-block-text>problem <strong>22</strong> out of 25 problems</p></div>","0","","","","","","","","","","","","","","","","","","","","","","","","",""
"","","","","","single-stim-button","334","595320","0.0-2.0-74.0-0.0","611195657110219178aa70e1","C3","batch3","","2610","tol_tohand","","","","tol_peg_2","2610","2610","0","[[1,0,0],[2,0],[0]]","1","[[0,0,0],[1,2],[3]]","21","0","","","","","","6","","","","","","","","",""
"","","","","","single-stim-button","335","600431","0.0-2.0-74.0-1.0","611195657110219178aa70e1","C3","batch3","","5110","tol_toboard","","","","tol_peg_1","5110","5110","0","[[1,3,0],[2,0],[0]]","1","[[0,0,0],[1,2],[3]]","21","0","","","","","","6","","","","","","","","",""
"","","","","","single-stim-button","336","601322","0.0-2.0-74.1-0.1","611195657110219178aa70e1","C3","batch3","","889","tol_tohand","","","","tol_peg_2","889","889","0","[[1,3,0],[0,0],[0]]","2","[[0,0,0],[1,2],[3]]","21","0","","","","","","6","","","","","","","","",""
"","","","","","single-stim-button","337","603427","0.0-2.0-74.1-1.1","611195657110219178aa70e1","C3","batch3","","2103","tol_toboard","","","","tol_peg_2","2103","2103","0","[[1,3,0],[2,0],[0]]","2","[[0,0,0],[1,2],[3]]","21","0","","","","","","6","","","","","","","","",""
"","","","","","single-stim-button","338","604267","0.0-2.0-74.2-0.2","611195657110219178aa70e1","C3","batch3","","838","tol_tohand","","","","tol_peg_1","838","838","0","[[1,0,0],[2,0],[0]]","3","[[0,0,0],[1,2],[3]]","21","0","","","","","","6","","","","","","","","",""
"","","","","","single-stim-button","339","604874","0.0-2.0-74.2-1.2","611195657110219178aa70e1","C3","batch3","","606","tol_toboard","","","","tol_peg_2","606","606","0","[[1,0,0],[2,3],[0]]","3","[[0,0,0],[1,2],[3]]","21","0","","","","","","6","","","","","","","","",""
"","","","","","single-stim-button","340","605451","0.0-2.0-74.3-0.3","611195657110219178aa70e1","C3","batch3","","576","tol_tohand","","","","tol_peg_1","576","576","0","[[0,0,0],[2,3],[0]]","4","[[0,0,0],[1,2],[3]]","21","0","","","","","","6","","","","","","","","",""
"","","","","","single-stim-button","341","606393","0.0-2.0-74.3-1.3","611195657110219178aa70e1","C3","batch3","","940","tol_toboard","","","","tol_peg_3","940","940","0","[[0,0,0],[2,3],[1]]","4","[[0,0,0],[1,2],[3]]","21","0","","","","","","6","","","","","","","","",""
"","","","","","single-stim-button","342","607152","0.0-2.0-74.4-0.4","611195657110219178aa70e1","C3","batch3","","759","tol_tohand","","","","tol_peg_2","759","759","0","[[0,0,0],[2,0],[1]]","5","[[0,0,0],[1,2],[3]]","21","0","","","","","","6","","","","","","","","",""
"","","","","","single-stim-button","343","608822","0.0-2.0-74.4-1.4","611195657110219178aa70e1","C3","batch3","","1668","tol_toboard","","","","tol_peg_1","1668","1668","0","[[3,0,0],[2,0],[1]]","5","[[0,0,0],[1,2],[3]]","21","0","","","","","","6","","","","","","","","",""
"","","","","","single-stim-button","344","609480","0.0-2.0-74.5-0.5","611195657110219178aa70e1","C3","batch3","","657","tol_tohand","","","","tol_peg_2","657","657","0","[[3,0,0],[0,0],[1]]","6","[[0,0,0],[1,2],[3]]","21","0","","","","","","6","","","","","","","","",""
"","","","","","single-stim-button","345","610289","0.0-2.0-74.5-1.5","611195657110219178aa70e1","C3","batch3","","809","tol_toboard","","","","tol_peg_1","809","809","0","[[3,2,0],[0,0],[1]]","6","[[0,0,0],[1,2],[3]]","21","0","","","","","","6","","","","","","","","",""
"","","","","","single-stim-button","346","610998","0.0-2.0-74.6-0.6","611195657110219178aa70e1","C3","batch3","","707","tol_tohand","","","","tol_peg_3","707","707","0","[[3,2,0],[0,0],[0]]","7","[[0,0,0],[1,2],[3]]","21","0","","","","","","6","","","","","","","","",""
"","","","","","single-stim-button","347","611788","0.0-2.0-74.6-1.6","611195657110219178aa70e1","C3","batch3","","788","tol_toboard","","","","tol_peg_2","788","788","0","[[3,2,0],[1,0],[0]]","7","[[0,0,0],[1,2],[3]]","21","0","","","","","","6","","","","","","","","",""
"","","","","","single-stim-button","348","612537","0.0-2.0-74.7-0.7","611195657110219178aa70e1","C3","batch3","","747","tol_tohand","","","","tol_peg_1","747","747","0","[[3,0,0],[1,0],[0]]","8","[[0,0,0],[1,2],[3]]","21","0","","","","","","6","","","","","","","","",""
"","","","","","single-stim-button","349","614156","0.0-2.0-74.7-1.7","611195657110219178aa70e1","C3","batch3","","1618","tol_toboard","","","","tol_peg_2","1618","1618","0","[[3,0,0],[1,2],[0]]","8","[[0,0,0],[1,2],[3]]","21","0","","","","","","6","","","","","","","","",""
"","","","","","single-stim-button","350","614935","0.0-2.0-74.8-0.8","611195657110219178aa70e1","C3","batch3","","778","tol_tohand","","","","tol_peg_1","778","778","0","[[0,0,0],[1,2],[0]]","9","[[0,0,0],[1,2],[3]]","21","0","","","","","","6","","","","","","","","",""
"","","","","","single-stim-button","351","615765","0.0-2.0-74.8-1.8","611195657110219178aa70e1","C3","batch3","","829","tol_toboard","","","","tol_peg_3","829","829","0","[[0,0,0],[1,2],[3]]","9","[[0,0,0],[1,2],[3]]","21","0","","","","","","6","","","","","","","","",""
"","","","","","poldrack-single-stim","352","616766","0.0-2.0-75.0","611195657110219178aa70e1","C3","batch3","","-1","tol_feedback","","","true","","1000","1000","500","","","","","","-1","none","true","2610","8561","","","","","","","","","",""
"","","","","","html-button-response","353","617313","0.0-2.0-76.0","611195657110219178aa70e1","C3","batch3","","545.2999999970198","tol_trial_num","<div class = centerbox><p class = center-block-text>problem <strong>23</strong> out of 25 problems</p></div>","0","","","","","","","","","","","","","","","","","","","","","","","","",""
