"success","timeout","failed_images","failed_audio","failed_video","trial_type","trial_index","time_elapsed","internal_node_id","subject_id","study_id","session_id","view_history","rt","stimulus","response","task","correct","answer","item","fiar_detect_rt","fiar_detect_correct","total_correct_fiar_detect","post_trial_gap","choices","mouse_click","stim_duration","block_duration","timing_post_trial","current_position","tol_num_moves_made","tol_target","tol_problem_id","tol_rt","key_press","possible_responses","tol_correct","preplanning","tol_rt_per_trial","tol_min_moves","spm_correct","spm_rt"
"true","false","[]","[]","[]","preload","0","8120","0.0-0.0","61112e5f99facb9056c5e6ba","A3","batch1","","","","","","","","","","","","","","","","","","","","","","","","","","","","","",""
"true","","","","","fullscreen","1","26485","0.0-1.0-0.0","61112e5f99facb9056c5e6ba","A3","batch1","","","","","","","","","","","","","","","","","","","","","","","","","","","","","",""
"true","","","","","fullscreen","2","30047","0.0-2.0-0.0","61112e5f99facb9056c5e6ba","A3","batch1","","","","","","","","","","","","","","","","","","","","","","","","","","","","","",""
"","","","","","instructions","3","42860","0.0-2.0-1.0-0.0","61112e5f99facb9056c5e6ba","A3","batch1","[{""page_index"":0,""viewing_time"":8746.09999999404},{""page_index"":1,""viewing_time"":4063.7000000029802}]","12810.29999999702","","","","","","","","","","","","","","","","","","","","","","","","","","","",""
"","","","","","html-button-response","4","43987","0.0-2.0-1.0-1.0-0.0","61112e5f99facb9056c5e6ba","A3","batch1","","1124.800000011921","<p class=block-text> Let's answer a few questions <br>","0","pattern_enter_quiz","","","","","","","","","","","","","","","","","","","","","","","","",""
"","","","","","html-button-response","5","45421","0.0-2.0-1.0-1.0-1.0","61112e5f99facb9056c5e6ba","A3","batch1","","1430.5","<p class = block-text>True or False: You will have as much time as you want to make each choice. <br></p>","1","pattern_quiz","true","","","","","","","","","","","","","","","","","","","","","","","",""
"","","","","","html-button-response","6","46604","0.0-2.0-1.0-1.0-2.0","61112e5f99facb9056c5e6ba","A3","batch1","","1180.7999999970198","<p class = block-text>Correct! You should make your choice <strong> as fast as you can</strong>.</p>","0","pattern_quiz_feedback","","","","","","","","","","","","","","","","","","","","","","","","",""
"","","","","","html-button-response","7","50481","0.0-2.0-1.0-1.0-3.0","61112e5f99facb9056c5e6ba","A3","batch1","","3874.199999988079","<p class = block-text>True or False: You will look for 4 pieces in black or white color connected in a row either horizontally, vertically or diagonally. <br></p>","0","pattern_quiz","true","","","","","","","","","","","","","","","","","","","","","","","",""
"","","","","","html-button-response","8","51278","0.0-2.0-1.0-1.0-4.0","61112e5f99facb9056c5e6ba","A3","batch1","","794.6999999880791","<p class = block-text>Correct! </p>","0","pattern_quiz_feedback","","","","","","","","","","","","","","","","","","","","","","","","",""
"","","","","","html-button-response","9","52779","0.0-2.0-2.0","61112e5f99facb9056c5e6ba","A3","batch1","","1498.0999999940395","<p class=block-text> Now that you've understood the game, let's do a few practice trials before we start!<br> <br>","0","pattern_enter_practice","","","","","","","","","","","","","","","","","","","","","","","","",""
"","","","","","image-keyboard-response","10","53815","0.0-2.0-3.0-0.0","61112e5f99facb9056c5e6ba","A3","batch1","","1031.2000000029802","stim/prac_yes_16_ver_w1.png","f","pattern_practice","true","f","","","","","","","","","","","","","","","","","","","","","","",""
"","","","","","html-keyboard-response","11","54829","0.0-2.0-3.0-1.0","61112e5f99facb9056c5e6ba","A3","batch1","","null","<p style=""font-size:30px;color:green;"">Correct!</p>","null","pattern_feedback","","","","","","","","","","","","","","","","","","","","","","","","",""
"","","","","","image-keyboard-response","12","55900","0.0-2.0-3.0-0.1","61112e5f99facb9056c5e6ba","A3","batch1","","1068","stim/prac_no_16_1.png","j","pattern_practice","true","j","","","","","","","","","","","","","","","","","","","","","","",""
"","","","","","html-keyboard-response","13","56916","0.0-2.0-3.0-1.1","61112e5f99facb9056c5e6ba","A3","batch1","","null","<p style=""font-size:30px;color:green;"">Correct!</p>","null","pattern_feedback","","","","","","","","","","","","","","","","","","","","","","","","",""
"","","","","","image-keyboard-response","14","57795","0.0-2.0-3.0-0.2","61112e5f99facb9056c5e6ba","A3","batch1","","875.2999999970198","stim/prac_no_18_1.png","j","pattern_practice","true","j","","","","","","","","","","","","","","","","","","","","","","",""
"","","","","","html-keyboard-response","15","58805","0.0-2.0-3.0-1.2","61112e5f99facb9056c5e6ba","A3","batch1","","null","<p style=""font-size:30px;color:green;"">Correct!</p>","null","pattern_feedback","","","","","","","","","","","","","","","","","","","","","","","","",""
"","","","","","image-keyboard-response","16","59650","0.0-2.0-3.0-0.3","61112e5f99facb9056c5e6ba","A3","batch1","","841.2000000029802","stim/prac_yes_18_hor_w1.png","f","pattern_practice","true","f","","","","","","","","","","","","","","","","","","","","","","",""
"","","","","","html-keyboard-response","17","60668","0.0-2.0-3.0-1.3","61112e5f99facb9056c5e6ba","A3","batch1","","null","<p style=""font-size:30px;color:green;"">Correct!</p>","null","pattern_feedback","","","","","","","","","","","","","","","","","","","","","","","","",""
"","","","","","image-keyboard-response","18","61392","0.0-2.0-3.0-0.4","61112e5f99facb9056c5e6ba","A3","batch1","","720.1999999880791","stim/prac_yes_20_dia_b1.png","j","pattern_practice","false","f","","","","","","","","","","","","","","","","","","","","","","",""
"","","","","","html-keyboard-response","19","62412","0.0-2.0-3.0-1.4","61112e5f99facb9056c5e6ba","A3","batch1","","null","<p style=""font-size:30px;color:red;"">Wrong.</p>","null","pattern_feedback","","","","","","","","","","","","","","","","","","","","","","","","",""
"","","","","","html-button-response","20","64748","0.0-2.0-4.0","61112e5f99facb9056c5e6ba","A3","batch1","","2333.1000000089407","<p class=block-text> Good job! You are done with practice trials!<br>
        You responded correctly on 80% of the trials.<br>
        Press the button below to start official trials. Now you won't see any feedback about your response</p>","0","pattern_enter_official_trials","","","","","","","","","","","","","","","","","","","","","","","","",""
"","","","","","html-keyboard-response","21","65556","0.0-2.0-5.0-0.0","61112e5f99facb9056c5e6ba","A3","batch1","","null","<p class=block-text>Trial 1 out of 78</p>","null","pattern_show_trial_num","","","","","","","","","","","","","","","","","","","","","","","","",""
"","","","","","image-keyboard-response","22","68588","0.0-2.0-5.0-1.0","61112e5f99facb9056c5e6ba","A3","batch1","","3027.6000000089407","stim/no_58_1_w.png","j","pattern_response","true","j","pattern_35","3027.6000000089407","true","1","","","","","","","","","","","","","","","","","","",""
"","","","","","html-keyboard-response","23","69902","0.0-2.0-5.0-0.1","61112e5f99facb9056c5e6ba","A3","batch1","","null","<p class=block-text>Trial 2 out of 78</p>","null","pattern_show_trial_num","","","","","","","","","","","","","","","","","","","","","","","","",""
"","","","","","image-keyboard-response","24","73122","0.0-2.0-5.0-1.1","61112e5f99facb9056c5e6ba","A3","batch1","","3217.2000000029802","stim/no_51_1.png","j","pattern_response","true","j","pattern_31","3217.2000000029802","true","2","","","","","","","","","","","","","","","","","","",""
"","","","","","html-keyboard-response","25","74436","0.0-2.0-5.0-0.2","61112e5f99facb9056c5e6ba","A3","batch1","","null","<p class=block-text>Trial 3 out of 78</p>","null","pattern_show_trial_num","","","","","","","","","","","","","","","","","","","","","","","","",""
"","","","","","image-keyboard-response","26","77688","0.0-2.0-5.0-1.2","61112e5f99facb9056c5e6ba","A3","batch1","","3247.4000000059605","stim/no_28_2.png","j","pattern_response","true","j","pattern_11","3247.4000000059605","true","3","","","","","","","","","","","","","","","","","","",""
"","","","","","html-keyboard-response","27","79005","0.0-2.0-5.0-0.3","61112e5f99facb9056c5e6ba","A3","batch1","","null","<p class=block-text>Trial 4 out of 78</p>","null","pattern_show_trial_num","","","","","","","","","","","","","","","","","","","","","","","","",""
"","","","","","image-keyboard-response","28","82651","0.0-2.0-5.0-1.3","61112e5f99facb9056c5e6ba","A3","batch1","","3641.7999999970198","stim/no_33_1_b.png","j","pattern_response","true","j","pattern_15","3641.7999999970198","true","4","","","","","","","","","","","","","","","","","","",""
"","","","","","html-keyboard-response","29","83966","0.0-2.0-5.0-0.4","61112e5f99facb9056c5e6ba","A3","batch1","","null","<p class=block-text>Trial 5 out of 78</p>","null","pattern_show_trial_num","","","","","","","","","","","","","","","","","","","","","","","","",""
"","","","","","image-keyboard-response","30","85186","0.0-2.0-5.0-1.4","61112e5f99facb9056c5e6ba","A3","batch1","","1215.5","stim/yes_39_hor_w1_w.png","f","pattern_response","true","f","pattern_62","1215.5","true","5","","","","","","","","","","","","","","","","","","",""
"","","","","","html-keyboard-response","31","86499","0.0-2.0-5.0-0.5","61112e5f99facb9056c5e6ba","A3","batch1","","null","<p class=block-text>Trial 6 out of 78</p>","null","pattern_show_trial_num","","","","","","","","","","","","","","","","","","","","","","","","",""
"","","","","","image-keyboard-response","32","91878","0.0-2.0-5.0-1.5","61112e5f99facb9056c5e6ba","A3","batch1","","5374.9000000059605","stim/no_53_1_b.png","j","pattern_response","true","j","pattern_33","5374.9000000059605","true","6","","","","","","","","","","","","","","","","","","",""
"","","","","","html-keyboard-response","33","93192","0.0-2.0-5.0-0.6","61112e5f99facb9056c5e6ba","A3","batch1","","null","<p class=block-text>Trial 7 out of 78</p>","null","pattern_show_trial_num","","","","","","","","","","","","","","","","","","","","","","","","",""
"","","","","","image-keyboard-response","34","94659","0.0-2.0-5.0-1.6","61112e5f99facb9056c5e6ba","A3","batch1","","1463.800000011921","stim/no_22_1_b.png","j","pattern_response","true","j","pattern_07","1463.800000011921","true","7","","","","","","","","","","","","","","","","","","",""
"","","","","","html-keyboard-response","35","95973","0.0-2.0-5.0-0.7","61112e5f99facb9056c5e6ba","A3","batch1","","null","<p class=block-text>Trial 8 out of 78</p>","null","pattern_show_trial_num","","","","","","","","","","","","","","","","","","","","","","","","",""
"","","","","","image-keyboard-response","36","100128","0.0-2.0-5.0-1.7","61112e5f99facb9056c5e6ba","A3","batch1","","4152.300000011921","stim/no_43_2_b.png","j","pattern_response","true","j","pattern_23","4152.300000011921","true","8","","","","","","","","","","","","","","","","","","",""
"","","","","","html-keyboard-response","37","101446","0.0-2.0-5.0-0.8","61112e5f99facb9056c5e6ba","A3","batch1","","null","<p class=block-text>Trial 9 out of 78</p>","null","pattern_show_trial_num","","","","","","","","","","","","","","","","","","","","","","","","",""
"","","","","","image-keyboard-response","38","103584","0.0-2.0-5.0-1.8","61112e5f99facb9056c5e6ba","A3","batch1","","2134.7999999970198","stim/no_30_1_b.png","j","pattern_response","true","j","pattern_13","2134.7999999970198","true","9","","","","","","","","","","","","","","","","","","",""
"","","","","","html-keyboard-response","39","104900","0.0-2.0-5.0-0.9","61112e5f99facb9056c5e6ba","A3","batch1","","null","<p class=block-text>Trial 10 out of 78</p>","null","pattern_show_trial_num","","","","","","","","","","","","","","","","","","","","","","","","",""
"","","","","","image-keyboard-response","40","109000","0.0-2.0-5.0-1.9","61112e5f99facb9056c5e6ba","A3","batch1","","4095.2000000029802","stim/yes_44_ver_w1_w.png","j","pattern_response","false","f","pattern_66","4095.2000000029802","false","9","","","","","","","","","","","","","","","","","","",""
"","","","","","html-keyboard-response","41","110316","0.0-2.0-5.0-0.10","61112e5f99facb9056c5e6ba","A3","batch1","","null","<p class=block-text>Trial 11 out of 78</p>","null","pattern_show_trial_num","","","","","","","","","","","","","","","","","","","","","","","","",""
"","","","","","image-keyboard-response","42","114054","0.0-2.0-5.0-1.10","61112e5f99facb9056c5e6ba","A3","batch1","","3735.0999999940395","stim/no_47_1_b.png","j","pattern_response","true","j","pattern_27","3735.0999999940395","true","10","","","","","","","","","","","","","","","","","","",""
"","","","","","html-keyboard-response","43","115364","0.0-2.0-5.0-0.11","61112e5f99facb9056c5e6ba","A3","batch1","","null","<p class=block-text>Trial 12 out of 78</p>","null","pattern_show_trial_num","","","","","","","","","","","","","","","","","","","","","","","","",""
"","","","","","image-keyboard-response","44","116624","0.0-2.0-5.0-1.11","61112e5f99facb9056c5e6ba","A3","batch1","","1253.2000000029802","stim/yes_33_dia_w1_w.png","f","pattern_response","true","f","pattern_56","1253.2000000029802","true","11","","","","","","","","","","","","","","","","","","",""
"","","","","","html-keyboard-response","45","117944","0.0-2.0-5.0-0.12","61112e5f99facb9056c5e6ba","A3","batch1","","null","<p class=block-text>Trial 13 out of 78</p>","null","pattern_show_trial_num","","","","","","","","","","","","","","","","","","","","","","","","",""
"","","","","","image-keyboard-response","46","122777","0.0-2.0-5.0-1.12","61112e5f99facb9056c5e6ba","A3","batch1","","4829.5","stim/no_67_1.png","j","pattern_response","true","j","pattern_39","4829.5","true","12","","","","","","","","","","","","","","","","","","",""
"","","","","","html-keyboard-response","47","124092","0.0-2.0-5.0-0.13","61112e5f99facb9056c5e6ba","A3","batch1","","null","<p class=block-text>Trial 14 out of 78</p>","null","pattern_show_trial_num","","","","","","","","","","","","","","","","","","","","","","","","",""
"","","","","","image-keyboard-response","48","125000","0.0-2.0-5.0-1.13","61112e5f99facb9056c5e6ba","A3","batch1","","904.5","stim/no_12_1.png","j","pattern_response","true","j","pattern_01","904.5","true","13","","","","","","","","","","","","","","","","","","",""
"","","","","","html-keyboard-response","49","126316","0.0-2.0-5.0-0.14","61112e5f99facb9056c5e6ba","A3","batch1","","null","<p class=block-text>Trial 15 out of 78</p>","null","pattern_show_trial_num","","","","","","","","","","","","","","","","","","","","","","","","",""
"","","","","","image-keyboard-response","50","127691","0.0-2.0-5.0-1.14","61112e5f99facb9056c5e6ba","A3","batch1","","1371.5","stim/no_15_1_w.png","j","pattern_response","true","j","pattern_03","1371.5","true","14","","","","","","","","","","","","","","","","","","",""
"","","","","","html-keyboard-response","51","129005","0.0-2.0-5.0-0.15","61112e5f99facb9056c5e6ba","A3","batch1","","null","<p class=block-text>Trial 16 out of 78</p>","null","pattern_show_trial_num","","","","","","","","","","","","","","","","","","","","","","","","",""
"","","","","","image-keyboard-response","52","131451","0.0-2.0-5.0-1.15","61112e5f99facb9056c5e6ba","A3","batch1","","2441.6000000089407","stim/no_36_1_b.png","j","pattern_response","true","j","pattern_17","2441.6000000089407","true","15","","","","","","","","","","","","","","","","","","",""
"","","","","","html-keyboard-response","53","132766","0.0-2.0-5.0-0.16","61112e5f99facb9056c5e6ba","A3","batch1","","null","<p class=block-text>Trial 17 out of 78</p>","null","pattern_show_trial_num","","","","","","","","","","","","","","","","","","","","","","","","",""
"","","","","","image-keyboard-response","54","133952","0.0-2.0-5.0-1.16","61112e5f99facb9056c5e6ba","A3","batch1","","1182.1000000089407","stim/no_18_1_b.png","j","pattern_response","true","j","pattern_05","1182.1000000089407","true","16","","","","","","","","","","","","","","","","","","",""
"","","","","","html-keyboard-response","55","135267","0.0-2.0-5.0-0.17","61112e5f99facb9056c5e6ba","A3","batch1","","null","<p class=block-text>Trial 18 out of 78</p>","null","pattern_show_trial_num","","","","","","","","","","","","","","","","","","","","","","","","",""
"","","","","","image-keyboard-response","56","138675","0.0-2.0-5.0-1.17","61112e5f99facb9056c5e6ba","A3","batch1","","3404.2000000029802","stim/no_49_2_b.png","j","pattern_response","true","j","pattern_29","3404.2000000029802","true","17","","","","","","","","","","","","","","","","","","",""
"","","","","","html-keyboard-response","57","139989","0.0-2.0-5.0-0.18","61112e5f99facb9056c5e6ba","A3","batch1","","null","<p class=block-text>Trial 19 out of 78</p>","null","pattern_show_trial_num","","","","","","","","","","","","","","","","","","","","","","","","",""
"","","","","","image-keyboard-response","58","140723","0.0-2.0-5.0-1.18","61112e5f99facb9056c5e6ba","A3","batch1","","729.7000000029802","stim/yes_12_hor_w1_w.png","f","pattern_response","true","f","pattern_42","729.7000000029802","true","18","","","","","","","","","","","","","","","","","","",""
"","","","","","html-keyboard-response","59","142041","0.0-2.0-5.0-0.19","61112e5f99facb9056c5e6ba","A3","batch1","","null","<p class=block-text>Trial 20 out of 78</p>","null","pattern_show_trial_num","","","","","","","","","","","","","","","","","","","","","","","","",""
"","","","","","image-keyboard-response","60","144695","0.0-2.0-5.0-1.19","61112e5f99facb9056c5e6ba","A3","batch1","","2650.7999999970198","stim/yes_42_dia_w1_w.png","j","pattern_response","false","f","pattern_64","2650.7999999970198","false","18","","","","","","","","","","","","","","","","","","",""
"","","","","","html-keyboard-response","61","146016","0.0-2.0-5.0-0.20","61112e5f99facb9056c5e6ba","A3","batch1","","null","<p class=block-text>Trial 21 out of 78</p>","null","pattern_show_trial_num","","","","","","","","","","","","","","","","","","","","","","","","",""
"","","","","","image-keyboard-response","62","147061","0.0-2.0-5.0-1.20","61112e5f99facb9056c5e6ba","A3","batch1","","1041.300000011921","stim/yes_49_hor_w1_b.png","f","pattern_response","true","f","pattern_70","1041.300000011921","true","19","","","","","","","","","","","","","","","","","","",""
"","","","","","html-keyboard-response","63","148373","0.0-2.0-5.0-0.21","61112e5f99facb9056c5e6ba","A3","batch1","","null","<p class=block-text>Trial 22 out of 78</p>","null","pattern_show_trial_num","","","","","","","","","","","","","","","","","","","","","","","","",""
"","","","","","image-keyboard-response","64","151921","0.0-2.0-5.0-1.21","61112e5f99facb9056c5e6ba","A3","batch1","","3545.3999999910593","stim/yes_63_dia_b1.png","f","pattern_response","true","f","pattern_78","3545.3999999910593","true","20","","","","","","","","","","","","","","","","","","",""
"","","","","","html-keyboard-response","65","153236","0.0-2.0-5.0-0.22","61112e5f99facb9056c5e6ba","A3","batch1","","null","<p class=block-text>Trial 23 out of 78</p>","null","pattern_show_trial_num","","","","","","","","","","","","","","","","","","","","","","","","",""
"","","","","","image-keyboard-response","66","154062","0.0-2.0-5.0-1.22","61112e5f99facb9056c5e6ba","A3","batch1","","822.4000000059605","stim/yes_46_ver_b1_b.png","f","pattern_response","true","f","pattern_68","822.4000000059605","true","21","","","","","","","","","","","","","","","","","","",""
"","","","","","html-keyboard-response","67","155375","0.0-2.0-5.0-0.23","61112e5f99facb9056c5e6ba","A3","batch1","","null","<p class=block-text>Trial 24 out of 78</p>","null","pattern_show_trial_num","","","","","","","","","","","","","","","","","","","","","","","","",""
"","","","","","image-keyboard-response","68","156050","0.0-2.0-5.0-1.23","61112e5f99facb9056c5e6ba","A3","batch1","","672.7000000029802","stim/yes_17_ver_b1_b.png","f","pattern_response","true","f","pattern_46","672.7000000029802","true","22","","","","","","","","","","","","","","","","","","",""
"","","","","","html-keyboard-response","69","157367","0.0-2.0-5.0-0.24","61112e5f99facb9056c5e6ba","A3","batch1","","null","<p class=block-text>Trial 25 out of 78</p>","null","pattern_show_trial_num","","","","","","","","","","","","","","","","","","","","","","","","",""
"","","","","","image-keyboard-response","70","158160","0.0-2.0-5.0-1.24","61112e5f99facb9056c5e6ba","A3","batch1","","791.8999999910593","stim/yes_36_ver_w1_w.png","f","pattern_response","true","f","pattern_58","791.8999999910593","true","23","","","","","","","","","","","","","","","","","","",""
"","","","","","html-keyboard-response","71","159476","0.0-2.0-5.0-0.25","61112e5f99facb9056c5e6ba","A3","batch1","","null","<p class=block-text>Trial 26 out of 78</p>","null","pattern_show_trial_num","","","","","","","","","","","","","","","","","","","","","","","","",""
"","","","","","image-keyboard-response","72","160511","0.0-2.0-5.0-1.25","61112e5f99facb9056c5e6ba","A3","batch1","","1030.7999999970198","stim/yes_53_ver_b1_b.png","f","pattern_response","true","f","pattern_74","1030.7999999970198","true","24","","","","","","","","","","","","","","","","","","",""
"","","","","","html-keyboard-response","73","161830","0.0-2.0-5.0-0.26","61112e5f99facb9056c5e6ba","A3","batch1","","null","<p class=block-text>Trial 27 out of 78</p>","null","pattern_show_trial_num","","","","","","","","","","","","","","","","","","","","","","","","",""
"","","","","","image-keyboard-response","74","165422","0.0-2.0-5.0-1.26","61112e5f99facb9056c5e6ba","A3","batch1","","3588.7999999970198","stim/no_39_1_w.png","j","pattern_response","true","j","pattern_21","3588.7999999970198","true","25","","","","","","","","","","","","","","","","","","",""
"","","","","","html-keyboard-response","75","166742","0.0-2.0-5.0-0.27","61112e5f99facb9056c5e6ba","A3","batch1","","null","<p class=block-text>Trial 28 out of 78</p>","null","pattern_show_trial_num","","","","","","","","","","","","","","","","","","","","","","","","",""
"","","","","","image-keyboard-response","76","168113","0.0-2.0-5.0-1.27","61112e5f99facb9056c5e6ba","A3","batch1","","1367","stim/yes_30_ver_b1_b.png","f","pattern_response","true","f","pattern_54","1367","true","26","","","","","","","","","","","","","","","","","","",""
"","","","","","html-keyboard-response","77","169427","0.0-2.0-5.0-0.28","61112e5f99facb9056c5e6ba","A3","batch1","","null","<p class=block-text>Trial 29 out of 78</p>","null","pattern_show_trial_num","","","","","","","","","","","","","","","","","","","","","","","","",""
"","","","","","image-keyboard-response","78","170646","0.0-2.0-5.0-1.28","61112e5f99facb9056c5e6ba","A3","batch1","","1204.9000000059605","stim/yes_15_dia_b1u_b.png","f","pattern_response","true","f","pattern_44","1204.9000000059605","true","27","","","","","","","","","","","","","","","","","","",""
"","","","","","html-keyboard-response","79","171957","0.0-2.0-5.0-0.29","61112e5f99facb9056c5e6ba","A3","batch1","","null","<p class=block-text>Trial 30 out of 78</p>","null","pattern_show_trial_num","","","","","","","","","","","","","","","","","","","","","","","","",""
"","","","","","image-keyboard-response","80","174581","0.0-2.0-5.0-1.29","61112e5f99facb9056c5e6ba","A3","batch1","","2620.8999999910593","stim/no_45_1_w.png","j","pattern_response","true","j","pattern_25","2620.8999999910593","true","28","","","","","","","","","","","","","","","","","","",""
"","","","","","html-keyboard-response","81","175895","0.0-2.0-5.0-0.30","61112e5f99facb9056c5e6ba","A3","batch1","","null","<p class=block-text>Trial 31 out of 78</p>","null","pattern_show_trial_num","","","","","","","","","","","","","","","","","","","","","","","","",""
"","","","","","image-keyboard-response","82","176899","0.0-2.0-5.0-1.30","61112e5f99facb9056c5e6ba","A3","batch1","","999.7999999970198","stim/yes_23_ver_b1.png","f","pattern_response","true","f","pattern_48","999.7999999970198","true","29","","","","","","","","","","","","","","","","","","",""
"","","","","","html-keyboard-response","83","178214","0.0-2.0-5.0-0.31","61112e5f99facb9056c5e6ba","A3","batch1","","null","<p class=block-text>Trial 32 out of 78</p>","null","pattern_show_trial_num","","","","","","","","","","","","","","","","","","","","","","","","",""
"","","","","","image-keyboard-response","84","179249","0.0-2.0-5.0-1.31","61112e5f99facb9056c5e6ba","A3","batch1","","1032","stim/yes_26_dia_w2_w.png","f","pattern_response","true","f","pattern_50","1032","true","30","","","","","","","","","","","","","","","","","","",""
"","","","","","html-keyboard-response","85","180567","0.0-2.0-5.0-0.32","61112e5f99facb9056c5e6ba","A3","batch1","","null","<p class=block-text>Trial 33 out of 78</p>","null","pattern_show_trial_num","","","","","","","","","","","","","","","","","","","","","","","","",""
"","","","","","image-keyboard-response","86","183262","0.0-2.0-5.0-1.32","61112e5f99facb9056c5e6ba","A3","batch1","","2691.5999999940395","stim/yes_58_dia_w1_w.png","j","pattern_response","false","f","pattern_76","2691.5999999940395","false","30","","","","","","","","","","","","","","","","","","",""
"","","","","","html-keyboard-response","87","184572","0.0-2.0-5.0-0.33","61112e5f99facb9056c5e6ba","A3","batch1","","null","<p class=block-text>Trial 34 out of 78</p>","null","pattern_show_trial_num","","","","","","","","","","","","","","","","","","","","","","","","",""
"","","","","","image-keyboard-response","88","185373","0.0-2.0-5.0-1.33","61112e5f99facb9056c5e6ba","A3","batch1","","795.9000000059605","stim/yes_70_ver_b1.png","f","pattern_response","true","f","pattern_80","795.9000000059605","true","31","","","","","","","","","","","","","","","","","","",""
"","","","","","html-keyboard-response","89","186684","0.0-2.0-5.0-0.34","61112e5f99facb9056c5e6ba","A3","batch1","","null","<p class=block-text>Trial 35 out of 78</p>","null","pattern_show_trial_num","","","","","","","","","","","","","","","","","","","","","","","","",""
"","","","","","image-keyboard-response","90","188815","0.0-2.0-5.0-1.34","61112e5f99facb9056c5e6ba","A3","batch1","","2127.5","stim/yes_51_dia_b1.png","j","pattern_response","false","f","pattern_72","2127.5","false","31","","","","","","","","","","","","","","","","","","",""
"","","","","","html-keyboard-response","91","190135","0.0-2.0-5.0-0.35","61112e5f99facb9056c5e6ba","A3","batch1","","null","<p class=block-text>Trial 36 out of 78</p>","null","pattern_show_trial_num","","","","","","","","","","","","","","","","","","","","","","","","",""
"","","","","","image-keyboard-response","92","191559","0.0-2.0-5.0-1.35","61112e5f99facb9056c5e6ba","A3","batch1","","1419.2000000029802","stim/yes_29_hor_b1_b.png","f","pattern_response","true","f","pattern_52","1419.2000000029802","true","32","","","","","","","","","","","","","","","","","","",""
"","","","","","html-keyboard-response","93","192875","0.0-2.0-5.0-0.36","61112e5f99facb9056c5e6ba","A3","batch1","","null","<p class=block-text>Trial 37 out of 78</p>","null","pattern_show_trial_num","","","","","","","","","","","","","","","","","","","","","","","","",""
"","","","","","image-keyboard-response","94","194671","0.0-2.0-5.0-1.36","61112e5f99facb9056c5e6ba","A3","batch1","","1792.2999999970198","stim/no_25_1_b.png","j","pattern_response","true","j","pattern_09","1792.2999999970198","true","33","","","","","","","","","","","","","","","","","","",""
"","","","","","html-keyboard-response","95","195988","0.0-2.0-5.0-0.37","61112e5f99facb9056c5e6ba","A3","batch1","","null","<p class=block-text>Trial 38 out of 78</p>","null","pattern_show_trial_num","","","","","","","","","","","","","","","","","","","","","","","","",""
"","","","","","image-keyboard-response","96","198430","0.0-2.0-5.0-1.37","61112e5f99facb9056c5e6ba","A3","batch1","","2437.0999999940395","stim/no_37_2_w.png","j","pattern_response","true","j","pattern_19","2437.0999999940395","true","34","","","","","","","","","","","","","","","","","","",""
"","","","","","html-keyboard-response","97","199740","0.0-2.0-5.0-0.38","61112e5f99facb9056c5e6ba","A3","batch1","","null","<p class=block-text>Trial 39 out of 78</p>","null","pattern_show_trial_num","","","","","","","","","","","","","","","","","","","","","","","","",""
"","","","","","image-keyboard-response","98","200641","0.0-2.0-5.0-1.38","61112e5f99facb9056c5e6ba","A3","batch1","","896.2000000029802","stim/yes_37_hor_w1_w.png","f","pattern_response","true","f","pattern_60","896.2000000029802","true","35","","","","","","","","","","","","","","","","","","",""
"","","","","","image-keyboard-response","99","203004","0.0-2.0-6.0","61112e5f99facb9056c5e6ba","A3","batch1","","1849.3999999910593","stim/empty_board.png","j","attention_check","true","j","","","","","500","[""f"",""j""]","","","","","","","","","","","","","","","","",""
"","","","","","html-keyboard-response","100","203812","0.0-2.0-7.0-0.0","61112e5f99facb9056c5e6ba","A3","batch1","","null","<p class=block-text>Trial 40 out of 78</p>","null","pattern_show_trial_num","","","","","","","","","","","","","","","","","","","","","","","","",""
"","","","","","image-keyboard-response","101","205676","0.0-2.0-7.0-1.0","61112e5f99facb9056c5e6ba","A3","batch1","","1860.2000000029802","stim/yes_35_dia_b1.png","f","pattern_response","true","f","pattern_57","1860.2000000029802","true","36","","","","","","","","","","","","","","","","","","",""
"","","","","","html-keyboard-response","102","206988","0.0-2.0-7.0-0.1","61112e5f99facb9056c5e6ba","A3","batch1","","null","<p class=block-text>Trial 41 out of 78</p>","null","pattern_show_trial_num","","","","","","","","","","","","","","","","","","","","","","","","",""
"","","","","","image-keyboard-response","103","207736","0.0-2.0-7.0-1.1","61112e5f99facb9056c5e6ba","A3","batch1","","744.1000000089407","stim/yes_28_ver_b1.png","f","pattern_response","true","f","pattern_51","744.1000000089407","true","37","","","","","","","","","","","","","","","","","","",""
"","","","","","html-keyboard-response","104","209051","0.0-2.0-7.0-0.2","61112e5f99facb9056c5e6ba","A3","batch1","","null","<p class=block-text>Trial 42 out of 78</p>","null","pattern_show_trial_num","","","","","","","","","","","","","","","","","","","","","","","","",""
"","","","","","image-keyboard-response","105","211902","0.0-2.0-7.0-1.2","61112e5f99facb9056c5e6ba","A3","batch1","","2846.3999999910593","stim/no_38_1_b.png","j","pattern_response","true","j","pattern_20","2846.3999999910593","true","38","","","","","","","","","","","","","","","","","","",""
"","","","","","html-keyboard-response","106","213212","0.0-2.0-7.0-0.3","61112e5f99facb9056c5e6ba","A3","batch1","","null","<p class=block-text>Trial 43 out of 78</p>","null","pattern_show_trial_num","","","","","","","","","","","","","","","","","","","","","","","","",""
"","","","","","image-keyboard-response","107","214806","0.0-2.0-7.0-1.3","61112e5f99facb9056c5e6ba","A3","batch1","","1589.4000000059605","stim/no_42_1_w.png","j","pattern_response","true","j","pattern_22","1589.4000000059605","true","39","","","","","","","","","","","","","","","","","","",""
"","","","","","html-keyboard-response","108","216119","0.0-2.0-7.0-0.4","61112e5f99facb9056c5e6ba","A3","batch1","","null","<p class=block-text>Trial 44 out of 78</p>","null","pattern_show_trial_num","","","","","","","","","","","","","","","","","","","","","","","","",""
"","","","","","image-keyboard-response","109","219332","0.0-2.0-7.0-1.4","61112e5f99facb9056c5e6ba","A3","batch1","","3211.2000000029802","stim/no_36_2_w.png","j","pattern_response","true","j","pattern_18","3211.2000000029802","true","40","","","","","","","","","","","","","","","","","","",""
"","","","","","html-keyboard-response","110","220644","0.0-2.0-7.0-0.5","61112e5f99facb9056c5e6ba","A3","batch1","","null","<p class=block-text>Trial 45 out of 78</p>","null","pattern_show_trial_num","","","","","","","","","","","","","","","","","","","","","","","","",""
"","","","","","image-keyboard-response","111","221329","0.0-2.0-7.0-1.5","61112e5f99facb9056c5e6ba","A3","batch1","","680.5999999940395","stim/yes_14_hor_b1_w.png","f","pattern_response","true","f","pattern_43","680.5999999940395","true","41","","","","","","","","","","","","","","","","","","",""
"","","","","","html-keyboard-response","112","222645","0.0-2.0-7.0-0.6","61112e5f99facb9056c5e6ba","A3","batch1","","null","<p class=block-text>Trial 46 out of 78</p>","null","pattern_show_trial_num","","","","","","","","","","","","","","","","","","","","","","","","",""
"","","","","","image-keyboard-response","113","224674","0.0-2.0-7.0-1.6","61112e5f99facb9056c5e6ba","A3","batch1","","2025.0999999940395","stim/yes_37_dia_w1.png","j","pattern_response","false","f","pattern_59","2025.0999999940395","false","41","","","","","","","","","","","","","","","","","","",""
"","","","","","html-keyboard-response","114","225988","0.0-2.0-7.0-0.7","61112e5f99facb9056c5e6ba","A3","batch1","","null","<p class=block-text>Trial 47 out of 78</p>","null","pattern_show_trial_num","","","","","","","","","","","","","","","","","","","","","","","","",""
"","","","","","image-keyboard-response","115","227758","0.0-2.0-7.0-1.7","61112e5f99facb9056c5e6ba","A3","batch1","","1765.5999999940395","stim/no_34_1_b.png","j","pattern_response","true","j","pattern_16","1765.5999999940395","true","42","","","","","","","","","","","","","","","","","","",""
"","","","","","html-keyboard-response","116","229070","0.0-2.0-7.0-0.8","61112e5f99facb9056c5e6ba","A3","batch1","","null","<p class=block-text>Trial 48 out of 78</p>","null","pattern_show_trial_num","","","","","","","","","","","","","","","","","","","","","","","","",""
"","","","","","image-keyboard-response","117","229872","0.0-2.0-7.0-1.8","61112e5f99facb9056c5e6ba","A3","batch1","","798.5","stim/yes_17_dia_w1.png","f","pattern_response","true","f","pattern_45","798.5","true","43","","","","","","","","","","","","","","","","","","",""
"","","","","","html-keyboard-response","118","231191","0.0-2.0-7.0-0.9","61112e5f99facb9056c5e6ba","A3","batch1","","null","<p class=block-text>Trial 49 out of 78</p>","null","pattern_show_trial_num","","","","","","","","","","","","","","","","","","","","","","","","",""
"","","","","","image-keyboard-response","119","233514","0.0-2.0-7.0-1.9","61112e5f99facb9056c5e6ba","A3","batch1","","2319.5","stim/no_55_1_w.png","j","pattern_response","true","j","pattern_34","2319.5","true","44","","","","","","","","","","","","","","","","","","",""
"","","","","","html-keyboard-response","120","234829","0.0-2.0-7.0-0.10","61112e5f99facb9056c5e6ba","A3","batch1","","null","<p class=block-text>Trial 50 out of 78</p>","null","pattern_show_trial_num","","","","","","","","","","","","","","","","","","","","","","","","",""
"","","","","","image-keyboard-response","121","235748","0.0-2.0-7.0-1.10","61112e5f99facb9056c5e6ba","A3","batch1","","915.4000000059605","stim/yes_43_ver_w1_w.png","f","pattern_response","true","f","pattern_65","915.4000000059605","true","45","","","","","","","","","","","","","","","","","","",""
"","","","","","html-keyboard-response","122","237060","0.0-2.0-7.0-0.11","61112e5f99facb9056c5e6ba","A3","batch1","","null","<p class=block-text>Trial 51 out of 78</p>","null","pattern_show_trial_num","","","","","","","","","","","","","","","","","","","","","","","","",""
"","","","","","image-keyboard-response","123","239187","0.0-2.0-7.0-1.11","61112e5f99facb9056c5e6ba","A3","batch1","","2123.5","stim/no_48_1_w.png","j","pattern_response","true","j","pattern_28","2123.5","true","46","","","","","","","","","","","","","","","","","","",""
"","","","","","html-keyboard-response","124","240500","0.0-2.0-7.0-0.12","61112e5f99facb9056c5e6ba","A3","batch1","","null","<p class=block-text>Trial 52 out of 78</p>","null","pattern_show_trial_num","","","","","","","","","","","","","","","","","","","","","","","","",""
"","","","","","image-keyboard-response","125","242234","0.0-2.0-7.0-1.12","61112e5f99facb9056c5e6ba","A3","batch1","","1733.3999999910593","stim/no_17_1_w.png","j","pattern_response","true","j","pattern_04","1733.3999999910593","true","47","","","","","","","","","","","","","","","","","","",""
"","","","","","html-keyboard-response","126","243548","0.0-2.0-7.0-0.13","61112e5f99facb9056c5e6ba","A3","batch1","","null","<p class=block-text>Trial 53 out of 78</p>","null","pattern_show_trial_num","","","","","","","","","","","","","","","","","","","","","","","","",""
"","","","","","image-keyboard-response","127","245360","0.0-2.0-7.0-1.13","61112e5f99facb9056c5e6ba","A3","batch1","","1807.2999999970198","stim/yes_31_hor_b1.png","f","pattern_response","true","f","pattern_55","1807.2999999970198","true","48","","","","","","","","","","","","","","","","","","",""
"","","","","","html-keyboard-response","128","246674","0.0-2.0-7.0-0.14","61112e5f99facb9056c5e6ba","A3","batch1","","null","<p class=block-text>Trial 54 out of 78</p>","null","pattern_show_trial_num","","","","","","","","","","","","","","","","","","","","","","","","",""
"","","","","","image-keyboard-response","129","247848","0.0-2.0-7.0-1.14","61112e5f99facb9056c5e6ba","A3","batch1","","1170.0999999940395","stim/no_26_1_w.png","j","pattern_response","true","j","pattern_10","1170.0999999940395","true","49","","","","","","","","","","","","","","","","","","",""
"","","","","","html-keyboard-response","130","249165","0.0-2.0-7.0-0.15","61112e5f99facb9056c5e6ba","A3","batch1","","null","<p class=block-text>Trial 55 out of 78</p>","null","pattern_show_trial_num","","","","","","","","","","","","","","","","","","","","","","","","",""
"","","","","","image-keyboard-response","131","249995","0.0-2.0-7.0-1.15","61112e5f99facb9056c5e6ba","A3","batch1","","825.3999999910593","stim/yes_67_hor_b1.png","f","pattern_response","true","f","pattern_79","825.3999999910593","true","50","","","","","","","","","","","","","","","","","","",""
"","","","","","html-keyboard-response","132","251308","0.0-2.0-7.0-0.16","61112e5f99facb9056c5e6ba","A3","batch1","","null","<p class=block-text>Trial 56 out of 78</p>","null","pattern_show_trial_num","","","","","","","","","","","","","","","","","","","","","","","","",""
"","","","","","image-keyboard-response","133","254358","0.0-2.0-7.0-1.16","61112e5f99facb9056c5e6ba","A3","batch1","","3047","stim/no_44_1.png","j","pattern_response","true","j","pattern_24","3047","true","51","","","","","","","","","","","","","","","","","","",""
"","","","","","html-keyboard-response","134","255667","0.0-2.0-7.0-0.17","61112e5f99facb9056c5e6ba","A3","batch1","","null","<p class=block-text>Trial 57 out of 78</p>","null","pattern_show_trial_num","","","","","","","","","","","","","","","","","","","","","","","","",""
"","","","","","image-keyboard-response","135","258565","0.0-2.0-7.0-1.17","61112e5f99facb9056c5e6ba","A3","batch1","","2893.7999999970198","stim/no_46_1_b.png","j","pattern_response","true","j","pattern_26","2893.7999999970198","true","52","","","","","","","","","","","","","","","","","","",""
"","","","","","html-keyboard-response","136","259876","0.0-2.0-7.0-0.18","61112e5f99facb9056c5e6ba","A3","batch1","","null","<p class=block-text>Trial 58 out of 78</p>","null","pattern_show_trial_num","","","","","","","","","","","","","","","","","","","","","","","","",""
"","","","","","image-keyboard-response","137","260811","0.0-2.0-7.0-1.18","61112e5f99facb9056c5e6ba","A3","batch1","","931.5","stim/yes_55_hor_w1_w.png","f","pattern_response","true","f","pattern_75","931.5","true","53","","","","","","","","","","","","","","","","","","",""
"","","","","","html-keyboard-response","138","262125","0.0-2.0-7.0-0.19","61112e5f99facb9056c5e6ba","A3","batch1","","null","<p class=block-text>Trial 59 out of 78</p>","null","pattern_show_trial_num","","","","","","","","","","","","","","","","","","","","","","","","",""
"","","","","","image-keyboard-response","139","265420","0.0-2.0-7.0-1.19","61112e5f99facb9056c5e6ba","A3","batch1","","3293.5","stim/no_70_2.png","j","pattern_response","true","j","pattern_40","3293.5","true","54","","","","","","","","","","","","","","","","","","",""
"","","","","","html-keyboard-response","140","266734","0.0-2.0-7.0-0.20","61112e5f99facb9056c5e6ba","A3","batch1","","null","<p class=block-text>Trial 60 out of 78</p>","null","pattern_show_trial_num","","","","","","","","","","","","","","","","","","","","","","","","",""
"","","","","","image-keyboard-response","141","269768","0.0-2.0-7.0-1.20","61112e5f99facb9056c5e6ba","A3","batch1","","3030.5","stim/no_62_1_w.png","j","pattern_response","true","j","pattern_36","3030.5","true","55","","","","","","","","","","","","","","","","","","",""
"","","","","","html-keyboard-response","142","271086","0.0-2.0-7.0-0.21","61112e5f99facb9056c5e6ba","A3","batch1","","null","<p class=block-text>Trial 61 out of 78</p>","null","pattern_show_trial_num","","","","","","","","","","","","","","","","","","","","","","","","",""
"","","","","","image-keyboard-response","143","272711","0.0-2.0-7.0-1.21","61112e5f99facb9056c5e6ba","A3","batch1","","1620.0999999940395","stim/no_32_1_w.png","j","pattern_response","true","j","pattern_14","1620.0999999940395","true","56","","","","","","","","","","","","","","","","","","",""
"","","","","","html-keyboard-response","144","274022","0.0-2.0-7.0-0.22","61112e5f99facb9056c5e6ba","A3","batch1","","null","<p class=block-text>Trial 62 out of 78</p>","null","pattern_show_trial_num","","","","","","","","","","","","","","","","","","","","","","","","",""
"","","","","","image-keyboard-response","145","275113","0.0-2.0-7.0-1.22","61112e5f99facb9056c5e6ba","A3","batch1","","1085.9000000059605","stim/no_23_1.png","j","pattern_response","true","j","pattern_08","1085.9000000059605","true","57","","","","","","","","","","","","","","","","","","",""
"","","","","","html-keyboard-response","146","276428","0.0-2.0-7.0-0.23","61112e5f99facb9056c5e6ba","A3","batch1","","null","<p class=block-text>Trial 63 out of 78</p>","null","pattern_show_trial_num","","","","","","","","","","","","","","","","","","","","","","","","",""
"","","","","","image-keyboard-response","147","277221","0.0-2.0-7.0-1.23","61112e5f99facb9056c5e6ba","A3","batch1","","792.4000000059605","stim/no_13_2_b.png","j","pattern_response","true","j","pattern_02","792.4000000059605","true","58","","","","","","","","","","","","","","","","","","",""
"","","","","","html-keyboard-response","148","278531","0.0-2.0-7.0-0.24","61112e5f99facb9056c5e6ba","A3","batch1","","null","<p class=block-text>Trial 64 out of 78</p>","null","pattern_show_trial_num","","","","","","","","","","","","","","","","","","","","","","","","",""
"","","","","","image-keyboard-response","149","279217","0.0-2.0-7.0-1.24","61112e5f99facb9056c5e6ba","A3","batch1","","682.2000000029802","stim/yes_22_ver_w1.png","f","pattern_response","true","f","pattern_47","682.2000000029802","true","59","","","","","","","","","","","","","","","","","","",""
"","","","","","html-keyboard-response","150","280532","0.0-2.0-7.0-0.25","61112e5f99facb9056c5e6ba","A3","batch1","","null","<p class=block-text>Trial 65 out of 78</p>","null","pattern_show_trial_num","","","","","","","","","","","","","","","","","","","","","","","","",""
"","","","","","image-keyboard-response","151","282983","0.0-2.0-7.0-1.25","61112e5f99facb9056c5e6ba","A3","batch1","","2446.7000000029802","stim/yes_50_dia_w1.png","j","pattern_response","false","f","pattern_71","2446.7000000029802","false","59","","","","","","","","","","","","","","","","","","",""
"","","","","","html-keyboard-response","152","284300","0.0-2.0-7.0-0.26","61112e5f99facb9056c5e6ba","A3","batch1","","null","<p class=block-text>Trial 66 out of 78</p>","null","pattern_show_trial_num","","","","","","","","","","","","","","","","","","","","","","","","",""
"","","","","","image-keyboard-response","153","288269","0.0-2.0-7.0-1.26","61112e5f99facb9056c5e6ba","A3","batch1","","3964.5999999940395","stim/yes_60_ver_b1_b.png","f","pattern_response","true","f","pattern_77","3964.5999999940395","true","60","","","","","","","","","","","","","","","","","","",""
"","","","","","html-keyboard-response","154","289580","0.0-2.0-7.0-0.27","61112e5f99facb9056c5e6ba","A3","batch1","","null","<p class=block-text>Trial 67 out of 78</p>","null","pattern_show_trial_num","","","","","","","","","","","","","","","","","","","","","","","","",""
"","","","","","image-keyboard-response","155","291076","0.0-2.0-7.0-1.27","61112e5f99facb9056c5e6ba","A3","batch1","","1492.0999999940395","stim/no_29_1_b.png","j","pattern_response","true","j","pattern_12","1492.0999999940395","true","61","","","","","","","","","","","","","","","","","","",""
"","","","","","html-keyboard-response","156","292390","0.0-2.0-7.0-0.28","61112e5f99facb9056c5e6ba","A3","batch1","","null","<p class=block-text>Trial 68 out of 78</p>","null","pattern_show_trial_num","","","","","","","","","","","","","","","","","","","","","","","","",""
"","","","","","image-keyboard-response","157","293201","0.0-2.0-7.0-1.28","61112e5f99facb9056c5e6ba","A3","batch1","","807.5","stim/yes_29_ver_w1.png","f","pattern_response","true","f","pattern_53","807.5","true","62","","","","","","","","","","","","","","","","","","",""
"","","","","","html-keyboard-response","158","294518","0.0-2.0-7.0-0.29","61112e5f99facb9056c5e6ba","A3","batch1","","null","<p class=block-text>Trial 69 out of 78</p>","null","pattern_show_trial_num","","","","","","","","","","","","","","","","","","","","","","","","",""
"","","","","","image-keyboard-response","159","298191","0.0-2.0-7.0-1.29","61112e5f99facb9056c5e6ba","A3","batch1","","3669.5999999940395","stim/yes_48_dia_w1_w.png","j","pattern_response","false","f","pattern_69","3669.5999999940395","false","62","","","","","","","","","","","","","","","","","","",""
"","","","","","html-keyboard-response","160","299508","0.0-2.0-7.0-0.30","61112e5f99facb9056c5e6ba","A3","batch1","","null","<p class=block-text>Trial 70 out of 78</p>","null","pattern_show_trial_num","","","","","","","","","","","","","","","","","","","","","","","","",""
"","","","","","image-keyboard-response","161","303840","0.0-2.0-7.0-1.30","61112e5f99facb9056c5e6ba","A3","batch1","","4327.70000000298","stim/no_52_1.png","j","pattern_response","true","j","pattern_32","4327.70000000298","true","63","","","","","","","","","","","","","","","","","","",""
"","","","","","html-keyboard-response","162","305157","0.0-2.0-7.0-0.31","61112e5f99facb9056c5e6ba","A3","batch1","","null","<p class=block-text>Trial 71 out of 78</p>","null","pattern_show_trial_num","","","","","","","","","","","","","","","","","","","","","","","","",""
"","","","","","image-keyboard-response","163","308472","0.0-2.0-7.0-1.31","61112e5f99facb9056c5e6ba","A3","batch1","","3310.1000000089407","stim/no_50_1.png","j","pattern_response","true","j","pattern_30","3310.1000000089407","true","64","","","","","","","","","","","","","","","","","","",""
"","","","","","html-keyboard-response","164","309788","0.0-2.0-7.0-0.32","61112e5f99facb9056c5e6ba","A3","batch1","","null","<p class=block-text>Trial 72 out of 78</p>","null","pattern_show_trial_num","","","","","","","","","","","","","","","","","","","","","","","","",""
"","","","","","image-keyboard-response","165","310857","0.0-2.0-7.0-1.32","61112e5f99facb9056c5e6ba","A3","batch1","","1064.1000000089407","stim/yes_52_ver_w1.png","f","pattern_response","true","f","pattern_73","1064.1000000089407","true","65","","","","","","","","","","","","","","","","","","",""
"","","","","","html-keyboard-response","166","312171","0.0-2.0-7.0-0.33","61112e5f99facb9056c5e6ba","A3","batch1","","null","<p class=block-text>Trial 73 out of 78</p>","null","pattern_show_trial_num","","","","","","","","","","","","","","","","","","","","","","","","",""
"","","","","","image-keyboard-response","167","316100","0.0-2.0-7.0-1.33","61112e5f99facb9056c5e6ba","A3","batch1","","3925.199999988079","stim/no_65_1_b.png","j","pattern_response","true","j","pattern_38","3925.199999988079","true","66","","","","","","","","","","","","","","","","","","",""
"","","","","","html-keyboard-response","168","317413","0.0-2.0-7.0-0.34","61112e5f99facb9056c5e6ba","A3","batch1","","null","<p class=block-text>Trial 74 out of 78</p>","null","pattern_show_trial_num","","","","","","","","","","","","","","","","","","","","","","","","",""
"","","","","","image-keyboard-response","169","320360","0.0-2.0-7.0-1.34","61112e5f99facb9056c5e6ba","A3","batch1","","2941.7999999970198","stim/yes_45_hor_b2_b.png","f","pattern_response","true","f","pattern_67","2941.7999999970198","true","67","","","","","","","","","","","","","","","","","","",""
"","","","","","html-keyboard-response","170","321676","0.0-2.0-7.0-0.35","61112e5f99facb9056c5e6ba","A3","batch1","","null","<p class=block-text>Trial 75 out of 78</p>","null","pattern_show_trial_num","","","","","","","","","","","","","","","","","","","","","","","","",""
"","","","","","image-keyboard-response","171","323416","0.0-2.0-7.0-1.35","61112e5f99facb9056c5e6ba","A3","batch1","","1735.5","stim/yes_40_dia_b1_b.png","j","pattern_response","false","f","pattern_63","1735.5","false","67","","","","","","","","","","","","","","","","","","",""
"","","","","","html-keyboard-response","172","324735","0.0-2.0-7.0-0.36","61112e5f99facb9056c5e6ba","A3","batch1","","null","<p class=block-text>Trial 76 out of 78</p>","null","pattern_show_trial_num","","","","","","","","","","","","","","","","","","","","","","","","",""
"","","","","","image-keyboard-response","173","325502","0.0-2.0-7.0-1.36","61112e5f99facb9056c5e6ba","A3","batch1","","753.0999999940395","stim/yes_25_hor_b1_b.png","f","pattern_response","true","f","pattern_49","753.0999999940395","true","68","","","","","","","","","","","","","","","","","","",""
"","","","","","html-keyboard-response","174","326814","0.0-2.0-7.0-0.37","61112e5f99facb9056c5e6ba","A3","batch1","","null","<p class=block-text>Trial 77 out of 78</p>","null","pattern_show_trial_num","","","","","","","","","","","","","","","","","","","","","","","","",""
"","","","","","image-keyboard-response","175","328032","0.0-2.0-7.0-1.37","61112e5f99facb9056c5e6ba","A3","batch1","","1214.7999999970198","stim/no_20_1_w.png","j","pattern_response","true","j","pattern_06","1214.7999999970198","true","69","","","","","","","","","","","","","","","","","","",""
"","","","","","html-keyboard-response","176","329348","0.0-2.0-7.0-0.38","61112e5f99facb9056c5e6ba","A3","batch1","","null","<p class=block-text>Trial 78 out of 78</p>","null","pattern_show_trial_num","","","","","","","","","","","","","","","","","","","","","","","","",""
"","","","","","image-keyboard-response","177","330867","0.0-2.0-7.0-1.38","61112e5f99facb9056c5e6ba","A3","batch1","","1515.7000000029802","stim/yes_38_hor_b1_b.png","f","pattern_response","true","f","pattern_61","1515.7000000029802","true","70","","","","","","","","","","","","","","","","","","",""
"","","","","","html-button-response","178","337603","0.0-2.0-8.0","61112e5f99facb9056c5e6ba","A3","batch1","","6225.9000000059605","<p class = block-text>This concludes the 4-in-a-row detection game.Thank you for your responses!<br>
            You responded correctly on 90% of the trials.<br>
            When you are ready, press ""Continue"" button to continue </p>","0","","","","","","","","","","","","","","","","","","","","","","","","","",""
"true","","","","","fullscreen","179","342588","0.0-3.0-0.0","61112e5f99facb9056c5e6ba","A3","batch1","","","","","","","","","","","","","","","","","","","","","","","","","","","","","",""
"","","","","","instructions","180","386064","0.0-3.0-1.0-0.0-0.0","61112e5f99facb9056c5e6ba","A3","batch1","[{""page_index"":0,""viewing_time"":7690.100000008941},{""page_index"":1,""viewing_time"":10293.199999988079},{""page_index"":2,""viewing_time"":3314.7000000029802},{""page_index"":3,""viewing_time"":6074.9000000059605},{""page_index"":4,""viewing_time"":5883.0999999940395},{""page_index"":5,""viewing_time"":8286.20000000298},{""page_index"":6,""viewing_time"":1933.5}]","43476","","","tol-instructions","","","","","","","","","","","","","","","","","","","","","","","","",""
"","","","","","html-button-response","181","386978","0.0-3.0-1.0-1.0-0.0","61112e5f99facb9056c5e6ba","A3","batch1","","912.8000000119209","<p class=block-text> Let's answer a few questions <br>","0","tol_enter_quiz","","","","","","","","","","","","","","","","","","","","","","","","",""
"","","","","","html-button-response","182","389629","0.0-3.0-1.0-1.0-1.0","61112e5f99facb9056c5e6ba","A3","batch1","","2647.3999999910593","<p class = block-text>True or False: You can only move the ball on top of a peg. <br></p>","0","tol_quiz","true","","","","","","","","","","","","","","","","","","","","","","","",""
"","","","","","html-button-response","183","390663","0.0-3.0-1.0-1.0-2.0","61112e5f99facb9056c5e6ba","A3","batch1","","1032.0999999940395","<p class = block-text>Correct! You can only move the ball on top of a peg.</p>","0","tol_quiz_feedback","","","","","","","","","","","","","","","","","","","","","","","","",""
"","","","","","html-button-response","184","393847","0.0-3.0-1.0-1.0-3.0","61112e5f99facb9056c5e6ba","A3","batch1","","3182.5","<p class = block-text>True or False: You should try to match your board with the target board with fewest moves possible. <br></p>","0","tol_quiz","true","","","","","","","","","","","","","","","","","","","","","","","",""
"","","","","","html-button-response","185","394563","0.0-3.0-1.0-1.0-4.0","61112e5f99facb9056c5e6ba","A3","batch1","","713.5999999940395","<p class = block-text>Correct! </p>","0","tol_quiz_feedback","","","","","","","","","","","","","","","","","","","","","","","","",""
"","","","","","html-button-response","186","395679","0.0-3.0-2.0","61112e5f99facb9056c5e6ba","A3","batch1","","1114.0999999940395","<p class=block-text> Now that you've understood the game, let's practice a few easier examples before we start!<br> <br>","0","","","","","","","","","","","","","","","","","","","","","","","","","",""
"","","","","","single-stim-button","187","397207","0.0-3.0-3.0-0.0","61112e5f99facb9056c5e6ba","A3","batch1","","1525","","","tol_practice","","","","","","","","","tol_peg_2","1525","1525","0","[[1,2,0],[0,0],[0]]","1","[[1,2,0],[0,0],[3]]","practice","1525","","","","","","","",""
"","","","","","single-stim-button","188","399645","0.0-3.0-3.0-1.0","61112e5f99facb9056c5e6ba","A3","batch1","","2436","","","tol_practice","","","","","","","","","tol_peg_3","2436","2436","0","[[1,2,0],[0,0],[3]]","1","[[1,2,0],[0,0],[3]]","practice","2436","","","","","","","",""
"","","","","","poldrack-single-stim","189","400656","0.0-3.0-4.0","61112e5f99facb9056c5e6ba","A3","batch1","","-1","","","tol_feedback","true","","","","","","","","","1000","1000","500","","","","","","-1","none","true","","0","","",""
"","","","","","single-stim-button","190","403105","0.0-3.0-5.0-0.0","61112e5f99facb9056c5e6ba","A3","batch1","","2447","","","tol_practice","","","","","","","","","tol_peg_1","2447","2447","0","[[1,0,0],[3,0],[0]]","2","[[0,0,0],[3,1],[2]]","practice","2447","","","","","","","",""
"","","","","","single-stim-button","191","403939","0.0-3.0-5.0-1.0","61112e5f99facb9056c5e6ba","A3","batch1","","833","","","tol_practice","","","","","","","","","tol_peg_3","833","833","0","[[1,0,0],[3,0],[2]]","2","[[0,0,0],[3,1],[2]]","practice","833","","","","","","","",""
"","","","","","single-stim-button","192","404672","0.0-3.0-5.1-0.1","61112e5f99facb9056c5e6ba","A3","batch1","","731","","","tol_practice","","","","","","","","","tol_peg_1","731","731","0","[[0,0,0],[3,0],[2]]","3","[[0,0,0],[3,1],[2]]","practice","731","","","","","","","",""
"","","","","","single-stim-button","193","405497","0.0-3.0-5.1-1.1","61112e5f99facb9056c5e6ba","A3","batch1","","823","","","tol_practice","","","","","","","","","tol_peg_2","823","823","0","[[0,0,0],[3,1],[2]]","3","[[0,0,0],[3,1],[2]]","practice","823","","","","","","","",""
"","","","","","poldrack-single-stim","194","406508","0.0-3.0-6.0","61112e5f99facb9056c5e6ba","A3","batch1","","-1","","","tol_feedback","true","","","","","","","","","1000","1000","500","","","","","","-1","none","true","","0","","",""
"","","","","","single-stim-button","195","409889","0.0-3.0-7.0-0.0","61112e5f99facb9056c5e6ba","A3","batch1","","3379","","","tol_practice","","","","","","","","","tol_peg_2","3379","3379","0","[[1,2,0],[0,0],[0]]","4","[[1,0,0],[2,0],[3]]","practice","3379","","","","","","","",""
"","","","","","single-stim-button","196","410855","0.0-3.0-7.0-1.0","61112e5f99facb9056c5e6ba","A3","batch1","","963","","","tol_practice","","","","","","","","","tol_peg_3","963","963","0","[[1,2,0],[0,0],[3]]","4","[[1,0,0],[2,0],[3]]","practice","963","","","","","","","",""
"","","","","","single-stim-button","197","411663","0.0-3.0-7.1-0.1","61112e5f99facb9056c5e6ba","A3","batch1","","807","","","tol_practice","","","","","","","","","tol_peg_1","807","807","0","[[1,0,0],[0,0],[3]]","5","[[1,0,0],[2,0],[3]]","practice","807","","","","","","","",""
"","","","","","single-stim-button","198","412171","0.0-3.0-7.1-1.1","61112e5f99facb9056c5e6ba","A3","batch1","","507","","","tol_practice","","","","","","","","","tol_peg_2","507","507","0","[[1,0,0],[2,0],[3]]","5","[[1,0,0],[2,0],[3]]","practice","507","","","","","","","",""
"","","","","","poldrack-single-stim","199","413179","0.0-3.0-8.0","61112e5f99facb9056c5e6ba","A3","batch1","","-1","","","tol_feedback","true","","","","","","","","","1000","1000","500","","","","","","-1","none","true","","0","","",""
"","","","","","html-button-response","200","415161","0.0-3.0-9.0","61112e5f99facb9056c5e6ba","A3","batch1","","1979.5","<div class = centerbox><p class = center-block-text>Great job! You are done with practice trials<br>You are about to start official trials.<br> <br> Problem <strong>1</strong> out of 25 problems</p></div>","0","tol_instruction","","","","","","","","","","","","","","","","","","","","","","","","",""
"","","","","","single-stim-button","201","419605","0.0-3.0-10.0-0.0","61112e5f99facb9056c5e6ba","A3","batch1","","3439","","","tol_tohand","","","","","","","","","tol_peg_1","3439","3439","0","[[1,0,0],[3,0],[0]]","1","[[1,3,0],[2,0],[0]]","0","0","","","","","","3","",""
"","","","","","single-stim-button","202","420930","0.0-3.0-10.0-1.0","61112e5f99facb9056c5e6ba","A3","batch1","","1323","","","tol_toboard","","","","","","","","","tol_peg_3","1323","1323","0","[[1,0,0],[3,0],[2]]","1","[[1,3,0],[2,0],[0]]","0","0","","","","","","3","",""
"","","","","","single-stim-button","203","421672","0.0-3.0-10.1-0.1","61112e5f99facb9056c5e6ba","A3","batch1","","740","","","tol_tohand","","","","","","","","","tol_peg_2","740","740","0","[[1,0,0],[0,0],[2]]","2","[[1,3,0],[2,0],[0]]","0","0","","","","","","3","",""
"","","","","","single-stim-button","204","437246","0.0-3.0-10.1-1.1","61112e5f99facb9056c5e6ba","A3","batch1","","15574","","","tol_toboard","","","","","","","","","tol_peg_1","15574","15574","0","[[1,3,0],[0,0],[2]]","2","[[1,3,0],[2,0],[0]]","0","0","","","","","","3","",""
"","","","","","single-stim-button","205","438152","0.0-3.0-10.2-0.2","61112e5f99facb9056c5e6ba","A3","batch1","","903","","","tol_tohand","","","","","","","","","tol_peg_3","903","903","0","[[1,3,0],[0,0],[0]]","3","[[1,3,0],[2,0],[0]]","0","0","","","","","","3","",""
"","","","","","single-stim-button","206","438772","0.0-3.0-10.2-1.2","61112e5f99facb9056c5e6ba","A3","batch1","","619","","","tol_toboard","","","","","","","","","tol_peg_2","619","619","0","[[1,3,0],[2,0],[0]]","3","[[1,3,0],[2,0],[0]]","0","0","","","","","","3","",""
"","","","","","poldrack-single-stim","207","439782","0.0-3.0-11.0","61112e5f99facb9056c5e6ba","A3","batch1","","-1","","","tol_feedback","true","","","","","","","","","1000","1000","500","","","","","","-1","none","true","3439","5082","","",""
"","","","","","html-button-response","208","441656","0.0-3.0-12.0","61112e5f99facb9056c5e6ba","A3","batch1","","1871.199999988079","<div class = centerbox><p class = center-block-text>problem <strong>2</strong> out of 25 problems</p></div>","0","tol_trial_num","","","","","","","","","","","","","","","","","","","","","","","","",""
"","","","","","single-stim-button","209","450140","0.0-3.0-13.0-0.0","61112e5f99facb9056c5e6ba","A3","batch1","","8482","","","tol_tohand","","","","","","","","","tol_peg_2","8482","8482","0","[[1,2,0],[0,0],[0]]","1","[[2,1,3],[0,0],[0]]","1","0","","","","","","5","",""
"","","","","","single-stim-button","210","450780","0.0-3.0-13.0-1.0","61112e5f99facb9056c5e6ba","A3","batch1","","638","","","tol_toboard","","","","","","","","","tol_peg_3","638","638","0","[[1,2,0],[0,0],[3]]","1","[[2,1,3],[0,0],[0]]","1","0","","","","","","5","",""
"","","","","","single-stim-button","211","459364","0.0-3.0-13.1-0.1","61112e5f99facb9056c5e6ba","A3","batch1","","8584","","","tol_tohand","","","","","","","","","tol_peg_3","8584","8584","0","[[1,2,0],[0,0],[0]]","2","[[2,1,3],[0,0],[0]]","1","0","","","","","","5","",""
"","","","","","single-stim-button","212","459863","0.0-3.0-13.1-1.1","61112e5f99facb9056c5e6ba","A3","batch1","","498","","","tol_toboard","","","","","","","","","tol_peg_2","498","498","0","[[1,2,0],[3,0],[0]]","2","[[2,1,3],[0,0],[0]]","1","0","","","","","","5","",""
"","","","","","single-stim-button","213","460464","0.0-3.0-13.2-0.2","61112e5f99facb9056c5e6ba","A3","batch1","","599","","","tol_tohand","","","","","","","","","tol_peg_1","599","599","0","[[1,0,0],[3,0],[0]]","3","[[2,1,3],[0,0],[0]]","1","0","","","","","","5","",""
"","","","","","single-stim-button","214","461288","0.0-3.0-13.2-1.2","61112e5f99facb9056c5e6ba","A3","batch1","","823","","","tol_toboard","","","","","","","","","tol_peg_3","823","823","0","[[1,0,0],[3,0],[2]]","3","[[2,1,3],[0,0],[0]]","1","0","","","","","","5","",""
"","","","","","single-stim-button","215","461947","0.0-3.0-13.3-0.3","61112e5f99facb9056c5e6ba","A3","batch1","","658","","","tol_tohand","","","","","","","","","tol_peg_1","658","658","0","[[0,0,0],[3,0],[2]]","4","[[2,1,3],[0,0],[0]]","1","0","","","","","","5","",""
"","","","","","single-stim-button","216","462505","0.0-3.0-13.3-1.3","61112e5f99facb9056c5e6ba","A3","batch1","","558","","","tol_toboard","","","","","","","","","tol_peg_2","558","558","0","[[0,0,0],[3,1],[2]]","4","[[2,1,3],[0,0],[0]]","1","0","","","","","","5","",""
"","","","","","single-stim-button","217","463196","0.0-3.0-13.4-0.4","61112e5f99facb9056c5e6ba","A3","batch1","","689","","","tol_tohand","","","","","","","","","tol_peg_3","689","689","0","[[0,0,0],[3,1],[0]]","5","[[2,1,3],[0,0],[0]]","1","0","","","","","","5","",""
"","","","","","single-stim-button","218","463872","0.0-3.0-13.4-1.4","61112e5f99facb9056c5e6ba","A3","batch1","","674","","","tol_toboard","","","","","","","","","tol_peg_1","674","674","0","[[2,0,0],[3,1],[0]]","5","[[2,1,3],[0,0],[0]]","1","0","","","","","","5","",""
"","","","","","single-stim-button","219","464416","0.0-3.0-13.5-0.5","61112e5f99facb9056c5e6ba","A3","batch1","","543","","","tol_tohand","","","","","","","","","tol_peg_2","543","543","0","[[2,0,0],[3,0],[0]]","6","[[2,1,3],[0,0],[0]]","1","0","","","","","","5","",""
"","","","","","single-stim-button","220","464993","0.0-3.0-13.5-1.5","61112e5f99facb9056c5e6ba","A3","batch1","","577","","","tol_toboard","","","","","","","","","tol_peg_1","577","577","0","[[2,1,0],[3,0],[0]]","6","[[2,1,3],[0,0],[0]]","1","0","","","","","","5","",""
"","","","","","single-stim-button","221","465606","0.0-3.0-13.6-0.6","61112e5f99facb9056c5e6ba","A3","batch1","","612","","","tol_tohand","","","","","","","","","tol_peg_2","612","612","0","[[2,1,0],[0,0],[0]]","7","[[2,1,3],[0,0],[0]]","1","0","","","","","","5","",""
"","","","","","single-stim-button","222","466272","0.0-3.0-13.6-1.6","61112e5f99facb9056c5e6ba","A3","batch1","","665","","","tol_toboard","","","","","","","","","tol_peg_1","665","665","0","[[2,1,3],[0,0],[0]]","7","[[2,1,3],[0,0],[0]]","1","0","","","","","","5","",""
"","","","","","poldrack-single-stim","223","467278","0.0-3.0-14.0","61112e5f99facb9056c5e6ba","A3","batch1","","-1","","","tol_feedback","true","","","","","","","","","1000","1000","500","","","","","","-1","none","true","8482","20167","","",""
"","","","","","html-button-response","224","468238","0.0-3.0-15.0","61112e5f99facb9056c5e6ba","A3","batch1","","956","<div class = centerbox><p class = center-block-text>problem <strong>3</strong> out of 25 problems</p></div>","0","tol_trial_num","","","","","","","","","","","","","","","","","","","","","","","","",""
"","","","","","single-stim-button","225","474771","0.0-3.0-16.0-0.0","61112e5f99facb9056c5e6ba","A3","batch1","","6531","","","tol_tohand","","","","","","","","","tol_peg_1","6531","6531","0","[[2,0,0],[0,0],[1]]","1","[[1,2,0],[3,0],[0]]","2","0","","","","","","4","",""
"","","","","","single-stim-button","226","475527","0.0-3.0-16.0-1.0","61112e5f99facb9056c5e6ba","A3","batch1","","754","","","tol_toboard","","","","","","","","","tol_peg_2","754","754","0","[[2,0,0],[3,0],[1]]","1","[[1,2,0],[3,0],[0]]","2","0","","","","","","4","",""
"","","","","","single-stim-button","227","476204","0.0-3.0-16.1-0.1","61112e5f99facb9056c5e6ba","A3","batch1","","676","","","tol_tohand","","","","","","","","","tol_peg_1","676","676","0","[[0,0,0],[3,0],[1]]","2","[[1,2,0],[3,0],[0]]","2","0","","","","","","4","",""
"","","","","","single-stim-button","228","476704","0.0-3.0-16.1-1.1","61112e5f99facb9056c5e6ba","A3","batch1","","499","","","tol_toboard","","","","","","","","","tol_peg_2","499","499","0","[[0,0,0],[3,2],[1]]","2","[[1,2,0],[3,0],[0]]","2","0","","","","","","4","",""
"","","","","","single-stim-button","229","477339","0.0-3.0-16.2-0.2","61112e5f99facb9056c5e6ba","A3","batch1","","633","","","tol_tohand","","","","","","","","","tol_peg_3","633","633","0","[[0,0,0],[3,2],[0]]","3","[[1,2,0],[3,0],[0]]","2","0","","","","","","4","",""
"","","","","","single-stim-button","230","478079","0.0-3.0-16.2-1.2","61112e5f99facb9056c5e6ba","A3","batch1","","739","","","tol_toboard","","","","","","","","","tol_peg_1","739","739","0","[[1,0,0],[3,2],[0]]","3","[[1,2,0],[3,0],[0]]","2","0","","","","","","4","",""
"","","","","","single-stim-button","231","478713","0.0-3.0-16.3-0.3","61112e5f99facb9056c5e6ba","A3","batch1","","633","","","tol_tohand","","","","","","","","","tol_peg_2","633","633","0","[[1,0,0],[3,0],[0]]","4","[[1,2,0],[3,0],[0]]","2","0","","","","","","4","",""
"","","","","","single-stim-button","232","479463","0.0-3.0-16.3-1.3","61112e5f99facb9056c5e6ba","A3","batch1","","748","","","tol_toboard","","","","","","","","","tol_peg_1","748","748","0","[[1,2,0],[3,0],[0]]","4","[[1,2,0],[3,0],[0]]","2","0","","","","","","4","",""
"","","","","","poldrack-single-stim","233","480467","0.0-3.0-17.0","61112e5f99facb9056c5e6ba","A3","batch1","","-1","","","tol_feedback","true","","","","","","","","","1000","1000","500","","","","","","-1","none","true","6531","8473","","",""
"","","","","","html-button-response","234","481398","0.0-3.0-18.0","61112e5f99facb9056c5e6ba","A3","batch1","","927.9000000059605","<div class = centerbox><p class = center-block-text>problem <strong>4</strong> out of 25 problems</p></div>","0","tol_trial_num","","","","","","","","","","","","","","","","","","","","","","","","",""
"","","","","","single-stim-button","235","483838","0.0-3.0-19.0-0.0","61112e5f99facb9056c5e6ba","A3","batch1","","2439","","","tol_tohand","","","","","","","","","tol_peg_2","2439","2439","0","[[3,0,0],[2,0],[0]]","1","[[3,0,0],[1,0],[2]]","3","0","","","","","","3","",""
"","","","","","single-stim-button","236","484463","0.0-3.0-19.0-1.0","61112e5f99facb9056c5e6ba","A3","batch1","","623","","","tol_toboard","","","","","","","","","tol_peg_1","623","623","0","[[3,1,0],[2,0],[0]]","1","[[3,0,0],[1,0],[2]]","3","0","","","","","","3","",""
"","","","","","single-stim-button","237","485047","0.0-3.0-19.1-0.1","61112e5f99facb9056c5e6ba","A3","batch1","","582","","","tol_tohand","","","","","","","","","tol_peg_2","582","582","0","[[3,1,0],[0,0],[0]]","2","[[3,0,0],[1,0],[2]]","3","0","","","","","","3","",""
"","","","","","single-stim-button","238","485729","0.0-3.0-19.1-1.1","61112e5f99facb9056c5e6ba","A3","batch1","","682","","","tol_toboard","","","","","","","","","tol_peg_3","682","682","0","[[3,1,0],[0,0],[2]]","2","[[3,0,0],[1,0],[2]]","3","0","","","","","","3","",""
"","","","","","single-stim-button","239","486330","0.0-3.0-19.2-0.2","61112e5f99facb9056c5e6ba","A3","batch1","","597","","","tol_tohand","","","","","","","","","tol_peg_1","597","597","0","[[3,0,0],[0,0],[2]]","3","[[3,0,0],[1,0],[2]]","3","0","","","","","","3","",""
"","","","","","single-stim-button","240","486895","0.0-3.0-19.2-1.2","61112e5f99facb9056c5e6ba","A3","batch1","","565","","","tol_toboard","","","","","","","","","tol_peg_2","565","565","0","[[3,0,0],[1,0],[2]]","3","[[3,0,0],[1,0],[2]]","3","0","","","","","","3","",""
"","","","","","poldrack-single-stim","241","487905","0.0-3.0-20.0","61112e5f99facb9056c5e6ba","A3","batch1","","-1","","","tol_feedback","true","","","","","","","","","1000","1000","500","","","","","","-1","none","true","2439","3618","","",""
"","","","","","html-button-response","242","488697","0.0-3.0-21.0","61112e5f99facb9056c5e6ba","A3","batch1","","790.4000000059605","<div class = centerbox><p class = center-block-text>problem <strong>5</strong> out of 25 problems</p></div>","0","tol_trial_num","","","","","","","","","","","","","","","","","","","","","","","","",""
"","","","","","single-stim-button","243","499557","0.0-3.0-22.0-0.0","61112e5f99facb9056c5e6ba","A3","batch1","","10858","","","tol_tohand","","","","","","","","","tol_peg_1","10858","10858","0","[[0,0,0],[2,0],[3]]","1","[[0,0,0],[1,2],[3]]","4","0","","","","","","7","",""
"","","","","","single-stim-button","244","500475","0.0-3.0-22.0-1.0","61112e5f99facb9056c5e6ba","A3","batch1","","917","","","tol_toboard","","","","","","","","","tol_peg_2","917","917","0","[[0,0,0],[2,1],[3]]","1","[[0,0,0],[1,2],[3]]","4","0","","","","","","7","",""
"","","","","","single-stim-button","245","506221","0.0-3.0-22.1-0.1","61112e5f99facb9056c5e6ba","A3","batch1","","5744","","","tol_tohand","","","","","","","","","tol_peg_3","5744","5744","0","[[0,0,0],[2,1],[0]]","2","[[0,0,0],[1,2],[3]]","4","0","","","","","","7","",""
"","","","","","single-stim-button","246","511414","0.0-3.0-22.1-1.1","61112e5f99facb9056c5e6ba","A3","batch1","","5191","","","tol_toboard","","","","","","","","","tol_peg_1","5191","5191","0","[[3,0,0],[2,1],[0]]","2","[[0,0,0],[1,2],[3]]","4","0","","","","","","7","",""
"","","","","","single-stim-button","247","512205","0.0-3.0-22.2-0.2","61112e5f99facb9056c5e6ba","A3","batch1","","790","","","tol_tohand","","","","","","","","","tol_peg_2","790","790","0","[[3,0,0],[2,0],[0]]","3","[[0,0,0],[1,2],[3]]","4","0","","","","","","7","",""
"","","","","","single-stim-button","248","512830","0.0-3.0-22.2-1.2","61112e5f99facb9056c5e6ba","A3","batch1","","623","","","tol_toboard","","","","","","","","","tol_peg_1","623","623","0","[[3,1,0],[2,0],[0]]","3","[[0,0,0],[1,2],[3]]","4","0","","","","","","7","",""
"","","","","","single-stim-button","249","513422","0.0-3.0-22.3-0.3","61112e5f99facb9056c5e6ba","A3","batch1","","590","","","tol_tohand","","","","","","","","","tol_peg_2","590","590","0","[[3,1,0],[0,0],[0]]","4","[[0,0,0],[1,2],[3]]","4","0","","","","","","7","",""
"","","","","","single-stim-button","250","514209","0.0-3.0-22.3-1.3","61112e5f99facb9056c5e6ba","A3","batch1","","785","","","tol_toboard","","","","","","","","","tol_peg_3","785","785","0","[[3,1,0],[0,0],[2]]","4","[[0,0,0],[1,2],[3]]","4","0","","","","","","7","",""
"","","","","","single-stim-button","251","515272","0.0-3.0-22.4-0.4","61112e5f99facb9056c5e6ba","A3","batch1","","1061","","","tol_tohand","","","","","","","","","tol_peg_1","1061","1061","0","[[3,0,0],[0,0],[2]]","5","[[0,0,0],[1,2],[3]]","4","0","","","","","","7","",""
"","","","","","single-stim-button","252","515909","0.0-3.0-22.4-1.4","61112e5f99facb9056c5e6ba","A3","batch1","","637","","","tol_toboard","","","","","","","","","tol_peg_2","637","637","0","[[3,0,0],[1,0],[2]]","5","[[0,0,0],[1,2],[3]]","4","0","","","","","","7","",""
"","","","","","single-stim-button","253","516405","0.0-3.0-22.5-0.5","61112e5f99facb9056c5e6ba","A3","batch1","","494","","","tol_tohand","","","","","","","","","tol_peg_3","494","494","0","[[3,0,0],[1,0],[0]]","6","[[0,0,0],[1,2],[3]]","4","0","","","","","","7","",""
"","","","","","single-stim-button","254","516988","0.0-3.0-22.5-1.5","61112e5f99facb9056c5e6ba","A3","batch1","","582","","","tol_toboard","","","","","","","","","tol_peg_2","582","582","0","[[3,0,0],[1,2],[0]]","6","[[0,0,0],[1,2],[3]]","4","0","","","","","","7","",""
"","","","","","single-stim-button","255","517471","0.0-3.0-22.6-0.6","61112e5f99facb9056c5e6ba","A3","batch1","","481","","","tol_tohand","","","","","","","","","tol_peg_1","481","481","0","[[0,0,0],[1,2],[0]]","7","[[0,0,0],[1,2],[3]]","4","0","","","","","","7","",""
"","","","","","single-stim-button","256","518004","0.0-3.0-22.6-1.6","61112e5f99facb9056c5e6ba","A3","batch1","","531","","","tol_toboard","","","","","","","","","tol_peg_3","531","531","0","[[0,0,0],[1,2],[3]]","7","[[0,0,0],[1,2],[3]]","4","0","","","","","","7","",""
"","","","","","poldrack-single-stim","257","519013","0.0-3.0-23.0","61112e5f99facb9056c5e6ba","A3","batch1","","-1","","","tol_feedback","true","","","","","","","","","1000","1000","500","","","","","","-1","none","true","10858","20018","","",""
"","","","","","html-button-response","258","519862","0.0-3.0-24.0","61112e5f99facb9056c5e6ba","A3","batch1","","846.3999999910593","<div class = centerbox><p class = center-block-text>problem <strong>6</strong> out of 25 problems</p></div>","0","tol_trial_num","","","","","","","","","","","","","","","","","","","","","","","","",""
"","","","","","single-stim-button","259","539321","0.0-3.0-25.0-0.0","61112e5f99facb9056c5e6ba","A3","batch1","","19458","","","tol_tohand","","","","","","","","","tol_peg_2","19458","19458","0","[[0,0,0],[1,0],[3]]","1","[[1,0,0],[2,3],[0]]","5","0","","","","","","6","",""
"","","","","","single-stim-button","260","540205","0.0-3.0-25.0-1.0","61112e5f99facb9056c5e6ba","A3","batch1","","881","","","tol_toboard","","","","","","","","","tol_peg_1","881","881","0","[[2,0,0],[1,0],[3]]","1","[[1,0,0],[2,3],[0]]","5","0","","","","","","6","",""
"","","","","","single-stim-button","261","546755","0.0-3.0-25.1-0.1","61112e5f99facb9056c5e6ba","A3","batch1","","6547","","","tol_tohand","","","","","","","","","tol_peg_2","6547","6547","0","[[2,0,0],[0,0],[3]]","2","[[1,0,0],[2,3],[0]]","5","0","","","","","","6","",""
"","","","","","single-stim-button","262","551393","0.0-3.0-25.1-1.1","61112e5f99facb9056c5e6ba","A3","batch1","","4636","","","tol_toboard","","","","","","","","","tol_peg_1","4636","4636","0","[[2,1,0],[0,0],[3]]","2","[[1,0,0],[2,3],[0]]","5","0","","","","","","6","",""
"","","","","","single-stim-button","263","552321","0.0-3.0-25.2-0.2","61112e5f99facb9056c5e6ba","A3","batch1","","926","","","tol_tohand","","","","","","","","","tol_peg_3","926","926","0","[[2,1,0],[0,0],[0]]","3","[[1,0,0],[2,3],[0]]","5","0","","","","","","6","",""
"","","","","","single-stim-button","264","553096","0.0-3.0-25.2-1.2","61112e5f99facb9056c5e6ba","A3","batch1","","775","","","tol_toboard","","","","","","","","","tol_peg_2","775","775","0","[[2,1,0],[3,0],[0]]","3","[[1,0,0],[2,3],[0]]","5","0","","","","","","6","",""
"","","","","","single-stim-button","265","553713","0.0-3.0-25.3-0.3","61112e5f99facb9056c5e6ba","A3","batch1","","615","","","tol_tohand","","","","","","","","","tol_peg_1","615","615","0","[[2,0,0],[3,0],[0]]","4","[[1,0,0],[2,3],[0]]","5","0","","","","","","6","",""
"","","","","","single-stim-button","266","554457","0.0-3.0-25.3-1.3","61112e5f99facb9056c5e6ba","A3","batch1","","742","","","tol_toboard","","","","","","","","","tol_peg_3","742","742","0","[[2,0,0],[3,0],[1]]","4","[[1,0,0],[2,3],[0]]","5","0","","","","","","6","",""
"","","","","","single-stim-button","267","555271","0.0-3.0-25.4-0.4","61112e5f99facb9056c5e6ba","A3","batch1","","813","","","tol_tohand","","","","","","","","","tol_peg_2","813","813","0","[[2,0,0],[0,0],[1]]","5","[[1,0,0],[2,3],[0]]","5","0","","","","","","6","",""
"","","","","","single-stim-button","268","556753","0.0-3.0-25.4-1.4","61112e5f99facb9056c5e6ba","A3","batch1","","1481","","","tol_toboard","","","","","","","","","tol_peg_2","1481","1481","0","[[2,0,0],[3,0],[1]]","5","[[1,0,0],[2,3],[0]]","5","0","","","","","","6","",""
"","","","","","single-stim-button","269","557779","0.0-3.0-25.5-0.5","61112e5f99facb9056c5e6ba","A3","batch1","","1024","","","tol_tohand","","","","","","","","","tol_peg_1","1024","1024","0","[[0,0,0],[3,0],[1]]","6","[[1,0,0],[2,3],[0]]","5","0","","","","","","6","",""
"","","","","","single-stim-button","270","558513","0.0-3.0-25.5-1.5","61112e5f99facb9056c5e6ba","A3","batch1","","733","","","tol_toboard","","","","","","","","","tol_peg_2","733","733","0","[[0,0,0],[3,2],[1]]","6","[[1,0,0],[2,3],[0]]","5","0","","","","","","6","",""
"","","","","","single-stim-button","271","559513","0.0-3.0-25.6-0.6","61112e5f99facb9056c5e6ba","A3","batch1","","998","","","tol_tohand","","","","","","","","","tol_peg_3","998","998","0","[[0,0,0],[3,2],[0]]","7","[[1,0,0],[2,3],[0]]","5","0","","","","","","6","",""
"","","","","","single-stim-button","272","560438","0.0-3.0-25.6-1.6","61112e5f99facb9056c5e6ba","A3","batch1","","923","","","tol_toboard","","","","","","","","","tol_peg_1","923","923","0","[[1,0,0],[3,2],[0]]","7","[[1,0,0],[2,3],[0]]","5","0","","","","","","6","",""
"","","","","","single-stim-button","273","561280","0.0-3.0-25.7-0.7","61112e5f99facb9056c5e6ba","A3","batch1","","839","","","tol_tohand","","","","","","","","","tol_peg_2","839","839","0","[[1,0,0],[3,0],[0]]","8","[[1,0,0],[2,3],[0]]","5","0","","","","","","6","",""
"","","","","","single-stim-button","274","562164","0.0-3.0-25.7-1.7","61112e5f99facb9056c5e6ba","A3","batch1","","882","","","tol_toboard","","","","","","","","","tol_peg_3","882","882","0","[[1,0,0],[3,0],[2]]","8","[[1,0,0],[2,3],[0]]","5","0","","","","","","6","",""
"","","","","","single-stim-button","275","562688","0.0-3.0-25.8-0.8","61112e5f99facb9056c5e6ba","A3","batch1","","523","","","tol_tohand","","","","","","","","","tol_peg_2","523","523","0","[[1,0,0],[0,0],[2]]","9","[[1,0,0],[2,3],[0]]","5","0","","","","","","6","",""
"","","","","","single-stim-button","276","563270","0.0-3.0-25.8-1.8","61112e5f99facb9056c5e6ba","A3","batch1","","581","","","tol_toboard","","","","","","","","","tol_peg_1","581","581","0","[[1,3,0],[0,0],[2]]","9","[[1,0,0],[2,3],[0]]","5","0","","","","","","6","",""
"","","","","","single-stim-button","277","563788","0.0-3.0-25.9-0.9","61112e5f99facb9056c5e6ba","A3","batch1","","516","","","tol_tohand","","","","","","","","","tol_peg_3","516","516","0","[[1,3,0],[0,0],[0]]","10","[[1,0,0],[2,3],[0]]","5","0","","","","","","6","",""
"","","","","","single-stim-button","278","564494","0.0-3.0-25.9-1.9","61112e5f99facb9056c5e6ba","A3","batch1","","705","","","tol_toboard","","","","","","","","","tol_peg_2","705","705","0","[[1,3,0],[2,0],[0]]","10","[[1,0,0],[2,3],[0]]","5","0","","","","","","6","",""
"","","","","","single-stim-button","279","564939","0.0-3.0-25.10-0.10","61112e5f99facb9056c5e6ba","A3","batch1","","444","","","tol_tohand","","","","","","","","","tol_peg_1","444","444","0","[[1,0,0],[2,0],[0]]","11","[[1,0,0],[2,3],[0]]","5","0","","","","","","6","",""
"","","","","","single-stim-button","280","565347","0.0-3.0-25.10-1.10","61112e5f99facb9056c5e6ba","A3","batch1","","407","","","tol_toboard","","","","","","","","","tol_peg_2","407","407","0","[[1,0,0],[2,3],[0]]","11","[[1,0,0],[2,3],[0]]","5","0","","","","","","6","",""
"","","","","","poldrack-single-stim","281","566358","0.0-3.0-26.0","61112e5f99facb9056c5e6ba","A3","batch1","","-1","","","tol_feedback","true","","","","","","","","","1000","1000","500","","","","","","-1","none","true","19458","32703","","",""
"","","","","","html-button-response","282","567162","0.0-3.0-27.0","61112e5f99facb9056c5e6ba","A3","batch1","","801.7000000029802","<div class = centerbox><p class = center-block-text>problem <strong>7</strong> out of 25 problems</p></div>","0","tol_trial_num","","","","","","","","","","","","","","","","","","","","","","","","",""
"","","","","","single-stim-button","283","572488","0.0-3.0-28.0-0.0","61112e5f99facb9056c5e6ba","A3","batch1","","5324","","","tol_tohand","","","","","","","","","tol_peg_1","5324","5324","0","[[2,0,0],[0,0],[3]]","1","[[1,2,0],[3,0],[0]]","6","0","","","","","","5","",""
"","","","","","single-stim-button","284","573013","0.0-3.0-28.0-1.0","61112e5f99facb9056c5e6ba","A3","batch1","","523","","","tol_toboard","","","","","","","","","tol_peg_2","523","523","0","[[2,0,0],[1,0],[3]]","1","[[1,2,0],[3,0],[0]]","6","0","","","","","","5","",""
"","","","","","single-stim-button","285","573511","0.0-3.0-28.1-0.1","61112e5f99facb9056c5e6ba","A3","batch1","","496","","","tol_tohand","","","","","","","","","tol_peg_1","496","496","0","[[0,0,0],[1,0],[3]]","2","[[1,2,0],[3,0],[0]]","6","0","","","","","","5","",""
"","","","","","single-stim-button","286","574131","0.0-3.0-28.1-1.1","61112e5f99facb9056c5e6ba","A3","batch1","","619","","","tol_toboard","","","","","","","","","tol_peg_2","619","619","0","[[0,0,0],[1,2],[3]]","2","[[1,2,0],[3,0],[0]]","6","0","","","","","","5","",""
"","","","","","single-stim-button","287","574647","0.0-3.0-28.2-0.2","61112e5f99facb9056c5e6ba","A3","batch1","","515","","","tol_tohand","","","","","","","","","tol_peg_2","515","515","0","[[0,0,0],[1,0],[3]]","3","[[1,2,0],[3,0],[0]]","6","0","","","","","","5","",""
"","","","","","single-stim-button","288","575305","0.0-3.0-28.2-1.2","61112e5f99facb9056c5e6ba","A3","batch1","","657","","","tol_toboard","","","","","","","","","tol_peg_1","657","657","0","[[2,0,0],[1,0],[3]]","3","[[1,2,0],[3,0],[0]]","6","0","","","","","","5","",""
"","","","","","single-stim-button","289","576210","0.0-3.0-28.3-0.3","61112e5f99facb9056c5e6ba","A3","batch1","","904","","","tol_tohand","","","","","","","","","tol_peg_1","904","904","0","[[0,0,0],[1,0],[3]]","4","[[1,2,0],[3,0],[0]]","6","0","","","","","","5","",""
"","","","","","single-stim-button","290","577654","0.0-3.0-28.3-1.3","61112e5f99facb9056c5e6ba","A3","batch1","","1443","","","tol_toboard","","","","","","","","","tol_peg_1","1443","1443","0","[[2,0,0],[1,0],[3]]","4","[[1,2,0],[3,0],[0]]","6","0","","","","","","5","",""
"","","","","","single-stim-button","291","578480","0.0-3.0-28.4-0.4","61112e5f99facb9056c5e6ba","A3","batch1","","826","","","tol_tohand","","","","","","","","","tol_peg_3","826","826","0","[[2,0,0],[1,0],[0]]","5","[[1,2,0],[3,0],[0]]","6","0","","","","","","5","",""
"","","","","","single-stim-button","292","578980","0.0-3.0-28.4-1.4","61112e5f99facb9056c5e6ba","A3","batch1","","498","","","tol_toboard","","","","","","","","","tol_peg_1","498","498","0","[[2,3,0],[1,0],[0]]","5","[[1,2,0],[3,0],[0]]","6","0","","","","","","5","",""
"","","","","","single-stim-button","293","579778","0.0-3.0-28.5-0.5","61112e5f99facb9056c5e6ba","A3","batch1","","797","","","tol_tohand","","","","","","","","","tol_peg_2","797","797","0","[[2,3,0],[0,0],[0]]","6","[[1,2,0],[3,0],[0]]","6","0","","","","","","5","",""
"","","","","","single-stim-button","294","580539","0.0-3.0-28.5-1.5","61112e5f99facb9056c5e6ba","A3","batch1","","759","","","tol_toboard","","","","","","","","","tol_peg_3","759","759","0","[[2,3,0],[0,0],[1]]","6","[[1,2,0],[3,0],[0]]","6","0","","","","","","5","",""
"","","","","","single-stim-button","295","581321","0.0-3.0-28.6-0.6","61112e5f99facb9056c5e6ba","A3","batch1","","781","","","tol_tohand","","","","","","","","","tol_peg_1","781","781","0","[[2,0,0],[0,0],[1]]","7","[[1,2,0],[3,0],[0]]","6","0","","","","","","5","",""
"","","","","","single-stim-button","296","581872","0.0-3.0-28.6-1.6","61112e5f99facb9056c5e6ba","A3","batch1","","549","","","tol_toboard","","","","","","","","","tol_peg_2","549","549","0","[[2,0,0],[3,0],[1]]","7","[[1,2,0],[3,0],[0]]","6","0","","","","","","5","",""
"","","","","","single-stim-button","297","582631","0.0-3.0-28.7-0.7","61112e5f99facb9056c5e6ba","A3","batch1","","757","","","tol_tohand","","","","","","","","","tol_peg_1","757","757","0","[[0,0,0],[3,0],[1]]","8","[[1,2,0],[3,0],[0]]","6","0","","","","","","5","",""
"","","","","","single-stim-button","298","583155","0.0-3.0-28.7-1.7","61112e5f99facb9056c5e6ba","A3","batch1","","523","","","tol_toboard","","","","","","","","","tol_peg_2","523","523","0","[[0,0,0],[3,2],[1]]","8","[[1,2,0],[3,0],[0]]","6","0","","","","","","5","",""
"","","","","","single-stim-button","299","583822","0.0-3.0-28.8-0.8","61112e5f99facb9056c5e6ba","A3","batch1","","665","","","tol_tohand","","","","","","","","","tol_peg_3","665","665","0","[[0,0,0],[3,2],[0]]","9","[[1,2,0],[3,0],[0]]","6","0","","","","","","5","",""
"","","","","","single-stim-button","300","584438","0.0-3.0-28.8-1.8","61112e5f99facb9056c5e6ba","A3","batch1","","615","","","tol_toboard","","","","","","","","","tol_peg_1","615","615","0","[[1,0,0],[3,2],[0]]","9","[[1,2,0],[3,0],[0]]","6","0","","","","","","5","",""
"","","","","","single-stim-button","301","585072","0.0-3.0-28.9-0.9","61112e5f99facb9056c5e6ba","A3","batch1","","632","","","tol_tohand","","","","","","","","","tol_peg_2","632","632","0","[[1,0,0],[3,0],[0]]","10","[[1,2,0],[3,0],[0]]","6","0","","","","","","5","",""
"","","","","","single-stim-button","302","585538","0.0-3.0-28.9-1.9","61112e5f99facb9056c5e6ba","A3","batch1","","464","","","tol_toboard","","","","","","","","","tol_peg_1","464","464","0","[[1,2,0],[3,0],[0]]","10","[[1,2,0],[3,0],[0]]","6","0","","","","","","5","",""
"","","","","","poldrack-single-stim","303","586540","0.0-3.0-29.0","61112e5f99facb9056c5e6ba","A3","batch1","","-1","","","tol_feedback","true","","","","","","","","","1000","1000","500","","","","","","-1","none","true","5324","11697","","",""
"","","","","","html-button-response","304","587212","0.0-3.0-30.0","61112e5f99facb9056c5e6ba","A3","batch1","","670.5","<div class = centerbox><p class = center-block-text>problem <strong>8</strong> out of 25 problems</p></div>","0","tol_trial_num","","","","","","","","","","","","","","","","","","","","","","","","",""
"","","","","","single-stim-button","305","589471","0.0-3.0-31.0-0.0","61112e5f99facb9056c5e6ba","A3","batch1","","2257","","","tol_tohand","","","","","","","","","tol_peg_3","2257","2257","0","[[0,0,0],[2,3],[0]]","1","[[1,2,0],[3,0],[0]]","7","0","","","","","","4","",""
"","","","","","single-stim-button","306","590311","0.0-3.0-31.0-1.0","61112e5f99facb9056c5e6ba","A3","batch1","","838","","","tol_toboard","","","","","","","","","tol_peg_1","838","838","0","[[1,0,0],[2,3],[0]]","1","[[1,2,0],[3,0],[0]]","7","0","","","","","","4","",""
"","","","","","single-stim-button","307","590982","0.0-3.0-31.1-0.1","61112e5f99facb9056c5e6ba","A3","batch1","","671","","","tol_tohand","","","","","","","","","tol_peg_2","671","671","0","[[1,0,0],[2,0],[0]]","2","[[1,2,0],[3,0],[0]]","7","0","","","","","","4","",""
"","","","","","single-stim-button","308","591749","0.0-3.0-31.1-1.1","61112e5f99facb9056c5e6ba","A3","batch1","","765","","","tol_toboard","","","","","","","","","tol_peg_3","765","765","0","[[1,0,0],[2,0],[3]]","2","[[1,2,0],[3,0],[0]]","7","0","","","","","","4","",""
"","","","","","single-stim-button","309","592172","0.0-3.0-31.2-0.2","61112e5f99facb9056c5e6ba","A3","batch1","","421","","","tol_tohand","","","","","","","","","tol_peg_2","421","421","0","[[1,0,0],[0,0],[3]]","3","[[1,2,0],[3,0],[0]]","7","0","","","","","","4","",""
"","","","","","single-stim-button","310","592596","0.0-3.0-31.2-1.2","61112e5f99facb9056c5e6ba","A3","batch1","","423","","","tol_toboard","","","","","","","","","tol_peg_1","423","423","0","[[1,2,0],[0,0],[3]]","3","[[1,2,0],[3,0],[0]]","7","0","","","","","","4","",""
"","","","","","single-stim-button","311","593146","0.0-3.0-31.3-0.3","61112e5f99facb9056c5e6ba","A3","batch1","","549","","","tol_tohand","","","","","","","","","tol_peg_3","549","549","0","[[1,2,0],[0,0],[0]]","4","[[1,2,0],[3,0],[0]]","7","0","","","","","","4","",""
"","","","","","single-stim-button","312","593586","0.0-3.0-31.3-1.3","61112e5f99facb9056c5e6ba","A3","batch1","","439","","","tol_toboard","","","","","","","","","tol_peg_2","439","439","0","[[1,2,0],[3,0],[0]]","4","[[1,2,0],[3,0],[0]]","7","0","","","","","","4","",""
"","","","","","poldrack-single-stim","313","594599","0.0-3.0-32.0","61112e5f99facb9056c5e6ba","A3","batch1","","-1","","","tol_feedback","true","","","","","","","","","1000","1000","500","","","","","","-1","none","true","2257","3898","","",""
"","","","","","html-button-response","314","595179","0.0-3.0-33.0","61112e5f99facb9056c5e6ba","A3","batch1","","578.8000000119209","<div class = centerbox><p class = center-block-text>problem <strong>9</strong> out of 25 problems</p></div>","0","tol_trial_num","","","","","","","","","","","","","","","","","","","","","","","","",""
"","","","","","single-stim-button","315","598814","0.0-3.0-34.0-0.0","61112e5f99facb9056c5e6ba","A3","batch1","","3633","","","tol_tohand","","","","","","","","","tol_peg_1","3633","3633","0","[[3,0,0],[0,0],[1]]","1","[[2,1,0],[3,0],[0]]","8","0","","","","","","6","",""
"","","","","","single-stim-button","316","605594","0.0-3.0-34.0-1.0","61112e5f99facb9056c5e6ba","A3","batch1","","6779","","","tol_toboard","","","","","","","","","tol_peg_2","6779","6779","0","[[3,0,0],[2,0],[1]]","1","[[2,1,0],[3,0],[0]]","8","0","","","","","","6","",""
"","","","","","single-stim-button","317","608172","0.0-3.0-34.1-0.1","61112e5f99facb9056c5e6ba","A3","batch1","","2577","","","tol_tohand","","","","","","","","","tol_peg_3","2577","2577","0","[[3,0,0],[2,0],[0]]","2","[[2,1,0],[3,0],[0]]","8","0","","","","","","6","",""
"","","","","","single-stim-button","318","608837","0.0-3.0-34.1-1.1","61112e5f99facb9056c5e6ba","A3","batch1","","663","","","tol_toboard","","","","","","","","","tol_peg_2","663","663","0","[[3,0,0],[2,1],[0]]","2","[[2,1,0],[3,0],[0]]","8","0","","","","","","6","",""
"","","","","","single-stim-button","319","609888","0.0-3.0-34.2-0.2","61112e5f99facb9056c5e6ba","A3","batch1","","1049","","","tol_tohand","","","","","","","","","tol_peg_1","1049","1049","0","[[0,0,0],[2,1],[0]]","3","[[2,1,0],[3,0],[0]]","8","0","","","","","","6","",""
"","","","","","single-stim-button","320","611956","0.0-3.0-34.2-1.2","61112e5f99facb9056c5e6ba","A3","batch1","","2067","","","tol_toboard","","","","","","","","","tol_peg_3","2067","2067","0","[[0,0,0],[2,1],[3]]","3","[[2,1,0],[3,0],[0]]","8","0","","","","","","6","",""
"","","","","","single-stim-button","321","615096","0.0-3.0-34.3-0.3","61112e5f99facb9056c5e6ba","A3","batch1","","3139","","","tol_tohand","","","","","","","","","tol_peg_2","3139","3139","0","[[0,0,0],[2,0],[3]]","4","[[2,1,0],[3,0],[0]]","8","0","","","","","","6","",""
"","","","","","single-stim-button","322","616712","0.0-3.0-34.3-1.3","61112e5f99facb9056c5e6ba","A3","batch1","","1615","","","tol_toboard","","","","","","","","","tol_peg_2","1615","1615","0","[[0,0,0],[2,1],[3]]","4","[[2,1,0],[3,0],[0]]","8","0","","","","","","6","",""
"","","","","","single-stim-button","323","617530","0.0-3.0-34.4-0.4","61112e5f99facb9056c5e6ba","A3","batch1","","816","","","tol_tohand","","","","","","","","","tol_peg_3","816","816","0","[[0,0,0],[2,1],[0]]","5","[[2,1,0],[3,0],[0]]","8","0","","","","","","6","",""
"","","","","","single-stim-button","324","621588","0.0-3.0-34.4-1.4","61112e5f99facb9056c5e6ba","A3","batch1","","4057","","","tol_toboard","","","","","","","","","tol_peg_3","4057","4057","0","[[0,0,0],[2,1],[3]]","5","[[2,1,0],[3,0],[0]]","8","0","","","","","","6","",""
"","","","","","single-stim-button","325","622222","0.0-3.0-34.5-0.5","61112e5f99facb9056c5e6ba","A3","batch1","","632","","","tol_tohand","","","","","","","","","tol_peg_2","632","632","0","[[0,0,0],[2,0],[3]]","6","[[2,1,0],[3,0],[0]]","8","0","","","","","","6","",""
"","","","","","single-stim-button","326","623121","0.0-3.0-34.5-1.5","61112e5f99facb9056c5e6ba","A3","batch1","","898","","","tol_toboard","","","","","","","","","tol_peg_1","898","898","0","[[1,0,0],[2,0],[3]]","6","[[2,1,0],[3,0],[0]]","8","0","","","","","","6","",""
"","","","","","single-stim-button","327","628090","0.0-3.0-34.6-0.6","61112e5f99facb9056c5e6ba","A3","batch1","","4968","","","tol_tohand","","","","","","","","","tol_peg_3","4968","4968","0","[[1,0,0],[2,0],[0]]","7","[[2,1,0],[3,0],[0]]","8","0","","","","","","6","",""
"","","","","","single-stim-button","328","628831","0.0-3.0-34.6-1.6","61112e5f99facb9056c5e6ba","A3","batch1","","739","","","tol_toboard","","","","","","","","","tol_peg_2","739","739","0","[[1,0,0],[2,3],[0]]","7","[[2,1,0],[3,0],[0]]","8","0","","","","","","6","",""
"","","","","","single-stim-button","329","629713","0.0-3.0-34.7-0.7","61112e5f99facb9056c5e6ba","A3","batch1","","881","","","tol_tohand","","","","","","","","","tol_peg_1","881","881","0","[[0,0,0],[2,3],[0]]","8","[[2,1,0],[3,0],[0]]","8","0","","","","","","6","",""
"","","","","","single-stim-button","330","630281","0.0-3.0-34.7-1.7","61112e5f99facb9056c5e6ba","A3","batch1","","567","","","tol_toboard","","","","","","","","","tol_peg_3","567","567","0","[[0,0,0],[2,3],[1]]","8","[[2,1,0],[3,0],[0]]","8","0","","","","","","6","",""
"","","","","","single-stim-button","331","630955","0.0-3.0-34.8-0.8","61112e5f99facb9056c5e6ba","A3","batch1","","672","","","tol_tohand","","","","","","","","","tol_peg_2","672","672","0","[[0,0,0],[2,0],[1]]","9","[[2,1,0],[3,0],[0]]","8","0","","","","","","6","",""
"","","","","","single-stim-button","332","632296","0.0-3.0-34.8-1.8","61112e5f99facb9056c5e6ba","A3","batch1","","1340","","","tol_toboard","","","","","","","","","tol_peg_2","1340","1340","0","[[0,0,0],[2,3],[1]]","9","[[2,1,0],[3,0],[0]]","8","0","","","","","","6","",""
"","","","","","single-stim-button","333","635555","0.0-3.0-34.9-0.9","61112e5f99facb9056c5e6ba","A3","batch1","","3257","","","tol_tohand","","","","","","","","","tol_peg_2","3257","3257","0","[[0,0,0],[2,0],[1]]","10","[[2,1,0],[3,0],[0]]","8","0","","","","","","6","",""
"","","","","","single-stim-button","334","636121","0.0-3.0-34.9-1.9","61112e5f99facb9056c5e6ba","A3","batch1","","564","","","tol_toboard","","","","","","","","","tol_peg_1","564","564","0","[[3,0,0],[2,0],[1]]","10","[[2,1,0],[3,0],[0]]","8","0","","","","","","6","",""
"","","","","","single-stim-button","335","636577","0.0-3.0-34.10-0.10","61112e5f99facb9056c5e6ba","A3","batch1","","455","","","tol_tohand","","","","","","","","","tol_peg_2","455","455","0","[[3,0,0],[0,0],[1]]","11","[[2,1,0],[3,0],[0]]","8","0","","","","","","6","",""
"","","","","","single-stim-button","336","637026","0.0-3.0-34.10-1.10","61112e5f99facb9056c5e6ba","A3","batch1","","448","","","tol_toboard","","","","","","","","","tol_peg_1","448","448","0","[[3,2,0],[0,0],[1]]","11","[[2,1,0],[3,0],[0]]","8","0","","","","","","6","",""
"","","","","","single-stim-button","337","637847","0.0-3.0-34.11-0.11","61112e5f99facb9056c5e6ba","A3","batch1","","819","","","tol_tohand","","","","","","","","","tol_peg_3","819","819","0","[[3,2,0],[0,0],[0]]","12","[[2,1,0],[3,0],[0]]","8","0","","","","","","6","",""
"","","","","","single-stim-button","338","639474","0.0-3.0-34.11-1.11","61112e5f99facb9056c5e6ba","A3","batch1","","1625","","","tol_toboard","","","","","","","","","tol_peg_2","1625","1625","0","[[3,2,0],[1,0],[0]]","12","[[2,1,0],[3,0],[0]]","8","0","","","","","","6","",""
"","","","","","single-stim-button","339","640228","0.0-3.0-34.12-0.12","61112e5f99facb9056c5e6ba","A3","batch1","","753","","","tol_tohand","","","","","","","","","tol_peg_1","753","753","0","[[3,0,0],[1,0],[0]]","13","[[2,1,0],[3,0],[0]]","8","0","","","","","","6","",""
"","","","","","single-stim-button","340","640822","0.0-3.0-34.12-1.12","61112e5f99facb9056c5e6ba","A3","batch1","","592","","","tol_toboard","","","","","","","","","tol_peg_2","592","592","0","[[3,0,0],[1,2],[0]]","13","[[2,1,0],[3,0],[0]]","8","0","","","","","","6","",""
"","","","","","single-stim-button","341","641347","0.0-3.0-34.13-0.13","61112e5f99facb9056c5e6ba","A3","batch1","","524","","","tol_tohand","","","","","","","","","tol_peg_1","524","524","0","[[0,0,0],[1,2],[0]]","14","[[2,1,0],[3,0],[0]]","8","0","","","","","","6","",""
"","","","","","single-stim-button","342","642121","0.0-3.0-34.13-1.13","61112e5f99facb9056c5e6ba","A3","batch1","","772","","","tol_toboard","","","","","","","","","tol_peg_3","772","772","0","[[0,0,0],[1,2],[3]]","14","[[2,1,0],[3,0],[0]]","8","0","","","","","","6","",""
"","","","","","single-stim-button","343","642622","0.0-3.0-34.14-0.14","61112e5f99facb9056c5e6ba","A3","batch1","","499","","","tol_tohand","","","","","","","","","tol_peg_2","499","499","0","[[0,0,0],[1,0],[3]]","15","[[2,1,0],[3,0],[0]]","8","0","","","","","","6","",""
"","","","","","single-stim-button","344","643265","0.0-3.0-34.14-1.14","61112e5f99facb9056c5e6ba","A3","batch1","","641","","","tol_toboard","","","","","","","","","tol_peg_1","641","641","0","[[2,0,0],[1,0],[3]]","15","[[2,1,0],[3,0],[0]]","8","0","","","","","","6","",""
"","","","","","single-stim-button","345","643771","0.0-3.0-34.15-0.15","61112e5f99facb9056c5e6ba","A3","batch1","","505","","","tol_tohand","","","","","","","","","tol_peg_2","505","505","0","[[2,0,0],[0,0],[3]]","16","[[2,1,0],[3,0],[0]]","8","0","","","","","","6","",""
"","","","","","single-stim-button","346","644280","0.0-3.0-34.15-1.15","61112e5f99facb9056c5e6ba","A3","batch1","","507","","","tol_toboard","","","","","","","","","tol_peg_1","507","507","0","[[2,1,0],[0,0],[3]]","16","[[2,1,0],[3,0],[0]]","8","0","","","","","","6","",""
"","","","","","single-stim-button","347","644821","0.0-3.0-34.16-0.16","61112e5f99facb9056c5e6ba","A3","batch1","","539","","","tol_tohand","","","","","","","","","tol_peg_3","539","539","0","[[2,1,0],[0,0],[0]]","17","[[2,1,0],[3,0],[0]]","8","0","","","","","","6","",""
"","","","","","single-stim-button","348","645464","0.0-3.0-34.16-1.16","61112e5f99facb9056c5e6ba","A3","batch1","","642","","","tol_toboard","","","","","","","","","tol_peg_2","642","642","0","[[2,1,0],[3,0],[0]]","17","[[2,1,0],[3,0],[0]]","8","0","","","","","","6","",""
"","","","","","poldrack-single-stim","349","646468","0.0-3.0-35.0","61112e5f99facb9056c5e6ba","A3","batch1","","-1","","","tol_feedback","true","","","","","","","","","1000","1000","500","","","","","","-1","none","true","3633","25718","","",""
