"success","timeout","failed_images","failed_audio","failed_video","trial_type","trial_index","time_elapsed","internal_node_id","subject_id","study_id","session_id","task","rt","stimulus","response","item","answer","correct","spm_correct","spm_rt","view_history","fiar_detect_rt","fiar_detect_correct","total_correct_fiar_detect","post_trial_gap","choices","mouse_click","stim_duration","block_duration","timing_post_trial","current_position","tol_num_moves_made","tol_target","tol_problem_id","tol_rt","key_press","possible_responses","tol_correct","preplanning","tol_rt_per_trial","tol_min_moves"
"true","false","[]","[]","[]","preload","0","7271","0.0-0.0","6112b593ca1b683da02678d3","E1","batch5","","","","","","","","","","","","","","","","","","","","","","","","","","","","","",""
"true","","","","","fullscreen","1","16838","0.0-1.0-0.0","6112b593ca1b683da02678d3","E1","batch5","","","","","","","","","","","","","","","","","","","","","","","","","","","","","",""
"true","","","","","fullscreen","2","68442","0.0-2.0-0.0","6112b593ca1b683da02678d3","E1","batch5","spm_fullscreen","","","","","","","","","","","","","","","","","","","","","","","","","","","","",""
"","","","","","html-button-response","3","76240","0.0-2.0-1.0","6112b593ca1b683da02678d3","E1","batch5","","7793.699999809265","<p class = block-text><b>Instructions</b> <br>This is a widely used intelligence test in research. <br>In this test, a figure with a missing piece will be presented.<br>Below the figure are alternative pieces to complete the figure, only one of which is correct.<br> Different figures might involve different principles for obtaining the missing piece<br>Your job is to select the most logical piece to complete the figure.</p>","0","","","","","","","","","","","","","","","","","","","","","","","","","",""
"","","","","","html-keyboard-response","4","77048","0.0-2.0-2.0-0.0","6112b593ca1b683da02678d3","E1","batch5","spm_show_trial_num","null","<p class=block-text>Trial 1 out of 60</p>","null","","","","","","","","","","","","","","","","","","","","","","","","","",""
"","","","","","image-button-response","5","86663","0.0-2.0-2.0-1.0","6112b593ca1b683da02678d3","E1","batch5","spm_respsonse","9604.900000095367","img/question_1_1.jpeg","3","mat_01","4","1","1","9604.900000095367","","","","","","","","","","","","","","","","","","","","",""
"","","","","","html-keyboard-response","6","87734","0.0-2.0-2.0-0.1","6112b593ca1b683da02678d3","E1","batch5","spm_show_trial_num","null","<p class=block-text>Trial 2 out of 60</p>","null","","","","","","","","","","","","","","","","","","","","","","","","","",""
"","","","","","image-button-response","7","95915","0.0-2.0-2.0-1.1","6112b593ca1b683da02678d3","E1","batch5","spm_respsonse","8176.199999809265","img/question_1_2.jpeg","4","mat_02","5","1","1","8176.199999809265","","","","","","","","","","","","","","","","","","","","",""
"","","","","","html-keyboard-response","8","96990","0.0-2.0-2.0-0.2","6112b593ca1b683da02678d3","E1","batch5","spm_show_trial_num","null","<p class=block-text>Trial 3 out of 60</p>","null","","","","","","","","","","","","","","","","","","","","","","","","","",""
"","","","","","image-button-response","9","106483","0.0-2.0-2.0-1.2","6112b593ca1b683da02678d3","E1","batch5","spm_respsonse","9488.800000190735","img/question_1_3.jpeg","0","mat_03","1","1","1","9488.800000190735","","","","","","","","","","","","","","","","","","","","",""
"","","","","","html-keyboard-response","10","107554","0.0-2.0-2.0-0.3","6112b593ca1b683da02678d3","E1","batch5","spm_show_trial_num","null","<p class=block-text>Trial 4 out of 60</p>","null","","","","","","","","","","","","","","","","","","","","","","","","","",""
"","","","","","image-button-response","11","113101","0.0-2.0-2.0-1.3","6112b593ca1b683da02678d3","E1","batch5","spm_respsonse","5541.800000190735","img/question_1_4.jpeg","1","mat_04","2","1","1","5541.800000190735","","","","","","","","","","","","","","","","","","","","",""
"","","","","","html-keyboard-response","12","114182","0.0-2.0-2.0-0.4","6112b593ca1b683da02678d3","E1","batch5","spm_show_trial_num","null","<p class=block-text>Trial 5 out of 60</p>","null","","","","","","","","","","","","","","","","","","","","","","","","","",""
"","","","","","image-button-response","13","123663","0.0-2.0-2.0-1.4","6112b593ca1b683da02678d3","E1","batch5","spm_respsonse","9475.599999904633","img/question_1_5.jpeg","5","mat_05","6","1","1","9475.599999904633","","","","","","","","","","","","","","","","","","","","",""
"","","","","","html-keyboard-response","14","124734","0.0-2.0-2.0-0.5","6112b593ca1b683da02678d3","E1","batch5","spm_show_trial_num","null","<p class=block-text>Trial 6 out of 60</p>","null","","","","","","","","","","","","","","","","","","","","","","","","","",""
"","","","","","image-button-response","15","130638","0.0-2.0-2.0-1.5","6112b593ca1b683da02678d3","E1","batch5","spm_respsonse","5899.099999904633","img/question_1_6.jpeg","2","mat_06","3","1","1","5899.099999904633","","","","","","","","","","","","","","","","","","","","",""
"","","","","","html-keyboard-response","16","131705","0.0-2.0-2.0-0.6","6112b593ca1b683da02678d3","E1","batch5","spm_show_trial_num","null","<p class=block-text>Trial 7 out of 60</p>","null","","","","","","","","","","","","","","","","","","","","","","","","","",""
"","","","","","image-button-response","17","137163","0.0-2.0-2.0-1.6","6112b593ca1b683da02678d3","E1","batch5","spm_respsonse","5452.199999809265","img/question_1_7.jpeg","5","mat_07","6","1","1","5452.199999809265","","","","","","","","","","","","","","","","","","","","",""
"","","","","","html-keyboard-response","18","138223","0.0-2.0-2.0-0.7","6112b593ca1b683da02678d3","E1","batch5","spm_show_trial_num","null","<p class=block-text>Trial 8 out of 60</p>","null","","","","","","","","","","","","","","","","","","","","","","","","","",""
"","","","","","image-button-response","19","144034","0.0-2.0-2.0-1.7","6112b593ca1b683da02678d3","E1","batch5","spm_respsonse","5804.599999904633","img/question_1_8.jpeg","1","mat_08","2","1","1","5804.599999904633","","","","","","","","","","","","","","","","","","","","",""
"","","","","","html-keyboard-response","20","145106","0.0-2.0-2.0-0.8","6112b593ca1b683da02678d3","E1","batch5","spm_show_trial_num","null","<p class=block-text>Trial 9 out of 60</p>","null","","","","","","","","","","","","","","","","","","","","","","","","","",""
"","","","","","image-button-response","21","150118","0.0-2.0-2.0-1.8","6112b593ca1b683da02678d3","E1","batch5","spm_respsonse","5006.099999904633","img/question_1_9.jpeg","0","mat_09","1","1","1","5006.099999904633","","","","","","","","","","","","","","","","","","","","",""
"","","","","","html-keyboard-response","22","151196","0.0-2.0-2.0-0.9","6112b593ca1b683da02678d3","E1","batch5","spm_show_trial_num","null","<p class=block-text>Trial 10 out of 60</p>","null","","","","","","","","","","","","","","","","","","","","","","","","","",""
"","","","","","image-button-response","23","158112","0.0-2.0-2.0-1.9","6112b593ca1b683da02678d3","E1","batch5","spm_respsonse","6911.299999713898","img/question_1_10.jpeg","2","mat_10","3","1","1","6911.299999713898","","","","","","","","","","","","","","","","","","","","",""
"","","","","","html-keyboard-response","24","159185","0.0-2.0-2.0-0.10","6112b593ca1b683da02678d3","E1","batch5","spm_show_trial_num","null","<p class=block-text>Trial 11 out of 60</p>","null","","","","","","","","","","","","","","","","","","","","","","","","","",""
"","","","","","image-button-response","25","170756","0.0-2.0-2.0-1.10","6112b593ca1b683da02678d3","E1","batch5","spm_respsonse","11564.199999809265","img/question_1_11.jpeg","3","mat_11","4","1","1","11564.199999809265","","","","","","","","","","","","","","","","","","","","",""
"","","","","","html-keyboard-response","26","171828","0.0-2.0-2.0-0.11","6112b593ca1b683da02678d3","E1","batch5","spm_show_trial_num","null","<p class=block-text>Trial 12 out of 60</p>","null","","","","","","","","","","","","","","","","","","","","","","","","","",""
"","","","","","image-button-response","27","184739","0.0-2.0-2.0-1.11","6112b593ca1b683da02678d3","E1","batch5","spm_respsonse","12905.300000190735","img/question_1_12.jpeg","4","mat_12","5","1","1","12905.300000190735","","","","","","","","","","","","","","","","","","","","",""
"","","","","","html-keyboard-response","28","185796","0.0-2.0-2.0-0.12","6112b593ca1b683da02678d3","E1","batch5","spm_show_trial_num","null","<p class=block-text>Trial 13 out of 60</p>","null","","","","","","","","","","","","","","","","","","","","","","","","","",""
"","","","","","image-button-response","29","189732","0.0-2.0-2.0-1.12","6112b593ca1b683da02678d3","E1","batch5","spm_respsonse","3930.4000000953674","img/question_2_1.jpeg","1","mat_13","2","1","1","3930.4000000953674","","","","","","","","","","","","","","","","","","","","",""
"","","","","","html-keyboard-response","30","190791","0.0-2.0-2.0-0.13","6112b593ca1b683da02678d3","E1","batch5","spm_show_trial_num","null","<p class=block-text>Trial 14 out of 60</p>","null","","","","","","","","","","","","","","","","","","","","","","","","","",""
"","","","","","image-button-response","31","197091","0.0-2.0-2.0-1.13","6112b593ca1b683da02678d3","E1","batch5","spm_respsonse","6294.400000095367","img/question_2_2.jpeg","5","mat_14","6","1","1","6294.400000095367","","","","","","","","","","","","","","","","","","","","",""
"","","","","","html-keyboard-response","32","198152","0.0-2.0-2.0-0.14","6112b593ca1b683da02678d3","E1","batch5","spm_show_trial_num","null","<p class=block-text>Trial 15 out of 60</p>","null","","","","","","","","","","","","","","","","","","","","","","","","","",""
"","","","","","image-button-response","33","203542","0.0-2.0-2.0-1.14","6112b593ca1b683da02678d3","E1","batch5","spm_respsonse","5382","img/question_2_3.jpeg","0","mat_15","1","1","1","5382","","","","","","","","","","","","","","","","","","","","",""
"","","","","","html-keyboard-response","34","204620","0.0-2.0-2.0-0.15","6112b593ca1b683da02678d3","E1","batch5","spm_show_trial_num","null","<p class=block-text>Trial 16 out of 60</p>","null","","","","","","","","","","","","","","","","","","","","","","","","","",""
"","","","","","image-button-response","35","208977","0.0-2.0-2.0-1.15","6112b593ca1b683da02678d3","E1","batch5","spm_respsonse","4351.10000038147","img/question_2_4.jpeg","1","mat_16","2","1","1","4351.10000038147","","","","","","","","","","","","","","","","","","","","",""
"","","","","","html-keyboard-response","36","210042","0.0-2.0-2.0-0.16","6112b593ca1b683da02678d3","E1","batch5","spm_show_trial_num","null","<p class=block-text>Trial 17 out of 60</p>","null","","","","","","","","","","","","","","","","","","","","","","","","","",""
"","","","","","image-button-response","37","215819","0.0-2.0-2.0-1.16","6112b593ca1b683da02678d3","E1","batch5","spm_respsonse","5773.099999904633","img/question_2_5.jpeg","0","mat_17","1","1","1","5773.099999904633","","","","","","","","","","","","","","","","","","","","",""
"","","","","","html-keyboard-response","38","216900","0.0-2.0-2.0-0.17","6112b593ca1b683da02678d3","E1","batch5","spm_show_trial_num","null","<p class=block-text>Trial 18 out of 60</p>","null","","","","","","","","","","","","","","","","","","","","","","","","","",""
"","","","","","image-button-response","39","224068","0.0-2.0-2.0-1.17","6112b593ca1b683da02678d3","E1","batch5","spm_respsonse","7163.300000190735","img/question_2_6.jpeg","2","mat_18","3","1","1","7163.300000190735","","","","","","","","","","","","","","","","","","","","",""
"","","","","","html-keyboard-response","40","225149","0.0-2.0-2.0-0.18","6112b593ca1b683da02678d3","E1","batch5","spm_show_trial_num","null","<p class=block-text>Trial 19 out of 60</p>","null","","","","","","","","","","","","","","","","","","","","","","","","","",""
"","","","","","image-button-response","41","231066","0.0-2.0-2.0-1.18","6112b593ca1b683da02678d3","E1","batch5","spm_respsonse","5912.199999809265","img/question_2_7.jpeg","4","mat_19","5","1","1","5912.199999809265","","","","","","","","","","","","","","","","","","","","",""
"","","","","","html-keyboard-response","42","232134","0.0-2.0-2.0-0.19","6112b593ca1b683da02678d3","E1","batch5","spm_show_trial_num","null","<p class=block-text>Trial 20 out of 60</p>","null","","","","","","","","","","","","","","","","","","","","","","","","","",""
"","","","","","image-button-response","43","238148","0.0-2.0-2.0-1.19","6112b593ca1b683da02678d3","E1","batch5","spm_respsonse","6007.10000038147","img/question_2_8.jpeg","5","mat_20","6","1","1","6007.10000038147","","","","","","","","","","","","","","","","","","","","",""
"","","","","","html-keyboard-response","44","239214","0.0-2.0-2.0-0.20","6112b593ca1b683da02678d3","E1","batch5","spm_show_trial_num","null","<p class=block-text>Trial 21 out of 60</p>","null","","","","","","","","","","","","","","","","","","","","","","","","","",""
"","","","","","image-button-response","45","241229","0.0-2.0-2.0-1.20","6112b593ca1b683da02678d3","E1","batch5","spm_respsonse","2009.8999996185303","img/question_2_9.jpeg","3","mat_21","4","1","1","2009.8999996185303","","","","","","","","","","","","","","","","","","","","",""
"","","","","","html-keyboard-response","46","242292","0.0-2.0-2.0-0.21","6112b593ca1b683da02678d3","E1","batch5","spm_show_trial_num","null","<p class=block-text>Trial 22 out of 60</p>","null","","","","","","","","","","","","","","","","","","","","","","","","","",""
"","","","","","image-button-response","47","251287","0.0-2.0-2.0-1.21","6112b593ca1b683da02678d3","E1","batch5","spm_respsonse","8990.200000286102","img/question_2_10.jpeg","2","mat_22","3","1","1","8990.200000286102","","","","","","","","","","","","","","","","","","","","",""
"","","","","","html-keyboard-response","48","252354","0.0-2.0-2.0-0.22","6112b593ca1b683da02678d3","E1","batch5","spm_show_trial_num","null","<p class=block-text>Trial 23 out of 60</p>","null","","","","","","","","","","","","","","","","","","","","","","","","","",""
"","","","","","image-button-response","49","267710","0.0-2.0-2.0-1.22","6112b593ca1b683da02678d3","E1","batch5","spm_respsonse","15350.599999904633","img/question_2_11.jpeg","3","mat_23","4","1","1","15350.599999904633","","","","","","","","","","","","","","","","","","","","",""
"","","","","","html-keyboard-response","50","268779","0.0-2.0-2.0-0.23","6112b593ca1b683da02678d3","E1","batch5","spm_show_trial_num","null","<p class=block-text>Trial 24 out of 60</p>","null","","","","","","","","","","","","","","","","","","","","","","","","","",""
"","","","","","image-button-response","51","280386","0.0-2.0-2.0-1.23","6112b593ca1b683da02678d3","E1","batch5","spm_respsonse","11600.5","img/question_2_12.jpeg","4","mat_24","5","1","1","11600.5","","","","","","","","","","","","","","","","","","","","",""
"","","","","","html-button-response","52","283073","0.0-2.0-3.0","6112b593ca1b683da02678d3","E1","batch5","attention_check","2429.0999999046326","<p class = block-text>Attention check: Please choose 1<br></p>","0","","","true","","","","","","","","","","","","","","","","","","","","","","",""
"","","","","","html-keyboard-response","53","283891","0.0-2.0-4.0-0.0","6112b593ca1b683da02678d3","E1","batch5","spm_show_trial_num","null","<p class=block-text>Trial 25 out of 60</p>","null","","","","","","","","","","","","","","","","","","","","","","","","","",""
"","","","","","image-button-response","54","291430","0.0-2.0-4.0-1.0","6112b593ca1b683da02678d3","E1","batch5","spm_respsonse","7533.39999961853","img/question_3_1.jpeg","7","mat_25","8","1","1","7533.39999961853","","","","","","","","","","","","","","","","","","","","",""
"","","","","","html-keyboard-response","55","292486","0.0-2.0-4.0-0.1","6112b593ca1b683da02678d3","E1","batch5","spm_show_trial_num","null","<p class=block-text>Trial 26 out of 60</p>","null","","","","","","","","","","","","","","","","","","","","","","","","","",""
"","","","","","image-button-response","56","330826","0.0-2.0-4.0-1.1","6112b593ca1b683da02678d3","E1","batch5","spm_respsonse","38334.7000002861","img/question_3_2.jpeg","1","mat_26","2","1","1","38334.7000002861","","","","","","","","","","","","","","","","","","","","",""
"","","","","","html-keyboard-response","57","331890","0.0-2.0-4.0-0.2","6112b593ca1b683da02678d3","E1","batch5","spm_show_trial_num","null","<p class=block-text>Trial 27 out of 60</p>","null","","","","","","","","","","","","","","","","","","","","","","","","","",""
"","","","","","image-button-response","58","337846","0.0-2.0-4.0-1.2","6112b593ca1b683da02678d3","E1","batch5","spm_respsonse","5950.200000286102","img/question_3_3.jpeg","2","mat_27","3","1","1","5950.200000286102","","","","","","","","","","","","","","","","","","","","",""
"","","","","","html-keyboard-response","59","338906","0.0-2.0-4.0-0.3","6112b593ca1b683da02678d3","E1","batch5","spm_show_trial_num","null","<p class=block-text>Trial 28 out of 60</p>","null","","","","","","","","","","","","","","","","","","","","","","","","","",""
"","","","","","image-button-response","60","350342","0.0-2.0-4.0-1.3","6112b593ca1b683da02678d3","E1","batch5","spm_respsonse","11432","img/question_3_4.jpeg","7","mat_28","8","1","1","11432","","","","","","","","","","","","","","","","","","","","",""
"","","","","","html-keyboard-response","61","351411","0.0-2.0-4.0-0.4","6112b593ca1b683da02678d3","E1","batch5","spm_show_trial_num","null","<p class=block-text>Trial 29 out of 60</p>","null","","","","","","","","","","","","","","","","","","","","","","","","","",""
"","","","","","image-button-response","62","359100","0.0-2.0-4.0-1.4","6112b593ca1b683da02678d3","E1","batch5","spm_respsonse","7685","img/question_3_5.jpeg","6","mat_29","7","1","1","7685","","","","","","","","","","","","","","","","","","","","",""
"","","","","","html-keyboard-response","63","360154","0.0-2.0-4.0-0.5","6112b593ca1b683da02678d3","E1","batch5","spm_show_trial_num","null","<p class=block-text>Trial 30 out of 60</p>","null","","","","","","","","","","","","","","","","","","","","","","","","","",""
"","","","","","image-button-response","64","416385","0.0-2.0-4.0-1.5","6112b593ca1b683da02678d3","E1","batch5","spm_respsonse","56226.699999809265","img/question_3_6.jpeg","3","mat_30","4","1","1","56226.699999809265","","","","","","","","","","","","","","","","","","","","",""
"","","","","","html-keyboard-response","65","417463","0.0-2.0-4.0-0.6","6112b593ca1b683da02678d3","E1","batch5","spm_show_trial_num","null","<p class=block-text>Trial 31 out of 60</p>","null","","","","","","","","","","","","","","","","","","","","","","","","","",""
"","","","","","image-button-response","66","423600","0.0-2.0-4.0-1.6","6112b593ca1b683da02678d3","E1","batch5","spm_respsonse","6130.700000286102","img/question_3_7.jpeg","4","mat_31","5","1","1","6130.700000286102","","","","","","","","","","","","","","","","","","","","",""
"","","","","","html-keyboard-response","67","424666","0.0-2.0-4.0-0.7","6112b593ca1b683da02678d3","E1","batch5","spm_show_trial_num","null","<p class=block-text>Trial 32 out of 60</p>","null","","","","","","","","","","","","","","","","","","","","","","","","","",""
"","","","","","image-button-response","68","459820","0.0-2.0-4.0-1.7","6112b593ca1b683da02678d3","E1","batch5","spm_respsonse","35148.2999997139","img/question_3_8.jpeg","0","mat_32","1","1","1","35148.2999997139","","","","","","","","","","","","","","","","","","","","",""
"","","","","","html-keyboard-response","69","460887","0.0-2.0-4.0-0.8","6112b593ca1b683da02678d3","E1","batch5","spm_show_trial_num","null","<p class=block-text>Trial 33 out of 60</p>","null","","","","","","","","","","","","","","","","","","","","","","","","","",""
"","","","","","image-button-response","70","468142","0.0-2.0-4.0-1.8","6112b593ca1b683da02678d3","E1","batch5","spm_respsonse","7249.099999904633","img/question_3_9.jpeg","6","mat_33","7","1","1","7249.099999904633","","","","","","","","","","","","","","","","","","","","",""
"","","","","","html-keyboard-response","71","469198","0.0-2.0-4.0-0.9","6112b593ca1b683da02678d3","E1","batch5","spm_show_trial_num","null","<p class=block-text>Trial 34 out of 60</p>","null","","","","","","","","","","","","","","","","","","","","","","","","","",""
"","","","","","image-button-response","72","498413","0.0-2.0-4.0-1.9","6112b593ca1b683da02678d3","E1","batch5","spm_respsonse","29209.299999713898","img/question_3_10.jpeg","3","mat_34","6","0","0","29209.299999713898","","","","","","","","","","","","","","","","","","","","",""
"","","","","","html-keyboard-response","73","499493","0.0-2.0-4.0-0.10","6112b593ca1b683da02678d3","E1","batch5","spm_show_trial_num","null","<p class=block-text>Trial 35 out of 60</p>","null","","","","","","","","","","","","","","","","","","","","","","","","","",""
"","","","","","image-button-response","74","524458","0.0-2.0-4.0-1.10","6112b593ca1b683da02678d3","E1","batch5","spm_respsonse","24955.799999713898","img/question_3_11.jpeg","4","mat_35","1","0","0","24955.799999713898","","","","","","","","","","","","","","","","","","","","",""
"","","","","","html-keyboard-response","75","525526","0.0-2.0-4.0-0.11","6112b593ca1b683da02678d3","E1","batch5","spm_show_trial_num","null","<p class=block-text>Trial 36 out of 60</p>","null","","","","","","","","","","","","","","","","","","","","","","","","","",""
"","","","","","image-button-response","76","548063","0.0-2.0-4.0-1.11","6112b593ca1b683da02678d3","E1","batch5","spm_respsonse","22530.60000038147","img/question_3_12.jpeg","4","mat_36","2","0","0","22530.60000038147","","","","","","","","","","","","","","","","","","","","",""
"","","","","","html-keyboard-response","77","549129","0.0-2.0-4.0-0.12","6112b593ca1b683da02678d3","E1","batch5","spm_show_trial_num","null","<p class=block-text>Trial 37 out of 60</p>","null","","","","","","","","","","","","","","","","","","","","","","","","","",""
"","","","","","image-button-response","78","554246","0.0-2.0-4.0-1.12","6112b593ca1b683da02678d3","E1","batch5","spm_respsonse","5109.300000190735","img/question_4_1.jpeg","2","mat_37","3","1","1","5109.300000190735","","","","","","","","","","","","","","","","","","","","",""
"","","","","","html-keyboard-response","79","555322","0.0-2.0-4.0-0.13","6112b593ca1b683da02678d3","E1","batch5","spm_show_trial_num","null","<p class=block-text>Trial 38 out of 60</p>","null","","","","","","","","","","","","","","","","","","","","","","","","","",""
"","","","","","image-button-response","80","563588","0.0-2.0-4.0-1.13","6112b593ca1b683da02678d3","E1","batch5","spm_respsonse","8261","img/question_4_2.jpeg","3","mat_38","4","1","1","8261","","","","","","","","","","","","","","","","","","","","",""
"","","","","","html-keyboard-response","81","564663","0.0-2.0-4.0-0.14","6112b593ca1b683da02678d3","E1","batch5","spm_show_trial_num","null","<p class=block-text>Trial 39 out of 60</p>","null","","","","","","","","","","","","","","","","","","","","","","","","","",""
"","","","","","image-button-response","82","573340","0.0-2.0-4.0-1.14","6112b593ca1b683da02678d3","E1","batch5","spm_respsonse","8672.400000095367","img/question_4_3.jpeg","0","mat_39","3","0","0","8672.400000095367","","","","","","","","","","","","","","","","","","","","",""
"","","","","","html-keyboard-response","83","574407","0.0-2.0-4.0-0.15","6112b593ca1b683da02678d3","E1","batch5","spm_show_trial_num","null","<p class=block-text>Trial 40 out of 60</p>","null","","","","","","","","","","","","","","","","","","","","","","","","","",""
"","","","","","image-button-response","84","584109","0.0-2.0-4.0-1.15","6112b593ca1b683da02678d3","E1","batch5","spm_respsonse","9696.5","img/question_4_4.jpeg","6","mat_40","7","1","1","9696.5","","","","","","","","","","","","","","","","","","","","",""
"","","","","","html-keyboard-response","85","585185","0.0-2.0-4.0-0.16","6112b593ca1b683da02678d3","E1","batch5","spm_show_trial_num","null","<p class=block-text>Trial 41 out of 60</p>","null","","","","","","","","","","","","","","","","","","","","","","","","","",""
"","","","","","image-button-response","86","603091","0.0-2.0-4.0-1.16","6112b593ca1b683da02678d3","E1","batch5","spm_respsonse","17901.5","img/question_4_5.jpeg","7","mat_41","8","1","1","17901.5","","","","","","","","","","","","","","","","","","","","",""
"","","","","","html-keyboard-response","87","604156","0.0-2.0-4.0-0.17","6112b593ca1b683da02678d3","E1","batch5","spm_show_trial_num","null","<p class=block-text>Trial 42 out of 60</p>","null","","","","","","","","","","","","","","","","","","","","","","","","","",""
"","","","","","image-button-response","88","617286","0.0-2.0-4.0-1.17","6112b593ca1b683da02678d3","E1","batch5","spm_respsonse","13124.800000190735","img/question_4_6.jpeg","5","mat_42","6","1","1","13124.800000190735","","","","","","","","","","","","","","","","","","","","",""
"","","","","","html-keyboard-response","89","618344","0.0-2.0-4.0-0.18","6112b593ca1b683da02678d3","E1","batch5","spm_show_trial_num","null","<p class=block-text>Trial 43 out of 60</p>","null","","","","","","","","","","","","","","","","","","","","","","","","","",""
"","","","","","image-button-response","90","632430","0.0-2.0-4.0-1.18","6112b593ca1b683da02678d3","E1","batch5","spm_respsonse","14079.799999713898","img/question_4_7.jpeg","4","mat_43","5","1","1","14079.799999713898","","","","","","","","","","","","","","","","","","","","",""
"","","","","","html-keyboard-response","91","633495","0.0-2.0-4.0-0.19","6112b593ca1b683da02678d3","E1","batch5","spm_show_trial_num","null","<p class=block-text>Trial 44 out of 60</p>","null","","","","","","","","","","","","","","","","","","","","","","","","","",""
"","","","","","image-button-response","92","645576","0.0-2.0-4.0-1.19","6112b593ca1b683da02678d3","E1","batch5","spm_respsonse","12074.800000190735","img/question_4_8.jpeg","3","mat_44","4","1","1","12074.800000190735","","","","","","","","","","","","","","","","","","","","",""
"","","","","","html-keyboard-response","93","646656","0.0-2.0-4.0-0.20","6112b593ca1b683da02678d3","E1","batch5","spm_show_trial_num","null","<p class=block-text>Trial 45 out of 60</p>","null","","","","","","","","","","","","","","","","","","","","","","","","","",""
"","","","","","image-button-response","94","653307","0.0-2.0-4.0-1.20","6112b593ca1b683da02678d3","E1","batch5","spm_respsonse","6644.400000095367","img/question_4_9.jpeg","7","mat_45","1","0","0","6644.400000095367","","","","","","","","","","","","","","","","","","","","",""
"","","","","","html-keyboard-response","95","654372","0.0-2.0-4.0-0.21","6112b593ca1b683da02678d3","E1","batch5","spm_show_trial_num","null","<p class=block-text>Trial 46 out of 60</p>","null","","","","","","","","","","","","","","","","","","","","","","","","","",""
"","","","","","image-button-response","96","676018","0.0-2.0-4.0-1.21","6112b593ca1b683da02678d3","E1","batch5","spm_respsonse","21640.400000095367","img/question_4_10.jpeg","1","mat_46","2","1","1","21640.400000095367","","","","","","","","","","","","","","","","","","","","",""
"","","","","","html-keyboard-response","97","677097","0.0-2.0-4.0-0.22","6112b593ca1b683da02678d3","E1","batch5","spm_show_trial_num","null","<p class=block-text>Trial 47 out of 60</p>","null","","","","","","","","","","","","","","","","","","","","","","","","","",""
"","","","","","image-button-response","98","691557","0.0-2.0-4.0-1.22","6112b593ca1b683da02678d3","E1","batch5","spm_respsonse","14454","img/question_4_11.jpeg","7","mat_47","5","0","0","14454","","","","","","","","","","","","","","","","","","","","",""
"","","","","","html-keyboard-response","99","692629","0.0-2.0-4.0-0.23","6112b593ca1b683da02678d3","E1","batch5","spm_show_trial_num","null","<p class=block-text>Trial 48 out of 60</p>","null","","","","","","","","","","","","","","","","","","","","","","","","","",""
"","","","","","image-button-response","100","717120","0.0-2.0-4.0-1.23","6112b593ca1b683da02678d3","E1","batch5","spm_respsonse","24485.400000095367","img/question_4_12.jpeg","6","mat_48","6","0","0","24485.400000095367","","","","","","","","","","","","","","","","","","","","",""
"","","","","","html-keyboard-response","101","718197","0.0-2.0-4.0-0.24","6112b593ca1b683da02678d3","E1","batch5","spm_show_trial_num","null","<p class=block-text>Trial 49 out of 60</p>","null","","","","","","","","","","","","","","","","","","","","","","","","","",""
"","","","","","image-button-response","102","724064","0.0-2.0-4.0-1.24","6112b593ca1b683da02678d3","E1","batch5","spm_respsonse","5862.099999904633","img/question_5_1.jpeg","6","mat_49","7","1","1","5862.099999904633","","","","","","","","","","","","","","","","","","","","",""
"","","","","","html-keyboard-response","103","725120","0.0-2.0-4.0-0.25","6112b593ca1b683da02678d3","E1","batch5","spm_show_trial_num","null","<p class=block-text>Trial 50 out of 60</p>","null","","","","","","","","","","","","","","","","","","","","","","","","","",""
"","","","","","image-button-response","104","753175","0.0-2.0-4.0-1.25","6112b593ca1b683da02678d3","E1","batch5","spm_respsonse","28049","img/question_5_2.jpeg","5","mat_50","6","1","1","28049","","","","","","","","","","","","","","","","","","","","",""
"","","","","","html-keyboard-response","105","754245","0.0-2.0-4.0-0.26","6112b593ca1b683da02678d3","E1","batch5","spm_show_trial_num","null","<p class=block-text>Trial 51 out of 60</p>","null","","","","","","","","","","","","","","","","","","","","","","","","","",""
"","","","","","image-button-response","106","767158","0.0-2.0-4.0-1.26","6112b593ca1b683da02678d3","E1","batch5","spm_respsonse","12907.400000095367","img/question_5_3.jpeg","7","mat_51","8","1","1","12907.400000095367","","","","","","","","","","","","","","","","","","","","",""
"","","","","","html-keyboard-response","107","768233","0.0-2.0-4.0-0.27","6112b593ca1b683da02678d3","E1","batch5","spm_show_trial_num","null","<p class=block-text>Trial 52 out of 60</p>","null","","","","","","","","","","","","","","","","","","","","","","","","","",""
"","","","","","image-button-response","108","776870","0.0-2.0-4.0-1.27","6112b593ca1b683da02678d3","E1","batch5","spm_respsonse","8632.60000038147","img/question_5_4.jpeg","1","mat_52","2","1","1","8632.60000038147","","","","","","","","","","","","","","","","","","","","",""
"","","","","","html-keyboard-response","109","777938","0.0-2.0-4.0-0.28","6112b593ca1b683da02678d3","E1","batch5","spm_show_trial_num","null","<p class=block-text>Trial 53 out of 60</p>","null","","","","","","","","","","","","","","","","","","","","","","","","","",""
"","","","","","image-button-response","110","791839","0.0-2.0-4.0-1.28","6112b593ca1b683da02678d3","E1","batch5","spm_respsonse","13897.599999904633","img/question_5_5.jpeg","5","mat_53","1","0","0","13897.599999904633","","","","","","","","","","","","","","","","","","","","",""
"","","","","","html-keyboard-response","111","792903","0.0-2.0-4.0-0.29","6112b593ca1b683da02678d3","E1","batch5","spm_show_trial_num","null","<p class=block-text>Trial 54 out of 60</p>","null","","","","","","","","","","","","","","","","","","","","","","","","","",""
"","","","","","image-button-response","112","799992","0.0-2.0-4.0-1.29","6112b593ca1b683da02678d3","E1","batch5","spm_respsonse","7082.800000190735","img/question_5_6.jpeg","7","mat_54","5","0","0","7082.800000190735","","","","","","","","","","","","","","","","","","","","",""
"","","","","","html-keyboard-response","113","801045","0.0-2.0-4.0-0.30","6112b593ca1b683da02678d3","E1","batch5","spm_show_trial_num","null","<p class=block-text>Trial 55 out of 60</p>","null","","","","","","","","","","","","","","","","","","","","","","","","","",""
"","","","","","image-button-response","114","824034","0.0-2.0-4.0-1.30","6112b593ca1b683da02678d3","E1","batch5","spm_respsonse","22983.900000095367","img/question_5_7.jpeg","0","mat_55","1","1","1","22983.900000095367","","","","","","","","","","","","","","","","","","","","",""
"","","","","","html-keyboard-response","115","825114","0.0-2.0-4.0-0.31","6112b593ca1b683da02678d3","E1","batch5","spm_show_trial_num","null","<p class=block-text>Trial 56 out of 60</p>","null","","","","","","","","","","","","","","","","","","","","","","","","","",""
"","","","","","image-button-response","116","838110","0.0-2.0-4.0-1.31","6112b593ca1b683da02678d3","E1","batch5","spm_respsonse","12990.300000190735","img/question_5_8.jpeg","5","mat_56","6","1","1","12990.300000190735","","","","","","","","","","","","","","","","","","","","",""
"","","","","","html-keyboard-response","117","839174","0.0-2.0-4.0-0.32","6112b593ca1b683da02678d3","E1","batch5","spm_show_trial_num","null","<p class=block-text>Trial 57 out of 60</p>","null","","","","","","","","","","","","","","","","","","","","","","","","","",""
"","","","","","image-button-response","118","856530","0.0-2.0-4.0-1.32","6112b593ca1b683da02678d3","E1","batch5","spm_respsonse","17351.799999713898","img/question_5_9.jpeg","2","mat_57","3","1","1","17351.799999713898","","","","","","","","","","","","","","","","","","","","",""
"","","","","","html-keyboard-response","119","857609","0.0-2.0-4.0-0.33","6112b593ca1b683da02678d3","E1","batch5","spm_show_trial_num","null","<p class=block-text>Trial 58 out of 60</p>","null","","","","","","","","","","","","","","","","","","","","","","","","","",""
"","","","","","image-button-response","120","864995","0.0-2.0-4.0-1.33","6112b593ca1b683da02678d3","E1","batch5","spm_respsonse","7380.800000190735","img/question_5_10.jpeg","6","mat_58","2","0","0","7380.800000190735","","","","","","","","","","","","","","","","","","","","",""
"","","","","","html-keyboard-response","121","866064","0.0-2.0-4.0-0.34","6112b593ca1b683da02678d3","E1","batch5","spm_show_trial_num","null","<p class=block-text>Trial 59 out of 60</p>","null","","","","","","","","","","","","","","","","","","","","","","","","","",""
"","","","","","image-button-response","122","877976","0.0-2.0-4.0-1.34","6112b593ca1b683da02678d3","E1","batch5","spm_respsonse","11906.39999961853","img/question_5_11.jpeg","3","mat_59","4","1","1","11906.39999961853","","","","","","","","","","","","","","","","","","","","",""
"","","","","","html-keyboard-response","123","879049","0.0-2.0-4.0-0.35","6112b593ca1b683da02678d3","E1","batch5","spm_show_trial_num","null","<p class=block-text>Trial 60 out of 60</p>","null","","","","","","","","","","","","","","","","","","","","","","","","","",""
"","","","","","image-button-response","124","890834","0.0-2.0-4.0-1.35","6112b593ca1b683da02678d3","E1","batch5","spm_respsonse","11780.5","img/question_5_12.jpeg","4","mat_60","5","1","1","11780.5","","","","","","","","","","","","","","","","","","","","",""
"","","","","","html-button-response","125","893488","0.0-2.0-5.0","6112b593ca1b683da02678d3","E1","batch5","spm_goodbye","2400.2000002861023","<p class= block-text>This concludes the Standard Progressive Matrix game. Thank you for your responses!<br> When you are ready, click the button continue</p>","0","","","","","","","","","","","","","","","","","","","","","","","","","",""
"true","","","","","fullscreen","126","897589","0.0-3.0-0.0","6112b593ca1b683da02678d3","E1","batch5","","","","","","","","","","","","","","","","","","","","","","","","","","","","","",""
"","","","","","instructions","127","911175","0.0-3.0-1.0-0.0","6112b593ca1b683da02678d3","E1","batch5","","13583.300000190735","","","","","","","","[{""page_index"":0,""viewing_time"":8911},{""page_index"":1,""viewing_time"":4671.5}]","","","","","","","","","","","","","","","","","","","",""
"","","","","","html-button-response","128","912694","0.0-3.0-1.0-1.0-0.0","6112b593ca1b683da02678d3","E1","batch5","pattern_enter_quiz","1517.4000000953674","<p class=block-text> Let's answer a few questions <br>","0","","","","","","","","","","","","","","","","","","","","","","","","","",""
"","","","","","html-button-response","129","915735","0.0-3.0-1.0-1.0-1.0","6112b593ca1b683da02678d3","E1","batch5","pattern_quiz","3037.7000002861023","<p class = block-text>True or False: You will have as much time as you want to make each choice. <br></p>","1","","","true","","","","","","","","","","","","","","","","","","","","","","",""
"","","","","","html-button-response","130","917255","0.0-3.0-1.0-1.0-2.0","6112b593ca1b683da02678d3","E1","batch5","pattern_quiz_feedback","1510.6999998092651","<p class = block-text>Correct! You should make your choice <strong> as fast as you can</strong>.</p>","0","","","","","","","","","","","","","","","","","","","","","","","","","",""
"","","","","","html-button-response","131","920652","0.0-3.0-1.0-1.0-3.0","6112b593ca1b683da02678d3","E1","batch5","pattern_quiz","3393.5999999046326","<p class = block-text>True or False: You will look for 4 pieces in black or white color connected in a row either horizontally, vertically or diagonally. <br></p>","0","","","true","","","","","","","","","","","","","","","","","","","","","","",""
"","","","","","html-button-response","132","921488","0.0-3.0-1.0-1.0-4.0","6112b593ca1b683da02678d3","E1","batch5","pattern_quiz_feedback","834.2000002861023","<p class = block-text>Correct! </p>","0","","","","","","","","","","","","","","","","","","","","","","","","","",""
"","","","","","html-button-response","133","922973","0.0-3.0-2.0","6112b593ca1b683da02678d3","E1","batch5","pattern_enter_practice","1469.2000002861023","<p class=block-text> Now that you've understood the game, let's do a few practice trials before we start!<br> <br>","0","","","","","","","","","","","","","","","","","","","","","","","","","",""
"","","","","","image-keyboard-response","134","926892","0.0-3.0-3.0-0.0","6112b593ca1b683da02678d3","E1","batch5","pattern_practice","3906.4000000953674","stim/prac_no_16_1.png","j","","j","true","","","","","","","","","","","","","","","","","","","","","","",""
"","","","","","html-keyboard-response","135","927908","0.0-3.0-3.0-1.0","6112b593ca1b683da02678d3","E1","batch5","pattern_feedback","null","<p style=""font-size:30px;color:green;"">Correct!</p>","null","","","","","","","","","","","","","","","","","","","","","","","","","",""
"","","","","","image-keyboard-response","136","930226","0.0-3.0-3.0-0.1","6112b593ca1b683da02678d3","E1","batch5","pattern_practice","2314.4000000953674","stim/prac_no_18_1.png","j","","j","true","","","","","","","","","","","","","","","","","","","","","","",""
"","","","","","html-keyboard-response","137","931242","0.0-3.0-3.0-1.1","6112b593ca1b683da02678d3","E1","batch5","pattern_feedback","null","<p style=""font-size:30px;color:green;"">Correct!</p>","null","","","","","","","","","","","","","","","","","","","","","","","","","",""
"","","","","","image-keyboard-response","138","932100","0.0-3.0-3.0-0.2","6112b593ca1b683da02678d3","E1","batch5","pattern_practice","853.7999997138977","stim/prac_yes_18_hor_w1.png","f","","f","true","","","","","","","","","","","","","","","","","","","","","","",""
"","","","","","html-keyboard-response","139","933128","0.0-3.0-3.0-1.2","6112b593ca1b683da02678d3","E1","batch5","pattern_feedback","null","<p style=""font-size:30px;color:green;"">Correct!</p>","null","","","","","","","","","","","","","","","","","","","","","","","","","",""
"","","","","","image-keyboard-response","140","933763","0.0-3.0-3.0-0.3","6112b593ca1b683da02678d3","E1","batch5","pattern_practice","632.3000001907349","stim/prac_yes_16_ver_w1.png","f","","f","true","","","","","","","","","","","","","","","","","","","","","","",""
"","","","","","html-keyboard-response","141","934784","0.0-3.0-3.0-1.3","6112b593ca1b683da02678d3","E1","batch5","pattern_feedback","null","<p style=""font-size:30px;color:green;"">Correct!</p>","null","","","","","","","","","","","","","","","","","","","","","","","","","",""
"","","","","","image-keyboard-response","142","936069","0.0-3.0-3.0-0.4","6112b593ca1b683da02678d3","E1","batch5","pattern_practice","1281.5","stim/prac_yes_20_dia_b1.png","f","","f","true","","","","","","","","","","","","","","","","","","","","","","",""
"","","","","","html-keyboard-response","143","937096","0.0-3.0-3.0-1.4","6112b593ca1b683da02678d3","E1","batch5","pattern_feedback","null","<p style=""font-size:30px;color:green;"">Correct!</p>","null","","","","","","","","","","","","","","","","","","","","","","","","","",""
"","","","","","html-button-response","144","939207","0.0-3.0-4.0","6112b593ca1b683da02678d3","E1","batch5","pattern_enter_official_trials","2105.300000190735","<p class=block-text> Good job! You are done with practice trials!<br>
        You responded correctly on 100% of the trials.<br>
        Press the button below to start official trials. Now you won't see any feedback about your response</p>","0","","","","","","","","","","","","","","","","","","","","","","","","","",""
"","","","","","html-keyboard-response","145","940019","0.0-3.0-5.0-0.0","6112b593ca1b683da02678d3","E1","batch5","pattern_show_trial_num","null","<p class=block-text>Trial 1 out of 78</p>","null","","","","","","","","","","","","","","","","","","","","","","","","","",""
"","","","","","image-keyboard-response","146","940989","0.0-3.0-5.0-1.0","6112b593ca1b683da02678d3","E1","batch5","pattern_response","967.5999999046326","stim/yes_30_ver_b1_b.png","f","pattern_54","f","true","","","","967.5999999046326","true","1","","","","","","","","","","","","","","","","",""
"","","","","","html-keyboard-response","147","942316","0.0-3.0-5.0-0.1","6112b593ca1b683da02678d3","E1","batch5","pattern_show_trial_num","null","<p class=block-text>Trial 2 out of 78</p>","null","","","","","","","","","","","","","","","","","","","","","","","","","",""
"","","","","","image-keyboard-response","148","943238","0.0-3.0-5.0-1.1","6112b593ca1b683da02678d3","E1","batch5","pattern_response","917.6999998092651","stim/no_12_1.png","j","pattern_01","j","true","","","","917.6999998092651","true","2","","","","","","","","","","","","","","","","",""
"","","","","","html-keyboard-response","149","944567","0.0-3.0-5.0-0.2","6112b593ca1b683da02678d3","E1","batch5","pattern_show_trial_num","null","<p class=block-text>Trial 3 out of 78</p>","null","","","","","","","","","","","","","","","","","","","","","","","","","",""
"","","","","","image-keyboard-response","150","947357","0.0-3.0-5.0-1.2","6112b593ca1b683da02678d3","E1","batch5","pattern_response","2787","stim/no_49_2_b.png","j","pattern_29","j","true","","","","2787","true","3","","","","","","","","","","","","","","","","",""
"","","","","","html-keyboard-response","151","948672","0.0-3.0-5.0-0.3","6112b593ca1b683da02678d3","E1","batch5","pattern_show_trial_num","null","<p class=block-text>Trial 4 out of 78</p>","null","","","","","","","","","","","","","","","","","","","","","","","","","",""
"","","","","","image-keyboard-response","152","950275","0.0-3.0-5.0-1.3","6112b593ca1b683da02678d3","E1","batch5","pattern_response","1599.2000002861023","stim/yes_23_ver_b1.png","f","pattern_48","f","true","","","","1599.2000002861023","true","4","","","","","","","","","","","","","","","","",""
"","","","","","html-keyboard-response","153","951588","0.0-3.0-5.0-0.4","6112b593ca1b683da02678d3","E1","batch5","pattern_show_trial_num","null","<p class=block-text>Trial 5 out of 78</p>","null","","","","","","","","","","","","","","","","","","","","","","","","","",""
"","","","","","image-keyboard-response","154","956367","0.0-3.0-5.0-1.4","6112b593ca1b683da02678d3","E1","batch5","pattern_response","4773.5","stim/no_67_1.png","j","pattern_39","j","true","","","","4773.5","true","5","","","","","","","","","","","","","","","","",""
"","","","","","html-keyboard-response","155","957700","0.0-3.0-5.0-0.5","6112b593ca1b683da02678d3","E1","batch5","pattern_show_trial_num","null","<p class=block-text>Trial 6 out of 78</p>","null","","","","","","","","","","","","","","","","","","","","","","","","","",""
"","","","","","image-keyboard-response","156","959915","0.0-3.0-5.0-1.5","6112b593ca1b683da02678d3","E1","batch5","pattern_response","2209.5","stim/yes_53_ver_b1_b.png","f","pattern_74","f","true","","","","2209.5","true","6","","","","","","","","","","","","","","","","",""
"","","","","","html-keyboard-response","157","961230","0.0-3.0-5.0-0.6","6112b593ca1b683da02678d3","E1","batch5","pattern_show_trial_num","null","<p class=block-text>Trial 7 out of 78</p>","null","","","","","","","","","","","","","","","","","","","","","","","","","",""
"","","","","","image-keyboard-response","158","965772","0.0-3.0-5.0-1.6","6112b593ca1b683da02678d3","E1","batch5","pattern_response","4537.099999904633","stim/yes_33_dia_w1_w.png","f","pattern_56","f","true","","","","4537.099999904633","true","7","","","","","","","","","","","","","","","","",""
"","","","","","html-keyboard-response","159","967098","0.0-3.0-5.0-0.7","6112b593ca1b683da02678d3","E1","batch5","pattern_show_trial_num","null","<p class=block-text>Trial 8 out of 78</p>","null","","","","","","","","","","","","","","","","","","","","","","","","","",""
"","","","","","image-keyboard-response","160","973573","0.0-3.0-5.0-1.7","6112b593ca1b683da02678d3","E1","batch5","pattern_response","6470.5","stim/no_58_1_w.png","j","pattern_35","j","true","","","","6470.5","true","8","","","","","","","","","","","","","","","","",""
"","","","","","html-keyboard-response","161","974892","0.0-3.0-5.0-0.8","6112b593ca1b683da02678d3","E1","batch5","pattern_show_trial_num","null","<p class=block-text>Trial 9 out of 78</p>","null","","","","","","","","","","","","","","","","","","","","","","","","","",""
"","","","","","image-keyboard-response","162","979143","0.0-3.0-5.0-1.8","6112b593ca1b683da02678d3","E1","batch5","pattern_response","4246.099999904633","stim/no_47_1_b.png","j","pattern_27","j","true","","","","4246.099999904633","true","9","","","","","","","","","","","","","","","","",""
"","","","","","html-keyboard-response","163","980467","0.0-3.0-5.0-0.9","6112b593ca1b683da02678d3","E1","batch5","pattern_show_trial_num","null","<p class=block-text>Trial 10 out of 78</p>","null","","","","","","","","","","","","","","","","","","","","","","","","","",""
"","","","","","image-keyboard-response","164","982793","0.0-3.0-5.0-1.9","6112b593ca1b683da02678d3","E1","batch5","pattern_response","2319.7999997138977","stim/no_18_1_b.png","j","pattern_05","j","true","","","","2319.7999997138977","true","10","","","","","","","","","","","","","","","","",""
"","","","","","html-keyboard-response","165","984097","0.0-3.0-5.0-0.10","6112b593ca1b683da02678d3","E1","batch5","pattern_show_trial_num","null","<p class=block-text>Trial 11 out of 78</p>","null","","","","","","","","","","","","","","","","","","","","","","","","","",""
"","","","","","image-keyboard-response","166","986490","0.0-3.0-5.0-1.10","6112b593ca1b683da02678d3","E1","batch5","pattern_response","2388.2000002861023","stim/yes_46_ver_b1_b.png","f","pattern_68","f","true","","","","2388.2000002861023","true","11","","","","","","","","","","","","","","","","",""
"","","","","","html-keyboard-response","167","987807","0.0-3.0-5.0-0.11","6112b593ca1b683da02678d3","E1","batch5","pattern_show_trial_num","null","<p class=block-text>Trial 12 out of 78</p>","null","","","","","","","","","","","","","","","","","","","","","","","","","",""
"","","","","","image-keyboard-response","168","991261","0.0-3.0-5.0-1.11","6112b593ca1b683da02678d3","E1","batch5","pattern_response","3450.0999999046326","stim/no_33_1_b.png","j","pattern_15","j","true","","","","3450.0999999046326","true","12","","","","","","","","","","","","","","","","",""
"","","","","","html-keyboard-response","169","992583","0.0-3.0-5.0-0.12","6112b593ca1b683da02678d3","E1","batch5","pattern_show_trial_num","null","<p class=block-text>Trial 13 out of 78</p>","null","","","","","","","","","","","","","","","","","","","","","","","","","",""
"","","","","","image-keyboard-response","170","993469","0.0-3.0-5.0-1.12","6112b593ca1b683da02678d3","E1","batch5","pattern_response","882.2000002861023","stim/yes_17_ver_b1_b.png","f","pattern_46","f","true","","","","882.2000002861023","true","13","","","","","","","","","","","","","","","","",""
"","","","","","html-keyboard-response","171","994791","0.0-3.0-5.0-0.13","6112b593ca1b683da02678d3","E1","batch5","pattern_show_trial_num","null","<p class=block-text>Trial 14 out of 78</p>","null","","","","","","","","","","","","","","","","","","","","","","","","","",""
"","","","","","image-keyboard-response","172","999511","0.0-3.0-5.0-1.13","6112b593ca1b683da02678d3","E1","batch5","pattern_response","4716.700000286102","stim/yes_58_dia_w1_w.png","f","pattern_76","f","true","","","","4716.700000286102","true","14","","","","","","","","","","","","","","","","",""
"","","","","","html-keyboard-response","173","1000828","0.0-3.0-5.0-0.14","6112b593ca1b683da02678d3","E1","batch5","pattern_show_trial_num","null","<p class=block-text>Trial 15 out of 78</p>","null","","","","","","","","","","","","","","","","","","","","","","","","","",""
"","","","","","image-keyboard-response","174","1005791","0.0-3.0-5.0-1.14","6112b593ca1b683da02678d3","E1","batch5","pattern_response","4958","stim/no_53_1_b.png","j","pattern_33","j","true","","","","4958","true","15","","","","","","","","","","","","","","","","",""
"","","","","","html-keyboard-response","175","1007105","0.0-3.0-5.0-0.15","6112b593ca1b683da02678d3","E1","batch5","pattern_show_trial_num","null","<p class=block-text>Trial 16 out of 78</p>","null","","","","","","","","","","","","","","","","","","","","","","","","","",""
"","","","","","image-keyboard-response","176","1010396","0.0-3.0-5.0-1.15","6112b593ca1b683da02678d3","E1","batch5","pattern_response","3285.4000000953674","stim/no_28_2.png","f","pattern_11","j","false","","","","3285.4000000953674","false","15","","","","","","","","","","","","","","","","",""
"","","","","","html-keyboard-response","177","1011715","0.0-3.0-5.0-0.16","6112b593ca1b683da02678d3","E1","batch5","pattern_show_trial_num","null","<p class=block-text>Trial 17 out of 78</p>","null","","","","","","","","","","","","","","","","","","","","","","","","","",""
"","","","","","image-keyboard-response","178","1012807","0.0-3.0-5.0-1.16","6112b593ca1b683da02678d3","E1","batch5","pattern_response","1088.2000002861023","stim/yes_15_dia_b1u_b.png","f","pattern_44","f","true","","","","1088.2000002861023","true","16","","","","","","","","","","","","","","","","",""
"","","","","","html-keyboard-response","179","1014123","0.0-3.0-5.0-0.17","6112b593ca1b683da02678d3","E1","batch5","pattern_show_trial_num","null","<p class=block-text>Trial 18 out of 78</p>","null","","","","","","","","","","","","","","","","","","","","","","","","","",""
"","","","","","image-keyboard-response","180","1020671","0.0-3.0-5.0-1.17","6112b593ca1b683da02678d3","E1","batch5","pattern_response","6544.10000038147","stim/no_51_1.png","j","pattern_31","j","true","","","","6544.10000038147","true","17","","","","","","","","","","","","","","","","",""
"","","","","","html-keyboard-response","181","1021994","0.0-3.0-5.0-0.18","6112b593ca1b683da02678d3","E1","batch5","pattern_show_trial_num","null","<p class=block-text>Trial 19 out of 78</p>","null","","","","","","","","","","","","","","","","","","","","","","","","","",""
"","","","","","image-keyboard-response","182","1023264","0.0-3.0-5.0-1.18","6112b593ca1b683da02678d3","E1","batch5","pattern_response","1265.7000002861023","stim/yes_29_hor_b1_b.png","f","pattern_52","f","true","","","","1265.7000002861023","true","18","","","","","","","","","","","","","","","","",""
"","","","","","html-keyboard-response","183","1024577","0.0-3.0-5.0-0.19","6112b593ca1b683da02678d3","E1","batch5","pattern_show_trial_num","null","<p class=block-text>Trial 20 out of 78</p>","null","","","","","","","","","","","","","","","","","","","","","","","","","",""
"","","","","","image-keyboard-response","184","1025694","0.0-3.0-5.0-1.19","6112b593ca1b683da02678d3","E1","batch5","pattern_response","1113.8999996185303","stim/yes_37_hor_w1_w.png","f","pattern_60","f","true","","","","1113.8999996185303","true","19","","","","","","","","","","","","","","","","",""
"","","","","","html-keyboard-response","185","1027007","0.0-3.0-5.0-0.20","6112b593ca1b683da02678d3","E1","batch5","pattern_show_trial_num","null","<p class=block-text>Trial 21 out of 78</p>","null","","","","","","","","","","","","","","","","","","","","","","","","","",""
"","","","","","image-keyboard-response","186","1029112","0.0-3.0-5.0-1.20","6112b593ca1b683da02678d3","E1","batch5","pattern_response","2100.7000002861023","stim/no_43_2_b.png","j","pattern_23","j","true","","","","2100.7000002861023","true","20","","","","","","","","","","","","","","","","",""
"","","","","","html-keyboard-response","187","1030434","0.0-3.0-5.0-0.21","6112b593ca1b683da02678d3","E1","batch5","pattern_show_trial_num","null","<p class=block-text>Trial 22 out of 78</p>","null","","","","","","","","","","","","","","","","","","","","","","","","","",""
"","","","","","image-keyboard-response","188","1032607","0.0-3.0-5.0-1.21","6112b593ca1b683da02678d3","E1","batch5","pattern_response","2168.699999809265","stim/yes_70_ver_b1.png","f","pattern_80","f","true","","","","2168.699999809265","true","21","","","","","","","","","","","","","","","","",""
"","","","","","html-keyboard-response","189","1033930","0.0-3.0-5.0-0.22","6112b593ca1b683da02678d3","E1","batch5","pattern_show_trial_num","null","<p class=block-text>Trial 23 out of 78</p>","null","","","","","","","","","","","","","","","","","","","","","","","","","",""
"","","","","","image-keyboard-response","190","1034875","0.0-3.0-5.0-1.22","6112b593ca1b683da02678d3","E1","batch5","pattern_response","941.5","stim/yes_49_hor_w1_b.png","f","pattern_70","f","true","","","","941.5","true","22","","","","","","","","","","","","","","","","",""
"","","","","","html-keyboard-response","191","1036187","0.0-3.0-5.0-0.23","6112b593ca1b683da02678d3","E1","batch5","pattern_show_trial_num","null","<p class=block-text>Trial 24 out of 78</p>","null","","","","","","","","","","","","","","","","","","","","","","","","","",""
"","","","","","image-keyboard-response","192","1039990","0.0-3.0-5.0-1.23","6112b593ca1b683da02678d3","E1","batch5","pattern_response","3799.0999999046326","stim/no_45_1_w.png","j","pattern_25","j","true","","","","3799.0999999046326","true","23","","","","","","","","","","","","","","","","",""
"","","","","","html-keyboard-response","193","1041315","0.0-3.0-5.0-0.24","6112b593ca1b683da02678d3","E1","batch5","pattern_show_trial_num","null","<p class=block-text>Trial 25 out of 78</p>","null","","","","","","","","","","","","","","","","","","","","","","","","","",""
"","","","","","image-keyboard-response","194","1042158","0.0-3.0-5.0-1.24","6112b593ca1b683da02678d3","E1","batch5","pattern_response","838.7000002861023","stim/yes_39_hor_w1_w.png","f","pattern_62","f","true","","","","838.7000002861023","true","24","","","","","","","","","","","","","","","","",""
"","","","","","html-keyboard-response","195","1043476","0.0-3.0-5.0-0.25","6112b593ca1b683da02678d3","E1","batch5","pattern_show_trial_num","null","<p class=block-text>Trial 26 out of 78</p>","null","","","","","","","","","","","","","","","","","","","","","","","","","",""
"","","","","","image-keyboard-response","196","1046384","0.0-3.0-5.0-1.25","6112b593ca1b683da02678d3","E1","batch5","pattern_response","2904.3999996185303","stim/yes_63_dia_b1.png","f","pattern_78","f","true","","","","2904.3999996185303","true","25","","","","","","","","","","","","","","","","",""
"","","","","","html-keyboard-response","197","1047701","0.0-3.0-5.0-0.26","6112b593ca1b683da02678d3","E1","batch5","pattern_show_trial_num","null","<p class=block-text>Trial 27 out of 78</p>","null","","","","","","","","","","","","","","","","","","","","","","","","","",""
"","","","","","image-keyboard-response","198","1049704","0.0-3.0-5.0-1.26","6112b593ca1b683da02678d3","E1","batch5","pattern_response","1999.4000000953674","stim/no_30_1_b.png","j","pattern_13","j","true","","","","1999.4000000953674","true","26","","","","","","","","","","","","","","","","",""
"","","","","","html-keyboard-response","199","1051018","0.0-3.0-5.0-0.27","6112b593ca1b683da02678d3","E1","batch5","pattern_show_trial_num","null","<p class=block-text>Trial 28 out of 78</p>","null","","","","","","","","","","","","","","","","","","","","","","","","","",""
"","","","","","image-keyboard-response","200","1056331","0.0-3.0-5.0-1.27","6112b593ca1b683da02678d3","E1","batch5","pattern_response","5310.400000095367","stim/no_39_1_w.png","j","pattern_21","j","true","","","","5310.400000095367","true","27","","","","","","","","","","","","","","","","",""
"","","","","","html-keyboard-response","201","1057653","0.0-3.0-5.0-0.28","6112b593ca1b683da02678d3","E1","batch5","pattern_show_trial_num","null","<p class=block-text>Trial 29 out of 78</p>","null","","","","","","","","","","","","","","","","","","","","","","","","","",""
"","","","","","image-keyboard-response","202","1063228","0.0-3.0-5.0-1.28","6112b593ca1b683da02678d3","E1","batch5","pattern_response","5570.900000095367","stim/yes_44_ver_w1_w.png","f","pattern_66","f","true","","","","5570.900000095367","true","28","","","","","","","","","","","","","","","","",""
"","","","","","html-keyboard-response","203","1064535","0.0-3.0-5.0-0.29","6112b593ca1b683da02678d3","E1","batch5","pattern_show_trial_num","null","<p class=block-text>Trial 30 out of 78</p>","null","","","","","","","","","","","","","","","","","","","","","","","","","",""
"","","","","","image-keyboard-response","204","1066872","0.0-3.0-5.0-1.29","6112b593ca1b683da02678d3","E1","batch5","pattern_response","2333.3999996185303","stim/no_25_1_b.png","j","pattern_09","j","true","","","","2333.3999996185303","true","29","","","","","","","","","","","","","","","","",""
"","","","","","html-keyboard-response","205","1068187","0.0-3.0-5.0-0.30","6112b593ca1b683da02678d3","E1","batch5","pattern_show_trial_num","null","<p class=block-text>Trial 31 out of 78</p>","null","","","","","","","","","","","","","","","","","","","","","","","","","",""
"","","","","","image-keyboard-response","206","1070679","0.0-3.0-5.0-1.30","6112b593ca1b683da02678d3","E1","batch5","pattern_response","2487.5999999046326","stim/no_22_1_b.png","j","pattern_07","j","true","","","","2487.5999999046326","true","30","","","","","","","","","","","","","","","","",""
"","","","","","html-keyboard-response","207","1071990","0.0-3.0-5.0-0.31","6112b593ca1b683da02678d3","E1","batch5","pattern_show_trial_num","null","<p class=block-text>Trial 32 out of 78</p>","null","","","","","","","","","","","","","","","","","","","","","","","","","",""
"","","","","","image-keyboard-response","208","1076082","0.0-3.0-5.0-1.31","6112b593ca1b683da02678d3","E1","batch5","pattern_response","4086.3999996185303","stim/yes_51_dia_b1.png","f","pattern_72","f","true","","","","4086.3999996185303","true","31","","","","","","","","","","","","","","","","",""
"","","","","","html-keyboard-response","209","1077400","0.0-3.0-5.0-0.32","6112b593ca1b683da02678d3","E1","batch5","pattern_show_trial_num","null","<p class=block-text>Trial 33 out of 78</p>","null","","","","","","","","","","","","","","","","","","","","","","","","","",""
"","","","","","image-keyboard-response","210","1084081","0.0-3.0-5.0-1.32","6112b593ca1b683da02678d3","E1","batch5","pattern_response","6676.89999961853","stim/no_37_2_w.png","j","pattern_19","j","true","","","","6676.89999961853","true","32","","","","","","","","","","","","","","","","",""
"","","","","","html-keyboard-response","211","1085388","0.0-3.0-5.0-0.33","6112b593ca1b683da02678d3","E1","batch5","pattern_show_trial_num","null","<p class=block-text>Trial 34 out of 78</p>","null","","","","","","","","","","","","","","","","","","","","","","","","","",""
"","","","","","image-keyboard-response","212","1087018","0.0-3.0-5.0-1.33","6112b593ca1b683da02678d3","E1","batch5","pattern_response","1626.0999999046326","stim/yes_36_ver_w1_w.png","f","pattern_58","f","true","","","","1626.0999999046326","true","33","","","","","","","","","","","","","","","","",""
"","","","","","html-keyboard-response","213","1088334","0.0-3.0-5.0-0.34","6112b593ca1b683da02678d3","E1","batch5","pattern_show_trial_num","null","<p class=block-text>Trial 35 out of 78</p>","null","","","","","","","","","","","","","","","","","","","","","","","","","",""
"","","","","","image-keyboard-response","214","1089322","0.0-3.0-5.0-1.34","6112b593ca1b683da02678d3","E1","batch5","pattern_response","985.1999998092651","stim/yes_12_hor_w1_w.png","f","pattern_42","f","true","","","","985.1999998092651","true","34","","","","","","","","","","","","","","","","",""
"","","","","","html-keyboard-response","215","1090633","0.0-3.0-5.0-0.35","6112b593ca1b683da02678d3","E1","batch5","pattern_show_trial_num","null","<p class=block-text>Trial 36 out of 78</p>","null","","","","","","","","","","","","","","","","","","","","","","","","","",""
"","","","","","image-keyboard-response","216","1091668","0.0-3.0-5.0-1.35","6112b593ca1b683da02678d3","E1","batch5","pattern_response","1031","stim/yes_26_dia_w2_w.png","f","pattern_50","f","true","","","","1031","true","35","","","","","","","","","","","","","","","","",""
"","","","","","html-keyboard-response","217","1092991","0.0-3.0-5.0-0.36","6112b593ca1b683da02678d3","E1","batch5","pattern_show_trial_num","null","<p class=block-text>Trial 37 out of 78</p>","null","","","","","","","","","","","","","","","","","","","","","","","","","",""
"","","","","","image-keyboard-response","218","1095353","0.0-3.0-5.0-1.36","6112b593ca1b683da02678d3","E1","batch5","pattern_response","2359.1000003814697","stim/no_36_1_b.png","j","pattern_17","j","true","","","","2359.1000003814697","true","36","","","","","","","","","","","","","","","","",""
"","","","","","html-keyboard-response","219","1096679","0.0-3.0-5.0-0.37","6112b593ca1b683da02678d3","E1","batch5","pattern_show_trial_num","null","<p class=block-text>Trial 38 out of 78</p>","null","","","","","","","","","","","","","","","","","","","","","","","","","",""
"","","","","","image-keyboard-response","220","1097814","0.0-3.0-5.0-1.37","6112b593ca1b683da02678d3","E1","batch5","pattern_response","1114.5","stim/no_15_1_w.png","j","pattern_03","j","true","","","","1114.5","true","37","","","","","","","","","","","","","","","","",""
"","","","","","html-keyboard-response","221","1099130","0.0-3.0-5.0-0.38","6112b593ca1b683da02678d3","E1","batch5","pattern_show_trial_num","null","<p class=block-text>Trial 39 out of 78</p>","null","","","","","","","","","","","","","","","","","","","","","","","","","",""
"","","","","","image-keyboard-response","222","1103689","0.0-3.0-5.0-1.38","6112b593ca1b683da02678d3","E1","batch5","pattern_response","4556.5","stim/yes_42_dia_w1_w.png","j","pattern_64","f","false","","","","4556.5","false","37","","","","","","","","","","","","","","","","",""
"","","","","","image-keyboard-response","223","1106374","0.0-3.0-6.0","6112b593ca1b683da02678d3","E1","batch5","attention_check","2177.9000000953674","stim/empty_board.png","j","","j","true","","","","","","","500","[""f"",""j""]","","","","","","","","","","","","","","",""
"","","","","","html-keyboard-response","224","1107188","0.0-3.0-7.0-0.0","6112b593ca1b683da02678d3","E1","batch5","pattern_show_trial_num","null","<p class=block-text>Trial 40 out of 78</p>","null","","","","","","","","","","","","","","","","","","","","","","","","","",""
"","","","","","image-keyboard-response","225","1110963","0.0-3.0-7.0-1.0","6112b593ca1b683da02678d3","E1","batch5","pattern_response","3770.5999999046326","stim/yes_60_ver_b1_b.png","j","pattern_77","f","false","","","","3770.5999999046326","false","37","","","","","","","","","","","","","","","","",""
"","","","","","html-keyboard-response","226","1112289","0.0-3.0-7.0-0.1","6112b593ca1b683da02678d3","E1","batch5","pattern_show_trial_num","null","<p class=block-text>Trial 41 out of 78</p>","null","","","","","","","","","","","","","","","","","","","","","","","","","",""
"","","","","","image-keyboard-response","227","1115699","0.0-3.0-7.0-1.1","6112b593ca1b683da02678d3","E1","batch5","pattern_response","3404.699999809265","stim/yes_29_ver_w1.png","f","pattern_53","f","true","","","","3404.699999809265","true","38","","","","","","","","","","","","","","","","",""
"","","","","","html-keyboard-response","228","1117017","0.0-3.0-7.0-0.2","6112b593ca1b683da02678d3","E1","batch5","pattern_show_trial_num","null","<p class=block-text>Trial 42 out of 78</p>","null","","","","","","","","","","","","","","","","","","","","","","","","","",""
"","","","","","image-keyboard-response","229","1120145","0.0-3.0-7.0-1.2","6112b593ca1b683da02678d3","E1","batch5","pattern_response","3122.5999999046326","stim/no_50_1.png","j","pattern_30","j","true","","","","3122.5999999046326","true","39","","","","","","","","","","","","","","","","",""
"","","","","","html-keyboard-response","230","1121474","0.0-3.0-7.0-0.3","6112b593ca1b683da02678d3","E1","batch5","pattern_show_trial_num","null","<p class=block-text>Trial 43 out of 78</p>","null","","","","","","","","","","","","","","","","","","","","","","","","","",""
"","","","","","image-keyboard-response","231","1125394","0.0-3.0-7.0-1.3","6112b593ca1b683da02678d3","E1","batch5","pattern_response","3914.5999999046326","stim/no_42_1_w.png","j","pattern_22","j","true","","","","3914.5999999046326","true","40","","","","","","","","","","","","","","","","",""
"","","","","","html-keyboard-response","232","1126718","0.0-3.0-7.0-0.4","6112b593ca1b683da02678d3","E1","batch5","pattern_show_trial_num","null","<p class=block-text>Trial 44 out of 78</p>","null","","","","","","","","","","","","","","","","","","","","","","","","","",""
"","","","","","image-keyboard-response","233","1127642","0.0-3.0-7.0-1.4","6112b593ca1b683da02678d3","E1","batch5","pattern_response","917.2000002861023","stim/yes_14_hor_b1_w.png","f","pattern_43","f","true","","","","917.2000002861023","true","41","","","","","","","","","","","","","","","","",""
"","","","","","html-keyboard-response","234","1128966","0.0-3.0-7.0-0.5","6112b593ca1b683da02678d3","E1","batch5","pattern_show_trial_num","null","<p class=block-text>Trial 45 out of 78</p>","null","","","","","","","","","","","","","","","","","","","","","","","","","",""
"","","","","","image-keyboard-response","235","1136946","0.0-3.0-7.0-1.5","6112b593ca1b683da02678d3","E1","batch5","pattern_response","7974.699999809265","stim/yes_40_dia_b1_b.png","f","pattern_63","f","true","","","","7974.699999809265","true","42","","","","","","","","","","","","","","","","",""
"","","","","","html-keyboard-response","236","1138266","0.0-3.0-7.0-0.6","6112b593ca1b683da02678d3","E1","batch5","pattern_show_trial_num","null","<p class=block-text>Trial 46 out of 78</p>","null","","","","","","","","","","","","","","","","","","","","","","","","","",""
"","","","","","image-keyboard-response","237","1141946","0.0-3.0-7.0-1.6","6112b593ca1b683da02678d3","E1","batch5","pattern_response","3675.800000190735","stim/yes_37_dia_w1.png","j","pattern_59","f","false","","","","3675.800000190735","false","42","","","","","","","","","","","","","","","","",""
"","","","","","html-keyboard-response","238","1143278","0.0-3.0-7.0-0.7","6112b593ca1b683da02678d3","E1","batch5","pattern_show_trial_num","null","<p class=block-text>Trial 47 out of 78</p>","null","","","","","","","","","","","","","","","","","","","","","","","","","",""
"","","","","","image-keyboard-response","239","1147929","0.0-3.0-7.0-1.7","6112b593ca1b683da02678d3","E1","batch5","pattern_response","4646.200000286102","stim/no_48_1_w.png","j","pattern_28","j","true","","","","4646.200000286102","true","43","","","","","","","","","","","","","","","","",""
"","","","","","html-keyboard-response","240","1149249","0.0-3.0-7.0-0.8","6112b593ca1b683da02678d3","E1","batch5","pattern_show_trial_num","null","<p class=block-text>Trial 48 out of 78</p>","null","","","","","","","","","","","","","","","","","","","","","","","","","",""
"","","","","","image-keyboard-response","241","1151925","0.0-3.0-7.0-1.8","6112b593ca1b683da02678d3","E1","batch5","pattern_response","2671.7000002861023","stim/yes_50_dia_w1.png","j","pattern_71","f","false","","","","2671.7000002861023","false","43","","","","","","","","","","","","","","","","",""
"","","","","","html-keyboard-response","242","1153240","0.0-3.0-7.0-0.9","6112b593ca1b683da02678d3","E1","batch5","pattern_show_trial_num","null","<p class=block-text>Trial 49 out of 78</p>","null","","","","","","","","","","","","","","","","","","","","","","","","","",""
"","","","","","image-keyboard-response","243","1156997","0.0-3.0-7.0-1.9","6112b593ca1b683da02678d3","E1","batch5","pattern_response","3753.4000000953674","stim/no_52_1.png","j","pattern_32","j","true","","","","3753.4000000953674","true","44","","","","","","","","","","","","","","","","",""
"","","","","","html-keyboard-response","244","1158310","0.0-3.0-7.0-0.10","6112b593ca1b683da02678d3","E1","batch5","pattern_show_trial_num","null","<p class=block-text>Trial 50 out of 78</p>","null","","","","","","","","","","","","","","","","","","","","","","","","","",""
"","","","","","image-keyboard-response","245","1163975","0.0-3.0-7.0-1.10","6112b593ca1b683da02678d3","E1","batch5","pattern_response","5660.60000038147","stim/no_44_1.png","j","pattern_24","j","true","","","","5660.60000038147","true","45","","","","","","","","","","","","","","","","",""
"","","","","","html-keyboard-response","246","1165299","0.0-3.0-7.0-0.11","6112b593ca1b683da02678d3","E1","batch5","pattern_show_trial_num","null","<p class=block-text>Trial 51 out of 78</p>","null","","","","","","","","","","","","","","","","","","","","","","","","","",""
"","","","","","image-keyboard-response","247","1169503","0.0-3.0-7.0-1.11","6112b593ca1b683da02678d3","E1","batch5","pattern_response","4200.10000038147","stim/no_62_1_w.png","j","pattern_36","j","true","","","","4200.10000038147","true","46","","","","","","","","","","","","","","","","",""
"","","","","","html-keyboard-response","248","1170822","0.0-3.0-7.0-0.12","6112b593ca1b683da02678d3","E1","batch5","pattern_show_trial_num","null","<p class=block-text>Trial 52 out of 78</p>","null","","","","","","","","","","","","","","","","","","","","","","","","","",""
"","","","","","image-keyboard-response","249","1175452","0.0-3.0-7.0-1.12","6112b593ca1b683da02678d3","E1","batch5","pattern_response","4624.800000190735","stim/no_38_1_b.png","j","pattern_20","j","true","","","","4624.800000190735","true","47","","","","","","","","","","","","","","","","",""
"","","","","","html-keyboard-response","250","1176772","0.0-3.0-7.0-0.13","6112b593ca1b683da02678d3","E1","batch5","pattern_show_trial_num","null","<p class=block-text>Trial 53 out of 78</p>","null","","","","","","","","","","","","","","","","","","","","","","","","","",""
"","","","","","image-keyboard-response","251","1177883","0.0-3.0-7.0-1.13","6112b593ca1b683da02678d3","E1","batch5","pattern_response","1105.0999999046326","stim/yes_52_ver_w1.png","f","pattern_73","f","true","","","","1105.0999999046326","true","48","","","","","","","","","","","","","","","","",""
"","","","","","html-keyboard-response","252","1179207","0.0-3.0-7.0-0.14","6112b593ca1b683da02678d3","E1","batch5","pattern_show_trial_num","null","<p class=block-text>Trial 54 out of 78</p>","null","","","","","","","","","","","","","","","","","","","","","","","","","",""
"","","","","","image-keyboard-response","253","1187289","0.0-3.0-7.0-1.14","6112b593ca1b683da02678d3","E1","batch5","pattern_response","8078.400000095367","stim/no_65_1_b.png","j","pattern_38","j","true","","","","8078.400000095367","true","49","","","","","","","","","","","","","","","","",""
"","","","","","html-keyboard-response","254","1188612","0.0-3.0-7.0-0.15","6112b593ca1b683da02678d3","E1","batch5","pattern_show_trial_num","null","<p class=block-text>Trial 55 out of 78</p>","null","","","","","","","","","","","","","","","","","","","","","","","","","",""
"","","","","","image-keyboard-response","255","1194301","0.0-3.0-7.0-1.15","6112b593ca1b683da02678d3","E1","batch5","pattern_response","5685.199999809265","stim/no_36_2_w.png","j","pattern_18","j","true","","","","5685.199999809265","true","50","","","","","","","","","","","","","","","","",""
"","","","","","html-keyboard-response","256","1195615","0.0-3.0-7.0-0.16","6112b593ca1b683da02678d3","E1","batch5","pattern_show_trial_num","null","<p class=block-text>Trial 56 out of 78</p>","null","","","","","","","","","","","","","","","","","","","","","","","","","",""
"","","","","","image-keyboard-response","257","1197638","0.0-3.0-7.0-1.16","6112b593ca1b683da02678d3","E1","batch5","pattern_response","2017.6999998092651","stim/no_26_1_w.png","j","pattern_10","j","true","","","","2017.6999998092651","true","51","","","","","","","","","","","","","","","","",""
"","","","","","html-keyboard-response","258","1198945","0.0-3.0-7.0-0.17","6112b593ca1b683da02678d3","E1","batch5","pattern_show_trial_num","null","<p class=block-text>Trial 57 out of 78</p>","null","","","","","","","","","","","","","","","","","","","","","","","","","",""
"","","","","","image-keyboard-response","259","1203085","0.0-3.0-7.0-1.17","6112b593ca1b683da02678d3","E1","batch5","pattern_response","4135.599999904633","stim/no_34_1_b.png","j","pattern_16","j","true","","","","4135.599999904633","true","52","","","","","","","","","","","","","","","","",""
"","","","","","html-keyboard-response","260","1204396","0.0-3.0-7.0-0.18","6112b593ca1b683da02678d3","E1","batch5","pattern_show_trial_num","null","<p class=block-text>Trial 58 out of 78</p>","null","","","","","","","","","","","","","","","","","","","","","","","","","",""
"","","","","","image-keyboard-response","261","1206246","0.0-3.0-7.0-1.18","6112b593ca1b683da02678d3","E1","batch5","pattern_response","1846.3000001907349","stim/yes_38_hor_b1_b.png","f","pattern_61","f","true","","","","1846.3000001907349","true","53","","","","","","","","","","","","","","","","",""
"","","","","","html-keyboard-response","262","1207562","0.0-3.0-7.0-0.19","6112b593ca1b683da02678d3","E1","batch5","pattern_show_trial_num","null","<p class=block-text>Trial 59 out of 78</p>","null","","","","","","","","","","","","","","","","","","","","","","","","","",""
"","","","","","image-keyboard-response","263","1213366","0.0-3.0-7.0-1.19","6112b593ca1b683da02678d3","E1","batch5","pattern_response","5800.39999961853","stim/no_46_1_b.png","j","pattern_26","j","true","","","","5800.39999961853","true","54","","","","","","","","","","","","","","","","",""
"","","","","","html-keyboard-response","264","1214685","0.0-3.0-7.0-0.20","6112b593ca1b683da02678d3","E1","batch5","pattern_show_trial_num","null","<p class=block-text>Trial 60 out of 78</p>","null","","","","","","","","","","","","","","","","","","","","","","","","","",""
"","","","","","image-keyboard-response","265","1219621","0.0-3.0-7.0-1.20","6112b593ca1b683da02678d3","E1","batch5","pattern_response","4932","stim/no_70_2.png","j","pattern_40","j","true","","","","4932","true","55","","","","","","","","","","","","","","","","",""
"","","","","","html-keyboard-response","266","1220932","0.0-3.0-7.0-0.21","6112b593ca1b683da02678d3","E1","batch5","pattern_show_trial_num","null","<p class=block-text>Trial 61 out of 78</p>","null","","","","","","","","","","","","","","","","","","","","","","","","","",""
"","","","","","image-keyboard-response","267","1222101","0.0-3.0-7.0-1.21","6112b593ca1b683da02678d3","E1","batch5","pattern_response","1164.5","stim/yes_43_ver_w1_w.png","f","pattern_65","f","true","","","","1164.5","true","56","","","","","","","","","","","","","","","","",""
"","","","","","html-keyboard-response","268","1223422","0.0-3.0-7.0-0.22","6112b593ca1b683da02678d3","E1","batch5","pattern_show_trial_num","null","<p class=block-text>Trial 62 out of 78</p>","null","","","","","","","","","","","","","","","","","","","","","","","","","",""
"","","","","","image-keyboard-response","269","1226382","0.0-3.0-7.0-1.22","6112b593ca1b683da02678d3","E1","batch5","pattern_response","2957.300000190735","stim/no_29_1_b.png","j","pattern_12","j","true","","","","2957.300000190735","true","57","","","","","","","","","","","","","","","","",""
"","","","","","html-keyboard-response","270","1227699","0.0-3.0-7.0-0.23","6112b593ca1b683da02678d3","E1","batch5","pattern_show_trial_num","null","<p class=block-text>Trial 63 out of 78</p>","null","","","","","","","","","","","","","","","","","","","","","","","","","",""
"","","","","","image-keyboard-response","271","1231768","0.0-3.0-7.0-1.23","6112b593ca1b683da02678d3","E1","batch5","pattern_response","4065.9000000953674","stim/no_55_1_w.png","j","pattern_34","j","true","","","","4065.9000000953674","true","58","","","","","","","","","","","","","","","","",""
"","","","","","html-keyboard-response","272","1233087","0.0-3.0-7.0-0.24","6112b593ca1b683da02678d3","E1","batch5","pattern_show_trial_num","null","<p class=block-text>Trial 64 out of 78</p>","null","","","","","","","","","","","","","","","","","","","","","","","","","",""
"","","","","","image-keyboard-response","273","1236070","0.0-3.0-7.0-1.24","6112b593ca1b683da02678d3","E1","batch5","pattern_response","2978.3999996185303","stim/no_32_1_w.png","j","pattern_14","j","true","","","","2978.3999996185303","true","59","","","","","","","","","","","","","","","","",""
"","","","","","html-keyboard-response","274","1237396","0.0-3.0-7.0-0.25","6112b593ca1b683da02678d3","E1","batch5","pattern_show_trial_num","null","<p class=block-text>Trial 65 out of 78</p>","null","","","","","","","","","","","","","","","","","","","","","","","","","",""
"","","","","","image-keyboard-response","275","1239120","0.0-3.0-7.0-1.25","6112b593ca1b683da02678d3","E1","batch5","pattern_response","1718.5999999046326","stim/yes_35_dia_b1.png","f","pattern_57","f","true","","","","1718.5999999046326","true","60","","","","","","","","","","","","","","","","",""
"","","","","","html-keyboard-response","276","1240442","0.0-3.0-7.0-0.26","6112b593ca1b683da02678d3","E1","batch5","pattern_show_trial_num","null","<p class=block-text>Trial 66 out of 78</p>","null","","","","","","","","","","","","","","","","","","","","","","","","","",""
"","","","","","image-keyboard-response","277","1242051","0.0-3.0-7.0-1.26","6112b593ca1b683da02678d3","E1","batch5","pattern_response","1604.6999998092651","stim/yes_48_dia_w1_w.png","f","pattern_69","f","true","","","","1604.6999998092651","true","61","","","","","","","","","","","","","","","","",""
"","","","","","html-keyboard-response","278","1243362","0.0-3.0-7.0-0.27","6112b593ca1b683da02678d3","E1","batch5","pattern_show_trial_num","null","<p class=block-text>Trial 67 out of 78</p>","null","","","","","","","","","","","","","","","","","","","","","","","","","",""
"","","","","","image-keyboard-response","279","1244661","0.0-3.0-7.0-1.27","6112b593ca1b683da02678d3","E1","batch5","pattern_response","1294.3000001907349","stim/no_13_2_b.png","j","pattern_02","j","true","","","","1294.3000001907349","true","62","","","","","","","","","","","","","","","","",""
"","","","","","html-keyboard-response","280","1245987","0.0-3.0-7.0-0.28","6112b593ca1b683da02678d3","E1","batch5","pattern_show_trial_num","null","<p class=block-text>Trial 68 out of 78</p>","null","","","","","","","","","","","","","","","","","","","","","","","","","",""
"","","","","","image-keyboard-response","281","1247088","0.0-3.0-7.0-1.28","6112b593ca1b683da02678d3","E1","batch5","pattern_response","1097.0999999046326","stim/yes_25_hor_b1_b.png","f","pattern_49","f","true","","","","1097.0999999046326","true","63","","","","","","","","","","","","","","","","",""
"","","","","","html-keyboard-response","282","1248408","0.0-3.0-7.0-0.29","6112b593ca1b683da02678d3","E1","batch5","pattern_show_trial_num","null","<p class=block-text>Trial 69 out of 78</p>","null","","","","","","","","","","","","","","","","","","","","","","","","","",""
"","","","","","image-keyboard-response","283","1249680","0.0-3.0-7.0-1.29","6112b593ca1b683da02678d3","E1","batch5","pattern_response","1268.1999998092651","stim/yes_17_dia_w1.png","f","pattern_45","f","true","","","","1268.1999998092651","true","64","","","","","","","","","","","","","","","","",""
"","","","","","html-keyboard-response","284","1251009","0.0-3.0-7.0-0.30","6112b593ca1b683da02678d3","E1","batch5","pattern_show_trial_num","null","<p class=block-text>Trial 70 out of 78</p>","null","","","","","","","","","","","","","","","","","","","","","","","","","",""
"","","","","","image-keyboard-response","285","1257672","0.0-3.0-7.0-1.30","6112b593ca1b683da02678d3","E1","batch5","pattern_response","6659.800000190735","stim/yes_67_hor_b1.png","j","pattern_79","f","false","","","","6659.800000190735","false","64","","","","","","","","","","","","","","","","",""
"","","","","","html-keyboard-response","286","1258987","0.0-3.0-7.0-0.31","6112b593ca1b683da02678d3","E1","batch5","pattern_show_trial_num","null","<p class=block-text>Trial 71 out of 78</p>","null","","","","","","","","","","","","","","","","","","","","","","","","","",""
"","","","","","image-keyboard-response","287","1260557","0.0-3.0-7.0-1.31","6112b593ca1b683da02678d3","E1","batch5","pattern_response","1566.1999998092651","stim/no_23_1.png","j","pattern_08","j","true","","","","1566.1999998092651","true","65","","","","","","","","","","","","","","","","",""
"","","","","","html-keyboard-response","288","1261881","0.0-3.0-7.0-0.32","6112b593ca1b683da02678d3","E1","batch5","pattern_show_trial_num","null","<p class=block-text>Trial 72 out of 78</p>","null","","","","","","","","","","","","","","","","","","","","","","","","","",""
"","","","","","image-keyboard-response","289","1262958","0.0-3.0-7.0-1.32","6112b593ca1b683da02678d3","E1","batch5","pattern_response","1074.1999998092651","stim/yes_31_hor_b1.png","f","pattern_55","f","true","","","","1074.1999998092651","true","66","","","","","","","","","","","","","","","","",""
"","","","","","html-keyboard-response","290","1264286","0.0-3.0-7.0-0.33","6112b593ca1b683da02678d3","E1","batch5","pattern_show_trial_num","null","<p class=block-text>Trial 73 out of 78</p>","null","","","","","","","","","","","","","","","","","","","","","","","","","",""
"","","","","","image-keyboard-response","291","1265360","0.0-3.0-7.0-1.33","6112b593ca1b683da02678d3","E1","batch5","pattern_response","1069","stim/yes_55_hor_w1_w.png","f","pattern_75","f","true","","","","1069","true","67","","","","","","","","","","","","","","","","",""
"","","","","","html-keyboard-response","292","1266676","0.0-3.0-7.0-0.34","6112b593ca1b683da02678d3","E1","batch5","pattern_show_trial_num","null","<p class=block-text>Trial 74 out of 78</p>","null","","","","","","","","","","","","","","","","","","","","","","","","","",""
"","","","","","image-keyboard-response","293","1267555","0.0-3.0-7.0-1.34","6112b593ca1b683da02678d3","E1","batch5","pattern_response","876.2999997138977","stim/no_17_1_w.png","j","pattern_04","j","true","","","","876.2999997138977","true","68","","","","","","","","","","","","","","","","",""
"","","","","","html-keyboard-response","294","1268874","0.0-3.0-7.0-0.35","6112b593ca1b683da02678d3","E1","batch5","pattern_show_trial_num","null","<p class=block-text>Trial 75 out of 78</p>","null","","","","","","","","","","","","","","","","","","","","","","","","","",""
"","","","","","image-keyboard-response","295","1270577","0.0-3.0-7.0-1.35","6112b593ca1b683da02678d3","E1","batch5","pattern_response","1700.5","stim/no_20_1_w.png","j","pattern_06","j","true","","","","1700.5","true","69","","","","","","","","","","","","","","","","",""
"","","","","","html-keyboard-response","296","1271893","0.0-3.0-7.0-0.36","6112b593ca1b683da02678d3","E1","batch5","pattern_show_trial_num","null","<p class=block-text>Trial 76 out of 78</p>","null","","","","","","","","","","","","","","","","","","","","","","","","","",""
"","","","","","image-keyboard-response","297","1272766","0.0-3.0-7.0-1.36","6112b593ca1b683da02678d3","E1","batch5","pattern_response","869.9000000953674","stim/yes_22_ver_w1.png","f","pattern_47","f","true","","","","869.9000000953674","true","70","","","","","","","","","","","","","","","","",""
"","","","","","html-keyboard-response","298","1274084","0.0-3.0-7.0-0.37","6112b593ca1b683da02678d3","E1","batch5","pattern_show_trial_num","null","<p class=block-text>Trial 77 out of 78</p>","null","","","","","","","","","","","","","","","","","","","","","","","","","",""
"","","","","","image-keyboard-response","299","1275029","0.0-3.0-7.0-1.37","6112b593ca1b683da02678d3","E1","batch5","pattern_response","940.6999998092651","stim/yes_45_hor_b2_b.png","f","pattern_67","f","true","","","","940.6999998092651","true","71","","","","","","","","","","","","","","","","",""
"","","","","","html-keyboard-response","300","1276355","0.0-3.0-7.0-0.38","6112b593ca1b683da02678d3","E1","batch5","pattern_show_trial_num","null","<p class=block-text>Trial 78 out of 78</p>","null","","","","","","","","","","","","","","","","","","","","","","","","","",""
"","","","","","image-keyboard-response","301","1277179","0.0-3.0-7.0-1.38","6112b593ca1b683da02678d3","E1","batch5","pattern_response","819.9000000953674","stim/yes_28_ver_b1.png","f","pattern_51","f","true","","","","819.9000000953674","true","72","","","","","","","","","","","","","","","","",""
"","","","","","html-button-response","302","1423399","0.0-3.0-8.0","6112b593ca1b683da02678d3","E1","batch5","","145716.09999990463","<p class = block-text>This concludes the 4-in-a-row detection game.Thank you for your responses!<br>
            You responded correctly on 92% of the trials.<br>
            When you are ready, press ""Continue"" button to continue </p>","0","","","","","","","","","","","","","","","","","","","","","","","","","",""
"true","","","","","fullscreen","303","1427450","0.0-4.0-0.0","6112b593ca1b683da02678d3","E1","batch5","","","","","","","","","","","","","","","","","","","","","","","","","","","","","",""
"","","","","","instructions","304","1466465","0.0-4.0-1.0-0.0-0.0","6112b593ca1b683da02678d3","E1","batch5","tol-instructions","39012.5","","","","","","","","[{""page_index"":0,""viewing_time"":10937.900000095367},{""page_index"":1,""viewing_time"":4198.300000190735},{""page_index"":2,""viewing_time"":3309.199999809265},{""page_index"":3,""viewing_time"":7388.099999904633},{""page_index"":4,""viewing_time"":520.7000002861023},{""page_index"":5,""viewing_time"":5315.5},{""page_index"":6,""viewing_time"":7342.099999904633}]","","","","","","","","","","","","","","","","","","","",""
"","","","","","html-button-response","305","1467738","0.0-4.0-1.0-1.0-0.0","6112b593ca1b683da02678d3","E1","batch5","tol_enter_quiz","1270.0999999046326","<p class=block-text> Let's answer a few questions <br>","0","","","","","","","","","","","","","","","","","","","","","","","","","",""
"","","","","","html-button-response","306","1476527","0.0-4.0-1.0-1.0-1.0","6112b593ca1b683da02678d3","E1","batch5","tol_quiz","8780.799999713898","<p class = block-text>True or False: You can only move the ball on top of a peg. <br></p>","0","","","true","","","","","","","","","","","","","","","","","","","","","","",""
"","","","","","html-button-response","307","1477961","0.0-4.0-1.0-1.0-2.0","6112b593ca1b683da02678d3","E1","batch5","tol_quiz_feedback","1431.2999997138977","<p class = block-text>Correct! You can only move the ball on top of a peg.</p>","0","","","","","","","","","","","","","","","","","","","","","","","","","",""
"","","","","","html-button-response","308","1480633","0.0-4.0-1.0-1.0-3.0","6112b593ca1b683da02678d3","E1","batch5","tol_quiz","2669.5","<p class = block-text>True or False: You should try to match your board with the target board with fewest moves possible. <br></p>","0","","","true","","","","","","","","","","","","","","","","","","","","","","",""
"","","","","","html-button-response","309","1481434","0.0-4.0-1.0-1.0-4.0","6112b593ca1b683da02678d3","E1","batch5","tol_quiz_feedback","797.9000000953674","<p class = block-text>Correct! </p>","0","","","","","","","","","","","","","","","","","","","","","","","","","",""
"","","","","","html-button-response","310","1482482","0.0-4.0-2.0","6112b593ca1b683da02678d3","E1","batch5","","1045.5","<p class=block-text> Now that you've understood the game, let's practice a few easier examples before we start!<br> <br>","0","","","","","","","","","","","","","","","","","","","","","","","","","",""
"","","","","","single-stim-button","311","1484862","0.0-4.0-3.0-0.0","6112b593ca1b683da02678d3","E1","batch5","tol_practice","2374","","","","","","","","","","","","","","tol_peg_2","2374","2374","0","[[1,2,0],[0,0],[0]]","1","[[1,2,0],[0,0],[3]]","practice","2374","","","","","",""
"","","","","","single-stim-button","312","1486046","0.0-4.0-3.0-1.0","6112b593ca1b683da02678d3","E1","batch5","tol_practice","1180","","","","","","","","","","","","","","tol_peg_3","1180","1180","0","[[1,2,0],[0,0],[3]]","1","[[1,2,0],[0,0],[3]]","practice","1180","","","","","",""
"","","","","","poldrack-single-stim","313","1487059","0.0-4.0-4.0","6112b593ca1b683da02678d3","E1","batch5","tol_feedback","-1","","","","","true","","","","","","","","","","1000","1000","500","","","","","","-1","none","true","","0",""
"","","","","","single-stim-button","314","1490285","0.0-4.0-5.0-0.0","6112b593ca1b683da02678d3","E1","batch5","tol_practice","3218","","","","","","","","","","","","","","tol_peg_1","3218","3218","0","[[1,0,0],[3,0],[0]]","2","[[0,0,0],[3,1],[2]]","practice","3218","","","","","",""
"","","","","","single-stim-button","315","1491269","0.0-4.0-5.0-1.0","6112b593ca1b683da02678d3","E1","batch5","tol_practice","982","","","","","","","","","","","","","","tol_peg_3","982","982","0","[[1,0,0],[3,0],[2]]","2","[[0,0,0],[3,1],[2]]","practice","982","","","","","",""
"","","","","","single-stim-button","316","1492085","0.0-4.0-5.1-0.1","6112b593ca1b683da02678d3","E1","batch5","tol_practice","813","","","","","","","","","","","","","","tol_peg_1","813","813","0","[[0,0,0],[3,0],[2]]","3","[[0,0,0],[3,1],[2]]","practice","813","","","","","",""
"","","","","","single-stim-button","317","1493083","0.0-4.0-5.1-1.1","6112b593ca1b683da02678d3","E1","batch5","tol_practice","996","","","","","","","","","","","","","","tol_peg_2","996","996","0","[[0,0,0],[3,1],[2]]","3","[[0,0,0],[3,1],[2]]","practice","996","","","","","",""
"","","","","","poldrack-single-stim","318","1494087","0.0-4.0-6.0","6112b593ca1b683da02678d3","E1","batch5","tol_feedback","-1","","","","","true","","","","","","","","","","1000","1000","500","","","","","","-1","none","true","","0",""
"","","","","","single-stim-button","319","1497919","0.0-4.0-7.0-0.0","6112b593ca1b683da02678d3","E1","batch5","tol_practice","3831","","","","","","","","","","","","","","tol_peg_2","3831","3831","0","[[1,2,0],[0,0],[0]]","4","[[1,0,0],[2,0],[3]]","practice","3831","","","","","",""
"","","","","","single-stim-button","320","1498601","0.0-4.0-7.0-1.0","6112b593ca1b683da02678d3","E1","batch5","tol_practice","679","","","","","","","","","","","","","","tol_peg_3","679","679","0","[[1,2,0],[0,0],[3]]","4","[[1,0,0],[2,0],[3]]","practice","679","","","","","",""
"","","","","","single-stim-button","321","1499270","0.0-4.0-7.1-0.1","6112b593ca1b683da02678d3","E1","batch5","tol_practice","667","","","","","","","","","","","","","","tol_peg_1","667","667","0","[[1,0,0],[0,0],[3]]","5","[[1,0,0],[2,0],[3]]","practice","667","","","","","",""
"","","","","","single-stim-button","322","1500058","0.0-4.0-7.1-1.1","6112b593ca1b683da02678d3","E1","batch5","tol_practice","785","","","","","","","","","","","","","","tol_peg_2","785","785","0","[[1,0,0],[2,0],[3]]","5","[[1,0,0],[2,0],[3]]","practice","785","","","","","",""
"","","","","","poldrack-single-stim","323","1501063","0.0-4.0-8.0","6112b593ca1b683da02678d3","E1","batch5","tol_feedback","-1","","","","","true","","","","","","","","","","1000","1000","500","","","","","","-1","none","true","","0",""
"","","","","","html-button-response","324","1503805","0.0-4.0-9.0","6112b593ca1b683da02678d3","E1","batch5","tol_instruction","2740.9000000953674","<div class = centerbox><p class = center-block-text>Great job! You are done with practice trials<br>You are about to start official trials.<br> <br> Problem <strong>1</strong> out of 25 problems</p></div>","0","","","","","","","","","","","","","","","","","","","","","","","","","",""
"","","","","","single-stim-button","325","1509507","0.0-4.0-10.0-0.0","6112b593ca1b683da02678d3","E1","batch5","tol_tohand","4694","","","","","","","","","","","","","","tol_peg_1","4694","4694","0","[[1,0,0],[3,0],[0]]","1","[[1,3,0],[2,0],[0]]","0","0","","","","","","3"
"","","","","","single-stim-button","326","1510363","0.0-4.0-10.0-1.0","6112b593ca1b683da02678d3","E1","batch5","tol_toboard","854","","","","","","","","","","","","","","tol_peg_3","854","854","0","[[1,0,0],[3,0],[2]]","1","[[1,3,0],[2,0],[0]]","0","0","","","","","","3"
"","","","","","single-stim-button","327","1510949","0.0-4.0-10.1-0.1","6112b593ca1b683da02678d3","E1","batch5","tol_tohand","584","","","","","","","","","","","","","","tol_peg_2","584","584","0","[[1,0,0],[0,0],[2]]","2","[[1,3,0],[2,0],[0]]","0","0","","","","","","3"
"","","","","","single-stim-button","328","1513304","0.0-4.0-10.1-1.1","6112b593ca1b683da02678d3","E1","batch5","tol_toboard","2353","","","","","","","","","","","","","","tol_peg_1","2353","2353","0","[[1,3,0],[0,0],[2]]","2","[[1,3,0],[2,0],[0]]","0","0","","","","","","3"
"","","","","","single-stim-button","329","1514725","0.0-4.0-10.2-0.2","6112b593ca1b683da02678d3","E1","batch5","tol_tohand","1419","","","","","","","","","","","","","","tol_peg_3","1419","1419","0","[[1,3,0],[0,0],[0]]","3","[[1,3,0],[2,0],[0]]","0","0","","","","","","3"
"","","","","","single-stim-button","330","1515626","0.0-4.0-10.2-1.2","6112b593ca1b683da02678d3","E1","batch5","tol_toboard","899","","","","","","","","","","","","","","tol_peg_2","899","899","0","[[1,3,0],[2,0],[0]]","3","[[1,3,0],[2,0],[0]]","0","0","","","","","","3"
"","","","","","poldrack-single-stim","331","1516634","0.0-4.0-11.0","6112b593ca1b683da02678d3","E1","batch5","tol_feedback","-1","","","","","true","","","","","","","","","","1000","1000","500","","","","","","-1","none","true","4694","6697",""
"","","","","","html-button-response","332","1519015","0.0-4.0-12.0","6112b593ca1b683da02678d3","E1","batch5","tol_trial_num","2378.2999997138977","<div class = centerbox><p class = center-block-text>problem <strong>2</strong> out of 25 problems</p></div>","0","","","","","","","","","","","","","","","","","","","","","","","","","",""
"","","","","","single-stim-button","333","1522594","0.0-4.0-13.0-0.0","6112b593ca1b683da02678d3","E1","batch5","tol_tohand","3577","","","","","","","","","","","","","","tol_peg_1","3577","3577","0","[[1,0,0],[3,0],[0]]","1","[[2,1,3],[0,0],[0]]","1","0","","","","","","5"
"","","","","","single-stim-button","334","1524332","0.0-4.0-13.0-1.0","6112b593ca1b683da02678d3","E1","batch5","tol_toboard","1735","","","","","","","","","","","","","","tol_peg_3","1735","1735","0","[[1,0,0],[3,0],[2]]","1","[[2,1,3],[0,0],[0]]","1","0","","","","","","5"
"","","","","","single-stim-button","335","1526054","0.0-4.0-13.1-0.1","6112b593ca1b683da02678d3","E1","batch5","tol_tohand","1720","","","","","","","","","","","","","","tol_peg_1","1720","1720","0","[[0,0,0],[3,0],[2]]","2","[[2,1,3],[0,0],[0]]","1","0","","","","","","5"
"","","","","","single-stim-button","336","1526900","0.0-4.0-13.1-1.1","6112b593ca1b683da02678d3","E1","batch5","tol_toboard","845","","","","","","","","","","","","","","tol_peg_2","845","845","0","[[0,0,0],[3,1],[2]]","2","[[2,1,3],[0,0],[0]]","1","0","","","","","","5"
"","","","","","single-stim-button","337","1527544","0.0-4.0-13.2-0.2","6112b593ca1b683da02678d3","E1","batch5","tol_tohand","641","","","","","","","","","","","","","","tol_peg_3","641","641","0","[[0,0,0],[3,1],[0]]","3","[[2,1,3],[0,0],[0]]","1","0","","","","","","5"
"","","","","","single-stim-button","338","1528348","0.0-4.0-13.2-1.2","6112b593ca1b683da02678d3","E1","batch5","tol_toboard","799","","","","","","","","","","","","","","tol_peg_1","799","799","0","[[2,0,0],[3,1],[0]]","3","[[2,1,3],[0,0],[0]]","1","0","","","","","","5"
"","","","","","single-stim-button","339","1529148","0.0-4.0-13.3-0.3","6112b593ca1b683da02678d3","E1","batch5","tol_tohand","798","","","","","","","","","","","","","","tol_peg_2","798","798","0","[[2,0,0],[3,0],[0]]","4","[[2,1,3],[0,0],[0]]","1","0","","","","","","5"
"","","","","","single-stim-button","340","1529851","0.0-4.0-13.3-1.3","6112b593ca1b683da02678d3","E1","batch5","tol_toboard","701","","","","","","","","","","","","","","tol_peg_1","701","701","0","[[2,1,0],[3,0],[0]]","4","[[2,1,3],[0,0],[0]]","1","0","","","","","","5"
"","","","","","single-stim-button","341","1530864","0.0-4.0-13.4-0.4","6112b593ca1b683da02678d3","E1","batch5","tol_tohand","1010","","","","","","","","","","","","","","tol_peg_2","1010","1010","0","[[2,1,0],[0,0],[0]]","5","[[2,1,3],[0,0],[0]]","1","0","","","","","","5"
"","","","","","single-stim-button","342","1531498","0.0-4.0-13.4-1.4","6112b593ca1b683da02678d3","E1","batch5","tol_toboard","632","","","","","","","","","","","","","","tol_peg_1","632","632","0","[[2,1,3],[0,0],[0]]","5","[[2,1,3],[0,0],[0]]","1","0","","","","","","5"
"","","","","","poldrack-single-stim","343","1532502","0.0-4.0-14.0","6112b593ca1b683da02678d3","E1","batch5","tol_feedback","-1","","","","","true","","","","","","","","","","1000","1000","500","","","","","","-1","none","true","3577","7746",""
"","","","","","html-button-response","344","1533769","0.0-4.0-15.0","6112b593ca1b683da02678d3","E1","batch5","tol_trial_num","1265.3000001907349","<div class = centerbox><p class = center-block-text>problem <strong>3</strong> out of 25 problems</p></div>","0","","","","","","","","","","","","","","","","","","","","","","","","","",""
"","","","","","single-stim-button","345","1536018","0.0-4.0-16.0-0.0","6112b593ca1b683da02678d3","E1","batch5","tol_tohand","2246","","","","","","","","","","","","","","tol_peg_1","2246","2246","0","[[2,0,0],[0,0],[1]]","1","[[1,2,0],[3,0],[0]]","2","0","","","","","","4"
"","","","","","single-stim-button","346","1536996","0.0-4.0-16.0-1.0","6112b593ca1b683da02678d3","E1","batch5","tol_toboard","976","","","","","","","","","","","","","","tol_peg_2","976","976","0","[[2,0,0],[3,0],[1]]","1","[[1,2,0],[3,0],[0]]","2","0","","","","","","4"
