"success","timeout","failed_images","failed_audio","failed_video","trial_type","trial_index","time_elapsed","internal_node_id","subject_id","study_id","session_id","view_history","rt","stimulus","response","task","correct","answer","item","fiar_detect_rt","fiar_detect_correct","total_correct_fiar_detect","post_trial_gap","choices","spm_correct","spm_rt","mouse_click","stim_duration","block_duration","timing_post_trial","current_position","tol_num_moves_made","tol_target","tol_problem_id","tol_rt","key_press","possible_responses","tol_correct","preplanning","tol_rt_per_trial","tol_min_moves"
"true","false","[]","[]","[]","preload","0","2198","0.0-0.0","6113f79b1578d1c4f555e65a","C3","batch3","","","","","","","","","","","","","","","","","","","","","","","","","","","","","",""
"true","","","","","fullscreen","1","19795","0.0-1.0-0.0","6113f79b1578d1c4f555e65a","C3","batch3","","","","","","","","","","","","","","","","","","","","","","","","","","","","","",""
"true","","","","","fullscreen","2","24722","0.0-2.0-0.0","6113f79b1578d1c4f555e65a","C3","batch3","","","","","","","","","","","","","","","","","","","","","","","","","","","","","",""
"","","","","","instructions","3","59415","0.0-2.0-1.0-0.0","6113f79b1578d1c4f555e65a","C3","batch3","[{""page_index"":0,""viewing_time"":29458},{""page_index"":1,""viewing_time"":5233}]","34691.40000003576","","","","","","","","","","","","","","","","","","","","","","","","","","","",""
"","","","","","html-button-response","4","61462","0.0-2.0-1.0-1.0-0.0","6113f79b1578d1c4f555e65a","C3","batch3","","2045.1000000238419","<p class=block-text> Let's answer a few questions <br>","0","pattern_enter_quiz","","","","","","","","","","","","","","","","","","","","","","","","",""
"","","","","","html-button-response","5","64321","0.0-2.0-1.0-1.0-1.0","6113f79b1578d1c4f555e65a","C3","batch3","","2857","<p class = block-text>True or False: You will have as much time as you want to make each choice. <br></p>","1","pattern_quiz","true","","","","","","","","","","","","","","","","","","","","","","","",""
"","","","","","html-button-response","6","65279","0.0-2.0-1.0-1.0-2.0","6113f79b1578d1c4f555e65a","C3","batch3","","955.4000000357628","<p class = block-text>Correct! You should make your choice <strong> as fast as you can</strong>.</p>","0","pattern_quiz_feedback","","","","","","","","","","","","","","","","","","","","","","","","",""
"","","","","","html-button-response","7","70005","0.0-2.0-1.0-1.0-3.0","6113f79b1578d1c4f555e65a","C3","batch3","","4724.399999976158","<p class = block-text>True or False: You will look for 4 pieces in black or white color connected in a row either horizontally, vertically or diagonally. <br></p>","0","pattern_quiz","true","","","","","","","","","","","","","","","","","","","","","","","",""
"","","","","","html-button-response","8","70933","0.0-2.0-1.0-1.0-4.0","6113f79b1578d1c4f555e65a","C3","batch3","","926.2999999523163","<p class = block-text>Correct! </p>","0","pattern_quiz_feedback","","","","","","","","","","","","","","","","","","","","","","","","",""
"","","","","","html-button-response","9","72792","0.0-2.0-2.0","6113f79b1578d1c4f555e65a","C3","batch3","","1856.199999988079","<p class=block-text> Now that you've understood the game, let's do a few practice trials before we start!<br> <br>","0","pattern_enter_practice","","","","","","","","","","","","","","","","","","","","","","","","",""
"","","","","","image-keyboard-response","10","74932","0.0-2.0-3.0-0.0","6113f79b1578d1c4f555e65a","C3","batch3","","2121.100000023842","stim/prac_no_16_1.png","j","pattern_practice","true","j","","","","","","","","","","","","","","","","","","","","","","",""
"","","","","","html-keyboard-response","11","75939","0.0-2.0-3.0-1.0","6113f79b1578d1c4f555e65a","C3","batch3","","null","<p style=""font-size:30px;color:green;"">Correct!</p>","null","pattern_feedback","","","","","","","","","","","","","","","","","","","","","","","","",""
"","","","","","image-keyboard-response","12","76997","0.0-2.0-3.0-0.1","6113f79b1578d1c4f555e65a","C3","batch3","","1056.2999999523163","stim/prac_yes_16_ver_w1.png","f","pattern_practice","true","f","","","","","","","","","","","","","","","","","","","","","","",""
"","","","","","html-keyboard-response","13","78003","0.0-2.0-3.0-1.1","6113f79b1578d1c4f555e65a","C3","batch3","","null","<p style=""font-size:30px;color:green;"">Correct!</p>","null","pattern_feedback","","","","","","","","","","","","","","","","","","","","","","","","",""
"","","","","","image-keyboard-response","14","78910","0.0-2.0-3.0-0.2","6113f79b1578d1c4f555e65a","C3","batch3","","905","stim/prac_yes_20_dia_b1.png","f","pattern_practice","true","f","","","","","","","","","","","","","","","","","","","","","","",""
"","","","","","html-keyboard-response","15","79915","0.0-2.0-3.0-1.2","6113f79b1578d1c4f555e65a","C3","batch3","","null","<p style=""font-size:30px;color:green;"">Correct!</p>","null","pattern_feedback","","","","","","","","","","","","","","","","","","","","","","","","",""
"","","","","","image-keyboard-response","16","80755","0.0-2.0-3.0-0.3","6113f79b1578d1c4f555e65a","C3","batch3","","837.6999999880791","stim/prac_no_18_1.png","j","pattern_practice","true","j","","","","","","","","","","","","","","","","","","","","","","",""
"","","","","","html-keyboard-response","17","81763","0.0-2.0-3.0-1.3","6113f79b1578d1c4f555e65a","C3","batch3","","null","<p style=""font-size:30px;color:green;"">Correct!</p>","null","pattern_feedback","","","","","","","","","","","","","","","","","","","","","","","","",""
"","","","","","image-keyboard-response","18","82570","0.0-2.0-3.0-0.4","6113f79b1578d1c4f555e65a","C3","batch3","","805.5999999642372","stim/prac_yes_18_hor_w1.png","f","pattern_practice","true","f","","","","","","","","","","","","","","","","","","","","","","",""
"","","","","","html-keyboard-response","19","83579","0.0-2.0-3.0-1.4","6113f79b1578d1c4f555e65a","C3","batch3","","null","<p style=""font-size:30px;color:green;"">Correct!</p>","null","pattern_feedback","","","","","","","","","","","","","","","","","","","","","","","","",""
"","","","","","html-button-response","20","86454","0.0-2.0-4.0","6113f79b1578d1c4f555e65a","C3","batch3","","2873.399999976158","<p class=block-text> Good job! You are done with practice trials!<br>
        You responded correctly on 100% of the trials.<br>
        Press the button below to start official trials. Now you won't see any feedback about your response</p>","0","pattern_enter_official_trials","","","","","","","","","","","","","","","","","","","","","","","","",""
"","","","","","html-keyboard-response","21","87259","0.0-2.0-5.0-0.0","6113f79b1578d1c4f555e65a","C3","batch3","","null","<p class=block-text>Trial 1 out of 78</p>","null","pattern_show_trial_num","","","","","","","","","","","","","","","","","","","","","","","","",""
"","","","","","image-keyboard-response","22","88452","0.0-2.0-5.0-1.0","6113f79b1578d1c4f555e65a","C3","batch3","","1191.5","stim/yes_49_hor_w1_b.png","f","pattern_response","true","f","pattern_70","1191.5","true","1","","","","","","","","","","","","","","","","","","",""
"","","","","","html-keyboard-response","23","89763","0.0-2.0-5.0-0.1","6113f79b1578d1c4f555e65a","C3","batch3","","null","<p class=block-text>Trial 2 out of 78</p>","null","pattern_show_trial_num","","","","","","","","","","","","","","","","","","","","","","","","",""
"","","","","","image-keyboard-response","24","90955","0.0-2.0-5.0-1.1","6113f79b1578d1c4f555e65a","C3","batch3","","1189.5999999642372","stim/no_47_1_b.png","j","pattern_response","true","j","pattern_27","1189.5999999642372","true","2","","","","","","","","","","","","","","","","","","",""
"","","","","","html-keyboard-response","25","92267","0.0-2.0-5.0-0.2","6113f79b1578d1c4f555e65a","C3","batch3","","null","<p class=block-text>Trial 3 out of 78</p>","null","pattern_show_trial_num","","","","","","","","","","","","","","","","","","","","","","","","",""
"","","","","","image-keyboard-response","26","93951","0.0-2.0-5.0-1.2","6113f79b1578d1c4f555e65a","C3","batch3","","1682.300000011921","stim/yes_51_dia_b1.png","j","pattern_response","false","f","pattern_72","1682.300000011921","false","2","","","","","","","","","","","","","","","","","","",""
"","","","","","html-keyboard-response","27","95267","0.0-2.0-5.0-0.3","6113f79b1578d1c4f555e65a","C3","batch3","","null","<p class=block-text>Trial 4 out of 78</p>","null","pattern_show_trial_num","","","","","","","","","","","","","","","","","","","","","","","","",""
"","","","","","image-keyboard-response","28","96507","0.0-2.0-5.0-1.3","6113f79b1578d1c4f555e65a","C3","batch3","","1238.300000011921","stim/no_39_1_w.png","j","pattern_response","true","j","pattern_21","1238.300000011921","true","3","","","","","","","","","","","","","","","","","","",""
"","","","","","html-keyboard-response","29","97820","0.0-2.0-5.0-0.4","6113f79b1578d1c4f555e65a","C3","batch3","","null","<p class=block-text>Trial 5 out of 78</p>","null","pattern_show_trial_num","","","","","","","","","","","","","","","","","","","","","","","","",""
"","","","","","image-keyboard-response","30","98612","0.0-2.0-5.0-1.4","6113f79b1578d1c4f555e65a","C3","batch3","","789.8999999761581","stim/no_12_1.png","j","pattern_response","true","j","pattern_01","789.8999999761581","true","4","","","","","","","","","","","","","","","","","","",""
"","","","","","html-keyboard-response","31","99923","0.0-2.0-5.0-0.5","6113f79b1578d1c4f555e65a","C3","batch3","","null","<p class=block-text>Trial 6 out of 78</p>","null","pattern_show_trial_num","","","","","","","","","","","","","","","","","","","","","","","","",""
"","","","","","image-keyboard-response","32","100800","0.0-2.0-5.0-1.5","6113f79b1578d1c4f555e65a","C3","batch3","","874.7000000476837","stim/yes_46_ver_b1_b.png","f","pattern_response","true","f","pattern_68","874.7000000476837","true","5","","","","","","","","","","","","","","","","","","",""
"","","","","","html-keyboard-response","33","102115","0.0-2.0-5.0-0.6","6113f79b1578d1c4f555e65a","C3","batch3","","null","<p class=block-text>Trial 7 out of 78</p>","null","pattern_show_trial_num","","","","","","","","","","","","","","","","","","","","","","","","",""
"","","","","","image-keyboard-response","34","102815","0.0-2.0-5.0-1.6","6113f79b1578d1c4f555e65a","C3","batch3","","697.6999999880791","stim/no_18_1_b.png","f","pattern_response","false","j","pattern_05","697.6999999880791","false","5","","","","","","","","","","","","","","","","","","",""
"","","","","","html-keyboard-response","35","104132","0.0-2.0-5.0-0.7","6113f79b1578d1c4f555e65a","C3","batch3","","null","<p class=block-text>Trial 8 out of 78</p>","null","pattern_show_trial_num","","","","","","","","","","","","","","","","","","","","","","","","",""
"","","","","","image-keyboard-response","36","104953","0.0-2.0-5.0-1.7","6113f79b1578d1c4f555e65a","C3","batch3","","819.6999999880791","stim/yes_12_hor_w1_w.png","f","pattern_response","true","f","pattern_42","819.6999999880791","true","6","","","","","","","","","","","","","","","","","","",""
"","","","","","html-keyboard-response","37","106267","0.0-2.0-5.0-0.8","6113f79b1578d1c4f555e65a","C3","batch3","","null","<p class=block-text>Trial 9 out of 78</p>","null","pattern_show_trial_num","","","","","","","","","","","","","","","","","","","","","","","","",""
"","","","","","image-keyboard-response","38","107486","0.0-2.0-5.0-1.8","6113f79b1578d1c4f555e65a","C3","batch3","","1216.5","stim/yes_23_ver_b1.png","f","pattern_response","true","f","pattern_48","1216.5","true","7","","","","","","","","","","","","","","","","","","",""
"","","","","","html-keyboard-response","39","108795","0.0-2.0-5.0-0.9","6113f79b1578d1c4f555e65a","C3","batch3","","null","<p class=block-text>Trial 10 out of 78</p>","null","pattern_show_trial_num","","","","","","","","","","","","","","","","","","","","","","","","",""
"","","","","","image-keyboard-response","40","109839","0.0-2.0-5.0-1.9","6113f79b1578d1c4f555e65a","C3","batch3","","1042.5","stim/yes_44_ver_w1_w.png","f","pattern_response","true","f","pattern_66","1042.5","true","8","","","","","","","","","","","","","","","","","","",""
"","","","","","html-keyboard-response","41","111156","0.0-2.0-5.0-0.10","6113f79b1578d1c4f555e65a","C3","batch3","","null","<p class=block-text>Trial 11 out of 78</p>","null","pattern_show_trial_num","","","","","","","","","","","","","","","","","","","","","","","","",""
"","","","","","image-keyboard-response","42","112212","0.0-2.0-5.0-1.10","6113f79b1578d1c4f555e65a","C3","batch3","","1054.699999988079","stim/no_28_2.png","j","pattern_response","true","j","pattern_11","1054.699999988079","true","9","","","","","","","","","","","","","","","","","","",""
"","","","","","html-keyboard-response","43","113524","0.0-2.0-5.0-0.11","6113f79b1578d1c4f555e65a","C3","batch3","","null","<p class=block-text>Trial 12 out of 78</p>","null","pattern_show_trial_num","","","","","","","","","","","","","","","","","","","","","","","","",""
"","","","","","image-keyboard-response","44","114479","0.0-2.0-5.0-1.11","6113f79b1578d1c4f555e65a","C3","batch3","","953.9000000357628","stim/yes_53_ver_b1_b.png","f","pattern_response","true","f","pattern_74","953.9000000357628","true","10","","","","","","","","","","","","","","","","","","",""
"","","","","","html-keyboard-response","45","115794","0.0-2.0-5.0-0.12","6113f79b1578d1c4f555e65a","C3","batch3","","null","<p class=block-text>Trial 13 out of 78</p>","null","pattern_show_trial_num","","","","","","","","","","","","","","","","","","","","","","","","",""
"","","","","","image-keyboard-response","46","116505","0.0-2.0-5.0-1.12","6113f79b1578d1c4f555e65a","C3","batch3","","708","stim/yes_15_dia_b1u_b.png","f","pattern_response","true","f","pattern_44","708","true","11","","","","","","","","","","","","","","","","","","",""
"","","","","","html-keyboard-response","47","117820","0.0-2.0-5.0-0.13","6113f79b1578d1c4f555e65a","C3","batch3","","null","<p class=block-text>Trial 14 out of 78</p>","null","pattern_show_trial_num","","","","","","","","","","","","","","","","","","","","","","","","",""
"","","","","","image-keyboard-response","48","118791","0.0-2.0-5.0-1.13","6113f79b1578d1c4f555e65a","C3","batch3","","970.1000000238419","stim/yes_37_hor_w1_w.png","f","pattern_response","true","f","pattern_60","970.1000000238419","true","12","","","","","","","","","","","","","","","","","","",""
"","","","","","html-keyboard-response","49","120108","0.0-2.0-5.0-0.14","6113f79b1578d1c4f555e65a","C3","batch3","","null","<p class=block-text>Trial 15 out of 78</p>","null","pattern_show_trial_num","","","","","","","","","","","","","","","","","","","","","","","","",""
"","","","","","image-keyboard-response","50","121680","0.0-2.0-5.0-1.14","6113f79b1578d1c4f555e65a","C3","batch3","","1570.8999999761581","stim/no_45_1_w.png","j","pattern_response","true","j","pattern_25","1570.8999999761581","true","13","","","","","","","","","","","","","","","","","","",""
"","","","","","html-keyboard-response","51","122994","0.0-2.0-5.0-0.15","6113f79b1578d1c4f555e65a","C3","batch3","","null","<p class=block-text>Trial 16 out of 78</p>","null","pattern_show_trial_num","","","","","","","","","","","","","","","","","","","","","","","","",""
"","","","","","image-keyboard-response","52","124656","0.0-2.0-5.0-1.15","6113f79b1578d1c4f555e65a","C3","batch3","","1659.699999988079","stim/no_36_1_b.png","j","pattern_response","true","j","pattern_17","1659.699999988079","true","14","","","","","","","","","","","","","","","","","","",""
"","","","","","html-keyboard-response","53","125972","0.0-2.0-5.0-0.16","6113f79b1578d1c4f555e65a","C3","batch3","","null","<p class=block-text>Trial 17 out of 78</p>","null","pattern_show_trial_num","","","","","","","","","","","","","","","","","","","","","","","","",""
"","","","","","image-keyboard-response","54","127279","0.0-2.0-5.0-1.16","6113f79b1578d1c4f555e65a","C3","batch3","","1304.800000011921","stim/no_51_1.png","j","pattern_response","true","j","pattern_31","1304.800000011921","true","15","","","","","","","","","","","","","","","","","","",""
"","","","","","html-keyboard-response","55","128596","0.0-2.0-5.0-0.17","6113f79b1578d1c4f555e65a","C3","batch3","","null","<p class=block-text>Trial 18 out of 78</p>","null","pattern_show_trial_num","","","","","","","","","","","","","","","","","","","","","","","","",""
"","","","","","image-keyboard-response","56","129496","0.0-2.0-5.0-1.17","6113f79b1578d1c4f555e65a","C3","batch3","","898.7000000476837","stim/yes_70_ver_b1.png","f","pattern_response","true","f","pattern_80","898.7000000476837","true","16","","","","","","","","","","","","","","","","","","",""
"","","","","","html-keyboard-response","57","130811","0.0-2.0-5.0-0.18","6113f79b1578d1c4f555e65a","C3","batch3","","null","<p class=block-text>Trial 19 out of 78</p>","null","pattern_show_trial_num","","","","","","","","","","","","","","","","","","","","","","","","",""
"","","","","","image-keyboard-response","58","132206","0.0-2.0-5.0-1.18","6113f79b1578d1c4f555e65a","C3","batch3","","1392.699999988079","stim/no_25_1_b.png","j","pattern_response","true","j","pattern_09","1392.699999988079","true","17","","","","","","","","","","","","","","","","","","",""
"","","","","","html-keyboard-response","59","133516","0.0-2.0-5.0-0.19","6113f79b1578d1c4f555e65a","C3","batch3","","null","<p class=block-text>Trial 20 out of 78</p>","null","pattern_show_trial_num","","","","","","","","","","","","","","","","","","","","","","","","",""
"","","","","","image-keyboard-response","60","134789","0.0-2.0-5.0-1.19","6113f79b1578d1c4f555e65a","C3","batch3","","1271.800000011921","stim/yes_33_dia_w1_w.png","j","pattern_response","false","f","pattern_56","1271.800000011921","false","17","","","","","","","","","","","","","","","","","","",""
"","","","","","html-keyboard-response","61","136099","0.0-2.0-5.0-0.20","6113f79b1578d1c4f555e65a","C3","batch3","","null","<p class=block-text>Trial 21 out of 78</p>","null","pattern_show_trial_num","","","","","","","","","","","","","","","","","","","","","","","","",""
"","","","","","image-keyboard-response","62","138701","0.0-2.0-5.0-1.20","6113f79b1578d1c4f555e65a","C3","batch3","","2600.800000011921","stim/no_33_1_b.png","j","pattern_response","true","j","pattern_15","2600.800000011921","true","18","","","","","","","","","","","","","","","","","","",""
"","","","","","html-keyboard-response","63","140012","0.0-2.0-5.0-0.21","6113f79b1578d1c4f555e65a","C3","batch3","","null","<p class=block-text>Trial 22 out of 78</p>","null","pattern_show_trial_num","","","","","","","","","","","","","","","","","","","","","","","","",""
"","","","","","image-keyboard-response","64","140919","0.0-2.0-5.0-1.21","6113f79b1578d1c4f555e65a","C3","batch3","","905.7000000476837","stim/yes_39_hor_w1_w.png","f","pattern_response","true","f","pattern_62","905.7000000476837","true","19","","","","","","","","","","","","","","","","","","",""
"","","","","","html-keyboard-response","65","142236","0.0-2.0-5.0-0.22","6113f79b1578d1c4f555e65a","C3","batch3","","null","<p class=block-text>Trial 23 out of 78</p>","null","pattern_show_trial_num","","","","","","","","","","","","","","","","","","","","","","","","",""
"","","","","","image-keyboard-response","66","142988","0.0-2.0-5.0-1.22","6113f79b1578d1c4f555e65a","C3","batch3","","750.6000000238419","stim/yes_29_hor_b1_b.png","f","pattern_response","true","f","pattern_52","750.6000000238419","true","20","","","","","","","","","","","","","","","","","","",""
"","","","","","html-keyboard-response","67","144300","0.0-2.0-5.0-0.23","6113f79b1578d1c4f555e65a","C3","batch3","","null","<p class=block-text>Trial 24 out of 78</p>","null","pattern_show_trial_num","","","","","","","","","","","","","","","","","","","","","","","","",""
"","","","","","image-keyboard-response","68","145047","0.0-2.0-5.0-1.23","6113f79b1578d1c4f555e65a","C3","batch3","","745.1999999880791","stim/yes_36_ver_w1_w.png","f","pattern_response","true","f","pattern_58","745.1999999880791","true","21","","","","","","","","","","","","","","","","","","",""
"","","","","","html-keyboard-response","69","146364","0.0-2.0-5.0-0.24","6113f79b1578d1c4f555e65a","C3","batch3","","null","<p class=block-text>Trial 25 out of 78</p>","null","pattern_show_trial_num","","","","","","","","","","","","","","","","","","","","","","","","",""
"","","","","","image-keyboard-response","70","151015","0.0-2.0-5.0-1.24","6113f79b1578d1c4f555e65a","C3","batch3","","4649.599999964237","stim/no_58_1_w.png","j","pattern_response","true","j","pattern_35","4649.599999964237","true","22","","","","","","","","","","","","","","","","","","",""
"","","","","","html-keyboard-response","71","152331","0.0-2.0-5.0-0.25","6113f79b1578d1c4f555e65a","C3","batch3","","null","<p class=block-text>Trial 26 out of 78</p>","null","pattern_show_trial_num","","","","","","","","","","","","","","","","","","","","","","","","",""
"","","","","","image-keyboard-response","72","154237","0.0-2.0-5.0-1.25","6113f79b1578d1c4f555e65a","C3","batch3","","1903.8999999761581","stim/yes_42_dia_w1_w.png","j","pattern_response","false","f","pattern_64","1903.8999999761581","false","22","","","","","","","","","","","","","","","","","","",""
"","","","","","html-keyboard-response","73","155548","0.0-2.0-5.0-0.26","6113f79b1578d1c4f555e65a","C3","batch3","","null","<p class=block-text>Trial 27 out of 78</p>","null","pattern_show_trial_num","","","","","","","","","","","","","","","","","","","","","","","","",""
"","","","","","image-keyboard-response","74","156665","0.0-2.0-5.0-1.26","6113f79b1578d1c4f555e65a","C3","batch3","","1115.8999999761581","stim/no_30_1_b.png","j","pattern_response","true","j","pattern_13","1115.8999999761581","true","23","","","","","","","","","","","","","","","","","","",""
"","","","","","html-keyboard-response","75","157980","0.0-2.0-5.0-0.27","6113f79b1578d1c4f555e65a","C3","batch3","","null","<p class=block-text>Trial 28 out of 78</p>","null","pattern_show_trial_num","","","","","","","","","","","","","","","","","","","","","","","","",""
"","","","","","image-keyboard-response","76","160106","0.0-2.0-5.0-1.27","6113f79b1578d1c4f555e65a","C3","batch3","","2112.900000035763","stim/no_43_2_b.png","j","pattern_response","true","j","pattern_23","2112.900000035763","true","24","","","","","","","","","","","","","","","","","","",""
"","","","","","html-keyboard-response","77","161420","0.0-2.0-5.0-0.28","6113f79b1578d1c4f555e65a","C3","batch3","","null","<p class=block-text>Trial 29 out of 78</p>","null","pattern_show_trial_num","","","","","","","","","","","","","","","","","","","","","","","","",""
"","","","","","image-keyboard-response","78","162537","0.0-2.0-5.0-1.28","6113f79b1578d1c4f555e65a","C3","batch3","","1116","stim/no_22_1_b.png","j","pattern_response","true","j","pattern_07","1116","true","25","","","","","","","","","","","","","","","","","","",""
"","","","","","html-keyboard-response","79","163852","0.0-2.0-5.0-0.29","6113f79b1578d1c4f555e65a","C3","batch3","","null","<p class=block-text>Trial 30 out of 78</p>","null","pattern_show_trial_num","","","","","","","","","","","","","","","","","","","","","","","","",""
"","","","","","image-keyboard-response","80","166343","0.0-2.0-5.0-1.29","6113f79b1578d1c4f555e65a","C3","batch3","","2489.699999988079","stim/no_49_2_b.png","j","pattern_response","true","j","pattern_29","2489.699999988079","true","26","","","","","","","","","","","","","","","","","","",""
"","","","","","html-keyboard-response","81","167660","0.0-2.0-5.0-0.30","6113f79b1578d1c4f555e65a","C3","batch3","","null","<p class=block-text>Trial 31 out of 78</p>","null","pattern_show_trial_num","","","","","","","","","","","","","","","","","","","","","","","","",""
"","","","","","image-keyboard-response","82","168854","0.0-2.0-5.0-1.30","6113f79b1578d1c4f555e65a","C3","batch3","","1191.5","stim/yes_26_dia_w2_w.png","f","pattern_response","true","f","pattern_50","1191.5","true","27","","","","","","","","","","","","","","","","","","",""
"","","","","","html-keyboard-response","83","170164","0.0-2.0-5.0-0.31","6113f79b1578d1c4f555e65a","C3","batch3","","null","<p class=block-text>Trial 32 out of 78</p>","null","pattern_show_trial_num","","","","","","","","","","","","","","","","","","","","","","","","",""
"","","","","","image-keyboard-response","84","171363","0.0-2.0-5.0-1.31","6113f79b1578d1c4f555e65a","C3","batch3","","1197.5","stim/yes_17_ver_b1_b.png","f","pattern_response","true","f","pattern_46","1197.5","true","28","","","","","","","","","","","","","","","","","","",""
"","","","","","html-keyboard-response","85","172675","0.0-2.0-5.0-0.32","6113f79b1578d1c4f555e65a","C3","batch3","","null","<p class=block-text>Trial 33 out of 78</p>","null","pattern_show_trial_num","","","","","","","","","","","","","","","","","","","","","","","","",""
"","","","","","image-keyboard-response","86","175433","0.0-2.0-5.0-1.32","6113f79b1578d1c4f555e65a","C3","batch3","","2756.600000023842","stim/no_67_1.png","j","pattern_response","true","j","pattern_39","2756.600000023842","true","29","","","","","","","","","","","","","","","","","","",""
"","","","","","html-keyboard-response","87","176748","0.0-2.0-5.0-0.33","6113f79b1578d1c4f555e65a","C3","batch3","","null","<p class=block-text>Trial 34 out of 78</p>","null","pattern_show_trial_num","","","","","","","","","","","","","","","","","","","","","","","","",""
"","","","","","image-keyboard-response","88","178082","0.0-2.0-5.0-1.33","6113f79b1578d1c4f555e65a","C3","batch3","","1332.3999999761581","stim/yes_63_dia_b1.png","f","pattern_response","true","f","pattern_78","1332.3999999761581","true","30","","","","","","","","","","","","","","","","","","",""
"","","","","","html-keyboard-response","89","179396","0.0-2.0-5.0-0.34","6113f79b1578d1c4f555e65a","C3","batch3","","null","<p class=block-text>Trial 35 out of 78</p>","null","pattern_show_trial_num","","","","","","","","","","","","","","","","","","","","","","","","",""
"","","","","","image-keyboard-response","90","180447","0.0-2.0-5.0-1.34","6113f79b1578d1c4f555e65a","C3","batch3","","1049.5999999642372","stim/no_15_1_w.png","j","pattern_response","true","j","pattern_03","1049.5999999642372","true","31","","","","","","","","","","","","","","","","","","",""
"","","","","","html-keyboard-response","91","181763","0.0-2.0-5.0-0.35","6113f79b1578d1c4f555e65a","C3","batch3","","null","<p class=block-text>Trial 36 out of 78</p>","null","pattern_show_trial_num","","","","","","","","","","","","","","","","","","","","","","","","",""
"","","","","","image-keyboard-response","92","183724","0.0-2.0-5.0-1.35","6113f79b1578d1c4f555e65a","C3","batch3","","1959.7999999523163","stim/no_37_2_w.png","j","pattern_response","true","j","pattern_19","1959.7999999523163","true","32","","","","","","","","","","","","","","","","","","",""
"","","","","","html-keyboard-response","93","185036","0.0-2.0-5.0-0.36","6113f79b1578d1c4f555e65a","C3","batch3","","null","<p class=block-text>Trial 37 out of 78</p>","null","pattern_show_trial_num","","","","","","","","","","","","","","","","","","","","","","","","",""
"","","","","","image-keyboard-response","94","187705","0.0-2.0-5.0-1.36","6113f79b1578d1c4f555e65a","C3","batch3","","2666.800000011921","stim/yes_58_dia_w1_w.png","j","pattern_response","false","f","pattern_76","2666.800000011921","false","32","","","","","","","","","","","","","","","","","","",""
"","","","","","html-keyboard-response","95","189020","0.0-2.0-5.0-0.37","6113f79b1578d1c4f555e65a","C3","batch3","","null","<p class=block-text>Trial 38 out of 78</p>","null","pattern_show_trial_num","","","","","","","","","","","","","","","","","","","","","","","","",""
"","","","","","image-keyboard-response","96","191357","0.0-2.0-5.0-1.37","6113f79b1578d1c4f555e65a","C3","batch3","","2334.600000023842","stim/no_53_1_b.png","j","pattern_response","true","j","pattern_33","2334.600000023842","true","33","","","","","","","","","","","","","","","","","","",""
"","","","","","html-keyboard-response","97","192668","0.0-2.0-5.0-0.38","6113f79b1578d1c4f555e65a","C3","batch3","","null","<p class=block-text>Trial 39 out of 78</p>","null","pattern_show_trial_num","","","","","","","","","","","","","","","","","","","","","","","","",""
"","","","","","image-keyboard-response","98","193695","0.0-2.0-5.0-1.38","6113f79b1578d1c4f555e65a","C3","batch3","","1025.4000000357628","stim/yes_30_ver_b1_b.png","f","pattern_response","true","f","pattern_54","1025.4000000357628","true","34","","","","","","","","","","","","","","","","","","",""
"","","","","","image-keyboard-response","99","195966","0.0-2.0-6.0","6113f79b1578d1c4f555e65a","C3","batch3","","1760.699999988079","stim/empty_board.png","j","attention_check","true","j","","","","","500","[""f"",""j""]","","","","","","","","","","","","","","","","",""
"","","","","","html-keyboard-response","100","196772","0.0-2.0-7.0-0.0","6113f79b1578d1c4f555e65a","C3","batch3","","null","<p class=block-text>Trial 40 out of 78</p>","null","pattern_show_trial_num","","","","","","","","","","","","","","","","","","","","","","","","",""
"","","","","","image-keyboard-response","101","198731","0.0-2.0-7.0-1.0","6113f79b1578d1c4f555e65a","C3","batch3","","1956.8999999761581","stim/yes_48_dia_w1_w.png","j","pattern_response","false","f","pattern_69","1956.8999999761581","false","34","","","","","","","","","","","","","","","","","","",""
"","","","","","html-keyboard-response","102","200044","0.0-2.0-7.0-0.1","6113f79b1578d1c4f555e65a","C3","batch3","","null","<p class=block-text>Trial 41 out of 78</p>","null","pattern_show_trial_num","","","","","","","","","","","","","","","","","","","","","","","","",""
"","","","","","image-keyboard-response","103","200971","0.0-2.0-7.0-1.1","6113f79b1578d1c4f555e65a","C3","batch3","","925.5","stim/yes_29_ver_w1.png","f","pattern_response","true","f","pattern_53","925.5","true","35","","","","","","","","","","","","","","","","","","",""
"","","","","","html-keyboard-response","104","202283","0.0-2.0-7.0-0.2","6113f79b1578d1c4f555e65a","C3","batch3","","null","<p class=block-text>Trial 42 out of 78</p>","null","pattern_show_trial_num","","","","","","","","","","","","","","","","","","","","","","","","",""
"","","","","","image-keyboard-response","105","203668","0.0-2.0-7.0-1.2","6113f79b1578d1c4f555e65a","C3","batch3","","1383.3999999761581","stim/yes_52_ver_w1.png","f","pattern_response","true","f","pattern_73","1383.3999999761581","true","36","","","","","","","","","","","","","","","","","","",""
"","","","","","html-keyboard-response","106","204980","0.0-2.0-7.0-0.3","6113f79b1578d1c4f555e65a","C3","batch3","","null","<p class=block-text>Trial 43 out of 78</p>","null","pattern_show_trial_num","","","","","","","","","","","","","","","","","","","","","","","","",""
"","","","","","image-keyboard-response","107","205918","0.0-2.0-7.0-1.3","6113f79b1578d1c4f555e65a","C3","batch3","","936.1999999880791","stim/yes_25_hor_b1_b.png","f","pattern_response","true","f","pattern_49","936.1999999880791","true","37","","","","","","","","","","","","","","","","","","",""
"","","","","","html-keyboard-response","108","207228","0.0-2.0-7.0-0.4","6113f79b1578d1c4f555e65a","C3","batch3","","null","<p class=block-text>Trial 44 out of 78</p>","null","pattern_show_trial_num","","","","","","","","","","","","","","","","","","","","","","","","",""
"","","","","","image-keyboard-response","109","208096","0.0-2.0-7.0-1.4","6113f79b1578d1c4f555e65a","C3","batch3","","866","stim/yes_28_ver_b1.png","f","pattern_response","true","f","pattern_51","866","true","38","","","","","","","","","","","","","","","","","","",""
"","","","","","html-keyboard-response","110","209412","0.0-2.0-7.0-0.5","6113f79b1578d1c4f555e65a","C3","batch3","","null","<p class=block-text>Trial 45 out of 78</p>","null","pattern_show_trial_num","","","","","","","","","","","","","","","","","","","","","","","","",""
"","","","","","image-keyboard-response","111","210359","0.0-2.0-7.0-1.5","6113f79b1578d1c4f555e65a","C3","batch3","","945.1000000238419","stim/yes_55_hor_w1_w.png","f","pattern_response","true","f","pattern_75","945.1000000238419","true","39","","","","","","","","","","","","","","","","","","",""
"","","","","","html-keyboard-response","112","211668","0.0-2.0-7.0-0.6","6113f79b1578d1c4f555e65a","C3","batch3","","null","<p class=block-text>Trial 46 out of 78</p>","null","pattern_show_trial_num","","","","","","","","","","","","","","","","","","","","","","","","",""
"","","","","","image-keyboard-response","113","212367","0.0-2.0-7.0-1.6","6113f79b1578d1c4f555e65a","C3","batch3","","697","stim/yes_14_hor_b1_w.png","f","pattern_response","true","f","pattern_43","697","true","40","","","","","","","","","","","","","","","","","","",""
"","","","","","html-keyboard-response","114","213684","0.0-2.0-7.0-0.7","6113f79b1578d1c4f555e65a","C3","batch3","","null","<p class=block-text>Trial 47 out of 78</p>","null","pattern_show_trial_num","","","","","","","","","","","","","","","","","","","","","","","","",""
"","","","","","image-keyboard-response","115","216175","0.0-2.0-7.0-1.7","6113f79b1578d1c4f555e65a","C3","batch3","","2489.5","stim/no_44_1.png","j","pattern_response","true","j","pattern_24","2489.5","true","41","","","","","","","","","","","","","","","","","","",""
"","","","","","html-keyboard-response","116","217492","0.0-2.0-7.0-0.8","6113f79b1578d1c4f555e65a","C3","batch3","","null","<p class=block-text>Trial 48 out of 78</p>","null","pattern_show_trial_num","","","","","","","","","","","","","","","","","","","","","","","","",""
"","","","","","image-keyboard-response","117","219155","0.0-2.0-7.0-1.8","6113f79b1578d1c4f555e65a","C3","batch3","","1660.3999999761581","stim/no_34_1_b.png","j","pattern_response","true","j","pattern_16","1660.3999999761581","true","42","","","","","","","","","","","","","","","","","","",""
"","","","","","html-keyboard-response","118","220468","0.0-2.0-7.0-0.9","6113f79b1578d1c4f555e65a","C3","batch3","","null","<p class=block-text>Trial 49 out of 78</p>","null","pattern_show_trial_num","","","","","","","","","","","","","","","","","","","","","","","","",""
"","","","","","image-keyboard-response","119","222657","0.0-2.0-7.0-1.9","6113f79b1578d1c4f555e65a","C3","batch3","","2187.199999988079","stim/no_38_1_b.png","j","pattern_response","true","j","pattern_20","2187.199999988079","true","43","","","","","","","","","","","","","","","","","","",""
"","","","","","html-keyboard-response","120","223972","0.0-2.0-7.0-0.10","6113f79b1578d1c4f555e65a","C3","batch3","","null","<p class=block-text>Trial 50 out of 78</p>","null","pattern_show_trial_num","","","","","","","","","","","","","","","","","","","","","","","","",""
"","","","","","image-keyboard-response","121","225036","0.0-2.0-7.0-1.10","6113f79b1578d1c4f555e65a","C3","batch3","","1062.7000000476837","stim/yes_60_ver_b1_b.png","f","pattern_response","true","f","pattern_77","1062.7000000476837","true","44","","","","","","","","","","","","","","","","","","",""
"","","","","","html-keyboard-response","122","226348","0.0-2.0-7.0-0.11","6113f79b1578d1c4f555e65a","C3","batch3","","null","<p class=block-text>Trial 51 out of 78</p>","null","pattern_show_trial_num","","","","","","","","","","","","","","","","","","","","","","","","",""
"","","","","","image-keyboard-response","123","229063","0.0-2.0-7.0-1.11","6113f79b1578d1c4f555e65a","C3","batch3","","2712.400000035763","stim/yes_67_hor_b1.png","j","pattern_response","false","f","pattern_79","2712.400000035763","false","44","","","","","","","","","","","","","","","","","","",""
"","","","","","html-keyboard-response","124","230380","0.0-2.0-7.0-0.12","6113f79b1578d1c4f555e65a","C3","batch3","","null","<p class=block-text>Trial 52 out of 78</p>","null","pattern_show_trial_num","","","","","","","","","","","","","","","","","","","","","","","","",""
"","","","","","image-keyboard-response","125","231632","0.0-2.0-7.0-1.12","6113f79b1578d1c4f555e65a","C3","batch3","","1250","stim/no_23_1.png","j","pattern_response","true","j","pattern_08","1250","true","45","","","","","","","","","","","","","","","","","","",""
"","","","","","html-keyboard-response","126","232948","0.0-2.0-7.0-0.13","6113f79b1578d1c4f555e65a","C3","batch3","","null","<p class=block-text>Trial 53 out of 78</p>","null","pattern_show_trial_num","","","","","","","","","","","","","","","","","","","","","","","","",""
"","","","","","image-keyboard-response","127","235252","0.0-2.0-7.0-1.13","6113f79b1578d1c4f555e65a","C3","batch3","","2301.600000023842","stim/yes_45_hor_b2_b.png","j","pattern_response","false","f","pattern_67","2301.600000023842","false","45","","","","","","","","","","","","","","","","","","",""
"","","","","","html-keyboard-response","128","236564","0.0-2.0-7.0-0.14","6113f79b1578d1c4f555e65a","C3","batch3","","null","<p class=block-text>Trial 54 out of 78</p>","null","pattern_show_trial_num","","","","","","","","","","","","","","","","","","","","","","","","",""
"","","","","","image-keyboard-response","129","238893","0.0-2.0-7.0-1.14","6113f79b1578d1c4f555e65a","C3","batch3","","2326.900000035763","stim/no_52_1.png","j","pattern_response","true","j","pattern_32","2326.900000035763","true","46","","","","","","","","","","","","","","","","","","",""
"","","","","","html-keyboard-response","130","240204","0.0-2.0-7.0-0.15","6113f79b1578d1c4f555e65a","C3","batch3","","null","<p class=block-text>Trial 55 out of 78</p>","null","pattern_show_trial_num","","","","","","","","","","","","","","","","","","","","","","","","",""
"","","","","","image-keyboard-response","131","242456","0.0-2.0-7.0-1.15","6113f79b1578d1c4f555e65a","C3","batch3","","2249.800000011921","stim/no_50_1.png","j","pattern_response","true","j","pattern_30","2249.800000011921","true","47","","","","","","","","","","","","","","","","","","",""
"","","","","","html-keyboard-response","132","243772","0.0-2.0-7.0-0.16","6113f79b1578d1c4f555e65a","C3","batch3","","null","<p class=block-text>Trial 56 out of 78</p>","null","pattern_show_trial_num","","","","","","","","","","","","","","","","","","","","","","","","",""
"","","","","","image-keyboard-response","133","246426","0.0-2.0-7.0-1.16","6113f79b1578d1c4f555e65a","C3","batch3","","2652.300000011921","stim/no_36_2_w.png","j","pattern_response","true","j","pattern_18","2652.300000011921","true","48","","","","","","","","","","","","","","","","","","",""
"","","","","","html-keyboard-response","134","247740","0.0-2.0-7.0-0.17","6113f79b1578d1c4f555e65a","C3","batch3","","null","<p class=block-text>Trial 57 out of 78</p>","null","pattern_show_trial_num","","","","","","","","","","","","","","","","","","","","","","","","",""
"","","","","","image-keyboard-response","135","249945","0.0-2.0-7.0-1.17","6113f79b1578d1c4f555e65a","C3","batch3","","2202.100000023842","stim/yes_43_ver_w1_w.png","f","pattern_response","true","f","pattern_65","2202.100000023842","true","49","","","","","","","","","","","","","","","","","","",""
"","","","","","html-keyboard-response","136","251260","0.0-2.0-7.0-0.18","6113f79b1578d1c4f555e65a","C3","batch3","","null","<p class=block-text>Trial 58 out of 78</p>","null","pattern_show_trial_num","","","","","","","","","","","","","","","","","","","","","","","","",""
"","","","","","image-keyboard-response","137","255322","0.0-2.0-7.0-1.18","6113f79b1578d1c4f555e65a","C3","batch3","","4059.400000035763","stim/no_70_2.png","j","pattern_response","true","j","pattern_40","4059.400000035763","true","50","","","","","","","","","","","","","","","","","","",""
"","","","","","html-keyboard-response","138","256636","0.0-2.0-7.0-0.19","6113f79b1578d1c4f555e65a","C3","batch3","","null","<p class=block-text>Trial 59 out of 78</p>","null","pattern_show_trial_num","","","","","","","","","","","","","","","","","","","","","","","","",""
"","","","","","image-keyboard-response","139","259851","0.0-2.0-7.0-1.19","6113f79b1578d1c4f555e65a","C3","batch3","","3212.399999976158","stim/no_65_1_b.png","j","pattern_response","true","j","pattern_38","3212.399999976158","true","51","","","","","","","","","","","","","","","","","","",""
"","","","","","html-keyboard-response","140","261164","0.0-2.0-7.0-0.20","6113f79b1578d1c4f555e65a","C3","batch3","","null","<p class=block-text>Trial 60 out of 78</p>","null","pattern_show_trial_num","","","","","","","","","","","","","","","","","","","","","","","","",""
"","","","","","image-keyboard-response","141","262115","0.0-2.0-7.0-1.20","6113f79b1578d1c4f555e65a","C3","batch3","","948.6000000238419","stim/yes_38_hor_b1_b.png","f","pattern_response","true","f","pattern_61","948.6000000238419","true","52","","","","","","","","","","","","","","","","","","",""
"","","","","","html-keyboard-response","142","263428","0.0-2.0-7.0-0.21","6113f79b1578d1c4f555e65a","C3","batch3","","null","<p class=block-text>Trial 61 out of 78</p>","null","pattern_show_trial_num","","","","","","","","","","","","","","","","","","","","","","","","",""
"","","","","","image-keyboard-response","143","264994","0.0-2.0-7.0-1.21","6113f79b1578d1c4f555e65a","C3","batch3","","1564.3999999761581","stim/yes_35_dia_b1.png","j","pattern_response","false","f","pattern_57","1564.3999999761581","false","52","","","","","","","","","","","","","","","","","","",""
"","","","","","html-keyboard-response","144","266308","0.0-2.0-7.0-0.22","6113f79b1578d1c4f555e65a","C3","batch3","","null","<p class=block-text>Trial 62 out of 78</p>","null","pattern_show_trial_num","","","","","","","","","","","","","","","","","","","","","","","","",""
"","","","","","image-keyboard-response","145","268419","0.0-2.0-7.0-1.22","6113f79b1578d1c4f555e65a","C3","batch3","","2108.900000035763","stim/no_62_1_w.png","j","pattern_response","true","j","pattern_36","2108.900000035763","true","53","","","","","","","","","","","","","","","","","","",""
"","","","","","html-keyboard-response","146","269733","0.0-2.0-7.0-0.23","6113f79b1578d1c4f555e65a","C3","batch3","","null","<p class=block-text>Trial 63 out of 78</p>","null","pattern_show_trial_num","","","","","","","","","","","","","","","","","","","","","","","","",""
"","","","","","image-keyboard-response","147","270631","0.0-2.0-7.0-1.23","6113f79b1578d1c4f555e65a","C3","batch3","","896.8000000119209","stim/no_17_1_w.png","j","pattern_response","true","j","pattern_04","896.8000000119209","true","54","","","","","","","","","","","","","","","","","","",""
"","","","","","html-keyboard-response","148","271940","0.0-2.0-7.0-0.24","6113f79b1578d1c4f555e65a","C3","batch3","","null","<p class=block-text>Trial 64 out of 78</p>","null","pattern_show_trial_num","","","","","","","","","","","","","","","","","","","","","","","","",""
"","","","","","image-keyboard-response","149","274196","0.0-2.0-7.0-1.24","6113f79b1578d1c4f555e65a","C3","batch3","","2254.899999976158","stim/no_29_1_b.png","j","pattern_response","true","j","pattern_12","2254.899999976158","true","55","","","","","","","","","","","","","","","","","","",""
"","","","","","html-keyboard-response","150","275509","0.0-2.0-7.0-0.25","6113f79b1578d1c4f555e65a","C3","batch3","","null","<p class=block-text>Trial 65 out of 78</p>","null","pattern_show_trial_num","","","","","","","","","","","","","","","","","","","","","","","","",""
"","","","","","image-keyboard-response","151","277160","0.0-2.0-7.0-1.25","6113f79b1578d1c4f555e65a","C3","batch3","","1649.3999999761581","stim/yes_37_dia_w1.png","f","pattern_response","true","f","pattern_59","1649.3999999761581","true","56","","","","","","","","","","","","","","","","","","",""
"","","","","","html-keyboard-response","152","278477","0.0-2.0-7.0-0.26","6113f79b1578d1c4f555e65a","C3","batch3","","null","<p class=block-text>Trial 66 out of 78</p>","null","pattern_show_trial_num","","","","","","","","","","","","","","","","","","","","","","","","",""
"","","","","","image-keyboard-response","153","279459","0.0-2.0-7.0-1.26","6113f79b1578d1c4f555e65a","C3","batch3","","980.8000000119209","stim/no_13_2_b.png","j","pattern_response","true","j","pattern_02","980.8000000119209","true","57","","","","","","","","","","","","","","","","","","",""
"","","","","","html-keyboard-response","154","280771","0.0-2.0-7.0-0.27","6113f79b1578d1c4f555e65a","C3","batch3","","null","<p class=block-text>Trial 67 out of 78</p>","null","pattern_show_trial_num","","","","","","","","","","","","","","","","","","","","","","","","",""
"","","","","","image-keyboard-response","155","282774","0.0-2.0-7.0-1.27","6113f79b1578d1c4f555e65a","C3","batch3","","2000.5","stim/yes_31_hor_b1.png","f","pattern_response","true","f","pattern_55","2000.5","true","58","","","","","","","","","","","","","","","","","","",""
"","","","","","html-keyboard-response","156","284085","0.0-2.0-7.0-0.28","6113f79b1578d1c4f555e65a","C3","batch3","","null","<p class=block-text>Trial 68 out of 78</p>","null","pattern_show_trial_num","","","","","","","","","","","","","","","","","","","","","","","","",""
"","","","","","image-keyboard-response","157","287775","0.0-2.0-7.0-1.28","6113f79b1578d1c4f555e65a","C3","batch3","","3688.900000035763","stim/no_48_1_w.png","j","pattern_response","true","j","pattern_28","3688.900000035763","true","59","","","","","","","","","","","","","","","","","","",""
"","","","","","html-keyboard-response","158","289085","0.0-2.0-7.0-0.29","6113f79b1578d1c4f555e65a","C3","batch3","","null","<p class=block-text>Trial 69 out of 78</p>","null","pattern_show_trial_num","","","","","","","","","","","","","","","","","","","","","","","","",""
"","","","","","image-keyboard-response","159","292344","0.0-2.0-7.0-1.29","6113f79b1578d1c4f555e65a","C3","batch3","","3257","stim/yes_50_dia_w1.png","j","pattern_response","false","f","pattern_71","3257","false","59","","","","","","","","","","","","","","","","","","",""
"","","","","","html-keyboard-response","160","293661","0.0-2.0-7.0-0.30","6113f79b1578d1c4f555e65a","C3","batch3","","null","<p class=block-text>Trial 70 out of 78</p>","null","pattern_show_trial_num","","","","","","","","","","","","","","","","","","","","","","","","",""
"","","","","","image-keyboard-response","161","296366","0.0-2.0-7.0-1.30","6113f79b1578d1c4f555e65a","C3","batch3","","2703.399999976158","stim/no_46_1_b.png","j","pattern_response","true","j","pattern_26","2703.399999976158","true","60","","","","","","","","","","","","","","","","","","",""
"","","","","","html-keyboard-response","162","297677","0.0-2.0-7.0-0.31","6113f79b1578d1c4f555e65a","C3","batch3","","null","<p class=block-text>Trial 71 out of 78</p>","null","pattern_show_trial_num","","","","","","","","","","","","","","","","","","","","","","","","",""
"","","","","","image-keyboard-response","163","298487","0.0-2.0-7.0-1.31","6113f79b1578d1c4f555e65a","C3","batch3","","808.3000000119209","stim/yes_17_dia_w1.png","f","pattern_response","true","f","pattern_45","808.3000000119209","true","61","","","","","","","","","","","","","","","","","","",""
"","","","","","html-keyboard-response","164","299797","0.0-2.0-7.0-0.32","6113f79b1578d1c4f555e65a","C3","batch3","","null","<p class=block-text>Trial 72 out of 78</p>","null","pattern_show_trial_num","","","","","","","","","","","","","","","","","","","","","","","","",""
"","","","","","image-keyboard-response","165","301354","0.0-2.0-7.0-1.32","6113f79b1578d1c4f555e65a","C3","batch3","","1555.7000000476837","stim/no_42_1_w.png","j","pattern_response","true","j","pattern_22","1555.7000000476837","true","62","","","","","","","","","","","","","","","","","","",""
"","","","","","html-keyboard-response","166","302669","0.0-2.0-7.0-0.33","6113f79b1578d1c4f555e65a","C3","batch3","","null","<p class=block-text>Trial 73 out of 78</p>","null","pattern_show_trial_num","","","","","","","","","","","","","","","","","","","","","","","","",""
"","","","","","image-keyboard-response","167","305886","0.0-2.0-7.0-1.33","6113f79b1578d1c4f555e65a","C3","batch3","","3214.900000035763","stim/no_55_1_w.png","j","pattern_response","true","j","pattern_34","3214.900000035763","true","63","","","","","","","","","","","","","","","","","","",""
"","","","","","html-keyboard-response","168","307197","0.0-2.0-7.0-0.34","6113f79b1578d1c4f555e65a","C3","batch3","","null","<p class=block-text>Trial 74 out of 78</p>","null","pattern_show_trial_num","","","","","","","","","","","","","","","","","","","","","","","","",""
"","","","","","image-keyboard-response","169","308749","0.0-2.0-7.0-1.34","6113f79b1578d1c4f555e65a","C3","batch3","","1550.199999988079","stim/no_32_1_w.png","j","pattern_response","true","j","pattern_14","1550.199999988079","true","64","","","","","","","","","","","","","","","","","","",""
"","","","","","html-keyboard-response","170","310061","0.0-2.0-7.0-0.35","6113f79b1578d1c4f555e65a","C3","batch3","","null","<p class=block-text>Trial 75 out of 78</p>","null","pattern_show_trial_num","","","","","","","","","","","","","","","","","","","","","","","","",""
"","","","","","image-keyboard-response","171","311017","0.0-2.0-7.0-1.35","6113f79b1578d1c4f555e65a","C3","batch3","","954.5","stim/yes_22_ver_w1.png","f","pattern_response","true","f","pattern_47","954.5","true","65","","","","","","","","","","","","","","","","","","",""
"","","","","","html-keyboard-response","172","312333","0.0-2.0-7.0-0.36","6113f79b1578d1c4f555e65a","C3","batch3","","null","<p class=block-text>Trial 76 out of 78</p>","null","pattern_show_trial_num","","","","","","","","","","","","","","","","","","","","","","","","",""
"","","","","","image-keyboard-response","173","313526","0.0-2.0-7.0-1.36","6113f79b1578d1c4f555e65a","C3","batch3","","1191.300000011921","stim/no_26_1_w.png","j","pattern_response","true","j","pattern_10","1191.300000011921","true","66","","","","","","","","","","","","","","","","","","",""
"","","","","","html-keyboard-response","174","314837","0.0-2.0-7.0-0.37","6113f79b1578d1c4f555e65a","C3","batch3","","null","<p class=block-text>Trial 77 out of 78</p>","null","pattern_show_trial_num","","","","","","","","","","","","","","","","","","","","","","","","",""
"","","","","","image-keyboard-response","175","317435","0.0-2.0-7.0-1.37","6113f79b1578d1c4f555e65a","C3","batch3","","2595.300000011921","stim/yes_40_dia_b1_b.png","f","pattern_response","true","f","pattern_63","2595.300000011921","true","67","","","","","","","","","","","","","","","","","","",""
"","","","","","html-keyboard-response","176","318749","0.0-2.0-7.0-0.38","6113f79b1578d1c4f555e65a","C3","batch3","","null","<p class=block-text>Trial 78 out of 78</p>","null","pattern_show_trial_num","","","","","","","","","","","","","","","","","","","","","","","","",""
"","","","","","image-keyboard-response","177","320508","0.0-2.0-7.0-1.38","6113f79b1578d1c4f555e65a","C3","batch3","","1756.800000011921","stim/no_20_1_w.png","j","pattern_response","true","j","pattern_06","1756.800000011921","true","68","","","","","","","","","","","","","","","","","","",""
"","","","","","html-button-response","178","325188","0.0-2.0-8.0","6113f79b1578d1c4f555e65a","C3","batch3","","4174.699999988079","<p class = block-text>This concludes the 4-in-a-row detection game.Thank you for your responses!<br>
            You responded correctly on 87% of the trials.<br>
            When you are ready, press ""Continue"" button to continue </p>","0","","","","","","","","","","","","","","","","","","","","","","","","","",""
"true","","","","","fullscreen","179","329437","0.0-3.0-0.0","6113f79b1578d1c4f555e65a","C3","batch3","","","","","spm_fullscreen","","","","","","","","","","","","","","","","","","","","","","","","",""
"","","","","","html-button-response","180","345919","0.0-3.0-1.0","6113f79b1578d1c4f555e65a","C3","batch3","","16480.19999998808","<p class = block-text><b>Instructions</b> <br>This is a widely used intelligence test in research. <br>In this test, a figure with a missing piece will be presented.<br>Below the figure are alternative pieces to complete the figure, only one of which is correct.<br> Different figures might involve different principles for obtaining the missing piece<br>Your job is to select the most logical piece to complete the figure.</p>","0","","","","","","","","","","","","","","","","","","","","","","","","","",""
"","","","","","html-keyboard-response","181","346725","0.0-3.0-2.0-0.0","6113f79b1578d1c4f555e65a","C3","batch3","","null","<p class=block-text>Trial 1 out of 60</p>","null","spm_show_trial_num","","","","","","","","","","","","","","","","","","","","","","","","",""
"","","","","","image-button-response","182","351345","0.0-3.0-2.0-1.0","6113f79b1578d1c4f555e65a","C3","batch3","","4616.099999964237","img/question_1_1.jpeg","3","spm_respsonse","1","4","mat_01","","","","","","1","4616.099999964237","","","","","","","","","","","","","","",""
"","","","","","html-keyboard-response","183","352405","0.0-3.0-2.0-0.1","6113f79b1578d1c4f555e65a","C3","batch3","","null","<p class=block-text>Trial 2 out of 60</p>","null","spm_show_trial_num","","","","","","","","","","","","","","","","","","","","","","","","",""
"","","","","","image-button-response","184","354531","0.0-3.0-2.0-1.1","6113f79b1578d1c4f555e65a","C3","batch3","","2123.2999999523163","img/question_1_2.jpeg","4","spm_respsonse","1","5","mat_02","","","","","","1","2123.2999999523163","","","","","","","","","","","","","","",""
"","","","","","html-keyboard-response","185","355596","0.0-3.0-2.0-0.2","6113f79b1578d1c4f555e65a","C3","batch3","","null","<p class=block-text>Trial 3 out of 60</p>","null","spm_show_trial_num","","","","","","","","","","","","","","","","","","","","","","","","",""
"","","","","","image-button-response","186","358190","0.0-3.0-2.0-1.2","6113f79b1578d1c4f555e65a","C3","batch3","","2591.300000011921","img/question_1_3.jpeg","0","spm_respsonse","1","1","mat_03","","","","","","1","2591.300000011921","","","","","","","","","","","","","","",""
"","","","","","html-keyboard-response","187","359253","0.0-3.0-2.0-0.3","6113f79b1578d1c4f555e65a","C3","batch3","","null","<p class=block-text>Trial 4 out of 60</p>","null","spm_show_trial_num","","","","","","","","","","","","","","","","","","","","","","","","",""
"","","","","","image-button-response","188","362600","0.0-3.0-2.0-1.3","6113f79b1578d1c4f555e65a","C3","batch3","","3344.600000023842","img/question_1_4.jpeg","1","spm_respsonse","1","2","mat_04","","","","","","1","3344.600000023842","","","","","","","","","","","","","","",""
"","","","","","html-keyboard-response","189","363661","0.0-3.0-2.0-0.4","6113f79b1578d1c4f555e65a","C3","batch3","","null","<p class=block-text>Trial 5 out of 60</p>","null","spm_show_trial_num","","","","","","","","","","","","","","","","","","","","","","","","",""
"","","","","","image-button-response","190","366955","0.0-3.0-2.0-1.4","6113f79b1578d1c4f555e65a","C3","batch3","","3291.100000023842","img/question_1_5.jpeg","5","spm_respsonse","1","6","mat_05","","","","","","1","3291.100000023842","","","","","","","","","","","","","","",""
"","","","","","html-keyboard-response","191","368021","0.0-3.0-2.0-0.5","6113f79b1578d1c4f555e65a","C3","batch3","","null","<p class=block-text>Trial 6 out of 60</p>","null","spm_show_trial_num","","","","","","","","","","","","","","","","","","","","","","","","",""
"","","","","","image-button-response","192","372620","0.0-3.0-2.0-1.5","6113f79b1578d1c4f555e65a","C3","batch3","","4596.399999976158","img/question_1_6.jpeg","2","spm_respsonse","1","3","mat_06","","","","","","1","4596.399999976158","","","","","","","","","","","","","","",""
"","","","","","html-keyboard-response","193","373685","0.0-3.0-2.0-0.6","6113f79b1578d1c4f555e65a","C3","batch3","","null","<p class=block-text>Trial 7 out of 60</p>","null","spm_show_trial_num","","","","","","","","","","","","","","","","","","","","","","","","",""
"","","","","","image-button-response","194","377878","0.0-3.0-2.0-1.6","6113f79b1578d1c4f555e65a","C3","batch3","","4190.399999976158","img/question_1_7.jpeg","5","spm_respsonse","1","6","mat_07","","","","","","1","4190.399999976158","","","","","","","","","","","","","","",""
"","","","","","html-keyboard-response","195","378941","0.0-3.0-2.0-0.7","6113f79b1578d1c4f555e65a","C3","batch3","","null","<p class=block-text>Trial 8 out of 60</p>","null","spm_show_trial_num","","","","","","","","","","","","","","","","","","","","","","","","",""
"","","","","","image-button-response","196","383607","0.0-3.0-2.0-1.7","6113f79b1578d1c4f555e65a","C3","batch3","","4663.400000035763","img/question_1_8.jpeg","1","spm_respsonse","1","2","mat_08","","","","","","1","4663.400000035763","","","","","","","","","","","","","","",""
"","","","","","html-keyboard-response","197","384669","0.0-3.0-2.0-0.8","6113f79b1578d1c4f555e65a","C3","batch3","","null","<p class=block-text>Trial 9 out of 60</p>","null","spm_show_trial_num","","","","","","","","","","","","","","","","","","","","","","","","",""
"","","","","","image-button-response","198","389053","0.0-3.0-2.0-1.8","6113f79b1578d1c4f555e65a","C3","batch3","","4381.300000011921","img/question_1_9.jpeg","0","spm_respsonse","1","1","mat_09","","","","","","1","4381.300000011921","","","","","","","","","","","","","","",""
"","","","","","html-keyboard-response","199","390117","0.0-3.0-2.0-0.9","6113f79b1578d1c4f555e65a","C3","batch3","","null","<p class=block-text>Trial 10 out of 60</p>","null","spm_show_trial_num","","","","","","","","","","","","","","","","","","","","","","","","",""
"","","","","","image-button-response","200","394053","0.0-3.0-2.0-1.9","6113f79b1578d1c4f555e65a","C3","batch3","","3933","img/question_1_10.jpeg","2","spm_respsonse","1","3","mat_10","","","","","","1","3933","","","","","","","","","","","","","","",""
"","","","","","html-keyboard-response","201","395117","0.0-3.0-2.0-0.10","6113f79b1578d1c4f555e65a","C3","batch3","","null","<p class=block-text>Trial 11 out of 60</p>","null","spm_show_trial_num","","","","","","","","","","","","","","","","","","","","","","","","",""
"","","","","","image-button-response","202","399828","0.0-3.0-2.0-1.10","6113f79b1578d1c4f555e65a","C3","batch3","","4708.300000011921","img/question_1_11.jpeg","3","spm_respsonse","1","4","mat_11","","","","","","1","4708.300000011921","","","","","","","","","","","","","","",""
"","","","","","html-keyboard-response","203","400893","0.0-3.0-2.0-0.11","6113f79b1578d1c4f555e65a","C3","batch3","","null","<p class=block-text>Trial 12 out of 60</p>","null","spm_show_trial_num","","","","","","","","","","","","","","","","","","","","","","","","",""
"","","","","","image-button-response","204","410321","0.0-3.0-2.0-1.11","6113f79b1578d1c4f555e65a","C3","batch3","","9424.699999988079","img/question_1_12.jpeg","4","spm_respsonse","1","5","mat_12","","","","","","1","9424.699999988079","","","","","","","","","","","","","","",""
"","","","","","html-keyboard-response","205","411381","0.0-3.0-2.0-0.12","6113f79b1578d1c4f555e65a","C3","batch3","","null","<p class=block-text>Trial 13 out of 60</p>","null","spm_show_trial_num","","","","","","","","","","","","","","","","","","","","","","","","",""
"","","","","","image-button-response","206","413762","0.0-3.0-2.0-1.12","6113f79b1578d1c4f555e65a","C3","batch3","","2377.899999976158","img/question_2_1.jpeg","1","spm_respsonse","1","2","mat_13","","","","","","1","2377.899999976158","","","","","","","","","","","","","","",""
"","","","","","html-keyboard-response","207","414829","0.0-3.0-2.0-0.13","6113f79b1578d1c4f555e65a","C3","batch3","","null","<p class=block-text>Trial 14 out of 60</p>","null","spm_show_trial_num","","","","","","","","","","","","","","","","","","","","","","","","",""
"","","","","","image-button-response","208","418396","0.0-3.0-2.0-1.13","6113f79b1578d1c4f555e65a","C3","batch3","","3563.699999988079","img/question_2_2.jpeg","5","spm_respsonse","1","6","mat_14","","","","","","1","3563.699999988079","","","","","","","","","","","","","","",""
"","","","","","html-keyboard-response","209","419461","0.0-3.0-2.0-0.14","6113f79b1578d1c4f555e65a","C3","batch3","","null","<p class=block-text>Trial 15 out of 60</p>","null","spm_show_trial_num","","","","","","","","","","","","","","","","","","","","","","","","",""
"","","","","","image-button-response","210","422661","0.0-3.0-2.0-1.14","6113f79b1578d1c4f555e65a","C3","batch3","","3196.699999988079","img/question_2_3.jpeg","0","spm_respsonse","1","1","mat_15","","","","","","1","3196.699999988079","","","","","","","","","","","","","","",""
"","","","","","html-keyboard-response","211","423725","0.0-3.0-2.0-0.15","6113f79b1578d1c4f555e65a","C3","batch3","","null","<p class=block-text>Trial 16 out of 60</p>","null","spm_show_trial_num","","","","","","","","","","","","","","","","","","","","","","","","",""
"","","","","","image-button-response","212","428663","0.0-3.0-2.0-1.15","6113f79b1578d1c4f555e65a","C3","batch3","","4935.100000023842","img/question_2_4.jpeg","1","spm_respsonse","1","2","mat_16","","","","","","1","4935.100000023842","","","","","","","","","","","","","","",""
"","","","","","html-keyboard-response","213","429725","0.0-3.0-2.0-0.16","6113f79b1578d1c4f555e65a","C3","batch3","","null","<p class=block-text>Trial 17 out of 60</p>","null","spm_show_trial_num","","","","","","","","","","","","","","","","","","","","","","","","",""
"","","","","","image-button-response","214","432912","0.0-3.0-2.0-1.16","6113f79b1578d1c4f555e65a","C3","batch3","","3184.399999976158","img/question_2_5.jpeg","0","spm_respsonse","1","1","mat_17","","","","","","1","3184.399999976158","","","","","","","","","","","","","","",""
"","","","","","html-keyboard-response","215","433973","0.0-3.0-2.0-0.17","6113f79b1578d1c4f555e65a","C3","batch3","","null","<p class=block-text>Trial 18 out of 60</p>","null","spm_show_trial_num","","","","","","","","","","","","","","","","","","","","","","","","",""
"","","","","","image-button-response","216","443840","0.0-3.0-2.0-1.17","6113f79b1578d1c4f555e65a","C3","batch3","","9864","img/question_2_6.jpeg","2","spm_respsonse","1","3","mat_18","","","","","","1","9864","","","","","","","","","","","","","","",""
"","","","","","html-keyboard-response","217","444901","0.0-3.0-2.0-0.18","6113f79b1578d1c4f555e65a","C3","batch3","","null","<p class=block-text>Trial 19 out of 60</p>","null","spm_show_trial_num","","","","","","","","","","","","","","","","","","","","","","","","",""
"","","","","","image-button-response","218","450202","0.0-3.0-2.0-1.18","6113f79b1578d1c4f555e65a","C3","batch3","","5297.800000011921","img/question_2_7.jpeg","4","spm_respsonse","1","5","mat_19","","","","","","1","5297.800000011921","","","","","","","","","","","","","","",""
"","","","","","html-keyboard-response","219","451270","0.0-3.0-2.0-0.19","6113f79b1578d1c4f555e65a","C3","batch3","","null","<p class=block-text>Trial 20 out of 60</p>","null","spm_show_trial_num","","","","","","","","","","","","","","","","","","","","","","","","",""
"","","","","","image-button-response","220","458060","0.0-3.0-2.0-1.19","6113f79b1578d1c4f555e65a","C3","batch3","","6787.800000011921","img/question_2_8.jpeg","5","spm_respsonse","1","6","mat_20","","","","","","1","6787.800000011921","","","","","","","","","","","","","","",""
"","","","","","html-keyboard-response","221","459126","0.0-3.0-2.0-0.20","6113f79b1578d1c4f555e65a","C3","batch3","","null","<p class=block-text>Trial 21 out of 60</p>","null","spm_show_trial_num","","","","","","","","","","","","","","","","","","","","","","","","",""
"","","","","","image-button-response","222","462624","0.0-3.0-2.0-1.20","6113f79b1578d1c4f555e65a","C3","batch3","","3495.199999988079","img/question_2_9.jpeg","3","spm_respsonse","1","4","mat_21","","","","","","1","3495.199999988079","","","","","","","","","","","","","","",""
"","","","","","html-keyboard-response","223","463686","0.0-3.0-2.0-0.21","6113f79b1578d1c4f555e65a","C3","batch3","","null","<p class=block-text>Trial 22 out of 60</p>","null","spm_show_trial_num","","","","","","","","","","","","","","","","","","","","","","","","",""
"","","","","","image-button-response","224","470152","0.0-3.0-2.0-1.21","6113f79b1578d1c4f555e65a","C3","batch3","","6464.099999964237","img/question_2_10.jpeg","2","spm_respsonse","1","3","mat_22","","","","","","1","6464.099999964237","","","","","","","","","","","","","","",""
"","","","","","html-keyboard-response","225","471214","0.0-3.0-2.0-0.22","6113f79b1578d1c4f555e65a","C3","batch3","","null","<p class=block-text>Trial 23 out of 60</p>","null","spm_show_trial_num","","","","","","","","","","","","","","","","","","","","","","","","",""
"","","","","","image-button-response","226","474620","0.0-3.0-2.0-1.22","6113f79b1578d1c4f555e65a","C3","batch3","","3403.599999964237","img/question_2_11.jpeg","3","spm_respsonse","1","4","mat_23","","","","","","1","3403.599999964237","","","","","","","","","","","","","","",""
"","","","","","html-keyboard-response","227","475686","0.0-3.0-2.0-0.23","6113f79b1578d1c4f555e65a","C3","batch3","","null","<p class=block-text>Trial 24 out of 60</p>","null","spm_show_trial_num","","","","","","","","","","","","","","","","","","","","","","","","",""
"","","","","","image-button-response","228","483804","0.0-3.0-2.0-1.23","6113f79b1578d1c4f555e65a","C3","batch3","","8115.5","img/question_2_12.jpeg","4","spm_respsonse","1","5","mat_24","","","","","","1","8115.5","","","","","","","","","","","","","","",""
"","","","","","html-button-response","229","485811","0.0-3.0-3.0","6113f79b1578d1c4f555e65a","C3","batch3","","1747.9000000357628","<p class = block-text>Attention check: Please choose 1<br></p>","0","attention_check","true","","","","","","","","","","","","","","","","","","","","","","","",""
"","","","","","html-keyboard-response","230","486613","0.0-3.0-4.0-0.0","6113f79b1578d1c4f555e65a","C3","batch3","","null","<p class=block-text>Trial 25 out of 60</p>","null","spm_show_trial_num","","","","","","","","","","","","","","","","","","","","","","","","",""
"","","","","","image-button-response","231","493053","0.0-3.0-4.0-1.0","6113f79b1578d1c4f555e65a","C3","batch3","","6435.399999976158","img/question_3_1.jpeg","7","spm_respsonse","1","8","mat_25","","","","","","1","6435.399999976158","","","","","","","","","","","","","","",""
"","","","","","html-keyboard-response","232","494118","0.0-3.0-4.0-0.1","6113f79b1578d1c4f555e65a","C3","batch3","","null","<p class=block-text>Trial 26 out of 60</p>","null","spm_show_trial_num","","","","","","","","","","","","","","","","","","","","","","","","",""
"","","","","","image-button-response","233","500791","0.0-3.0-4.0-1.1","6113f79b1578d1c4f555e65a","C3","batch3","","6670.900000035763","img/question_3_2.jpeg","1","spm_respsonse","1","2","mat_26","","","","","","1","6670.900000035763","","","","","","","","","","","","","","",""
"","","","","","html-keyboard-response","234","501854","0.0-3.0-4.0-0.2","6113f79b1578d1c4f555e65a","C3","batch3","","null","<p class=block-text>Trial 27 out of 60</p>","null","spm_show_trial_num","","","","","","","","","","","","","","","","","","","","","","","","",""
"","","","","","image-button-response","235","509003","0.0-3.0-4.0-1.2","6113f79b1578d1c4f555e65a","C3","batch3","","7145.800000011921","img/question_3_3.jpeg","2","spm_respsonse","1","3","mat_27","","","","","","1","7145.800000011921","","","","","","","","","","","","","","",""
"","","","","","html-keyboard-response","236","510070","0.0-3.0-4.0-0.3","6113f79b1578d1c4f555e65a","C3","batch3","","null","<p class=block-text>Trial 28 out of 60</p>","null","spm_show_trial_num","","","","","","","","","","","","","","","","","","","","","","","","",""
"","","","","","image-button-response","237","525221","0.0-3.0-4.0-1.3","6113f79b1578d1c4f555e65a","C3","batch3","","15148.400000035763","img/question_3_4.jpeg","2","spm_respsonse","0","8","mat_28","","","","","","0","15148.400000035763","","","","","","","","","","","","","","",""
"","","","","","html-keyboard-response","238","526286","0.0-3.0-4.0-0.4","6113f79b1578d1c4f555e65a","C3","batch3","","null","<p class=block-text>Trial 29 out of 60</p>","null","spm_show_trial_num","","","","","","","","","","","","","","","","","","","","","","","","",""
"","","","","","image-button-response","239","540354","0.0-3.0-4.0-1.4","6113f79b1578d1c4f555e65a","C3","batch3","","14065.100000023842","img/question_3_5.jpeg","6","spm_respsonse","1","7","mat_29","","","","","","1","14065.100000023842","","","","","","","","","","","","","","",""
"","","","","","html-keyboard-response","240","541414","0.0-3.0-4.0-0.5","6113f79b1578d1c4f555e65a","C3","batch3","","null","<p class=block-text>Trial 30 out of 60</p>","null","spm_show_trial_num","","","","","","","","","","","","","","","","","","","","","","","","",""
"","","","","","image-button-response","241","552680","0.0-3.0-4.0-1.5","6113f79b1578d1c4f555e65a","C3","batch3","","11263","img/question_3_6.jpeg","3","spm_respsonse","1","4","mat_30","","","","","","1","11263","","","","","","","","","","","","","","",""
"","","","","","html-keyboard-response","242","553742","0.0-3.0-4.0-0.6","6113f79b1578d1c4f555e65a","C3","batch3","","null","<p class=block-text>Trial 31 out of 60</p>","null","spm_show_trial_num","","","","","","","","","","","","","","","","","","","","","","","","",""
"","","","","","image-button-response","243","559480","0.0-3.0-4.0-1.6","6113f79b1578d1c4f555e65a","C3","batch3","","5735.400000035763","img/question_3_7.jpeg","4","spm_respsonse","1","5","mat_31","","","","","","1","5735.400000035763","","","","","","","","","","","","","","",""
"","","","","","html-keyboard-response","244","560542","0.0-3.0-4.0-0.7","6113f79b1578d1c4f555e65a","C3","batch3","","null","<p class=block-text>Trial 32 out of 60</p>","null","spm_show_trial_num","","","","","","","","","","","","","","","","","","","","","","","","",""
"","","","","","image-button-response","245","564505","0.0-3.0-4.0-1.7","6113f79b1578d1c4f555e65a","C3","batch3","","3958.900000035763","img/question_3_8.jpeg","0","spm_respsonse","1","1","mat_32","","","","","","1","3958.900000035763","","","","","","","","","","","","","","",""
"","","","","","html-keyboard-response","246","565566","0.0-3.0-4.0-0.8","6113f79b1578d1c4f555e65a","C3","batch3","","null","<p class=block-text>Trial 33 out of 60</p>","null","spm_show_trial_num","","","","","","","","","","","","","","","","","","","","","","","","",""
"","","","","","image-button-response","247","572885","0.0-3.0-4.0-1.8","6113f79b1578d1c4f555e65a","C3","batch3","","7316","img/question_3_9.jpeg","6","spm_respsonse","1","7","mat_33","","","","","","1","7316","","","","","","","","","","","","","","",""
"","","","","","html-keyboard-response","248","573950","0.0-3.0-4.0-0.9","6113f79b1578d1c4f555e65a","C3","batch3","","null","<p class=block-text>Trial 34 out of 60</p>","null","spm_show_trial_num","","","","","","","","","","","","","","","","","","","","","","","","",""
"","","","","","image-button-response","249","631878","0.0-3.0-4.0-1.9","6113f79b1578d1c4f555e65a","C3","batch3","","57924.40000003576","img/question_3_10.jpeg","7","spm_respsonse","0","6","mat_34","","","","","","0","57924.40000003576","","","","","","","","","","","","","","",""
"","","","","","html-keyboard-response","250","632942","0.0-3.0-4.0-0.10","6113f79b1578d1c4f555e65a","C3","batch3","","null","<p class=block-text>Trial 35 out of 60</p>","null","spm_show_trial_num","","","","","","","","","","","","","","","","","","","","","","","","",""
"","","","","","image-button-response","251","663578","0.0-3.0-4.0-1.10","6113f79b1578d1c4f555e65a","C3","batch3","","30633.599999964237","img/question_3_11.jpeg","0","spm_respsonse","1","1","mat_35","","","","","","1","30633.599999964237","","","","","","","","","","","","","","",""
"","","","","","html-keyboard-response","252","664638","0.0-3.0-4.0-0.11","6113f79b1578d1c4f555e65a","C3","batch3","","null","<p class=block-text>Trial 36 out of 60</p>","null","spm_show_trial_num","","","","","","","","","","","","","","","","","","","","","","","","",""
"","","","","","image-button-response","253","682883","0.0-3.0-4.0-1.11","6113f79b1578d1c4f555e65a","C3","batch3","","18242","img/question_3_12.jpeg","1","spm_respsonse","1","2","mat_36","","","","","","1","18242","","","","","","","","","","","","","","",""
"","","","","","html-keyboard-response","254","683943","0.0-3.0-4.0-0.12","6113f79b1578d1c4f555e65a","C3","batch3","","null","<p class=block-text>Trial 37 out of 60</p>","null","spm_show_trial_num","","","","","","","","","","","","","","","","","","","","","","","","",""
"","","","","","image-button-response","255","686876","0.0-3.0-4.0-1.12","6113f79b1578d1c4f555e65a","C3","batch3","","2930.100000023842","img/question_4_1.jpeg","2","spm_respsonse","1","3","mat_37","","","","","","1","2930.100000023842","","","","","","","","","","","","","","",""
"","","","","","html-keyboard-response","256","687943","0.0-3.0-4.0-0.13","6113f79b1578d1c4f555e65a","C3","batch3","","null","<p class=block-text>Trial 38 out of 60</p>","null","spm_show_trial_num","","","","","","","","","","","","","","","","","","","","","","","","",""
"","","","","","image-button-response","257","693628","0.0-3.0-4.0-1.13","6113f79b1578d1c4f555e65a","C3","batch3","","5681.899999976158","img/question_4_2.jpeg","3","spm_respsonse","1","4","mat_38","","","","","","1","5681.899999976158","","","","","","","","","","","","","","",""
"","","","","","html-keyboard-response","258","694695","0.0-3.0-4.0-0.14","6113f79b1578d1c4f555e65a","C3","batch3","","null","<p class=block-text>Trial 39 out of 60</p>","null","spm_show_trial_num","","","","","","","","","","","","","","","","","","","","","","","","",""
"","","","","","image-button-response","259","702751","0.0-3.0-4.0-1.14","6113f79b1578d1c4f555e65a","C3","batch3","","8053","img/question_4_3.jpeg","2","spm_respsonse","1","3","mat_39","","","","","","1","8053","","","","","","","","","","","","","","",""
"","","","","","html-keyboard-response","260","703815","0.0-3.0-4.0-0.15","6113f79b1578d1c4f555e65a","C3","batch3","","null","<p class=block-text>Trial 40 out of 60</p>","null","spm_show_trial_num","","","","","","","","","","","","","","","","","","","","","","","","",""
"","","","","","image-button-response","261","709914","0.0-3.0-4.0-1.15","6113f79b1578d1c4f555e65a","C3","batch3","","6095.100000023842","img/question_4_4.jpeg","6","spm_respsonse","1","7","mat_40","","","","","","1","6095.100000023842","","","","","","","","","","","","","","",""
"","","","","","html-keyboard-response","262","710975","0.0-3.0-4.0-0.16","6113f79b1578d1c4f555e65a","C3","batch3","","null","<p class=block-text>Trial 41 out of 60</p>","null","spm_show_trial_num","","","","","","","","","","","","","","","","","","","","","","","","",""
"","","","","","image-button-response","263","721360","0.0-3.0-4.0-1.16","6113f79b1578d1c4f555e65a","C3","batch3","","10383.099999964237","img/question_4_5.jpeg","7","spm_respsonse","1","8","mat_41","","","","","","1","10383.099999964237","","","","","","","","","","","","","","",""
"","","","","","html-keyboard-response","264","722423","0.0-3.0-4.0-0.17","6113f79b1578d1c4f555e65a","C3","batch3","","null","<p class=block-text>Trial 42 out of 60</p>","null","spm_show_trial_num","","","","","","","","","","","","","","","","","","","","","","","","",""
"","","","","","image-button-response","265","733777","0.0-3.0-4.0-1.17","6113f79b1578d1c4f555e65a","C3","batch3","","11351.100000023842","img/question_4_6.jpeg","5","spm_respsonse","1","6","mat_42","","","","","","1","11351.100000023842","","","","","","","","","","","","","","",""
"","","","","","html-keyboard-response","266","734839","0.0-3.0-4.0-0.18","6113f79b1578d1c4f555e65a","C3","batch3","","null","<p class=block-text>Trial 43 out of 60</p>","null","spm_show_trial_num","","","","","","","","","","","","","","","","","","","","","","","","",""
"","","","","","image-button-response","267","748748","0.0-3.0-4.0-1.18","6113f79b1578d1c4f555e65a","C3","batch3","","13905.599999964237","img/question_4_7.jpeg","4","spm_respsonse","1","5","mat_43","","","","","","1","13905.599999964237","","","","","","","","","","","","","","",""
"","","","","","html-keyboard-response","268","749807","0.0-3.0-4.0-0.19","6113f79b1578d1c4f555e65a","C3","batch3","","null","<p class=block-text>Trial 44 out of 60</p>","null","spm_show_trial_num","","","","","","","","","","","","","","","","","","","","","","","","",""
"","","","","","image-button-response","269","761893","0.0-3.0-4.0-1.19","6113f79b1578d1c4f555e65a","C3","batch3","","12082.599999964237","img/question_4_8.jpeg","3","spm_respsonse","1","4","mat_44","","","","","","1","12082.599999964237","","","","","","","","","","","","","","",""
"","","","","","html-keyboard-response","270","762960","0.0-3.0-4.0-0.20","6113f79b1578d1c4f555e65a","C3","batch3","","null","<p class=block-text>Trial 45 out of 60</p>","null","spm_show_trial_num","","","","","","","","","","","","","","","","","","","","","","","","",""
"","","","","","image-button-response","271","780684","0.0-3.0-4.0-1.20","6113f79b1578d1c4f555e65a","C3","batch3","","17748.30000001192","img/question_4_9.jpeg","0","spm_respsonse","1","1","mat_45","","","","","","1","17748.30000001192","","","","","","","","","","","","","","",""
"","","","","","html-keyboard-response","272","781748","0.0-3.0-4.0-0.21","6113f79b1578d1c4f555e65a","C3","batch3","","null","<p class=block-text>Trial 46 out of 60</p>","null","spm_show_trial_num","","","","","","","","","","","","","","","","","","","","","","","","",""
"","","","","","image-button-response","273","794919","0.0-3.0-4.0-1.21","6113f79b1578d1c4f555e65a","C3","batch3","","13176.699999988079","img/question_4_10.jpeg","1","spm_respsonse","1","2","mat_46","","","","","","1","13176.699999988079","","","","","","","","","","","","","","",""
"","","","","","html-keyboard-response","274","795979","0.0-3.0-4.0-0.22","6113f79b1578d1c4f555e65a","C3","batch3","","null","<p class=block-text>Trial 47 out of 60</p>","null","spm_show_trial_num","","","","","","","","","","","","","","","","","","","","","","","","",""
"","","","","","image-button-response","275","831814","0.0-3.0-4.0-1.22","6113f79b1578d1c4f555e65a","C3","batch3","","35838.10000002384","img/question_4_11.jpeg","4","spm_respsonse","1","5","mat_47","","","","","","1","35838.10000002384","","","","","","","","","","","","","","",""
"","","","","","html-keyboard-response","276","832877","0.0-3.0-4.0-0.23","6113f79b1578d1c4f555e65a","C3","batch3","","null","<p class=block-text>Trial 48 out of 60</p>","null","spm_show_trial_num","","","","","","","","","","","","","","","","","","","","","","","","",""
"","","","","","image-button-response","277","868833","0.0-3.0-4.0-1.23","6113f79b1578d1c4f555e65a","C3","batch3","","35954.60000002384","img/question_4_12.jpeg","5","spm_respsonse","1","6","mat_48","","","","","","1","35954.60000002384","","","","","","","","","","","","","","",""
"","","","","","html-keyboard-response","278","869900","0.0-3.0-4.0-0.24","6113f79b1578d1c4f555e65a","C3","batch3","","null","<p class=block-text>Trial 49 out of 60</p>","null","spm_show_trial_num","","","","","","","","","","","","","","","","","","","","","","","","",""
"","","","","","image-button-response","279","882566","0.0-3.0-4.0-1.24","6113f79b1578d1c4f555e65a","C3","batch3","","12663.5","img/question_5_1.jpeg","6","spm_respsonse","1","7","mat_49","","","","","","1","12663.5","","","","","","","","","","","","","","",""
"","","","","","html-keyboard-response","280","883628","0.0-3.0-4.0-0.25","6113f79b1578d1c4f555e65a","C3","batch3","","null","<p class=block-text>Trial 50 out of 60</p>","null","spm_show_trial_num","","","","","","","","","","","","","","","","","","","","","","","","",""
"","","","","","image-button-response","281","900555","0.0-3.0-4.0-1.25","6113f79b1578d1c4f555e65a","C3","batch3","","16925","img/question_5_2.jpeg","5","spm_respsonse","1","6","mat_50","","","","","","1","16925","","","","","","","","","","","","","","",""
"","","","","","html-keyboard-response","282","901619","0.0-3.0-4.0-0.26","6113f79b1578d1c4f555e65a","C3","batch3","","null","<p class=block-text>Trial 51 out of 60</p>","null","spm_show_trial_num","","","","","","","","","","","","","","","","","","","","","","","","",""
"","","","","","image-button-response","283","936423","0.0-3.0-4.0-1.26","6113f79b1578d1c4f555e65a","C3","batch3","","34801.299999952316","img/question_5_3.jpeg","7","spm_respsonse","1","8","mat_51","","","","","","1","34801.299999952316","","","","","","","","","","","","","","",""
"","","","","","html-keyboard-response","284","937483","0.0-3.0-4.0-0.27","6113f79b1578d1c4f555e65a","C3","batch3","","null","<p class=block-text>Trial 52 out of 60</p>","null","spm_show_trial_num","","","","","","","","","","","","","","","","","","","","","","","","",""
"","","","","","image-button-response","285","1002267","0.0-3.0-4.0-1.27","6113f79b1578d1c4f555e65a","C3","batch3","","64782.5","img/question_5_4.jpeg","1","spm_respsonse","1","2","mat_52","","","","","","1","64782.5","","","","","","","","","","","","","","",""
"","","","","","html-keyboard-response","286","1003330","0.0-3.0-4.0-0.28","6113f79b1578d1c4f555e65a","C3","batch3","","null","<p class=block-text>Trial 53 out of 60</p>","null","spm_show_trial_num","","","","","","","","","","","","","","","","","","","","","","","","",""
"","","","","","image-button-response","287","1015455","0.0-3.0-4.0-1.28","6113f79b1578d1c4f555e65a","C3","batch3","","12122.699999988079","img/question_5_5.jpeg","0","spm_respsonse","1","1","mat_53","","","","","","1","12122.699999988079","","","","","","","","","","","","","","",""
"","","","","","html-keyboard-response","288","1016521","0.0-3.0-4.0-0.29","6113f79b1578d1c4f555e65a","C3","batch3","","null","<p class=block-text>Trial 54 out of 60</p>","null","spm_show_trial_num","","","","","","","","","","","","","","","","","","","","","","","","",""
"","","","","","image-button-response","289","1037741","0.0-3.0-4.0-1.29","6113f79b1578d1c4f555e65a","C3","batch3","","21217.600000023842","img/question_5_6.jpeg","4","spm_respsonse","1","5","mat_54","","","","","","1","21217.600000023842","","","","","","","","","","","","","","",""
"","","","","","html-keyboard-response","290","1038809","0.0-3.0-4.0-0.30","6113f79b1578d1c4f555e65a","C3","batch3","","null","<p class=block-text>Trial 55 out of 60</p>","null","spm_show_trial_num","","","","","","","","","","","","","","","","","","","","","","","","",""
"","","","","","image-button-response","291","1061686","0.0-3.0-4.0-1.30","6113f79b1578d1c4f555e65a","C3","batch3","","22874.19999998808","img/question_5_7.jpeg","0","spm_respsonse","1","1","mat_55","","","","","","1","22874.19999998808","","","","","","","","","","","","","","",""
"","","","","","html-keyboard-response","292","1062753","0.0-3.0-4.0-0.31","6113f79b1578d1c4f555e65a","C3","batch3","","null","<p class=block-text>Trial 56 out of 60</p>","null","spm_show_trial_num","","","","","","","","","","","","","","","","","","","","","","","","",""
"","","","","","image-button-response","293","1079004","0.0-3.0-4.0-1.31","6113f79b1578d1c4f555e65a","C3","batch3","","16248.600000023842","img/question_5_8.jpeg","5","spm_respsonse","1","6","mat_56","","","","","","1","16248.600000023842","","","","","","","","","","","","","","",""
"","","","","","html-keyboard-response","294","1080064","0.0-3.0-4.0-0.32","6113f79b1578d1c4f555e65a","C3","batch3","","null","<p class=block-text>Trial 57 out of 60</p>","null","spm_show_trial_num","","","","","","","","","","","","","","","","","","","","","","","","",""
"","","","","","image-button-response","295","1129821","0.0-3.0-4.0-1.32","6113f79b1578d1c4f555e65a","C3","batch3","","49754.69999998808","img/question_5_9.jpeg","2","spm_respsonse","1","3","mat_57","","","","","","1","49754.69999998808","","","","","","","","","","","","","","",""
"","","","","","html-keyboard-response","296","1130887","0.0-3.0-4.0-0.33","6113f79b1578d1c4f555e65a","C3","batch3","","null","<p class=block-text>Trial 58 out of 60</p>","null","spm_show_trial_num","","","","","","","","","","","","","","","","","","","","","","","","",""
"","","","","","image-button-response","297","1205942","0.0-3.0-4.0-1.33","6113f79b1578d1c4f555e65a","C3","batch3","","75053.19999998808","img/question_5_10.jpeg","1","spm_respsonse","1","2","mat_58","","","","","","1","75053.19999998808","","","","","","","","","","","","","","",""
"","","","","","html-keyboard-response","298","1207006","0.0-3.0-4.0-0.34","6113f79b1578d1c4f555e65a","C3","batch3","","null","<p class=block-text>Trial 59 out of 60</p>","null","spm_show_trial_num","","","","","","","","","","","","","","","","","","","","","","","","",""
"","","","","","image-button-response","299","1300678","0.0-3.0-4.0-1.34","6113f79b1578d1c4f555e65a","C3","batch3","","93671.30000001192","img/question_5_11.jpeg","0","spm_respsonse","0","4","mat_59","","","","","","0","93671.30000001192","","","","","","","","","","","","","","",""
"","","","","","html-keyboard-response","300","1301740","0.0-3.0-4.0-0.35","6113f79b1578d1c4f555e65a","C3","batch3","","null","<p class=block-text>Trial 60 out of 60</p>","null","spm_show_trial_num","","","","","","","","","","","","","","","","","","","","","","","","",""
"","","","","","image-button-response","301","1354094","0.0-3.0-4.0-1.35","6113f79b1578d1c4f555e65a","C3","batch3","","52352.10000002384","img/question_5_12.jpeg","2","spm_respsonse","0","5","mat_60","","","","","","0","52352.10000002384","","","","","","","","","","","","","","",""
"","","","","","html-button-response","302","1356134","0.0-3.0-5.0","6113f79b1578d1c4f555e65a","C3","batch3","","1786.5","<p class= block-text>This concludes the Standard Progressive Matrix game. Thank you for your responses!<br> When you are ready, click the button continue</p>","0","spm_goodbye","","","","","","","","","","","","","","","","","","","","","","","","",""
"true","","","","","fullscreen","303","1399011","0.0-4.0-0.0","6113f79b1578d1c4f555e65a","C3","batch3","","","","","","","","","","","","","","","","","","","","","","","","","","","","","",""
"","","","","","instructions","304","1486868","0.0-4.0-1.0-0.0-0.0","6113f79b1578d1c4f555e65a","C3","batch3","[{""page_index"":0,""viewing_time"":37299},{""page_index"":1,""viewing_time"":4485},{""page_index"":2,""viewing_time"":4059},{""page_index"":3,""viewing_time"":10251.400000035763},{""page_index"":4,""viewing_time"":14308.599999964237},{""page_index"":5,""viewing_time"":13635.700000047684},{""page_index"":6,""viewing_time"":3818.899999976158}]","87858.10000002384","","","tol-instructions","","","","","","","","","","","","","","","","","","","","","","","","",""
"","","","","","html-button-response","305","1487922","0.0-4.0-1.0-1.0-0.0","6113f79b1578d1c4f555e65a","C3","batch3","","1052.300000011921","<p class=block-text> Let's answer a few questions <br>","0","tol_enter_quiz","","","","","","","","","","","","","","","","","","","","","","","","",""
"","","","","","html-button-response","306","1491524","0.0-4.0-1.0-1.0-1.0","6113f79b1578d1c4f555e65a","C3","batch3","","3568.5","<p class = block-text>True or False: You can only move the ball on top of a peg. <br></p>","0","tol_quiz","true","","","","","","","","","","","","","","","","","","","","","","","",""
"","","","","","html-button-response","307","1492546","0.0-4.0-1.0-1.0-2.0","6113f79b1578d1c4f555e65a","C3","batch3","","1018.9000000357628","<p class = block-text>Correct! You can only move the ball on top of a peg.</p>","0","tol_quiz_feedback","","","","","","","","","","","","","","","","","","","","","","","","",""
"","","","","","html-button-response","308","1495945","0.0-4.0-1.0-1.0-3.0","6113f79b1578d1c4f555e65a","C3","batch3","","3397.300000011921","<p class = block-text>True or False: You should try to match your board with the target board with fewest moves possible. <br></p>","0","tol_quiz","true","","","","","","","","","","","","","","","","","","","","","","","",""
"","","","","","html-button-response","309","1496586","0.0-4.0-1.0-1.0-4.0","6113f79b1578d1c4f555e65a","C3","batch3","","639.8999999761581","<p class = block-text>Correct! </p>","0","tol_quiz_feedback","","","","","","","","","","","","","","","","","","","","","","","","",""
"","","","","","html-button-response","310","1497984","0.0-4.0-2.0","6113f79b1578d1c4f555e65a","C3","batch3","","1395","<p class=block-text> Now that you've understood the game, let's practice a few easier examples before we start!<br> <br>","0","","","","","","","","","","","","","","","","","","","","","","","","","",""
"","","","","","single-stim-button","311","1500192","0.0-4.0-3.0-0.0","6113f79b1578d1c4f555e65a","C3","batch3","","2205","","","tol_practice","","","","","","","","","","","tol_peg_2","2205","2205","0","[[1,2,0],[0,0],[0]]","1","[[1,2,0],[0,0],[3]]","practice","2205","","","","","",""
"","","","","","single-stim-button","312","1501663","0.0-4.0-3.0-1.0","6113f79b1578d1c4f555e65a","C3","batch3","","1469","","","tol_practice","","","","","","","","","","","tol_peg_3","1469","1469","0","[[1,2,0],[0,0],[3]]","1","[[1,2,0],[0,0],[3]]","practice","1469","","","","","",""
"","","","","","poldrack-single-stim","313","1502673","0.0-4.0-4.0","6113f79b1578d1c4f555e65a","C3","batch3","","-1","","","tol_feedback","true","","","","","","","","","","","1000","1000","500","","","","","","-1","none","true","","0",""
"","","","","","single-stim-button","314","1507333","0.0-4.0-5.0-0.0","6113f79b1578d1c4f555e65a","C3","batch3","","4658","","","tol_practice","","","","","","","","","","","tol_peg_1","4658","4658","0","[[1,0,0],[3,0],[0]]","2","[[0,0,0],[3,1],[2]]","practice","4658","","","","","",""
"","","","","","single-stim-button","315","1508774","0.0-4.0-5.0-1.0","6113f79b1578d1c4f555e65a","C3","batch3","","1441","","","tol_practice","","","","","","","","","","","tol_peg_3","1441","1441","0","[[1,0,0],[3,0],[2]]","2","[[0,0,0],[3,1],[2]]","practice","1441","","","","","",""
"","","","","","single-stim-button","316","1510050","0.0-4.0-5.1-0.1","6113f79b1578d1c4f555e65a","C3","batch3","","1275","","","tol_practice","","","","","","","","","","","tol_peg_1","1275","1275","0","[[0,0,0],[3,0],[2]]","3","[[0,0,0],[3,1],[2]]","practice","1275","","","","","",""
"","","","","","single-stim-button","317","1511221","0.0-4.0-5.1-1.1","6113f79b1578d1c4f555e65a","C3","batch3","","1170","","","tol_practice","","","","","","","","","","","tol_peg_2","1170","1170","0","[[0,0,0],[3,1],[2]]","3","[[0,0,0],[3,1],[2]]","practice","1170","","","","","",""
"","","","","","poldrack-single-stim","318","1512225","0.0-4.0-6.0","6113f79b1578d1c4f555e65a","C3","batch3","","-1","","","tol_feedback","true","","","","","","","","","","","1000","1000","500","","","","","","-1","none","true","","0",""
"","","","","","single-stim-button","319","1514678","0.0-4.0-7.0-0.0","6113f79b1578d1c4f555e65a","C3","batch3","","2451","","","tol_practice","","","","","","","","","","","tol_peg_2","2451","2451","0","[[1,2,0],[0,0],[0]]","4","[[1,0,0],[2,0],[3]]","practice","2451","","","","","",""
"","","","","","single-stim-button","320","1515719","0.0-4.0-7.0-1.0","6113f79b1578d1c4f555e65a","C3","batch3","","1041","","","tol_practice","","","","","","","","","","","tol_peg_3","1041","1041","0","[[1,2,0],[0,0],[3]]","4","[[1,0,0],[2,0],[3]]","practice","1041","","","","","",""
"","","","","","single-stim-button","321","1516701","0.0-4.0-7.1-0.1","6113f79b1578d1c4f555e65a","C3","batch3","","980","","","tol_practice","","","","","","","","","","","tol_peg_1","980","980","0","[[1,0,0],[0,0],[3]]","5","[[1,0,0],[2,0],[3]]","practice","980","","","","","",""
"","","","","","single-stim-button","322","1517629","0.0-4.0-7.1-1.1","6113f79b1578d1c4f555e65a","C3","batch3","","927","","","tol_practice","","","","","","","","","","","tol_peg_2","927","927","0","[[1,0,0],[2,0],[3]]","5","[[1,0,0],[2,0],[3]]","practice","927","","","","","",""
"","","","","","poldrack-single-stim","323","1518633","0.0-4.0-8.0","6113f79b1578d1c4f555e65a","C3","batch3","","-1","","","tol_feedback","true","","","","","","","","","","","1000","1000","500","","","","","","-1","none","true","","0",""
"","","","","","html-button-response","324","1522099","0.0-4.0-9.0","6113f79b1578d1c4f555e65a","C3","batch3","","3465.300000011921","<div class = centerbox><p class = center-block-text>Great job! You are done with practice trials<br>You are about to start official trials.<br> <br> Problem <strong>1</strong> out of 25 problems</p></div>","0","tol_instruction","","","","","","","","","","","","","","","","","","","","","","","","",""
"","","","","","single-stim-button","325","1527753","0.0-4.0-10.0-0.0","6113f79b1578d1c4f555e65a","C3","batch3","","4647","","","tol_tohand","","","","","","","","","","","tol_peg_1","4647","4647","0","[[1,0,0],[3,0],[0]]","1","[[1,3,0],[2,0],[0]]","0","0","","","","","","3"
"","","","","","single-stim-button","326","1528948","0.0-4.0-10.0-1.0","6113f79b1578d1c4f555e65a","C3","batch3","","1193","","","tol_toboard","","","","","","","","","","","tol_peg_3","1193","1193","0","[[1,0,0],[3,0],[2]]","1","[[1,3,0],[2,0],[0]]","0","0","","","","","","3"
"","","","","","single-stim-button","327","1529740","0.0-4.0-10.1-0.1","6113f79b1578d1c4f555e65a","C3","batch3","","790","","","tol_tohand","","","","","","","","","","","tol_peg_2","790","790","0","[[1,0,0],[0,0],[2]]","2","[[1,3,0],[2,0],[0]]","0","0","","","","","","3"
"","","","","","single-stim-button","328","1530725","0.0-4.0-10.1-1.1","6113f79b1578d1c4f555e65a","C3","batch3","","984","","","tol_toboard","","","","","","","","","","","tol_peg_1","984","984","0","[[1,3,0],[0,0],[2]]","2","[[1,3,0],[2,0],[0]]","0","0","","","","","","3"
"","","","","","single-stim-button","329","1532283","0.0-4.0-10.2-0.2","6113f79b1578d1c4f555e65a","C3","batch3","","1558","","","tol_tohand","","","","","","","","","","","tol_peg_3","1558","1558","0","[[1,3,0],[0,0],[0]]","3","[[1,3,0],[2,0],[0]]","0","0","","","","","","3"
"","","","","","single-stim-button","330","1533092","0.0-4.0-10.2-1.2","6113f79b1578d1c4f555e65a","C3","batch3","","807","","","tol_toboard","","","","","","","","","","","tol_peg_2","807","807","0","[[1,3,0],[2,0],[0]]","3","[[1,3,0],[2,0],[0]]","0","0","","","","","","3"
"","","","","","poldrack-single-stim","331","1534097","0.0-4.0-11.0","6113f79b1578d1c4f555e65a","C3","batch3","","-1","","","tol_feedback","true","","","","","","","","","","","1000","1000","500","","","","","","-1","none","true","4647","6995",""
"","","","","","html-button-response","332","1535373","0.0-4.0-12.0","6113f79b1578d1c4f555e65a","C3","batch3","","1275.300000011921","<div class = centerbox><p class = center-block-text>problem <strong>2</strong> out of 25 problems</p></div>","0","tol_trial_num","","","","","","","","","","","","","","","","","","","","","","","","",""
"","","","","","single-stim-button","333","1540090","0.0-4.0-13.0-0.0","6113f79b1578d1c4f555e65a","C3","batch3","","4716","","","tol_tohand","","","","","","","","","","","tol_peg_1","4716","4716","0","[[1,0,0],[3,0],[0]]","1","[[2,1,3],[0,0],[0]]","1","0","","","","","","5"
"","","","","","single-stim-button","334","1541487","0.0-4.0-13.0-1.0","6113f79b1578d1c4f555e65a","C3","batch3","","1396","","","tol_toboard","","","","","","","","","","","tol_peg_3","1396","1396","0","[[1,0,0],[3,0],[2]]","1","[[2,1,3],[0,0],[0]]","1","0","","","","","","5"
"","","","","","single-stim-button","335","1542678","0.0-4.0-13.1-0.1","6113f79b1578d1c4f555e65a","C3","batch3","","1189","","","tol_tohand","","","","","","","","","","","tol_peg_1","1189","1189","0","[[0,0,0],[3,0],[2]]","2","[[2,1,3],[0,0],[0]]","1","0","","","","","","5"
"","","","","","single-stim-button","336","1543631","0.0-4.0-13.1-1.1","6113f79b1578d1c4f555e65a","C3","batch3","","952","","","tol_toboard","","","","","","","","","","","tol_peg_2","952","952","0","[[0,0,0],[3,1],[2]]","2","[[2,1,3],[0,0],[0]]","1","0","","","","","","5"
"","","","","","single-stim-button","337","1544512","0.0-4.0-13.2-0.2","6113f79b1578d1c4f555e65a","C3","batch3","","879","","","tol_tohand","","","","","","","","","","","tol_peg_3","879","879","0","[[0,0,0],[3,1],[0]]","3","[[2,1,3],[0,0],[0]]","1","0","","","","","","5"
"","","","","","single-stim-button","338","1545408","0.0-4.0-13.2-1.2","6113f79b1578d1c4f555e65a","C3","batch3","","895","","","tol_toboard","","","","","","","","","","","tol_peg_1","895","895","0","[[2,0,0],[3,1],[0]]","3","[[2,1,3],[0,0],[0]]","1","0","","","","","","5"
"","","","","","single-stim-button","339","1546257","0.0-4.0-13.3-0.3","6113f79b1578d1c4f555e65a","C3","batch3","","848","","","tol_tohand","","","","","","","","","","","tol_peg_2","848","848","0","[[2,0,0],[3,0],[0]]","4","[[2,1,3],[0,0],[0]]","1","0","","","","","","5"
"","","","","","single-stim-button","340","1547040","0.0-4.0-13.3-1.3","6113f79b1578d1c4f555e65a","C3","batch3","","783","","","tol_toboard","","","","","","","","","","","tol_peg_1","783","783","0","[[2,1,0],[3,0],[0]]","4","[[2,1,3],[0,0],[0]]","1","0","","","","","","5"
"","","","","","single-stim-button","341","1547924","0.0-4.0-13.4-0.4","6113f79b1578d1c4f555e65a","C3","batch3","","883","","","tol_tohand","","","","","","","","","","","tol_peg_2","883","883","0","[[2,1,0],[0,0],[0]]","5","[[2,1,3],[0,0],[0]]","1","0","","","","","","5"
"","","","","","single-stim-button","342","1548789","0.0-4.0-13.4-1.4","6113f79b1578d1c4f555e65a","C3","batch3","","864","","","tol_toboard","","","","","","","","","","","tol_peg_1","864","864","0","[[2,1,3],[0,0],[0]]","5","[[2,1,3],[0,0],[0]]","1","0","","","","","","5"
"","","","","","poldrack-single-stim","343","1549792","0.0-4.0-14.0","6113f79b1578d1c4f555e65a","C3","batch3","","-1","","","tol_feedback","true","","","","","","","","","","","1000","1000","500","","","","","","-1","none","true","4716","8515",""
"","","","","","html-button-response","344","1550840","0.0-4.0-15.0","6113f79b1578d1c4f555e65a","C3","batch3","","1046","<div class = centerbox><p class = center-block-text>problem <strong>3</strong> out of 25 problems</p></div>","0","tol_trial_num","","","","","","","","","","","","","","","","","","","","","","","","",""
"","","","","","single-stim-button","345","1558775","0.0-4.0-16.0-0.0","6113f79b1578d1c4f555e65a","C3","batch3","","7935","","","tol_tohand","","","","","","","","","","","tol_peg_1","7935","7935","0","[[2,0,0],[0,0],[1]]","1","[[1,2,0],[3,0],[0]]","2","0","","","","","","4"
"","","","","","single-stim-button","346","1559857","0.0-4.0-16.0-1.0","6113f79b1578d1c4f555e65a","C3","batch3","","1047","","","tol_toboard","","","","","","","","","","","tol_peg_2","1047","1047","0","[[2,0,0],[3,0],[1]]","1","[[1,2,0],[3,0],[0]]","2","0","","","","","","4"
"","","","","","single-stim-button","347","1560572","0.0-4.0-16.1-0.1","6113f79b1578d1c4f555e65a","C3","batch3","","714","","","tol_tohand","","","","","","","","","","","tol_peg_1","714","714","0","[[0,0,0],[3,0],[1]]","2","[[1,2,0],[3,0],[0]]","2","0","","","","","","4"
