"success","timeout","failed_images","failed_audio","failed_video","trial_type","trial_index","time_elapsed","internal_node_id","subject_id","study_id","session_id","view_history","rt","stimulus","response","task","correct","answer","item","fiar_detect_rt","fiar_detect_correct","total_correct_fiar_detect","post_trial_gap","choices","mouse_click","stim_duration","block_duration","timing_post_trial","current_position","tol_num_moves_made","tol_target","tol_problem_id","tol_rt","key_press","possible_responses","tol_correct","preplanning","tol_rt_per_trial","tol_min_moves","spm_correct","spm_rt"
"true","false","[]","[]","[]","preload","0","1579","0.0-0.0","6114ba31072fc0bcc226b89d","A3","batch1","","","","","","","","","","","","","","","","","","","","","","","","","","","","","",""
"true","","","","","fullscreen","1","282563","0.0-1.0-0.0","6114ba31072fc0bcc226b89d","A3","batch1","","","","","","","","","","","","","","","","","","","","","","","","","","","","","",""
"true","","","","","fullscreen","2","335363","0.0-2.0-0.0","6114ba31072fc0bcc226b89d","A3","batch1","","","","","","","","","","","","","","","","","","","","","","","","","","","","","",""
"","","","","","instructions","3","777799","0.0-2.0-1.0-0.0","6114ba31072fc0bcc226b89d","A3","batch1","[{""page_index"":0,""viewing_time"":303757.5},{""page_index"":1,""viewing_time"":138673.70000001788}]","442432","","","","","","","","","","","","","","","","","","","","","","","","","","","",""
"","","","","","html-button-response","4","781020","0.0-2.0-1.0-1.0-0.0","6114ba31072fc0bcc226b89d","A3","batch1","","3217.4000000059605","<p class=block-text> Let's answer a few questions <br>","0","pattern_enter_quiz","","","","","","","","","","","","","","","","","","","","","","","","",""
"","","","","","html-button-response","5","784289","0.0-2.0-1.0-1.0-1.0","6114ba31072fc0bcc226b89d","A3","batch1","","3264.4000000059605","<p class = block-text>True or False: You will have as much time as you want to make each choice. <br></p>","1","pattern_quiz","true","","","","","","","","","","","","","","","","","","","","","","","",""
"","","","","","html-button-response","6","789807","0.0-2.0-1.0-1.0-2.0","6114ba31072fc0bcc226b89d","A3","batch1","","5512.300000011921","<p class = block-text>Correct! You should make your choice <strong> as fast as you can</strong>.</p>","0","pattern_quiz_feedback","","","","","","","","","","","","","","","","","","","","","","","","",""
"","","","","","html-button-response","7","795997","0.0-2.0-1.0-1.0-3.0","6114ba31072fc0bcc226b89d","A3","batch1","","6187.300000011921","<p class = block-text>True or False: You will look for 4 pieces in black or white color connected in a row either horizontally, vertically or diagonally. <br></p>","0","pattern_quiz","true","","","","","","","","","","","","","","","","","","","","","","","",""
"","","","","","html-button-response","8","807035","0.0-2.0-1.0-1.0-4.0","6114ba31072fc0bcc226b89d","A3","batch1","","11034.800000011921","<p class = block-text>Correct! </p>","0","pattern_quiz_feedback","","","","","","","","","","","","","","","","","","","","","","","","",""
"","","","","","html-button-response","9","939782","0.0-2.0-2.0","6114ba31072fc0bcc226b89d","A3","batch1","","132741.80000001192","<p class=block-text> Now that you've understood the game, let's do a few practice trials before we start!<br> <br>","0","pattern_enter_practice","","","","","","","","","","","","","","","","","","","","","","","","",""
"","","","","","image-keyboard-response","10","943111","0.0-2.0-3.0-0.0","6114ba31072fc0bcc226b89d","A3","batch1","","3297.699999988079","stim/prac_no_18_1.png","j","pattern_practice","true","j","","","","","","","","","","","","","","","","","","","","","","",""
"","","","","","html-keyboard-response","11","944123","0.0-2.0-3.0-1.0","6114ba31072fc0bcc226b89d","A3","batch1","","null","<p style=""font-size:30px;color:green;"">Correct!</p>","null","pattern_feedback","","","","","","","","","","","","","","","","","","","","","","","","",""
"","","","","","image-keyboard-response","12","945371","0.0-2.0-3.0-0.1","6114ba31072fc0bcc226b89d","A3","batch1","","1244.300000011921","stim/prac_yes_18_hor_w1.png","f","pattern_practice","true","f","","","","","","","","","","","","","","","","","","","","","","",""
"","","","","","html-keyboard-response","13","946379","0.0-2.0-3.0-1.1","6114ba31072fc0bcc226b89d","A3","batch1","","null","<p style=""font-size:30px;color:green;"">Correct!</p>","null","pattern_feedback","","","","","","","","","","","","","","","","","","","","","","","","",""
"","","","","","image-keyboard-response","14","947656","0.0-2.0-3.0-0.2","6114ba31072fc0bcc226b89d","A3","batch1","","1273","stim/prac_yes_20_dia_b1.png","f","pattern_practice","true","f","","","","","","","","","","","","","","","","","","","","","","",""
"","","","","","html-keyboard-response","15","948667","0.0-2.0-3.0-1.2","6114ba31072fc0bcc226b89d","A3","batch1","","null","<p style=""font-size:30px;color:green;"">Correct!</p>","null","pattern_feedback","","","","","","","","","","","","","","","","","","","","","","","","",""
"","","","","","image-keyboard-response","16","949590","0.0-2.0-3.0-0.3","6114ba31072fc0bcc226b89d","A3","batch1","","919.9000000059605","stim/prac_yes_16_ver_w1.png","f","pattern_practice","true","f","","","","","","","","","","","","","","","","","","","","","","",""
"","","","","","html-keyboard-response","17","950595","0.0-2.0-3.0-1.3","6114ba31072fc0bcc226b89d","A3","batch1","","null","<p style=""font-size:30px;color:green;"">Correct!</p>","null","pattern_feedback","","","","","","","","","","","","","","","","","","","","","","","","",""
"","","","","","image-keyboard-response","18","951772","0.0-2.0-3.0-0.4","6114ba31072fc0bcc226b89d","A3","batch1","","1173.699999988079","stim/prac_no_16_1.png","j","pattern_practice","true","j","","","","","","","","","","","","","","","","","","","","","","",""
"","","","","","html-keyboard-response","19","952779","0.0-2.0-3.0-1.4","6114ba31072fc0bcc226b89d","A3","batch1","","null","<p style=""font-size:30px;color:green;"">Correct!</p>","null","pattern_feedback","","","","","","","","","","","","","","","","","","","","","","","","",""
"","","","","","html-button-response","20","977847","0.0-2.0-4.0","6114ba31072fc0bcc226b89d","A3","batch1","","25065","<p class=block-text> Good job! You are done with practice trials!<br>
        You responded correctly on 100% of the trials.<br>
        Press the button below to start official trials. Now you won't see any feedback about your response</p>","0","pattern_enter_official_trials","","","","","","","","","","","","","","","","","","","","","","","","",""
"","","","","","html-keyboard-response","21","978651","0.0-2.0-5.0-0.0","6114ba31072fc0bcc226b89d","A3","batch1","","null","<p class=block-text>Trial 1 out of 78</p>","null","pattern_show_trial_num","","","","","","","","","","","","","","","","","","","","","","","","",""
"","","","","","image-keyboard-response","22","980373","0.0-2.0-5.0-1.0","6114ba31072fc0bcc226b89d","A3","batch1","","1716.5","stim/yes_23_ver_b1.png","f","pattern_response","true","f","pattern_48","1716.5","true","1","","","","","","","","","","","","","","","","","","",""
"","","","","","html-keyboard-response","23","981683","0.0-2.0-5.0-0.1","6114ba31072fc0bcc226b89d","A3","batch1","","null","<p class=block-text>Trial 2 out of 78</p>","null","pattern_show_trial_num","","","","","","","","","","","","","","","","","","","","","","","","",""
"","","","","","image-keyboard-response","24","983231","0.0-2.0-5.0-1.1","6114ba31072fc0bcc226b89d","A3","batch1","","1544.8999999761581","stim/yes_49_hor_w1_b.png","f","pattern_response","true","f","pattern_70","1544.8999999761581","true","2","","","","","","","","","","","","","","","","","","",""
"","","","","","html-keyboard-response","25","984547","0.0-2.0-5.0-0.2","6114ba31072fc0bcc226b89d","A3","batch1","","null","<p class=block-text>Trial 3 out of 78</p>","null","pattern_show_trial_num","","","","","","","","","","","","","","","","","","","","","","","","",""
"","","","","","image-keyboard-response","26","986115","0.0-2.0-5.0-1.2","6114ba31072fc0bcc226b89d","A3","batch1","","1563.8999999761581","stim/no_28_2.png","j","pattern_response","true","j","pattern_11","1563.8999999761581","true","3","","","","","","","","","","","","","","","","","","",""
"","","","","","html-keyboard-response","27","987427","0.0-2.0-5.0-0.3","6114ba31072fc0bcc226b89d","A3","batch1","","null","<p class=block-text>Trial 4 out of 78</p>","null","pattern_show_trial_num","","","","","","","","","","","","","","","","","","","","","","","","",""
"","","","","","image-keyboard-response","28","988879","0.0-2.0-5.0-1.3","6114ba31072fc0bcc226b89d","A3","batch1","","1449.7000000178814","stim/yes_44_ver_w1_w.png","j","pattern_response","false","f","pattern_66","1449.7000000178814","false","3","","","","","","","","","","","","","","","","","","",""
"","","","","","html-keyboard-response","29","990195","0.0-2.0-5.0-0.4","6114ba31072fc0bcc226b89d","A3","batch1","","null","<p class=block-text>Trial 5 out of 78</p>","null","pattern_show_trial_num","","","","","","","","","","","","","","","","","","","","","","","","",""
"","","","","","image-keyboard-response","30","991031","0.0-2.0-5.0-1.4","6114ba31072fc0bcc226b89d","A3","batch1","","831.6999999880791","stim/no_22_1_b.png","j","pattern_response","true","j","pattern_07","831.6999999880791","true","4","","","","","","","","","","","","","","","","","","",""
"","","","","","html-keyboard-response","31","992347","0.0-2.0-5.0-0.5","6114ba31072fc0bcc226b89d","A3","batch1","","null","<p class=block-text>Trial 6 out of 78</p>","null","pattern_show_trial_num","","","","","","","","","","","","","","","","","","","","","","","","",""
"","","","","","image-keyboard-response","32","993161","0.0-2.0-5.0-1.5","6114ba31072fc0bcc226b89d","A3","batch1","","810.4000000059605","stim/yes_12_hor_w1_w.png","f","pattern_response","true","f","pattern_42","810.4000000059605","true","5","","","","","","","","","","","","","","","","","","",""
"","","","","","html-keyboard-response","33","994471","0.0-2.0-5.0-0.6","6114ba31072fc0bcc226b89d","A3","batch1","","null","<p class=block-text>Trial 7 out of 78</p>","null","pattern_show_trial_num","","","","","","","","","","","","","","","","","","","","","","","","",""
"","","","","","image-keyboard-response","34","996332","0.0-2.0-5.0-1.6","6114ba31072fc0bcc226b89d","A3","batch1","","1858.2000000178814","stim/yes_63_dia_b1.png","j","pattern_response","false","f","pattern_78","1858.2000000178814","false","5","","","","","","","","","","","","","","","","","","",""
"","","","","","html-keyboard-response","35","997643","0.0-2.0-5.0-0.7","6114ba31072fc0bcc226b89d","A3","batch1","","null","<p class=block-text>Trial 8 out of 78</p>","null","pattern_show_trial_num","","","","","","","","","","","","","","","","","","","","","","","","",""
"","","","","","image-keyboard-response","36","998341","0.0-2.0-5.0-1.7","6114ba31072fc0bcc226b89d","A3","batch1","","694.5999999940395","stim/no_15_1_w.png","j","pattern_response","true","j","pattern_03","694.5999999940395","true","6","","","","","","","","","","","","","","","","","","",""
"","","","","","html-keyboard-response","37","999651","0.0-2.0-5.0-0.8","6114ba31072fc0bcc226b89d","A3","batch1","","null","<p class=block-text>Trial 9 out of 78</p>","null","pattern_show_trial_num","","","","","","","","","","","","","","","","","","","","","","","","",""
"","","","","","image-keyboard-response","38","1000383","0.0-2.0-5.0-1.8","6114ba31072fc0bcc226b89d","A3","batch1","","729.2000000178814","stim/yes_58_dia_w1_w.png","f","pattern_response","true","f","pattern_76","729.2000000178814","true","7","","","","","","","","","","","","","","","","","","",""
"","","","","","html-keyboard-response","39","1001699","0.0-2.0-5.0-0.9","6114ba31072fc0bcc226b89d","A3","batch1","","null","<p class=block-text>Trial 10 out of 78</p>","null","pattern_show_trial_num","","","","","","","","","","","","","","","","","","","","","","","","",""
"","","","","","image-keyboard-response","40","1002544","0.0-2.0-5.0-1.9","6114ba31072fc0bcc226b89d","A3","batch1","","841.2999999821186","stim/yes_15_dia_b1u_b.png","f","pattern_response","true","f","pattern_44","841.2999999821186","true","8","","","","","","","","","","","","","","","","","","",""
"","","","","","html-keyboard-response","41","1003859","0.0-2.0-5.0-0.10","6114ba31072fc0bcc226b89d","A3","batch1","","null","<p class=block-text>Trial 11 out of 78</p>","null","pattern_show_trial_num","","","","","","","","","","","","","","","","","","","","","","","","",""
"","","","","","image-keyboard-response","42","1005973","0.0-2.0-5.0-1.10","6114ba31072fc0bcc226b89d","A3","batch1","","2112.0999999940395","stim/yes_70_ver_b1.png","j","pattern_response","false","f","pattern_80","2112.0999999940395","false","8","","","","","","","","","","","","","","","","","","",""
"","","","","","html-keyboard-response","43","1007283","0.0-2.0-5.0-0.11","6114ba31072fc0bcc226b89d","A3","batch1","","null","<p class=block-text>Trial 12 out of 78</p>","null","pattern_show_trial_num","","","","","","","","","","","","","","","","","","","","","","","","",""
"","","","","","image-keyboard-response","44","1008888","0.0-2.0-5.0-1.11","6114ba31072fc0bcc226b89d","A3","batch1","","1600.7999999821186","stim/no_53_1_b.png","j","pattern_response","true","j","pattern_33","1600.7999999821186","true","9","","","","","","","","","","","","","","","","","","",""
"","","","","","html-keyboard-response","45","1010203","0.0-2.0-5.0-0.12","6114ba31072fc0bcc226b89d","A3","batch1","","null","<p class=block-text>Trial 13 out of 78</p>","null","pattern_show_trial_num","","","","","","","","","","","","","","","","","","","","","","","","",""
"","","","","","image-keyboard-response","46","1011745","0.0-2.0-5.0-1.12","6114ba31072fc0bcc226b89d","A3","batch1","","1538","stim/no_49_2_b.png","j","pattern_response","true","j","pattern_29","1538","true","10","","","","","","","","","","","","","","","","","","",""
"","","","","","html-keyboard-response","47","1013059","0.0-2.0-5.0-0.13","6114ba31072fc0bcc226b89d","A3","batch1","","null","<p class=block-text>Trial 14 out of 78</p>","null","pattern_show_trial_num","","","","","","","","","","","","","","","","","","","","","","","","",""
"","","","","","image-keyboard-response","48","1015183","0.0-2.0-5.0-1.13","6114ba31072fc0bcc226b89d","A3","batch1","","2120.5999999940395","stim/yes_51_dia_b1.png","j","pattern_response","false","f","pattern_72","2120.5999999940395","false","10","","","","","","","","","","","","","","","","","","",""
"","","","","","html-keyboard-response","49","1016499","0.0-2.0-5.0-0.14","6114ba31072fc0bcc226b89d","A3","batch1","","null","<p class=block-text>Trial 15 out of 78</p>","null","pattern_show_trial_num","","","","","","","","","","","","","","","","","","","","","","","","",""
"","","","","","image-keyboard-response","50","1019041","0.0-2.0-5.0-1.14","6114ba31072fc0bcc226b89d","A3","batch1","","2538.5","stim/no_51_1.png","j","pattern_response","true","j","pattern_31","2538.5","true","11","","","","","","","","","","","","","","","","","","",""
"","","","","","html-keyboard-response","51","1020355","0.0-2.0-5.0-0.15","6114ba31072fc0bcc226b89d","A3","batch1","","null","<p class=block-text>Trial 16 out of 78</p>","null","pattern_show_trial_num","","","","","","","","","","","","","","","","","","","","","","","","",""
"","","","","","image-keyboard-response","52","1023074","0.0-2.0-5.0-1.15","6114ba31072fc0bcc226b89d","A3","batch1","","2714.9000000059605","stim/yes_53_ver_b1_b.png","j","pattern_response","false","f","pattern_74","2714.9000000059605","false","11","","","","","","","","","","","","","","","","","","",""
"","","","","","html-keyboard-response","53","1024387","0.0-2.0-5.0-0.16","6114ba31072fc0bcc226b89d","A3","batch1","","null","<p class=block-text>Trial 17 out of 78</p>","null","pattern_show_trial_num","","","","","","","","","","","","","","","","","","","","","","","","",""
"","","","","","image-keyboard-response","54","1026416","0.0-2.0-5.0-1.16","6114ba31072fc0bcc226b89d","A3","batch1","","2025.0999999940395","stim/no_33_1_b.png","j","pattern_response","true","j","pattern_15","2025.0999999940395","true","12","","","","","","","","","","","","","","","","","","",""
"","","","","","html-keyboard-response","55","1027731","0.0-2.0-5.0-0.17","6114ba31072fc0bcc226b89d","A3","batch1","","null","<p class=block-text>Trial 18 out of 78</p>","null","pattern_show_trial_num","","","","","","","","","","","","","","","","","","","","","","","","",""
"","","","","","image-keyboard-response","56","1030686","0.0-2.0-5.0-1.17","6114ba31072fc0bcc226b89d","A3","batch1","","2952.5999999940395","stim/yes_42_dia_w1_w.png","j","pattern_response","false","f","pattern_64","2952.5999999940395","false","12","","","","","","","","","","","","","","","","","","",""
"","","","","","html-keyboard-response","57","1032003","0.0-2.0-5.0-0.18","6114ba31072fc0bcc226b89d","A3","batch1","","null","<p class=block-text>Trial 19 out of 78</p>","null","pattern_show_trial_num","","","","","","","","","","","","","","","","","","","","","","","","",""
"","","","","","image-keyboard-response","58","1033281","0.0-2.0-5.0-1.18","6114ba31072fc0bcc226b89d","A3","batch1","","1274","stim/yes_46_ver_b1_b.png","f","pattern_response","true","f","pattern_68","1274","true","13","","","","","","","","","","","","","","","","","","",""
"","","","","","html-keyboard-response","59","1034595","0.0-2.0-5.0-0.19","6114ba31072fc0bcc226b89d","A3","batch1","","null","<p class=block-text>Trial 20 out of 78</p>","null","pattern_show_trial_num","","","","","","","","","","","","","","","","","","","","","","","","",""
"","","","","","image-keyboard-response","60","1035686","0.0-2.0-5.0-1.19","6114ba31072fc0bcc226b89d","A3","batch1","","1087.5999999940395","stim/yes_36_ver_w1_w.png","f","pattern_response","true","f","pattern_58","1087.5999999940395","true","14","","","","","","","","","","","","","","","","","","",""
"","","","","","html-keyboard-response","61","1036995","0.0-2.0-5.0-0.20","6114ba31072fc0bcc226b89d","A3","batch1","","null","<p class=block-text>Trial 21 out of 78</p>","null","pattern_show_trial_num","","","","","","","","","","","","","","","","","","","","","","","","",""
"","","","","","image-keyboard-response","62","1038835","0.0-2.0-5.0-1.20","6114ba31072fc0bcc226b89d","A3","batch1","","1836.9000000059605","stim/no_18_1_b.png","j","pattern_response","true","j","pattern_05","1836.9000000059605","true","15","","","","","","","","","","","","","","","","","","",""
"","","","","","html-keyboard-response","63","1040147","0.0-2.0-5.0-0.21","6114ba31072fc0bcc226b89d","A3","batch1","","null","<p class=block-text>Trial 22 out of 78</p>","null","pattern_show_trial_num","","","","","","","","","","","","","","","","","","","","","","","","",""
"","","","","","image-keyboard-response","64","1042538","0.0-2.0-5.0-1.21","6114ba31072fc0bcc226b89d","A3","batch1","","2387.199999988079","stim/no_58_1_w.png","j","pattern_response","true","j","pattern_35","2387.199999988079","true","16","","","","","","","","","","","","","","","","","","",""
"","","","","","html-keyboard-response","65","1043851","0.0-2.0-5.0-0.22","6114ba31072fc0bcc226b89d","A3","batch1","","null","<p class=block-text>Trial 23 out of 78</p>","null","pattern_show_trial_num","","","","","","","","","","","","","","","","","","","","","","","","",""
"","","","","","image-keyboard-response","66","1045849","0.0-2.0-5.0-1.22","6114ba31072fc0bcc226b89d","A3","batch1","","1994","stim/no_37_2_w.png","j","pattern_response","true","j","pattern_19","1994","true","17","","","","","","","","","","","","","","","","","","",""
"","","","","","html-keyboard-response","67","1047163","0.0-2.0-5.0-0.23","6114ba31072fc0bcc226b89d","A3","batch1","","null","<p class=block-text>Trial 24 out of 78</p>","null","pattern_show_trial_num","","","","","","","","","","","","","","","","","","","","","","","","",""
"","","","","","image-keyboard-response","68","1049462","0.0-2.0-5.0-1.23","6114ba31072fc0bcc226b89d","A3","batch1","","2295.199999988079","stim/no_30_1_b.png","j","pattern_response","true","j","pattern_13","2295.199999988079","true","18","","","","","","","","","","","","","","","","","","",""
"","","","","","html-keyboard-response","69","1050779","0.0-2.0-5.0-0.24","6114ba31072fc0bcc226b89d","A3","batch1","","null","<p class=block-text>Trial 25 out of 78</p>","null","pattern_show_trial_num","","","","","","","","","","","","","","","","","","","","","","","","",""
"","","","","","image-keyboard-response","70","1052720","0.0-2.0-5.0-1.24","6114ba31072fc0bcc226b89d","A3","batch1","","1937","stim/yes_33_dia_w1_w.png","j","pattern_response","false","f","pattern_56","1937","false","18","","","","","","","","","","","","","","","","","","",""
"","","","","","html-keyboard-response","71","1054035","0.0-2.0-5.0-0.25","6114ba31072fc0bcc226b89d","A3","batch1","","null","<p class=block-text>Trial 26 out of 78</p>","null","pattern_show_trial_num","","","","","","","","","","","","","","","","","","","","","","","","",""
"","","","","","image-keyboard-response","72","1055613","0.0-2.0-5.0-1.25","6114ba31072fc0bcc226b89d","A3","batch1","","1574.8999999761581","stim/yes_26_dia_w2_w.png","j","pattern_response","false","f","pattern_50","1574.8999999761581","false","18","","","","","","","","","","","","","","","","","","",""
"","","","","","html-keyboard-response","73","1056923","0.0-2.0-5.0-0.26","6114ba31072fc0bcc226b89d","A3","batch1","","null","<p class=block-text>Trial 27 out of 78</p>","null","pattern_show_trial_num","","","","","","","","","","","","","","","","","","","","","","","","",""
"","","","","","image-keyboard-response","74","1057832","0.0-2.0-5.0-1.26","6114ba31072fc0bcc226b89d","A3","batch1","","905","stim/yes_29_hor_b1_b.png","f","pattern_response","true","f","pattern_52","905","true","19","","","","","","","","","","","","","","","","","","",""
"","","","","","html-keyboard-response","75","1059147","0.0-2.0-5.0-0.27","6114ba31072fc0bcc226b89d","A3","batch1","","null","<p class=block-text>Trial 28 out of 78</p>","null","pattern_show_trial_num","","","","","","","","","","","","","","","","","","","","","","","","",""
"","","","","","image-keyboard-response","76","1060008","0.0-2.0-5.0-1.27","6114ba31072fc0bcc226b89d","A3","batch1","","858.5","stim/yes_17_ver_b1_b.png","f","pattern_response","true","f","pattern_46","858.5","true","20","","","","","","","","","","","","","","","","","","",""
"","","","","","html-keyboard-response","77","1061323","0.0-2.0-5.0-0.28","6114ba31072fc0bcc226b89d","A3","batch1","","null","<p class=block-text>Trial 29 out of 78</p>","null","pattern_show_trial_num","","","","","","","","","","","","","","","","","","","","","","","","",""
"","","","","","image-keyboard-response","78","1062630","0.0-2.0-5.0-1.28","6114ba31072fc0bcc226b89d","A3","batch1","","1303.9000000059605","stim/yes_37_hor_w1_w.png","f","pattern_response","true","f","pattern_60","1303.9000000059605","true","21","","","","","","","","","","","","","","","","","","",""
"","","","","","html-keyboard-response","79","1063939","0.0-2.0-5.0-0.29","6114ba31072fc0bcc226b89d","A3","batch1","","null","<p class=block-text>Trial 30 out of 78</p>","null","pattern_show_trial_num","","","","","","","","","","","","","","","","","","","","","","","","",""
"","","","","","image-keyboard-response","80","1065414","0.0-2.0-5.0-1.29","6114ba31072fc0bcc226b89d","A3","batch1","","1471.800000011921","stim/no_43_2_b.png","j","pattern_response","true","j","pattern_23","1471.800000011921","true","22","","","","","","","","","","","","","","","","","","",""
"","","","","","html-keyboard-response","81","1066723","0.0-2.0-5.0-0.30","6114ba31072fc0bcc226b89d","A3","batch1","","null","<p class=block-text>Trial 31 out of 78</p>","null","pattern_show_trial_num","","","","","","","","","","","","","","","","","","","","","","","","",""
"","","","","","image-keyboard-response","82","1068387","0.0-2.0-5.0-1.30","6114ba31072fc0bcc226b89d","A3","batch1","","1660.2000000178814","stim/no_36_1_b.png","j","pattern_response","true","j","pattern_17","1660.2000000178814","true","23","","","","","","","","","","","","","","","","","","",""
"","","","","","html-keyboard-response","83","1069699","0.0-2.0-5.0-0.31","6114ba31072fc0bcc226b89d","A3","batch1","","null","<p class=block-text>Trial 32 out of 78</p>","null","pattern_show_trial_num","","","","","","","","","","","","","","","","","","","","","","","","",""
"","","","","","image-keyboard-response","84","1071338","0.0-2.0-5.0-1.31","6114ba31072fc0bcc226b89d","A3","batch1","","1636.800000011921","stim/no_67_1.png","f","pattern_response","false","j","pattern_39","1636.800000011921","false","23","","","","","","","","","","","","","","","","","","",""
"","","","","","html-keyboard-response","85","1072651","0.0-2.0-5.0-0.32","6114ba31072fc0bcc226b89d","A3","batch1","","null","<p class=block-text>Trial 33 out of 78</p>","null","pattern_show_trial_num","","","","","","","","","","","","","","","","","","","","","","","","",""
"","","","","","image-keyboard-response","86","1073526","0.0-2.0-5.0-1.32","6114ba31072fc0bcc226b89d","A3","batch1","","871.7000000178814","stim/no_25_1_b.png","j","pattern_response","true","j","pattern_09","871.7000000178814","true","24","","","","","","","","","","","","","","","","","","",""
"","","","","","html-keyboard-response","87","1074843","0.0-2.0-5.0-0.33","6114ba31072fc0bcc226b89d","A3","batch1","","null","<p class=block-text>Trial 34 out of 78</p>","null","pattern_show_trial_num","","","","","","","","","","","","","","","","","","","","","","","","",""
"","","","","","image-keyboard-response","88","1077502","0.0-2.0-5.0-1.33","6114ba31072fc0bcc226b89d","A3","batch1","","2655.699999988079","stim/no_39_1_w.png","j","pattern_response","true","j","pattern_21","2655.699999988079","true","25","","","","","","","","","","","","","","","","","","",""
"","","","","","html-keyboard-response","89","1078811","0.0-2.0-5.0-0.34","6114ba31072fc0bcc226b89d","A3","batch1","","null","<p class=block-text>Trial 35 out of 78</p>","null","pattern_show_trial_num","","","","","","","","","","","","","","","","","","","","","","","","",""
"","","","","","image-keyboard-response","90","1079751","0.0-2.0-5.0-1.34","6114ba31072fc0bcc226b89d","A3","batch1","","936","stim/yes_39_hor_w1_w.png","f","pattern_response","true","f","pattern_62","936","true","26","","","","","","","","","","","","","","","","","","",""
"","","","","","html-keyboard-response","91","1081067","0.0-2.0-5.0-0.35","6114ba31072fc0bcc226b89d","A3","batch1","","null","<p class=block-text>Trial 36 out of 78</p>","null","pattern_show_trial_num","","","","","","","","","","","","","","","","","","","","","","","","",""
"","","","","","image-keyboard-response","92","1082049","0.0-2.0-5.0-1.35","6114ba31072fc0bcc226b89d","A3","batch1","","979.5999999940395","stim/yes_30_ver_b1_b.png","f","pattern_response","true","f","pattern_54","979.5999999940395","true","27","","","","","","","","","","","","","","","","","","",""
"","","","","","html-keyboard-response","93","1083363","0.0-2.0-5.0-0.36","6114ba31072fc0bcc226b89d","A3","batch1","","null","<p class=block-text>Trial 37 out of 78</p>","null","pattern_show_trial_num","","","","","","","","","","","","","","","","","","","","","","","","",""
"","","","","","image-keyboard-response","94","1086149","0.0-2.0-5.0-1.36","6114ba31072fc0bcc226b89d","A3","batch1","","2783.0999999940395","stim/no_45_1_w.png","j","pattern_response","true","j","pattern_25","2783.0999999940395","true","28","","","","","","","","","","","","","","","","","","",""
"","","","","","html-keyboard-response","95","1087459","0.0-2.0-5.0-0.37","6114ba31072fc0bcc226b89d","A3","batch1","","null","<p class=block-text>Trial 38 out of 78</p>","null","pattern_show_trial_num","","","","","","","","","","","","","","","","","","","","","","","","",""
"","","","","","image-keyboard-response","96","1088469","0.0-2.0-5.0-1.37","6114ba31072fc0bcc226b89d","A3","batch1","","1005.9000000059605","stim/no_12_1.png","j","pattern_response","true","j","pattern_01","1005.9000000059605","true","29","","","","","","","","","","","","","","","","","","",""
"","","","","","html-keyboard-response","97","1089779","0.0-2.0-5.0-0.38","6114ba31072fc0bcc226b89d","A3","batch1","","null","<p class=block-text>Trial 39 out of 78</p>","null","pattern_show_trial_num","","","","","","","","","","","","","","","","","","","","","","","","",""
"","","","","","image-keyboard-response","98","1092307","0.0-2.0-5.0-1.38","6114ba31072fc0bcc226b89d","A3","batch1","","2525","stim/no_47_1_b.png","j","pattern_response","true","j","pattern_27","2525","true","30","","","","","","","","","","","","","","","","","","",""
"","","","","","image-keyboard-response","99","1095520","0.0-2.0-6.0","6114ba31072fc0bcc226b89d","A3","batch1","","2706.5999999940395","stim/empty_board.png","j","attention_check","true","j","","","","","500","[""f"",""j""]","","","","","","","","","","","","","","","","",""
"","","","","","html-keyboard-response","100","1096323","0.0-2.0-7.0-0.0","6114ba31072fc0bcc226b89d","A3","batch1","","null","<p class=block-text>Trial 40 out of 78</p>","null","pattern_show_trial_num","","","","","","","","","","","","","","","","","","","","","","","","",""
"","","","","","image-keyboard-response","101","1097806","0.0-2.0-7.0-1.0","6114ba31072fc0bcc226b89d","A3","batch1","","1478.199999988079","stim/yes_40_dia_b1_b.png","f","pattern_response","true","f","pattern_63","1478.199999988079","true","31","","","","","","","","","","","","","","","","","","",""
"","","","","","html-keyboard-response","102","1099115","0.0-2.0-7.0-0.1","6114ba31072fc0bcc226b89d","A3","batch1","","null","<p class=block-text>Trial 41 out of 78</p>","null","pattern_show_trial_num","","","","","","","","","","","","","","","","","","","","","","","","",""
"","","","","","image-keyboard-response","103","1100429","0.0-2.0-7.0-1.1","6114ba31072fc0bcc226b89d","A3","batch1","","1311.4000000059605","stim/no_26_1_w.png","j","pattern_response","true","j","pattern_10","1311.4000000059605","true","32","","","","","","","","","","","","","","","","","","",""
"","","","","","html-keyboard-response","104","1101739","0.0-2.0-7.0-0.2","6114ba31072fc0bcc226b89d","A3","batch1","","null","<p class=block-text>Trial 42 out of 78</p>","null","pattern_show_trial_num","","","","","","","","","","","","","","","","","","","","","","","","",""
"","","","","","image-keyboard-response","105","1102605","0.0-2.0-7.0-1.2","6114ba31072fc0bcc226b89d","A3","batch1","","863.3999999761581","stim/yes_25_hor_b1_b.png","f","pattern_response","true","f","pattern_49","863.3999999761581","true","33","","","","","","","","","","","","","","","","","","",""
"","","","","","html-keyboard-response","106","1103915","0.0-2.0-7.0-0.3","6114ba31072fc0bcc226b89d","A3","batch1","","null","<p class=block-text>Trial 43 out of 78</p>","null","pattern_show_trial_num","","","","","","","","","","","","","","","","","","","","","","","","",""
"","","","","","image-keyboard-response","107","1104546","0.0-2.0-7.0-1.3","6114ba31072fc0bcc226b89d","A3","batch1","","627.6999999880791","stim/no_17_1_w.png","j","pattern_response","true","j","pattern_04","627.6999999880791","true","34","","","","","","","","","","","","","","","","","","",""
"","","","","","html-keyboard-response","108","1105859","0.0-2.0-7.0-0.4","6114ba31072fc0bcc226b89d","A3","batch1","","null","<p class=block-text>Trial 44 out of 78</p>","null","pattern_show_trial_num","","","","","","","","","","","","","","","","","","","","","","","","",""
"","","","","","image-keyboard-response","109","1106922","0.0-2.0-7.0-1.4","6114ba31072fc0bcc226b89d","A3","batch1","","1060.5999999940395","stim/yes_45_hor_b2_b.png","f","pattern_response","true","f","pattern_67","1060.5999999940395","true","35","","","","","","","","","","","","","","","","","","",""
"","","","","","html-keyboard-response","110","1108235","0.0-2.0-7.0-0.5","6114ba31072fc0bcc226b89d","A3","batch1","","null","<p class=block-text>Trial 45 out of 78</p>","null","pattern_show_trial_num","","","","","","","","","","","","","","","","","","","","","","","","",""
"","","","","","image-keyboard-response","111","1108995","0.0-2.0-7.0-1.5","6114ba31072fc0bcc226b89d","A3","batch1","","757","stim/no_13_2_b.png","j","pattern_response","true","j","pattern_02","757","true","36","","","","","","","","","","","","","","","","","","",""
"","","","","","html-keyboard-response","112","1110307","0.0-2.0-7.0-0.6","6114ba31072fc0bcc226b89d","A3","batch1","","null","<p class=block-text>Trial 46 out of 78</p>","null","pattern_show_trial_num","","","","","","","","","","","","","","","","","","","","","","","","",""
"","","","","","image-keyboard-response","113","1111483","0.0-2.0-7.0-1.6","6114ba31072fc0bcc226b89d","A3","batch1","","1172.699999988079","stim/no_23_1.png","j","pattern_response","true","j","pattern_08","1172.699999988079","true","37","","","","","","","","","","","","","","","","","","",""
"","","","","","html-keyboard-response","114","1112795","0.0-2.0-7.0-0.7","6114ba31072fc0bcc226b89d","A3","batch1","","null","<p class=block-text>Trial 47 out of 78</p>","null","pattern_show_trial_num","","","","","","","","","","","","","","","","","","","","","","","","",""
"","","","","","image-keyboard-response","115","1114445","0.0-2.0-7.0-1.7","6114ba31072fc0bcc226b89d","A3","batch1","","1646.4000000059605","stim/no_29_1_b.png","j","pattern_response","true","j","pattern_12","1646.4000000059605","true","38","","","","","","","","","","","","","","","","","","",""
"","","","","","html-keyboard-response","116","1115755","0.0-2.0-7.0-0.8","6114ba31072fc0bcc226b89d","A3","batch1","","null","<p class=block-text>Trial 48 out of 78</p>","null","pattern_show_trial_num","","","","","","","","","","","","","","","","","","","","","","","","",""
"","","","","","image-keyboard-response","117","1117355","0.0-2.0-7.0-1.8","6114ba31072fc0bcc226b89d","A3","batch1","","1589.5","stim/no_32_1_w.png","j","pattern_response","true","j","pattern_14","1589.5","true","39","","","","","","","","","","","","","","","","","","",""
"","","","","","html-keyboard-response","118","1118667","0.0-2.0-7.0-0.9","6114ba31072fc0bcc226b89d","A3","batch1","","null","<p class=block-text>Trial 49 out of 78</p>","null","pattern_show_trial_num","","","","","","","","","","","","","","","","","","","","","","","","",""
"","","","","","image-keyboard-response","119","1120791","0.0-2.0-7.0-1.9","6114ba31072fc0bcc226b89d","A3","batch1","","2120.0999999940395","stim/no_55_1_w.png","j","pattern_response","true","j","pattern_34","2120.0999999940395","true","40","","","","","","","","","","","","","","","","","","",""
"","","","","","html-keyboard-response","120","1122107","0.0-2.0-7.0-0.10","6114ba31072fc0bcc226b89d","A3","batch1","","null","<p class=block-text>Trial 50 out of 78</p>","null","pattern_show_trial_num","","","","","","","","","","","","","","","","","","","","","","","","",""
"","","","","","image-keyboard-response","121","1124766","0.0-2.0-7.0-1.10","6114ba31072fc0bcc226b89d","A3","batch1","","2655.5","stim/no_65_1_b.png","j","pattern_response","true","j","pattern_38","2655.5","true","41","","","","","","","","","","","","","","","","","","",""
"","","","","","html-keyboard-response","122","1126075","0.0-2.0-7.0-0.11","6114ba31072fc0bcc226b89d","A3","batch1","","null","<p class=block-text>Trial 51 out of 78</p>","null","pattern_show_trial_num","","","","","","","","","","","","","","","","","","","","","","","","",""
"","","","","","image-keyboard-response","123","1127715","0.0-2.0-7.0-1.11","6114ba31072fc0bcc226b89d","A3","batch1","","1636.800000011921","stim/no_34_1_b.png","j","pattern_response","true","j","pattern_16","1636.800000011921","true","42","","","","","","","","","","","","","","","","","","",""
"","","","","","html-keyboard-response","124","1129027","0.0-2.0-7.0-0.12","6114ba31072fc0bcc226b89d","A3","batch1","","null","<p class=block-text>Trial 52 out of 78</p>","null","pattern_show_trial_num","","","","","","","","","","","","","","","","","","","","","","","","",""
"","","","","","image-keyboard-response","125","1130059","0.0-2.0-7.0-1.12","6114ba31072fc0bcc226b89d","A3","batch1","","1028.199999988079","stim/yes_28_ver_b1.png","f","pattern_response","true","f","pattern_51","1028.199999988079","true","43","","","","","","","","","","","","","","","","","","",""
"","","","","","html-keyboard-response","126","1131371","0.0-2.0-7.0-0.13","6114ba31072fc0bcc226b89d","A3","batch1","","null","<p class=block-text>Trial 53 out of 78</p>","null","pattern_show_trial_num","","","","","","","","","","","","","","","","","","","","","","","","",""
"","","","","","image-keyboard-response","127","1133671","0.0-2.0-7.0-1.13","6114ba31072fc0bcc226b89d","A3","batch1","","2297.699999988079","stim/yes_48_dia_w1_w.png","j","pattern_response","false","f","pattern_69","2297.699999988079","false","43","","","","","","","","","","","","","","","","","","",""
"","","","","","html-keyboard-response","128","1134987","0.0-2.0-7.0-0.14","6114ba31072fc0bcc226b89d","A3","batch1","","null","<p class=block-text>Trial 54 out of 78</p>","null","pattern_show_trial_num","","","","","","","","","","","","","","","","","","","","","","","","",""
"","","","","","image-keyboard-response","129","1136126","0.0-2.0-7.0-1.14","6114ba31072fc0bcc226b89d","A3","batch1","","1134.6000000238419","stim/yes_38_hor_b1_b.png","f","pattern_response","true","f","pattern_61","1134.6000000238419","true","44","","","","","","","","","","","","","","","","","","",""
"","","","","","html-keyboard-response","130","1137435","0.0-2.0-7.0-0.15","6114ba31072fc0bcc226b89d","A3","batch1","","null","<p class=block-text>Trial 55 out of 78</p>","null","pattern_show_trial_num","","","","","","","","","","","","","","","","","","","","","","","","",""
"","","","","","image-keyboard-response","131","1139834","0.0-2.0-7.0-1.15","6114ba31072fc0bcc226b89d","A3","batch1","","2396.300000011921","stim/no_44_1.png","j","pattern_response","true","j","pattern_24","2396.300000011921","true","45","","","","","","","","","","","","","","","","","","",""
"","","","","","html-keyboard-response","132","1141147","0.0-2.0-7.0-0.16","6114ba31072fc0bcc226b89d","A3","batch1","","null","<p class=block-text>Trial 56 out of 78</p>","null","pattern_show_trial_num","","","","","","","","","","","","","","","","","","","","","","","","",""
"","","","","","image-keyboard-response","133","1142133","0.0-2.0-7.0-1.16","6114ba31072fc0bcc226b89d","A3","batch1","","982","stim/yes_22_ver_w1.png","f","pattern_response","true","f","pattern_47","982","true","46","","","","","","","","","","","","","","","","","","",""
"","","","","","html-keyboard-response","134","1143443","0.0-2.0-7.0-0.17","6114ba31072fc0bcc226b89d","A3","batch1","","null","<p class=block-text>Trial 57 out of 78</p>","null","pattern_show_trial_num","","","","","","","","","","","","","","","","","","","","","","","","",""
"","","","","","image-keyboard-response","135","1144307","0.0-2.0-7.0-1.17","6114ba31072fc0bcc226b89d","A3","batch1","","860.3000000119209","stim/yes_14_hor_b1_w.png","f","pattern_response","true","f","pattern_43","860.3000000119209","true","47","","","","","","","","","","","","","","","","","","",""
"","","","","","html-keyboard-response","136","1145619","0.0-2.0-7.0-0.18","6114ba31072fc0bcc226b89d","A3","batch1","","null","<p class=block-text>Trial 58 out of 78</p>","null","pattern_show_trial_num","","","","","","","","","","","","","","","","","","","","","","","","",""
"","","","","","image-keyboard-response","137","1146687","0.0-2.0-7.0-1.18","6114ba31072fc0bcc226b89d","A3","batch1","","1064.5999999940395","stim/yes_31_hor_b1.png","f","pattern_response","true","f","pattern_55","1064.5999999940395","true","48","","","","","","","","","","","","","","","","","","",""
"","","","","","html-keyboard-response","138","1148003","0.0-2.0-7.0-0.19","6114ba31072fc0bcc226b89d","A3","batch1","","null","<p class=block-text>Trial 59 out of 78</p>","null","pattern_show_trial_num","","","","","","","","","","","","","","","","","","","","","","","","",""
"","","","","","image-keyboard-response","139","1148992","0.0-2.0-7.0-1.19","6114ba31072fc0bcc226b89d","A3","batch1","","986.5999999940395","stim/yes_67_hor_b1.png","f","pattern_response","true","f","pattern_79","986.5999999940395","true","49","","","","","","","","","","","","","","","","","","",""
"","","","","","html-keyboard-response","140","1150307","0.0-2.0-7.0-0.20","6114ba31072fc0bcc226b89d","A3","batch1","","null","<p class=block-text>Trial 60 out of 78</p>","null","pattern_show_trial_num","","","","","","","","","","","","","","","","","","","","","","","","",""
"","","","","","image-keyboard-response","141","1152320","0.0-2.0-7.0-1.20","6114ba31072fc0bcc226b89d","A3","batch1","","2010.5","stim/no_38_1_b.png","j","pattern_response","true","j","pattern_20","2010.5","true","50","","","","","","","","","","","","","","","","","","",""
"","","","","","html-keyboard-response","142","1153635","0.0-2.0-7.0-0.21","6114ba31072fc0bcc226b89d","A3","batch1","","null","<p class=block-text>Trial 61 out of 78</p>","null","pattern_show_trial_num","","","","","","","","","","","","","","","","","","","","","","","","",""
"","","","","","image-keyboard-response","143","1155799","0.0-2.0-7.0-1.21","6114ba31072fc0bcc226b89d","A3","batch1","","2159.5999999940395","stim/no_42_1_w.png","j","pattern_response","true","j","pattern_22","2159.5999999940395","true","51","","","","","","","","","","","","","","","","","","",""
"","","","","","html-keyboard-response","144","1157115","0.0-2.0-7.0-0.22","6114ba31072fc0bcc226b89d","A3","batch1","","null","<p class=block-text>Trial 62 out of 78</p>","null","pattern_show_trial_num","","","","","","","","","","","","","","","","","","","","","","","","",""
"","","","","","image-keyboard-response","145","1158411","0.0-2.0-7.0-1.22","6114ba31072fc0bcc226b89d","A3","batch1","","1291.800000011921","stim/yes_43_ver_w1_w.png","f","pattern_response","true","f","pattern_65","1291.800000011921","true","52","","","","","","","","","","","","","","","","","","",""
"","","","","","html-keyboard-response","146","1159723","0.0-2.0-7.0-0.23","6114ba31072fc0bcc226b89d","A3","batch1","","null","<p class=block-text>Trial 63 out of 78</p>","null","pattern_show_trial_num","","","","","","","","","","","","","","","","","","","","","","","","",""
"","","","","","image-keyboard-response","147","1160751","0.0-2.0-7.0-1.23","6114ba31072fc0bcc226b89d","A3","batch1","","1026","stim/yes_55_hor_w1_w.png","f","pattern_response","true","f","pattern_75","1026","true","53","","","","","","","","","","","","","","","","","","",""
"","","","","","html-keyboard-response","148","1162067","0.0-2.0-7.0-0.24","6114ba31072fc0bcc226b89d","A3","batch1","","null","<p class=block-text>Trial 64 out of 78</p>","null","pattern_show_trial_num","","","","","","","","","","","","","","","","","","","","","","","","",""
"","","","","","image-keyboard-response","149","1163475","0.0-2.0-7.0-1.24","6114ba31072fc0bcc226b89d","A3","batch1","","1404.9000000059605","stim/yes_52_ver_w1.png","f","pattern_response","true","f","pattern_73","1404.9000000059605","true","54","","","","","","","","","","","","","","","","","","",""
"","","","","","html-keyboard-response","150","1164787","0.0-2.0-7.0-0.25","6114ba31072fc0bcc226b89d","A3","batch1","","null","<p class=block-text>Trial 65 out of 78</p>","null","pattern_show_trial_num","","","","","","","","","","","","","","","","","","","","","","","","",""
"","","","","","image-keyboard-response","151","1167434","0.0-2.0-7.0-1.25","6114ba31072fc0bcc226b89d","A3","batch1","","2644.100000023842","stim/no_62_1_w.png","j","pattern_response","true","j","pattern_36","2644.100000023842","true","55","","","","","","","","","","","","","","","","","","",""
"","","","","","html-keyboard-response","152","1168747","0.0-2.0-7.0-0.26","6114ba31072fc0bcc226b89d","A3","batch1","","null","<p class=block-text>Trial 66 out of 78</p>","null","pattern_show_trial_num","","","","","","","","","","","","","","","","","","","","","","","","",""
"","","","","","image-keyboard-response","153","1170445","0.0-2.0-7.0-1.26","6114ba31072fc0bcc226b89d","A3","batch1","","1694.800000011921","stim/yes_37_dia_w1.png","j","pattern_response","false","f","pattern_59","1694.800000011921","false","55","","","","","","","","","","","","","","","","","","",""
"","","","","","html-keyboard-response","154","1171755","0.0-2.0-7.0-0.27","6114ba31072fc0bcc226b89d","A3","batch1","","null","<p class=block-text>Trial 67 out of 78</p>","null","pattern_show_trial_num","","","","","","","","","","","","","","","","","","","","","","","","",""
"","","","","","image-keyboard-response","155","1173196","0.0-2.0-7.0-1.27","6114ba31072fc0bcc226b89d","A3","batch1","","1438.800000011921","stim/no_20_1_w.png","j","pattern_response","true","j","pattern_06","1438.800000011921","true","56","","","","","","","","","","","","","","","","","","",""
"","","","","","html-keyboard-response","156","1174507","0.0-2.0-7.0-0.28","6114ba31072fc0bcc226b89d","A3","batch1","","null","<p class=block-text>Trial 68 out of 78</p>","null","pattern_show_trial_num","","","","","","","","","","","","","","","","","","","","","","","","",""
"","","","","","image-keyboard-response","157","1177146","0.0-2.0-7.0-1.28","6114ba31072fc0bcc226b89d","A3","batch1","","2636.5","stim/no_48_1_w.png","j","pattern_response","true","j","pattern_28","2636.5","true","57","","","","","","","","","","","","","","","","","","",""
"","","","","","html-keyboard-response","158","1178459","0.0-2.0-7.0-0.29","6114ba31072fc0bcc226b89d","A3","batch1","","null","<p class=block-text>Trial 69 out of 78</p>","null","pattern_show_trial_num","","","","","","","","","","","","","","","","","","","","","","","","",""
"","","","","","image-keyboard-response","159","1181435","0.0-2.0-7.0-1.29","6114ba31072fc0bcc226b89d","A3","batch1","","2972","stim/no_70_2.png","j","pattern_response","true","j","pattern_40","2972","true","58","","","","","","","","","","","","","","","","","","",""
"","","","","","html-keyboard-response","160","1182747","0.0-2.0-7.0-0.30","6114ba31072fc0bcc226b89d","A3","batch1","","null","<p class=block-text>Trial 70 out of 78</p>","null","pattern_show_trial_num","","","","","","","","","","","","","","","","","","","","","","","","",""
"","","","","","image-keyboard-response","161","1183814","0.0-2.0-7.0-1.30","6114ba31072fc0bcc226b89d","A3","batch1","","1062.9000000059605","stim/yes_17_dia_w1.png","j","pattern_response","false","f","pattern_45","1062.9000000059605","false","58","","","","","","","","","","","","","","","","","","",""
"","","","","","html-keyboard-response","162","1185123","0.0-2.0-7.0-0.31","6114ba31072fc0bcc226b89d","A3","batch1","","null","<p class=block-text>Trial 71 out of 78</p>","null","pattern_show_trial_num","","","","","","","","","","","","","","","","","","","","","","","","",""
"","","","","","image-keyboard-response","163","1186203","0.0-2.0-7.0-1.31","6114ba31072fc0bcc226b89d","A3","batch1","","1076.4000000059605","stim/yes_29_ver_w1.png","f","pattern_response","true","f","pattern_53","1076.4000000059605","true","59","","","","","","","","","","","","","","","","","","",""
"","","","","","html-keyboard-response","164","1187515","0.0-2.0-7.0-0.32","6114ba31072fc0bcc226b89d","A3","batch1","","null","<p class=block-text>Trial 72 out of 78</p>","null","pattern_show_trial_num","","","","","","","","","","","","","","","","","","","","","","","","",""
"","","","","","image-keyboard-response","165","1189744","0.0-2.0-7.0-1.32","6114ba31072fc0bcc226b89d","A3","batch1","","2225.5999999940395","stim/yes_50_dia_w1.png","j","pattern_response","false","f","pattern_71","2225.5999999940395","false","59","","","","","","","","","","","","","","","","","","",""
"","","","","","html-keyboard-response","166","1191059","0.0-2.0-7.0-0.33","6114ba31072fc0bcc226b89d","A3","batch1","","null","<p class=block-text>Trial 73 out of 78</p>","null","pattern_show_trial_num","","","","","","","","","","","","","","","","","","","","","","","","",""
"","","","","","image-keyboard-response","167","1193307","0.0-2.0-7.0-1.33","6114ba31072fc0bcc226b89d","A3","batch1","","2244.4000000059605","stim/no_52_1.png","j","pattern_response","true","j","pattern_32","2244.4000000059605","true","60","","","","","","","","","","","","","","","","","","",""
"","","","","","html-keyboard-response","168","1194619","0.0-2.0-7.0-0.34","6114ba31072fc0bcc226b89d","A3","batch1","","null","<p class=block-text>Trial 74 out of 78</p>","null","pattern_show_trial_num","","","","","","","","","","","","","","","","","","","","","","","","",""
"","","","","","image-keyboard-response","169","1196511","0.0-2.0-7.0-1.34","6114ba31072fc0bcc226b89d","A3","batch1","","1888.5","stim/no_50_1.png","j","pattern_response","true","j","pattern_30","1888.5","true","61","","","","","","","","","","","","","","","","","","",""
"","","","","","html-keyboard-response","170","1197827","0.0-2.0-7.0-0.35","6114ba31072fc0bcc226b89d","A3","batch1","","null","<p class=block-text>Trial 75 out of 78</p>","null","pattern_show_trial_num","","","","","","","","","","","","","","","","","","","","","","","","",""
"","","","","","image-keyboard-response","171","1199239","0.0-2.0-7.0-1.35","6114ba31072fc0bcc226b89d","A3","batch1","","1407.9000000059605","stim/yes_35_dia_b1.png","f","pattern_response","true","f","pattern_57","1407.9000000059605","true","62","","","","","","","","","","","","","","","","","","",""
"","","","","","html-keyboard-response","172","1200555","0.0-2.0-7.0-0.36","6114ba31072fc0bcc226b89d","A3","batch1","","null","<p class=block-text>Trial 76 out of 78</p>","null","pattern_show_trial_num","","","","","","","","","","","","","","","","","","","","","","","","",""
"","","","","","image-keyboard-response","173","1202732","0.0-2.0-7.0-1.36","6114ba31072fc0bcc226b89d","A3","batch1","","2174.600000023842","stim/no_36_2_w.png","j","pattern_response","true","j","pattern_18","2174.600000023842","true","63","","","","","","","","","","","","","","","","","","",""
"","","","","","html-keyboard-response","174","1204043","0.0-2.0-7.0-0.37","6114ba31072fc0bcc226b89d","A3","batch1","","null","<p class=block-text>Trial 77 out of 78</p>","null","pattern_show_trial_num","","","","","","","","","","","","","","","","","","","","","","","","",""
"","","","","","image-keyboard-response","175","1206695","0.0-2.0-7.0-1.37","6114ba31072fc0bcc226b89d","A3","batch1","","2647.7999999821186","stim/yes_60_ver_b1_b.png","j","pattern_response","false","f","pattern_77","2647.7999999821186","false","63","","","","","","","","","","","","","","","","","","",""
"","","","","","html-keyboard-response","176","1208011","0.0-2.0-7.0-0.38","6114ba31072fc0bcc226b89d","A3","batch1","","null","<p class=block-text>Trial 78 out of 78</p>","null","pattern_show_trial_num","","","","","","","","","","","","","","","","","","","","","","","","",""
"","","","","","image-keyboard-response","177","1214244","0.0-2.0-7.0-1.38","6114ba31072fc0bcc226b89d","A3","batch1","","6229.5999999940395","stim/no_46_1_b.png","j","pattern_response","true","j","pattern_26","6229.5999999940395","true","64","","","","","","","","","","","","","","","","","","",""
"","","","","","html-button-response","178","1220186","0.0-2.0-8.0","6114ba31072fc0bcc226b89d","A3","batch1","","5437.200000017881","<p class = block-text>This concludes the 4-in-a-row detection game.Thank you for your responses!<br>
            You responded correctly on 82% of the trials.<br>
            When you are ready, press ""Continue"" button to continue </p>","0","","","","","","","","","","","","","","","","","","","","","","","","","",""
"true","","","","","fullscreen","179","1316251","0.0-3.0-0.0","6114ba31072fc0bcc226b89d","A3","batch1","","","","","","","","","","","","","","","","","","","","","","","","","","","","","",""
"","","","","","instructions","180","1399756","0.0-3.0-1.0-0.0-0.0","6114ba31072fc0bcc226b89d","A3","batch1","[{""page_index"":0,""viewing_time"":23208.20000001788},{""page_index"":1,""viewing_time"":5569.399999976158},{""page_index"":2,""viewing_time"":8789.40000000596},{""page_index"":3,""viewing_time"":16984.90000000596},{""page_index"":4,""viewing_time"":8118.300000011921},{""page_index"":5,""viewing_time"":16063.09999999404},{""page_index"":6,""viewing_time"":4769.699999988079}]","83503.59999999404","","","tol-instructions","","","","","","","","","","","","","","","","","","","","","","","","",""
"","","","","","html-button-response","181","1401227","0.0-3.0-1.0-1.0-0.0","6114ba31072fc0bcc226b89d","A3","batch1","","1468.4000000059605","<p class=block-text> Let's answer a few questions <br>","0","tol_enter_quiz","","","","","","","","","","","","","","","","","","","","","","","","",""
"","","","","","html-button-response","182","1405499","0.0-3.0-1.0-1.0-1.0","6114ba31072fc0bcc226b89d","A3","batch1","","4267.200000017881","<p class = block-text>True or False: You can only move the ball on top of a peg. <br></p>","1","tol_quiz","false","","","","","","","","","","","","","","","","","","","","","","","",""
"","","","","","html-button-response","183","1408191","0.0-3.0-1.0-1.0-2.0","6114ba31072fc0bcc226b89d","A3","batch1","","2688.5999999940395","<p class = block-text>Incorrect. Remember, you can only move the ball on top of a peg.</p>","0","tol_quiz_feedback","","","","","","","","","","","","","","","","","","","","","","","","",""
"","","","","","html-button-response","184","1411679","0.0-3.0-1.0-1.0-3.0","6114ba31072fc0bcc226b89d","A3","batch1","","3484.800000011921","<p class = block-text>True or False: You should try to match your board with the target board with fewest moves possible. <br></p>","0","tol_quiz","true","","","","","","","","","","","","","","","","","","","","","","","",""
"","","","","","html-button-response","185","1413006","0.0-3.0-1.0-1.0-4.0","6114ba31072fc0bcc226b89d","A3","batch1","","1323.2999999821186","<p class = block-text>Correct! </p>","0","tol_quiz_feedback","","","","","","","","","","","","","","","","","","","","","","","","",""
"","","","","","html-button-response","186","1415904","0.0-3.0-1.0-2.0-0.0","6114ba31072fc0bcc226b89d","A3","batch1","","2895.100000023842","<p class = block-text>You made too many incorrect choices.</p><p class = block-text>You will now repeat the instructions and quiz</p>","0","","","","","","","","","","","","","","","","","","","","","","","","","",""
"","","","","","instructions","187","1459295","0.0-3.0-1.1-0.1-0.1","6114ba31072fc0bcc226b89d","A3","batch1","[{""page_index"":0,""viewing_time"":7285.4000000059605},{""page_index"":1,""viewing_time"":3282.800000011921},{""page_index"":2,""viewing_time"":2535.199999988079},{""page_index"":3,""viewing_time"":4781.9000000059605},{""page_index"":4,""viewing_time"":4721.199999988079},{""page_index"":5,""viewing_time"":11994},{""page_index"":6,""viewing_time"":8787.40000000596}]","43388.40000000596","","","tol-instructions","","","","","","","","","","","","","","","","","","","","","","","","",""
"","","","","","html-button-response","188","1461178","0.0-3.0-1.1-1.1-0.1","6114ba31072fc0bcc226b89d","A3","batch1","","1880.699999988079","<p class=block-text> Let's answer a few questions <br>","0","tol_enter_quiz","","","","","","","","","","","","","","","","","","","","","","","","",""
"","","","","","html-button-response","189","1463783","0.0-3.0-1.1-1.1-1.1","6114ba31072fc0bcc226b89d","A3","batch1","","2601.5999999940395","<p class = block-text>True or False: You can only move the ball on top of a peg. <br></p>","0","tol_quiz","true","","","","","","","","","","","","","","","","","","","","","","","",""
"","","","","","html-button-response","190","1465458","0.0-3.0-1.1-1.1-2.1","6114ba31072fc0bcc226b89d","A3","batch1","","1672.4000000059605","<p class = block-text>Correct! You can only move the ball on top of a peg.</p>","0","tol_quiz_feedback","","","","","","","","","","","","","","","","","","","","","","","","",""
"","","","","","html-button-response","191","1468880","0.0-3.0-1.1-1.1-3.1","6114ba31072fc0bcc226b89d","A3","batch1","","3418.9000000059605","<p class = block-text>True or False: You should try to match your board with the target board with fewest moves possible. <br></p>","0","tol_quiz","true","","","","","","","","","","","","","","","","","","","","","","","",""
"","","","","","html-button-response","192","1470098","0.0-3.0-1.1-1.1-4.1","6114ba31072fc0bcc226b89d","A3","batch1","","1213.7999999821186","<p class = block-text>Correct! </p>","0","tol_quiz_feedback","","","","","","","","","","","","","","","","","","","","","","","","",""
"","","","","","html-button-response","193","1473330","0.0-3.0-2.0","6114ba31072fc0bcc226b89d","A3","batch1","","3228","<p class=block-text> Now that you've understood the game, let's practice a few easier examples before we start!<br> <br>","0","","","","","","","","","","","","","","","","","","","","","","","","","",""
"","","","","","single-stim-button","194","1477368","0.0-3.0-3.0-0.0","6114ba31072fc0bcc226b89d","A3","batch1","","4030","","","tol_practice","","","","","","","","","tol_peg_2","4030","4030","0","[[1,2,0],[0,0],[0]]","1","[[1,2,0],[0,0],[3]]","practice","4030","","","","","","","",""
"","","","","","single-stim-button","195","1479498","0.0-3.0-3.0-1.0","6114ba31072fc0bcc226b89d","A3","batch1","","2126","","","tol_practice","","","","","","","","","tol_peg_3","2126","2126","0","[[1,2,0],[0,0],[3]]","1","[[1,2,0],[0,0],[3]]","practice","2126","","","","","","","",""
"","","","","","poldrack-single-stim","196","1480508","0.0-3.0-4.0","6114ba31072fc0bcc226b89d","A3","batch1","","-1","","","tol_feedback","true","","","","","","","","","1000","1000","500","","","","","","-1","none","true","","0","","",""
"","","","","","single-stim-button","197","1485760","0.0-3.0-5.0-0.0","6114ba31072fc0bcc226b89d","A3","batch1","","5250","","","tol_practice","","","","","","","","","tol_peg_1","5250","5250","0","[[1,0,0],[3,0],[0]]","2","[[0,0,0],[3,1],[2]]","practice","5250","","","","","","","",""
"","","","","","single-stim-button","198","1487203","0.0-3.0-5.0-1.0","6114ba31072fc0bcc226b89d","A3","batch1","","1440","","","tol_practice","","","","","","","","","tol_peg_3","1440","1440","0","[[1,0,0],[3,0],[2]]","2","[[0,0,0],[3,1],[2]]","practice","1440","","","","","","","",""
"","","","","","single-stim-button","199","1489615","0.0-3.0-5.1-0.1","6114ba31072fc0bcc226b89d","A3","batch1","","2409","","","tol_practice","","","","","","","","","tol_peg_2","2409","2409","0","[[1,0,0],[0,0],[2]]","3","[[0,0,0],[3,1],[2]]","practice","2409","","","","","","","",""
"","","","","","single-stim-button","200","1490882","0.0-3.0-5.1-1.1","6114ba31072fc0bcc226b89d","A3","batch1","","1264","","","tol_practice","","","","","","","","","tol_peg_1","1264","1264","0","[[1,3,0],[0,0],[2]]","3","[[0,0,0],[3,1],[2]]","practice","1264","","","","","","","",""
"","","","","","single-stim-button","201","1491837","0.0-3.0-5.2-0.2","6114ba31072fc0bcc226b89d","A3","batch1","","952","","","tol_practice","","","","","","","","","tol_peg_1","952","952","0","[[1,0,0],[0,0],[2]]","4","[[0,0,0],[3,1],[2]]","practice","952","","","","","","","",""
"","","","","","single-stim-button","202","1492158","0.0-3.0-5.2-1.2","6114ba31072fc0bcc226b89d","A3","batch1","","318","","","tol_practice","","","","","","","","","tol_peg_1","318","318","0","[[1,3,0],[0,0],[2]]","4","[[0,0,0],[3,1],[2]]","practice","318","","","","","","","",""
"","","","","","single-stim-button","203","1493461","0.0-3.0-5.3-0.3","6114ba31072fc0bcc226b89d","A3","batch1","","1300","","","tol_practice","","","","","","","","","tol_peg_1","1300","1300","0","[[1,0,0],[0,0],[2]]","5","[[0,0,0],[3,1],[2]]","practice","1300","","","","","","","",""
"","","","","","single-stim-button","204","1496239","0.0-3.0-5.3-1.3","6114ba31072fc0bcc226b89d","A3","batch1","","2777","","","tol_practice","","","","","","","","","tol_peg_2","2777","2777","0","[[1,0,0],[3,0],[2]]","5","[[0,0,0],[3,1],[2]]","practice","2777","","","","","","","",""
"","","","","","single-stim-button","205","1497265","0.0-3.0-5.4-0.4","6114ba31072fc0bcc226b89d","A3","batch1","","1023","","","tol_practice","","","","","","","","","tol_peg_1","1023","1023","0","[[0,0,0],[3,0],[2]]","6","[[0,0,0],[3,1],[2]]","practice","1023","","","","","","","",""
"","","","","","single-stim-button","206","1498355","0.0-3.0-5.4-1.4","6114ba31072fc0bcc226b89d","A3","batch1","","1086","","","tol_practice","","","","","","","","","tol_peg_2","1086","1086","0","[[0,0,0],[3,1],[2]]","6","[[0,0,0],[3,1],[2]]","practice","1086","","","","","","","",""
"","","","","","poldrack-single-stim","207","1499363","0.0-3.0-6.0","6114ba31072fc0bcc226b89d","A3","batch1","","-1","","","tol_feedback","true","","","","","","","","","1000","1000","500","","","","","","-1","none","true","","0","","",""
"","","","","","single-stim-button","208","1505740","0.0-3.0-7.0-0.0","6114ba31072fc0bcc226b89d","A3","batch1","","6375","","","tol_practice","","","","","","","","","tol_peg_2","6375","6375","0","[[1,2,0],[0,0],[0]]","7","[[1,0,0],[2,0],[3]]","practice","6375","","","","","","","",""
"","","","","","single-stim-button","209","1507014","0.0-3.0-7.0-1.0","6114ba31072fc0bcc226b89d","A3","batch1","","1271","","","tol_practice","","","","","","","","","tol_peg_3","1271","1271","0","[[1,2,0],[0,0],[3]]","7","[[1,0,0],[2,0],[3]]","practice","1271","","","","","","","",""
"","","","","","single-stim-button","210","1508695","0.0-3.0-7.1-0.1","6114ba31072fc0bcc226b89d","A3","batch1","","1678","","","tol_practice","","","","","","","","","tol_peg_1","1678","1678","0","[[1,0,0],[0,0],[3]]","8","[[1,0,0],[2,0],[3]]","practice","1678","","","","","","","",""
"","","","","","single-stim-button","211","1510199","0.0-3.0-7.1-1.1","6114ba31072fc0bcc226b89d","A3","batch1","","1501","","","tol_practice","","","","","","","","","tol_peg_2","1501","1501","0","[[1,0,0],[2,0],[3]]","8","[[1,0,0],[2,0],[3]]","practice","1501","","","","","","","",""
"","","","","","poldrack-single-stim","212","1511203","0.0-3.0-8.0","6114ba31072fc0bcc226b89d","A3","batch1","","-1","","","tol_feedback","true","","","","","","","","","1000","1000","500","","","","","","-1","none","true","","0","","",""
"","","","","","html-button-response","213","1516578","0.0-3.0-9.0","6114ba31072fc0bcc226b89d","A3","batch1","","5371.0999999940395","<div class = centerbox><p class = center-block-text>Great job! You are done with practice trials<br>You are about to start official trials.<br> <br> Problem <strong>1</strong> out of 25 problems</p></div>","0","tol_instruction","","","","","","","","","","","","","","","","","","","","","","","","",""
"","","","","","single-stim-button","214","1526939","0.0-3.0-10.0-0.0","6114ba31072fc0bcc226b89d","A3","batch1","","9349","","","tol_tohand","","","","","","","","","tol_peg_2","9349","9349","0","[[1,2,0],[0,0],[0]]","1","[[1,3,0],[2,0],[0]]","0","0","","","","","","3","",""
"","","","","","single-stim-button","215","1528766","0.0-3.0-10.0-1.0","6114ba31072fc0bcc226b89d","A3","batch1","","1824","","","tol_toboard","","","","","","","","","tol_peg_1","1824","1824","0","[[1,2,3],[0,0],[0]]","1","[[1,3,0],[2,0],[0]]","0","0","","","","","","3","",""
"","","","","","single-stim-button","216","1529701","0.0-3.0-10.1-0.1","6114ba31072fc0bcc226b89d","A3","batch1","","932","","","tol_tohand","","","","","","","","","tol_peg_1","932","932","0","[[1,2,0],[0,0],[0]]","2","[[1,3,0],[2,0],[0]]","0","0","","","","","","3","",""
"","","","","","single-stim-button","217","1530707","0.0-3.0-10.1-1.1","6114ba31072fc0bcc226b89d","A3","batch1","","1003","","","tol_toboard","","","","","","","","","tol_peg_1","1003","1003","0","[[1,2,3],[0,0],[0]]","2","[[1,3,0],[2,0],[0]]","0","0","","","","","","3","",""
"","","","","","single-stim-button","218","1534583","0.0-3.0-10.2-0.2","6114ba31072fc0bcc226b89d","A3","batch1","","3873","","","tol_tohand","","","","","","","","","tol_peg_1","3873","3873","0","[[1,2,0],[0,0],[0]]","3","[[1,3,0],[2,0],[0]]","0","0","","","","","","3","",""
"","","","","","single-stim-button","219","1536141","0.0-3.0-10.2-1.2","6114ba31072fc0bcc226b89d","A3","batch1","","1554","","","tol_toboard","","","","","","","","","tol_peg_3","1554","1554","0","[[1,2,0],[0,0],[3]]","3","[[1,3,0],[2,0],[0]]","0","0","","","","","","3","",""
"","","","","","single-stim-button","220","1537235","0.0-3.0-10.3-0.3","6114ba31072fc0bcc226b89d","A3","batch1","","1092","","","tol_tohand","","","","","","","","","tol_peg_1","1092","1092","0","[[1,0,0],[0,0],[3]]","4","[[1,3,0],[2,0],[0]]","0","0","","","","","","3","",""
"","","","","","single-stim-button","221","1538636","0.0-3.0-10.3-1.3","6114ba31072fc0bcc226b89d","A3","batch1","","1397","","","tol_toboard","","","","","","","","","tol_peg_2","1397","1397","0","[[1,0,0],[2,0],[3]]","4","[[1,3,0],[2,0],[0]]","0","0","","","","","","3","",""
"","","","","","single-stim-button","222","1539707","0.0-3.0-10.4-0.4","6114ba31072fc0bcc226b89d","A3","batch1","","1068","","","tol_tohand","","","","","","","","","tol_peg_3","1068","1068","0","[[1,0,0],[2,0],[0]]","5","[[1,3,0],[2,0],[0]]","0","0","","","","","","3","",""
"","","","","","single-stim-button","223","1540870","0.0-3.0-10.4-1.4","6114ba31072fc0bcc226b89d","A3","batch1","","1160","","","tol_toboard","","","","","","","","","tol_peg_1","1160","1160","0","[[1,3,0],[2,0],[0]]","5","[[1,3,0],[2,0],[0]]","0","0","","","","","","3","",""
"","","","","","poldrack-single-stim","224","1541875","0.0-3.0-11.0","6114ba31072fc0bcc226b89d","A3","batch1","","-1","","","tol_feedback","true","","","","","","","","","1000","1000","500","","","","","","-1","none","true","9349","16314","","",""
"","","","","","html-button-response","225","1543617","0.0-3.0-12.0","6114ba31072fc0bcc226b89d","A3","batch1","","1737.300000011921","<div class = centerbox><p class = center-block-text>problem <strong>2</strong> out of 25 problems</p></div>","0","tol_trial_num","","","","","","","","","","","","","","","","","","","","","","","","",""
"","","","","","single-stim-button","226","1547083","0.0-3.0-13.0-0.0","6114ba31072fc0bcc226b89d","A3","batch1","","3462","","","tol_tohand","","","","","","","","","tol_peg_2","3462","3462","0","[[1,2,0],[0,0],[0]]","1","[[2,1,3],[0,0],[0]]","1","0","","","","","","5","",""
"","","","","","single-stim-button","227","1551947","0.0-3.0-13.0-1.0","6114ba31072fc0bcc226b89d","A3","batch1","","4861","","","tol_toboard","","","","","","","","","tol_peg_3","4861","4861","0","[[1,2,0],[0,0],[3]]","1","[[2,1,3],[0,0],[0]]","1","0","","","","","","5","",""
"","","","","","single-stim-button","228","1553638","0.0-3.0-13.1-0.1","6114ba31072fc0bcc226b89d","A3","batch1","","1687","","","tol_tohand","","","","","","","","","tol_peg_1","1687","1687","0","[[1,0,0],[0,0],[3]]","2","[[2,1,3],[0,0],[0]]","1","0","","","","","","5","",""
"","","","","","single-stim-button","229","1555590","0.0-3.0-13.1-1.1","6114ba31072fc0bcc226b89d","A3","batch1","","1950","","","tol_toboard","","","","","","","","","tol_peg_2","1950","1950","0","[[1,0,0],[2,0],[3]]","2","[[2,1,3],[0,0],[0]]","1","0","","","","","","5","",""
"","","","","","single-stim-button","230","1556633","0.0-3.0-13.2-0.2","6114ba31072fc0bcc226b89d","A3","batch1","","1040","","","tol_tohand","","","","","","","","","tol_peg_1","1040","1040","0","[[0,0,0],[2,0],[3]]","3","[[2,1,3],[0,0],[0]]","1","0","","","","","","5","",""
"","","","","","single-stim-button","231","1563534","0.0-3.0-13.2-1.2","6114ba31072fc0bcc226b89d","A3","batch1","","6897","","","tol_toboard","","","","","","","","","tol_peg_2","6897","6897","0","[[0,0,0],[2,1],[3]]","3","[[2,1,3],[0,0],[0]]","1","0","","","","","","5","",""
"","","","","","single-stim-button","232","1564361","0.0-3.0-13.3-0.3","6114ba31072fc0bcc226b89d","A3","batch1","","822","","","tol_tohand","","","","","","","","","tol_peg_3","822","822","0","[[0,0,0],[2,1],[0]]","4","[[2,1,3],[0,0],[0]]","1","0","","","","","","5","",""
"","","","","","single-stim-button","233","1567368","0.0-3.0-13.3-1.3","6114ba31072fc0bcc226b89d","A3","batch1","","3005","","","tol_toboard","","","","","","","","","tol_peg_1","3005","3005","0","[[3,0,0],[2,1],[0]]","4","[[2,1,3],[0,0],[0]]","1","0","","","","","","5","",""
"","","","","","single-stim-button","234","1569570","0.0-3.0-13.4-0.4","6114ba31072fc0bcc226b89d","A3","batch1","","2200","","","tol_tohand","","","","","","","","","tol_peg_2","2200","2200","0","[[3,0,0],[2,0],[0]]","5","[[2,1,3],[0,0],[0]]","1","0","","","","","","5","",""
"","","","","","single-stim-button","235","1571378","0.0-3.0-13.4-1.4","6114ba31072fc0bcc226b89d","A3","batch1","","1805","","","tol_toboard","","","","","","","","","tol_peg_3","1805","1805","0","[[3,0,0],[2,0],[1]]","5","[[2,1,3],[0,0],[0]]","1","0","","","","","","5","",""
"","","","","","single-stim-button","236","1572472","0.0-3.0-13.5-0.5","6114ba31072fc0bcc226b89d","A3","batch1","","1092","","","tol_tohand","","","","","","","","","tol_peg_1","1092","1092","0","[[0,0,0],[2,0],[1]]","6","[[2,1,3],[0,0],[0]]","1","0","","","","","","5","",""
"","","","","","single-stim-button","237","1573755","0.0-3.0-13.5-1.5","6114ba31072fc0bcc226b89d","A3","batch1","","1281","","","tol_toboard","","","","","","","","","tol_peg_2","1281","1281","0","[[0,0,0],[2,3],[1]]","6","[[2,1,3],[0,0],[0]]","1","0","","","","","","5","",""
"","","","","","single-stim-button","238","1576232","0.0-3.0-13.6-0.6","6114ba31072fc0bcc226b89d","A3","batch1","","2474","","","tol_tohand","","","","","","","","","tol_peg_3","2474","2474","0","[[0,0,0],[2,3],[0]]","7","[[2,1,3],[0,0],[0]]","1","0","","","","","","5","",""
"","","","","","single-stim-button","239","1579580","0.0-3.0-13.6-1.6","6114ba31072fc0bcc226b89d","A3","batch1","","3345","","","tol_toboard","","","","","","","","","tol_peg_3","3345","3345","0","[[0,0,0],[2,3],[1]]","7","[[2,1,3],[0,0],[0]]","1","0","","","","","","5","",""
"","","","","","single-stim-button","240","1579882","0.0-3.0-13.7-0.7","6114ba31072fc0bcc226b89d","A3","batch1","","298","","","tol_tohand","","","","","","","","","tol_peg_3","298","298","0","[[0,0,0],[2,3],[0]]","8","[[2,1,3],[0,0],[0]]","1","0","","","","","","5","",""
"","","","","","single-stim-button","241","1581843","0.0-3.0-13.7-1.7","6114ba31072fc0bcc226b89d","A3","batch1","","1958","","","tol_toboard","","","","","","","","","tol_peg_1","1958","1958","0","[[1,0,0],[2,3],[0]]","8","[[2,1,3],[0,0],[0]]","1","0","","","","","","5","",""
"","","","","","single-stim-button","242","1582871","0.0-3.0-13.8-0.8","6114ba31072fc0bcc226b89d","A3","batch1","","1026","","","tol_tohand","","","","","","","","","tol_peg_2","1026","1026","0","[[1,0,0],[2,0],[0]]","9","[[2,1,3],[0,0],[0]]","1","0","","","","","","5","",""
"","","","","","single-stim-button","243","1584261","0.0-3.0-13.8-1.8","6114ba31072fc0bcc226b89d","A3","batch1","","1386","","","tol_toboard","","","","","","","","","tol_peg_3","1386","1386","0","[[1,0,0],[2,0],[3]]","9","[[2,1,3],[0,0],[0]]","1","0","","","","","","5","",""
"","","","","","single-stim-button","244","1585459","0.0-3.0-13.9-0.9","6114ba31072fc0bcc226b89d","A3","batch1","","1195","","","tol_tohand","","","","","","","","","tol_peg_2","1195","1195","0","[[1,0,0],[0,0],[3]]","10","[[2,1,3],[0,0],[0]]","1","0","","","","","","5","",""
"","","","","","single-stim-button","245","1586532","0.0-3.0-13.9-1.9","6114ba31072fc0bcc226b89d","A3","batch1","","1071","","","tol_toboard","","","","","","","","","tol_peg_1","1071","1071","0","[[1,2,0],[0,0],[3]]","10","[[2,1,3],[0,0],[0]]","1","0","","","","","","5","",""
"","","","","","single-stim-button","246","1587611","0.0-3.0-13.10-0.10","6114ba31072fc0bcc226b89d","A3","batch1","","1077","","","tol_tohand","","","","","","","","","tol_peg_1","1077","1077","0","[[1,0,0],[0,0],[3]]","11","[[2,1,3],[0,0],[0]]","1","0","","","","","","5","",""
"","","","","","single-stim-button","247","1593918","0.0-3.0-13.10-1.10","6114ba31072fc0bcc226b89d","A3","batch1","","6305","","","tol_toboard","","","","","","","","","tol_peg_2","6305","6305","0","[[1,0,0],[2,0],[3]]","11","[[2,1,3],[0,0],[0]]","1","0","","","","","","5","",""
"","","","","","single-stim-button","248","1595291","0.0-3.0-13.11-0.11","6114ba31072fc0bcc226b89d","A3","batch1","","1368","","","tol_tohand","","","","","","","","","tol_peg_3","1368","1368","0","[[1,0,0],[2,0],[0]]","12","[[2,1,3],[0,0],[0]]","1","0","","","","","","5","",""
"","","","","","single-stim-button","249","1596400","0.0-3.0-13.11-1.11","6114ba31072fc0bcc226b89d","A3","batch1","","1106","","","tol_toboard","","","","","","","","","tol_peg_1","1106","1106","0","[[1,3,0],[2,0],[0]]","12","[[2,1,3],[0,0],[0]]","1","0","","","","","","5","",""
"","","","","","single-stim-button","250","1597442","0.0-3.0-13.12-0.12","6114ba31072fc0bcc226b89d","A3","batch1","","1038","","","tol_tohand","","","","","","","","","tol_peg_2","1038","1038","0","[[1,3,0],[0,0],[0]]","13","[[2,1,3],[0,0],[0]]","1","0","","","","","","5","",""
"","","","","","single-stim-button","251","1598423","0.0-3.0-13.12-1.12","6114ba31072fc0bcc226b89d","A3","batch1","","980","","","tol_toboard","","","","","","","","","tol_peg_3","980","980","0","[[1,3,0],[0,0],[2]]","13","[[2,1,3],[0,0],[0]]","1","0","","","","","","5","",""
"","","","","","single-stim-button","252","1600141","0.0-3.0-13.13-0.13","6114ba31072fc0bcc226b89d","A3","batch1","","1713","","","tol_tohand","","","","","","","","","tol_peg_1","1713","1713","0","[[1,0,0],[0,0],[2]]","14","[[2,1,3],[0,0],[0]]","1","0","","","","","","5","",""
"","","","","","single-stim-button","253","1601339","0.0-3.0-13.13-1.13","6114ba31072fc0bcc226b89d","A3","batch1","","1195","","","tol_toboard","","","","","","","","","tol_peg_2","1195","1195","0","[[1,0,0],[3,0],[2]]","14","[[2,1,3],[0,0],[0]]","1","0","","","","","","5","",""
"","","","","","single-stim-button","254","1602524","0.0-3.0-13.14-0.14","6114ba31072fc0bcc226b89d","A3","batch1","","1183","","","tol_tohand","","","","","","","","","tol_peg_1","1183","1183","0","[[0,0,0],[3,0],[2]]","15","[[2,1,3],[0,0],[0]]","1","0","","","","","","5","",""
"","","","","","single-stim-button","255","1603964","0.0-3.0-13.14-1.14","6114ba31072fc0bcc226b89d","A3","batch1","","1438","","","tol_toboard","","","","","","","","","tol_peg_2","1438","1438","0","[[0,0,0],[3,1],[2]]","15","[[2,1,3],[0,0],[0]]","1","0","","","","","","5","",""
"","","","","","single-stim-button","256","1604830","0.0-3.0-13.15-0.15","6114ba31072fc0bcc226b89d","A3","batch1","","862","","","tol_tohand","","","","","","","","","tol_peg_3","862","862","0","[[0,0,0],[3,1],[0]]","16","[[2,1,3],[0,0],[0]]","1","0","","","","","","5","",""
"","","","","","single-stim-button","257","1606007","0.0-3.0-13.15-1.15","6114ba31072fc0bcc226b89d","A3","batch1","","1175","","","tol_toboard","","","","","","","","","tol_peg_1","1175","1175","0","[[2,0,0],[3,1],[0]]","16","[[2,1,3],[0,0],[0]]","1","0","","","","","","5","",""
"","","","","","single-stim-button","258","1607017","0.0-3.0-13.16-0.16","6114ba31072fc0bcc226b89d","A3","batch1","","1008","","","tol_tohand","","","","","","","","","tol_peg_2","1008","1008","0","[[2,0,0],[3,0],[0]]","17","[[2,1,3],[0,0],[0]]","1","0","","","","","","5","",""
"","","","","","single-stim-button","259","1608223","0.0-3.0-13.16-1.16","6114ba31072fc0bcc226b89d","A3","batch1","","1205","","","tol_toboard","","","","","","","","","tol_peg_1","1205","1205","0","[[2,1,0],[3,0],[0]]","17","[[2,1,3],[0,0],[0]]","1","0","","","","","","5","",""
"","","","","","single-stim-button","260","1609195","0.0-3.0-13.17-0.17","6114ba31072fc0bcc226b89d","A3","batch1","","969","","","tol_tohand","","","","","","","","","tol_peg_2","969","969","0","[[2,1,0],[0,0],[0]]","18","[[2,1,3],[0,0],[0]]","1","0","","","","","","5","",""
"","","","","","single-stim-button","261","1610293","0.0-3.0-13.17-1.17","6114ba31072fc0bcc226b89d","A3","batch1","","1095","","","tol_toboard","","","","","","","","","tol_peg_1","1095","1095","0","[[2,1,3],[0,0],[0]]","18","[[2,1,3],[0,0],[0]]","1","0","","","","","","5","",""
"","","","","","poldrack-single-stim","262","1611300","0.0-3.0-14.0","6114ba31072fc0bcc226b89d","A3","batch1","","-1","","","tol_feedback","true","","","","","","","","","1000","1000","500","","","","","","-1","none","true","3462","24514","","",""
"","","","","","html-button-response","263","1613004","0.0-3.0-15.0","6114ba31072fc0bcc226b89d","A3","batch1","","1700.800000011921","<div class = centerbox><p class = center-block-text>problem <strong>3</strong> out of 25 problems</p></div>","0","tol_trial_num","","","","","","","","","","","","","","","","","","","","","","","","",""
"","","","","","single-stim-button","264","1617241","0.0-3.0-16.0-0.0","6114ba31072fc0bcc226b89d","A3","batch1","","4235","","","tol_tohand","","","","","","","","","tol_peg_1","4235","4235","0","[[2,0,0],[0,0],[1]]","1","[[1,2,0],[3,0],[0]]","2","0","","","","","","4","",""
"","","","","","single-stim-button","265","1622066","0.0-3.0-16.0-1.0","6114ba31072fc0bcc226b89d","A3","batch1","","4822","","","tol_toboard","","","","","","","","","tol_peg_2","4822","4822","0","[[2,0,0],[3,0],[1]]","1","[[1,2,0],[3,0],[0]]","2","0","","","","","","4","",""
"","","","","","single-stim-button","266","1624091","0.0-3.0-16.1-0.1","6114ba31072fc0bcc226b89d","A3","batch1","","2021","","","tol_tohand","","","","","","","","","tol_peg_1","2021","2021","0","[[0,0,0],[3,0],[1]]","2","[[1,2,0],[3,0],[0]]","2","0","","","","","","4","",""
"","","","","","single-stim-button","267","1625297","0.0-3.0-16.1-1.1","6114ba31072fc0bcc226b89d","A3","batch1","","1204","","","tol_toboard","","","","","","","","","tol_peg_2","1204","1204","0","[[0,0,0],[3,2],[1]]","2","[[1,2,0],[3,0],[0]]","2","0","","","","","","4","",""
"","","","","","single-stim-button","268","1626280","0.0-3.0-16.2-0.2","6114ba31072fc0bcc226b89d","A3","batch1","","979","","","tol_tohand","","","","","","","","","tol_peg_3","979","979","0","[[0,0,0],[3,2],[0]]","3","[[1,2,0],[3,0],[0]]","2","0","","","","","","4","",""
"","","","","","single-stim-button","269","1627459","0.0-3.0-16.2-1.2","6114ba31072fc0bcc226b89d","A3","batch1","","1177","","","tol_toboard","","","","","","","","","tol_peg_1","1177","1177","0","[[1,0,0],[3,2],[0]]","3","[[1,2,0],[3,0],[0]]","2","0","","","","","","4","",""
"","","","","","single-stim-button","270","1628668","0.0-3.0-16.3-0.3","6114ba31072fc0bcc226b89d","A3","batch1","","1207","","","tol_tohand","","","","","","","","","tol_peg_2","1207","1207","0","[[1,0,0],[3,0],[0]]","4","[[1,2,0],[3,0],[0]]","2","0","","","","","","4","",""
"","","","","","single-stim-button","271","1629725","0.0-3.0-16.3-1.3","6114ba31072fc0bcc226b89d","A3","batch1","","1055","","","tol_toboard","","","","","","","","","tol_peg_1","1055","1055","0","[[1,2,0],[3,0],[0]]","4","[[1,2,0],[3,0],[0]]","2","0","","","","","","4","",""
"","","","","","poldrack-single-stim","272","1630732","0.0-3.0-17.0","6114ba31072fc0bcc226b89d","A3","batch1","","-1","","","tol_feedback","true","","","","","","","","","1000","1000","500","","","","","","-1","none","true","4235","8442","","",""
"","","","","","html-button-response","273","1632174","0.0-3.0-18.0","6114ba31072fc0bcc226b89d","A3","batch1","","1438.2999999821186","<div class = centerbox><p class = center-block-text>problem <strong>4</strong> out of 25 problems</p></div>","0","tol_trial_num","","","","","","","","","","","","","","","","","","","","","","","","",""
"","","","","","single-stim-button","274","1636921","0.0-3.0-19.0-0.0","6114ba31072fc0bcc226b89d","A3","batch1","","4744","","","tol_tohand","","","","","","","","","tol_peg_2","4744","4744","0","[[3,0,0],[2,0],[0]]","1","[[3,0,0],[1,0],[2]]","3","0","","","","","","3","",""
"","","","","","single-stim-button","275","1638598","0.0-3.0-19.0-1.0","6114ba31072fc0bcc226b89d","A3","batch1","","1674","","","tol_toboard","","","","","","","","","tol_peg_1","1674","1674","0","[[3,1,0],[2,0],[0]]","1","[[3,0,0],[1,0],[2]]","3","0","","","","","","3","",""
"","","","","","single-stim-button","276","1640401","0.0-3.0-19.1-0.1","6114ba31072fc0bcc226b89d","A3","batch1","","1800","","","tol_tohand","","","","","","","","","tol_peg_2","1800","1800","0","[[3,1,0],[0,0],[0]]","2","[[3,0,0],[1,0],[2]]","3","0","","","","","","3","",""
"","","","","","single-stim-button","277","1641412","0.0-3.0-19.1-1.1","6114ba31072fc0bcc226b89d","A3","batch1","","1010","","","tol_toboard","","","","","","","","","tol_peg_3","1010","1010","0","[[3,1,0],[0,0],[2]]","2","[[3,0,0],[1,0],[2]]","3","0","","","","","","3","",""
"","","","","","single-stim-button","278","1642284","0.0-3.0-19.2-0.2","6114ba31072fc0bcc226b89d","A3","batch1","","869","","","tol_tohand","","","","","","","","","tol_peg_1","869","869","0","[[3,0,0],[0,0],[2]]","3","[[3,0,0],[1,0],[2]]","3","0","","","","","","3","",""
"","","","","","single-stim-button","279","1643224","0.0-3.0-19.2-1.2","6114ba31072fc0bcc226b89d","A3","batch1","","938","","","tol_toboard","","","","","","","","","tol_peg_2","938","938","0","[[3,0,0],[1,0],[2]]","3","[[3,0,0],[1,0],[2]]","3","0","","","","","","3","",""
"","","","","","poldrack-single-stim","280","1644236","0.0-3.0-20.0","6114ba31072fc0bcc226b89d","A3","batch1","","-1","","","tol_feedback","true","","","","","","","","","1000","1000","500","","","","","","-1","none","true","4744","7413","","",""
"","","","","","html-button-response","281","1646249","0.0-3.0-21.0","6114ba31072fc0bcc226b89d","A3","batch1","","2010.800000011921","<div class = centerbox><p class = center-block-text>problem <strong>5</strong> out of 25 problems</p></div>","0","tol_trial_num","","","","","","","","","","","","","","","","","","","","","","","","",""
"","","","","","single-stim-button","282","1651655","0.0-3.0-22.0-0.0","6114ba31072fc0bcc226b89d","A3","batch1","","5403","","","tol_tohand","","","","","","","","","tol_peg_3","5403","5403","0","[[1,0,0],[2,0],[0]]","1","[[0,0,0],[1,2],[3]]","4","0","","","","","","7","",""
"","","","","","single-stim-button","283","1652712","0.0-3.0-22.0-1.0","6114ba31072fc0bcc226b89d","A3","batch1","","1055","","","tol_toboard","","","","","","","","","tol_peg_1","1055","1055","0","[[1,3,0],[2,0],[0]]","1","[[0,0,0],[1,2],[3]]","4","0","","","","","","7","",""
"","","","","","single-stim-button","284","1655310","0.0-3.0-22.1-0.1","6114ba31072fc0bcc226b89d","A3","batch1","","2596","","","tol_tohand","","","","","","","","","tol_peg_1","2596","2596","0","[[1,0,0],[2,0],[0]]","2","[[0,0,0],[1,2],[3]]","4","0","","","","","","7","",""
"","","","","","single-stim-button","285","1661610","0.0-3.0-22.1-1.1","6114ba31072fc0bcc226b89d","A3","batch1","","6298","","","tol_toboard","","","","","","","","","tol_peg_2","6298","6298","0","[[1,0,0],[2,3],[0]]","2","[[0,0,0],[1,2],[3]]","4","0","","","","","","7","",""
"","","","","","single-stim-button","286","1662783","0.0-3.0-22.2-0.2","6114ba31072fc0bcc226b89d","A3","batch1","","1169","","","tol_tohand","","","","","","","","","tol_peg_1","1169","1169","0","[[0,0,0],[2,3],[0]]","3","[[0,0,0],[1,2],[3]]","4","0","","","","","","7","",""
"","","","","","single-stim-button","287","1663969","0.0-3.0-22.2-1.2","6114ba31072fc0bcc226b89d","A3","batch1","","1183","","","tol_toboard","","","","","","","","","tol_peg_3","1183","1183","0","[[0,0,0],[2,3],[1]]","3","[[0,0,0],[1,2],[3]]","4","0","","","","","","7","",""
"","","","","","single-stim-button","288","1664951","0.0-3.0-22.3-0.3","6114ba31072fc0bcc226b89d","A3","batch1","","980","","","tol_tohand","","","","","","","","","tol_peg_2","980","980","0","[[0,0,0],[2,0],[1]]","4","[[0,0,0],[1,2],[3]]","4","0","","","","","","7","",""
"","","","","","single-stim-button","289","1666164","0.0-3.0-22.3-1.3","6114ba31072fc0bcc226b89d","A3","batch1","","1210","","","tol_toboard","","","","","","","","","tol_peg_1","1210","1210","0","[[3,0,0],[2,0],[1]]","4","[[0,0,0],[1,2],[3]]","4","0","","","","","","7","",""
"","","","","","single-stim-button","290","1668020","0.0-3.0-22.4-0.4","6114ba31072fc0bcc226b89d","A3","batch1","","1853","","","tol_tohand","","","","","","","","","tol_peg_2","1853","1853","0","[[3,0,0],[0,0],[1]]","5","[[0,0,0],[1,2],[3]]","4","0","","","","","","7","",""
"","","","","","single-stim-button","291","1668927","0.0-3.0-22.4-1.4","6114ba31072fc0bcc226b89d","A3","batch1","","905","","","tol_toboard","","","","","","","","","tol_peg_1","905","905","0","[[3,2,0],[0,0],[1]]","5","[[0,0,0],[1,2],[3]]","4","0","","","","","","7","",""
"","","","","","single-stim-button","292","1670271","0.0-3.0-22.5-0.5","6114ba31072fc0bcc226b89d","A3","batch1","","1340","","","tol_tohand","","","","","","","","","tol_peg_3","1340","1340","0","[[3,2,0],[0,0],[0]]","6","[[0,0,0],[1,2],[3]]","4","0","","","","","","7","",""
"","","","","","single-stim-button","293","1671612","0.0-3.0-22.5-1.5","6114ba31072fc0bcc226b89d","A3","batch1","","1338","","","tol_toboard","","","","","","","","","tol_peg_2","1338","1338","0","[[3,2,0],[1,0],[0]]","6","[[0,0,0],[1,2],[3]]","4","0","","","","","","7","",""
"","","","","","single-stim-button","294","1672745","0.0-3.0-22.6-0.6","6114ba31072fc0bcc226b89d","A3","batch1","","1131","","","tol_tohand","","","","","","","","","tol_peg_1","1131","1131","0","[[3,0,0],[1,0],[0]]","7","[[0,0,0],[1,2],[3]]","4","0","","","","","","7","",""
"","","","","","single-stim-button","295","1673611","0.0-3.0-22.6-1.6","6114ba31072fc0bcc226b89d","A3","batch1","","864","","","tol_toboard","","","","","","","","","tol_peg_2","864","864","0","[[3,0,0],[1,2],[0]]","7","[[0,0,0],[1,2],[3]]","4","0","","","","","","7","",""
"","","","","","single-stim-button","296","1674885","0.0-3.0-22.7-0.7","6114ba31072fc0bcc226b89d","A3","batch1","","1272","","","tol_tohand","","","","","","","","","tol_peg_1","1272","1272","0","[[0,0,0],[1,2],[0]]","8","[[0,0,0],[1,2],[3]]","4","0","","","","","","7","",""
"","","","","","single-stim-button","297","1676161","0.0-3.0-22.7-1.7","6114ba31072fc0bcc226b89d","A3","batch1","","1274","","","tol_toboard","","","","","","","","","tol_peg_3","1274","1274","0","[[0,0,0],[1,2],[3]]","8","[[0,0,0],[1,2],[3]]","4","0","","","","","","7","",""
"","","","","","poldrack-single-stim","298","1677172","0.0-3.0-23.0","6114ba31072fc0bcc226b89d","A3","batch1","","-1","","","tol_feedback","true","","","","","","","","","1000","1000","500","","","","","","-1","none","true","5403","15744","","",""
"","","","","","html-button-response","299","1678717","0.0-3.0-24.0","6114ba31072fc0bcc226b89d","A3","batch1","","1542.5","<div class = centerbox><p class = center-block-text>problem <strong>6</strong> out of 25 problems</p></div>","0","tol_trial_num","","","","","","","","","","","","","","","","","","","","","","","","",""
"","","","","","single-stim-button","300","1686551","0.0-3.0-25.0-0.0","6114ba31072fc0bcc226b89d","A3","batch1","","7833","","","tol_tohand","","","","","","","","","tol_peg_2","7833","7833","0","[[0,0,0],[1,0],[3]]","1","[[1,0,0],[2,3],[0]]","5","0","","","","","","6","",""
"","","","","","single-stim-button","301","1689109","0.0-3.0-25.0-1.0","6114ba31072fc0bcc226b89d","A3","batch1","","2556","","","tol_toboard","","","","","","","","","tol_peg_1","2556","2556","0","[[2,0,0],[1,0],[3]]","1","[[1,0,0],[2,3],[0]]","5","0","","","","","","6","",""
"","","","","","single-stim-button","302","1693403","0.0-3.0-25.1-0.1","6114ba31072fc0bcc226b89d","A3","batch1","","4292","","","tol_tohand","","","","","","","","","tol_peg_1","4292","4292","0","[[0,0,0],[1,0],[3]]","2","[[1,0,0],[2,3],[0]]","5","0","","","","","","6","",""
"","","","","","single-stim-button","303","1694938","0.0-3.0-25.1-1.1","6114ba31072fc0bcc226b89d","A3","batch1","","1532","","","tol_toboard","","","","","","","","","tol_peg_2","1532","1532","0","[[0,0,0],[1,2],[3]]","2","[[1,0,0],[2,3],[0]]","5","0","","","","","","6","",""
"","","","","","single-stim-button","304","1696190","0.0-3.0-25.2-0.2","6114ba31072fc0bcc226b89d","A3","batch1","","1249","","","tol_tohand","","","","","","","","","tol_peg_3","1249","1249","0","[[0,0,0],[1,2],[0]]","3","[[1,0,0],[2,3],[0]]","5","0","","","","","","6","",""
"","","","","","single-stim-button","305","1697238","0.0-3.0-25.2-1.2","6114ba31072fc0bcc226b89d","A3","batch1","","1045","","","tol_toboard","","","","","","","","","tol_peg_1","1045","1045","0","[[3,0,0],[1,2],[0]]","3","[[1,0,0],[2,3],[0]]","5","0","","","","","","6","",""
"","","","","","single-stim-button","306","1698060","0.0-3.0-25.3-0.3","6114ba31072fc0bcc226b89d","A3","batch1","","820","","","tol_tohand","","","","","","","","","tol_peg_2","820","820","0","[[3,0,0],[1,0],[0]]","4","[[1,0,0],[2,3],[0]]","5","0","","","","","","6","",""
"","","","","","single-stim-button","307","1706421","0.0-3.0-25.3-1.3","6114ba31072fc0bcc226b89d","A3","batch1","","8359","","","tol_toboard","","","","","","","","","tol_peg_3","8359","8359","0","[[3,0,0],[1,0],[2]]","4","[[1,0,0],[2,3],[0]]","5","0","","","","","","6","",""
"","","","","","single-stim-button","308","1707558","0.0-3.0-25.4-0.4","6114ba31072fc0bcc226b89d","A3","batch1","","1135","","","tol_tohand","","","","","","","","","tol_peg_1","1135","1135","0","[[0,0,0],[1,0],[2]]","5","[[1,0,0],[2,3],[0]]","5","0","","","","","","6","",""
"","","","","","single-stim-button","309","1708544","0.0-3.0-25.4-1.4","6114ba31072fc0bcc226b89d","A3","batch1","","985","","","tol_toboard","","","","","","","","","tol_peg_1","985","985","0","[[3,0,0],[1,0],[2]]","5","[[1,0,0],[2,3],[0]]","5","0","","","","","","6","",""
"","","","","","single-stim-button","310","1709582","0.0-3.0-25.5-0.5","6114ba31072fc0bcc226b89d","A3","batch1","","1036","","","tol_tohand","","","","","","","","","tol_peg_3","1036","1036","0","[[3,0,0],[1,0],[0]]","6","[[1,0,0],[2,3],[0]]","5","0","","","","","","6","",""
"","","","","","single-stim-button","311","1710661","0.0-3.0-25.5-1.5","6114ba31072fc0bcc226b89d","A3","batch1","","1076","","","tol_toboard","","","","","","","","","tol_peg_1","1076","1076","0","[[3,2,0],[1,0],[0]]","6","[[1,0,0],[2,3],[0]]","5","0","","","","","","6","",""
"","","","","","single-stim-button","312","1711602","0.0-3.0-25.6-0.6","6114ba31072fc0bcc226b89d","A3","batch1","","939","","","tol_tohand","","","","","","","","","tol_peg_2","939","939","0","[[3,2,0],[0,0],[0]]","7","[[1,0,0],[2,3],[0]]","5","0","","","","","","6","",""
"","","","","","single-stim-button","313","1712759","0.0-3.0-25.6-1.6","6114ba31072fc0bcc226b89d","A3","batch1","","1154","","","tol_toboard","","","","","","","","","tol_peg_3","1154","1154","0","[[3,2,0],[0,0],[1]]","7","[[1,0,0],[2,3],[0]]","5","0","","","","","","6","",""
"","","","","","single-stim-button","314","1713899","0.0-3.0-25.7-0.7","6114ba31072fc0bcc226b89d","A3","batch1","","1137","","","tol_tohand","","","","","","","","","tol_peg_1","1137","1137","0","[[3,0,0],[0,0],[1]]","8","[[1,0,0],[2,3],[0]]","5","0","","","","","","6","",""
"","","","","","single-stim-button","315","1716013","0.0-3.0-25.7-1.7","6114ba31072fc0bcc226b89d","A3","batch1","","2112","","","tol_toboard","","","","","","","","","tol_peg_2","2112","2112","0","[[3,0,0],[2,0],[1]]","8","[[1,0,0],[2,3],[0]]","5","0","","","","","","6","",""
"","","","","","single-stim-button","316","1716821","0.0-3.0-25.8-0.8","6114ba31072fc0bcc226b89d","A3","batch1","","805","","","tol_tohand","","","","","","","","","tol_peg_1","805","805","0","[[0,0,0],[2,0],[1]]","9","[[1,0,0],[2,3],[0]]","5","0","","","","","","6","",""
"","","","","","single-stim-button","317","1717898","0.0-3.0-25.8-1.8","6114ba31072fc0bcc226b89d","A3","batch1","","1075","","","tol_toboard","","","","","","","","","tol_peg_2","1075","1075","0","[[0,0,0],[2,3],[1]]","9","[[1,0,0],[2,3],[0]]","5","0","","","","","","6","",""
"","","","","","single-stim-button","318","1718959","0.0-3.0-25.9-0.9","6114ba31072fc0bcc226b89d","A3","batch1","","1059","","","tol_tohand","","","","","","","","","tol_peg_3","1059","1059","0","[[0,0,0],[2,3],[0]]","10","[[1,0,0],[2,3],[0]]","5","0","","","","","","6","",""
"","","","","","single-stim-button","319","1720379","0.0-3.0-25.9-1.9","6114ba31072fc0bcc226b89d","A3","batch1","","1417","","","tol_toboard","","","","","","","","","tol_peg_1","1417","1417","0","[[1,0,0],[2,3],[0]]","10","[[1,0,0],[2,3],[0]]","5","0","","","","","","6","",""
"","","","","","poldrack-single-stim","320","1721388","0.0-3.0-26.0","6114ba31072fc0bcc226b89d","A3","batch1","","-1","","","tol_feedback","true","","","","","","","","","1000","1000","500","","","","","","-1","none","true","7833","20305","","",""
"","","","","","html-button-response","321","1722731","0.0-3.0-27.0","6114ba31072fc0bcc226b89d","A3","batch1","","1339.4000000059605","<div class = centerbox><p class = center-block-text>problem <strong>7</strong> out of 25 problems</p></div>","0","tol_trial_num","","","","","","","","","","","","","","","","","","","","","","","","",""
"","","","","","single-stim-button","322","1727495","0.0-3.0-28.0-0.0","6114ba31072fc0bcc226b89d","A3","batch1","","4762","","","tol_tohand","","","","","","","","","tol_peg_3","4762","4762","0","[[2,1,0],[0,0],[0]]","1","[[1,2,0],[3,0],[0]]","6","0","","","","","","5","",""
"","","","","","single-stim-button","323","1728541","0.0-3.0-28.0-1.0","6114ba31072fc0bcc226b89d","A3","batch1","","1043","","","tol_toboard","","","","","","","","","tol_peg_2","1043","1043","0","[[2,1,0],[3,0],[0]]","1","[[1,2,0],[3,0],[0]]","6","0","","","","","","5","",""
"","","","","","single-stim-button","324","1729423","0.0-3.0-28.1-0.1","6114ba31072fc0bcc226b89d","A3","batch1","","880","","","tol_tohand","","","","","","","","","tol_peg_1","880","880","0","[[2,0,0],[3,0],[0]]","2","[[1,2,0],[3,0],[0]]","6","0","","","","","","5","",""
"","","","","","single-stim-button","325","1730677","0.0-3.0-28.1-1.1","6114ba31072fc0bcc226b89d","A3","batch1","","1252","","","tol_toboard","","","","","","","","","tol_peg_3","1252","1252","0","[[2,0,0],[3,0],[1]]","2","[[1,2,0],[3,0],[0]]","6","0","","","","","","5","",""
"","","","","","single-stim-button","326","1732887","0.0-3.0-28.2-0.2","6114ba31072fc0bcc226b89d","A3","batch1","","2207","","","tol_tohand","","","","","","","","","tol_peg_1","2207","2207","0","[[0,0,0],[3,0],[1]]","3","[[1,2,0],[3,0],[0]]","6","0","","","","","","5","",""
"","","","","","single-stim-button","327","1734276","0.0-3.0-28.2-1.2","6114ba31072fc0bcc226b89d","A3","batch1","","1387","","","tol_toboard","","","","","","","","","tol_peg_2","1387","1387","0","[[0,0,0],[3,2],[1]]","3","[[1,2,0],[3,0],[0]]","6","0","","","","","","5","",""
"","","","","","single-stim-button","328","1735140","0.0-3.0-28.3-0.3","6114ba31072fc0bcc226b89d","A3","batch1","","862","","","tol_tohand","","","","","","","","","tol_peg_3","862","862","0","[[0,0,0],[3,2],[0]]","4","[[1,2,0],[3,0],[0]]","6","0","","","","","","5","",""
"","","","","","single-stim-button","329","1736199","0.0-3.0-28.3-1.3","6114ba31072fc0bcc226b89d","A3","batch1","","1055","","","tol_toboard","","","","","","","","","tol_peg_1","1055","1055","0","[[1,0,0],[3,2],[0]]","4","[[1,2,0],[3,0],[0]]","6","0","","","","","","5","",""
"","","","","","single-stim-button","330","1737165","0.0-3.0-28.4-0.4","6114ba31072fc0bcc226b89d","A3","batch1","","964","","","tol_tohand","","","","","","","","","tol_peg_2","964","964","0","[[1,0,0],[3,0],[0]]","5","[[1,2,0],[3,0],[0]]","6","0","","","","","","5","",""
"","","","","","single-stim-button","331","1738137","0.0-3.0-28.4-1.4","6114ba31072fc0bcc226b89d","A3","batch1","","969","","","tol_toboard","","","","","","","","","tol_peg_1","969","969","0","[[1,2,0],[3,0],[0]]","5","[[1,2,0],[3,0],[0]]","6","0","","","","","","5","",""
"","","","","","poldrack-single-stim","332","1739147","0.0-3.0-29.0","6114ba31072fc0bcc226b89d","A3","batch1","","-1","","","tol_feedback","true","","","","","","","","","1000","1000","500","","","","","","-1","none","true","4762","9675","","",""
"","","","","","html-button-response","333","1740869","0.0-3.0-30.0","6114ba31072fc0bcc226b89d","A3","batch1","","1718","<div class = centerbox><p class = center-block-text>problem <strong>8</strong> out of 25 problems</p></div>","0","tol_trial_num","","","","","","","","","","","","","","","","","","","","","","","","",""
"","","","","","single-stim-button","334","1748063","0.0-3.0-31.0-0.0","6114ba31072fc0bcc226b89d","A3","batch1","","7190","","","tol_tohand","","","","","","","","","tol_peg_3","7190","7190","0","[[0,0,0],[2,3],[0]]","1","[[1,2,0],[3,0],[0]]","7","0","","","","","","4","",""
"","","","","","single-stim-button","335","1749243","0.0-3.0-31.0-1.0","6114ba31072fc0bcc226b89d","A3","batch1","","1177","","","tol_toboard","","","","","","","","","tol_peg_1","1177","1177","0","[[1,0,0],[2,3],[0]]","1","[[1,2,0],[3,0],[0]]","7","0","","","","","","4","",""
"","","","","","single-stim-button","336","1750174","0.0-3.0-31.1-0.1","6114ba31072fc0bcc226b89d","A3","batch1","","929","","","tol_tohand","","","","","","","","","tol_peg_2","929","929","0","[[1,0,0],[2,0],[0]]","2","[[1,2,0],[3,0],[0]]","7","0","","","","","","4","",""
"","","","","","single-stim-button","337","1752404","0.0-3.0-31.1-1.1","6114ba31072fc0bcc226b89d","A3","batch1","","2227","","","tol_toboard","","","","","","","","","tol_peg_3","2227","2227","0","[[1,0,0],[2,0],[3]]","2","[[1,2,0],[3,0],[0]]","7","0","","","","","","4","",""
"","","","","","single-stim-button","338","1753246","0.0-3.0-31.2-0.2","6114ba31072fc0bcc226b89d","A3","batch1","","839","","","tol_tohand","","","","","","","","","tol_peg_2","839","839","0","[[1,0,0],[0,0],[3]]","3","[[1,2,0],[3,0],[0]]","7","0","","","","","","4","",""
"","","","","","single-stim-button","339","1754376","0.0-3.0-31.2-1.2","6114ba31072fc0bcc226b89d","A3","batch1","","1128","","","tol_toboard","","","","","","","","","tol_peg_1","1128","1128","0","[[1,2,0],[0,0],[3]]","3","[[1,2,0],[3,0],[0]]","7","0","","","","","","4","",""
"","","","","","single-stim-button","340","1755501","0.0-3.0-31.3-0.3","6114ba31072fc0bcc226b89d","A3","batch1","","1122","","","tol_tohand","","","","","","","","","tol_peg_3","1122","1122","0","[[1,2,0],[0,0],[0]]","4","[[1,2,0],[3,0],[0]]","7","0","","","","","","4","",""
"","","","","","single-stim-button","341","1756846","0.0-3.0-31.3-1.3","6114ba31072fc0bcc226b89d","A3","batch1","","1342","","","tol_toboard","","","","","","","","","tol_peg_2","1342","1342","0","[[1,2,0],[3,0],[0]]","4","[[1,2,0],[3,0],[0]]","7","0","","","","","","4","",""
"","","","","","poldrack-single-stim","342","1757852","0.0-3.0-32.0","6114ba31072fc0bcc226b89d","A3","batch1","","-1","","","tol_feedback","true","","","","","","","","","1000","1000","500","","","","","","-1","none","true","7190","10080","","",""
"","","","","","html-button-response","343","1759184","0.0-3.0-33.0","6114ba31072fc0bcc226b89d","A3","batch1","","1329.9000000059605","<div class = centerbox><p class = center-block-text>problem <strong>9</strong> out of 25 problems</p></div>","0","tol_trial_num","","","","","","","","","","","","","","","","","","","","","","","","",""
"","","","","","single-stim-button","344","1778872","0.0-3.0-34.0-0.0","6114ba31072fc0bcc226b89d","A3","batch1","","19685","","","tol_tohand","","","","","","","","","tol_peg_1","19685","19685","0","[[3,0,0],[0,0],[1]]","1","[[2,1,0],[3,0],[0]]","8","0","","","","","","6","",""
"","","","","","single-stim-button","345","1780395","0.0-3.0-34.0-1.0","6114ba31072fc0bcc226b89d","A3","batch1","","1520","","","tol_toboard","","","","","","","","","tol_peg_2","1520","1520","0","[[3,0,0],[2,0],[1]]","1","[[2,1,0],[3,0],[0]]","8","0","","","","","","6","",""
