"success","timeout","failed_images","failed_audio","failed_video","trial_type","trial_index","time_elapsed","internal_node_id","subject_id","study_id","session_id","task","rt","stimulus","response","item","answer","correct","spm_correct","spm_rt","view_history","fiar_detect_rt","fiar_detect_correct","total_correct_fiar_detect","post_trial_gap","choices","mouse_click","stim_duration","block_duration","timing_post_trial","current_position","tol_num_moves_made","tol_target","tol_problem_id","tol_rt","key_press","possible_responses","tol_correct","preplanning","tol_rt_per_trial","tol_min_moves"
"true","false","[]","[]","[]","preload","0","1243","0.0-0.0","611b1f8d65d3749d42e746c2","D2","batch4","","","","","","","","","","","","","","","","","","","","","","","","","","","","","",""
"true","","","","","fullscreen","1","5074","0.0-1.0-0.0","611b1f8d65d3749d42e746c2","D2","batch4","","","","","","","","","","","","","","","","","","","","","","","","","","","","","",""
"true","","","","","fullscreen","2","7183","0.0-2.0-0.0","611b1f8d65d3749d42e746c2","D2","batch4","spm_fullscreen","","","","","","","","","","","","","","","","","","","","","","","","","","","","",""
"","","","","","html-button-response","3","9321","0.0-2.0-1.0","611b1f8d65d3749d42e746c2","D2","batch4","","2136.1999999955297","<p class = block-text><b>Instructions</b> <br>This is a widely used intelligence test in research. <br>In this test, a figure with a missing piece will be presented.<br>Below the figure are alternative pieces to complete the figure, only one of which is correct.<br> Different figures might involve different principles for obtaining the missing piece<br>Your job is to select the most logical piece to complete the figure.</p>","0","","","","","","","","","","","","","","","","","","","","","","","","","",""
"","","","","","html-keyboard-response","4","10124","0.0-2.0-2.0-0.0","611b1f8d65d3749d42e746c2","D2","batch4","spm_show_trial_num","null","<p class=block-text>Trial 1 out of 60</p>","null","","","","","","","","","","","","","","","","","","","","","","","","","",""
"","","","","","image-button-response","5","14170","0.0-2.0-2.0-1.0","611b1f8d65d3749d42e746c2","D2","batch4","spm_respsonse","4035.39999999851","img/question_1_1.jpeg","3","mat_01","4","1","1","4035.39999999851","","","","","","","","","","","","","","","","","","","","",""
"","","","","","html-keyboard-response","6","15222","0.0-2.0-2.0-0.1","611b1f8d65d3749d42e746c2","D2","batch4","spm_show_trial_num","null","<p class=block-text>Trial 2 out of 60</p>","null","","","","","","","","","","","","","","","","","","","","","","","","","",""
"","","","","","image-button-response","7","18715","0.0-2.0-2.0-1.1","611b1f8d65d3749d42e746c2","D2","batch4","spm_respsonse","3490.39999999851","img/question_1_2.jpeg","4","mat_02","5","1","1","3490.39999999851","","","","","","","","","","","","","","","","","","","","",""
"","","","","","html-keyboard-response","8","19772","0.0-2.0-2.0-0.2","611b1f8d65d3749d42e746c2","D2","batch4","spm_show_trial_num","null","<p class=block-text>Trial 3 out of 60</p>","null","","","","","","","","","","","","","","","","","","","","","","","","","",""
"","","","","","image-button-response","9","21673","0.0-2.0-2.0-1.2","611b1f8d65d3749d42e746c2","D2","batch4","spm_respsonse","1899.1000000014901","img/question_1_3.jpeg","0","mat_03","1","1","1","1899.1000000014901","","","","","","","","","","","","","","","","","","","","",""
"","","","","","html-keyboard-response","10","22749","0.0-2.0-2.0-0.3","611b1f8d65d3749d42e746c2","D2","batch4","spm_show_trial_num","null","<p class=block-text>Trial 4 out of 60</p>","null","","","","","","","","","","","","","","","","","","","","","","","","","",""
"","","","","","image-button-response","11","25521","0.0-2.0-2.0-1.3","611b1f8d65d3749d42e746c2","D2","batch4","spm_respsonse","2770.3000000044703","img/question_1_4.jpeg","1","mat_04","2","1","1","2770.3000000044703","","","","","","","","","","","","","","","","","","","","",""
"","","","","","html-keyboard-response","12","26586","0.0-2.0-2.0-0.4","611b1f8d65d3749d42e746c2","D2","batch4","spm_show_trial_num","null","<p class=block-text>Trial 5 out of 60</p>","null","","","","","","","","","","","","","","","","","","","","","","","","","",""
"","","","","","image-button-response","13","28699","0.0-2.0-2.0-1.4","611b1f8d65d3749d42e746c2","D2","batch4","spm_respsonse","2111.7999999970198","img/question_1_5.jpeg","5","mat_05","6","1","1","2111.7999999970198","","","","","","","","","","","","","","","","","","","","",""
"","","","","","html-keyboard-response","14","29753","0.0-2.0-2.0-0.5","611b1f8d65d3749d42e746c2","D2","batch4","spm_show_trial_num","null","<p class=block-text>Trial 6 out of 60</p>","null","","","","","","","","","","","","","","","","","","","","","","","","","",""
"","","","","","image-button-response","15","31965","0.0-2.0-2.0-1.5","611b1f8d65d3749d42e746c2","D2","batch4","spm_respsonse","2209.4000000059605","img/question_1_6.jpeg","2","mat_06","3","1","1","2209.4000000059605","","","","","","","","","","","","","","","","","","","","",""
"","","","","","html-keyboard-response","16","33032","0.0-2.0-2.0-0.6","611b1f8d65d3749d42e746c2","D2","batch4","spm_show_trial_num","null","<p class=block-text>Trial 7 out of 60</p>","null","","","","","","","","","","","","","","","","","","","","","","","","","",""
"","","","","","image-button-response","17","36137","0.0-2.0-2.0-1.6","611b1f8d65d3749d42e746c2","D2","batch4","spm_respsonse","3102.5","img/question_1_7.jpeg","5","mat_07","6","1","1","3102.5","","","","","","","","","","","","","","","","","","","","",""
"","","","","","html-keyboard-response","18","37189","0.0-2.0-2.0-0.7","611b1f8d65d3749d42e746c2","D2","batch4","spm_show_trial_num","null","<p class=block-text>Trial 8 out of 60</p>","null","","","","","","","","","","","","","","","","","","","","","","","","","",""
"","","","","","image-button-response","19","39353","0.0-2.0-2.0-1.7","611b1f8d65d3749d42e746c2","D2","batch4","spm_respsonse","2161.7999999970198","img/question_1_8.jpeg","1","mat_08","2","1","1","2161.7999999970198","","","","","","","","","","","","","","","","","","","","",""
"","","","","","html-keyboard-response","20","40415","0.0-2.0-2.0-0.8","611b1f8d65d3749d42e746c2","D2","batch4","spm_show_trial_num","null","<p class=block-text>Trial 9 out of 60</p>","null","","","","","","","","","","","","","","","","","","","","","","","","","",""
"","","","","","image-button-response","21","43331","0.0-2.0-2.0-1.8","611b1f8d65d3749d42e746c2","D2","batch4","spm_respsonse","2910.89999999851","img/question_1_9.jpeg","0","mat_09","1","1","1","2910.89999999851","","","","","","","","","","","","","","","","","","","","",""
"","","","","","html-keyboard-response","22","44400","0.0-2.0-2.0-0.9","611b1f8d65d3749d42e746c2","D2","batch4","spm_show_trial_num","null","<p class=block-text>Trial 10 out of 60</p>","null","","","","","","","","","","","","","","","","","","","","","","","","","",""
"","","","","","image-button-response","23","47425","0.0-2.0-2.0-1.9","611b1f8d65d3749d42e746c2","D2","batch4","spm_respsonse","3023.4000000059605","img/question_1_10.jpeg","2","mat_10","3","1","1","3023.4000000059605","","","","","","","","","","","","","","","","","","","","",""
"","","","","","html-keyboard-response","24","48483","0.0-2.0-2.0-0.10","611b1f8d65d3749d42e746c2","D2","batch4","spm_show_trial_num","null","<p class=block-text>Trial 11 out of 60</p>","null","","","","","","","","","","","","","","","","","","","","","","","","","",""
"","","","","","image-button-response","25","55834","0.0-2.0-2.0-1.10","611b1f8d65d3749d42e746c2","D2","batch4","spm_respsonse","7348.89999999851","img/question_1_11.jpeg","3","mat_11","4","1","1","7348.89999999851","","","","","","","","","","","","","","","","","","","","",""
"","","","","","html-keyboard-response","26","56886","0.0-2.0-2.0-0.11","611b1f8d65d3749d42e746c2","D2","batch4","spm_show_trial_num","null","<p class=block-text>Trial 12 out of 60</p>","null","","","","","","","","","","","","","","","","","","","","","","","","","",""
"","","","","","image-button-response","27","63657","0.0-2.0-2.0-1.11","611b1f8d65d3749d42e746c2","D2","batch4","spm_respsonse","6768.39999999851","img/question_1_12.jpeg","4","mat_12","5","1","1","6768.39999999851","","","","","","","","","","","","","","","","","","","","",""
"","","","","","html-keyboard-response","28","64713","0.0-2.0-2.0-0.12","611b1f8d65d3749d42e746c2","D2","batch4","spm_show_trial_num","null","<p class=block-text>Trial 13 out of 60</p>","null","","","","","","","","","","","","","","","","","","","","","","","","","",""
"","","","","","image-button-response","29","67849","0.0-2.0-2.0-1.12","611b1f8d65d3749d42e746c2","D2","batch4","spm_respsonse","3132.4000000059605","img/question_2_1.jpeg","1","mat_13","2","1","1","3132.4000000059605","","","","","","","","","","","","","","","","","","","","",""
"","","","","","html-keyboard-response","30","68920","0.0-2.0-2.0-0.13","611b1f8d65d3749d42e746c2","D2","batch4","spm_show_trial_num","null","<p class=block-text>Trial 14 out of 60</p>","null","","","","","","","","","","","","","","","","","","","","","","","","","",""
"","","","","","image-button-response","31","73401","0.0-2.0-2.0-1.13","611b1f8d65d3749d42e746c2","D2","batch4","spm_respsonse","4478.69999999553","img/question_2_2.jpeg","5","mat_14","6","1","1","4478.69999999553","","","","","","","","","","","","","","","","","","","","",""
"","","","","","html-keyboard-response","32","74452","0.0-2.0-2.0-0.14","611b1f8d65d3749d42e746c2","D2","batch4","spm_show_trial_num","null","<p class=block-text>Trial 15 out of 60</p>","null","","","","","","","","","","","","","","","","","","","","","","","","","",""
"","","","","","image-button-response","33","79888","0.0-2.0-2.0-1.14","611b1f8d65d3749d42e746c2","D2","batch4","spm_respsonse","5434","img/question_2_3.jpeg","2","mat_15","1","0","0","5434","","","","","","","","","","","","","","","","","","","","",""
"","","","","","html-keyboard-response","34","80963","0.0-2.0-2.0-0.15","611b1f8d65d3749d42e746c2","D2","batch4","spm_show_trial_num","null","<p class=block-text>Trial 16 out of 60</p>","null","","","","","","","","","","","","","","","","","","","","","","","","","",""
"","","","","","image-button-response","35","90456","0.0-2.0-2.0-1.15","611b1f8d65d3749d42e746c2","D2","batch4","spm_respsonse","9490.60000000149","img/question_2_4.jpeg","1","mat_16","2","1","1","9490.60000000149","","","","","","","","","","","","","","","","","","","","",""
"","","","","","html-keyboard-response","36","91531","0.0-2.0-2.0-0.16","611b1f8d65d3749d42e746c2","D2","batch4","spm_show_trial_num","null","<p class=block-text>Trial 17 out of 60</p>","null","","","","","","","","","","","","","","","","","","","","","","","","","",""
"","","","","","image-button-response","37","95385","0.0-2.0-2.0-1.16","611b1f8d65d3749d42e746c2","D2","batch4","spm_respsonse","3850.5","img/question_2_5.jpeg","0","mat_17","1","1","1","3850.5","","","","","","","","","","","","","","","","","","","","",""
"","","","","","html-keyboard-response","38","96439","0.0-2.0-2.0-0.17","611b1f8d65d3749d42e746c2","D2","batch4","spm_show_trial_num","null","<p class=block-text>Trial 18 out of 60</p>","null","","","","","","","","","","","","","","","","","","","","","","","","","",""
"","","","","","image-button-response","39","100873","0.0-2.0-2.0-1.17","611b1f8d65d3749d42e746c2","D2","batch4","spm_respsonse","4431.60000000149","img/question_2_6.jpeg","2","mat_18","3","1","1","4431.60000000149","","","","","","","","","","","","","","","","","","","","",""
"","","","","","html-keyboard-response","40","101940","0.0-2.0-2.0-0.18","611b1f8d65d3749d42e746c2","D2","batch4","spm_show_trial_num","null","<p class=block-text>Trial 19 out of 60</p>","null","","","","","","","","","","","","","","","","","","","","","","","","","",""
"","","","","","image-button-response","41","108992","0.0-2.0-2.0-1.18","611b1f8d65d3749d42e746c2","D2","batch4","spm_respsonse","7050.60000000149","img/question_2_7.jpeg","4","mat_19","5","1","1","7050.60000000149","","","","","","","","","","","","","","","","","","","","",""
"","","","","","html-keyboard-response","42","110071","0.0-2.0-2.0-0.19","611b1f8d65d3749d42e746c2","D2","batch4","spm_show_trial_num","null","<p class=block-text>Trial 20 out of 60</p>","null","","","","","","","","","","","","","","","","","","","","","","","","","",""
"","","","","","image-button-response","43","121873","0.0-2.0-2.0-1.19","611b1f8d65d3749d42e746c2","D2","batch4","spm_respsonse","11799.79999999702","img/question_2_8.jpeg","5","mat_20","6","1","1","11799.79999999702","","","","","","","","","","","","","","","","","","","","",""
"","","","","","html-keyboard-response","44","122934","0.0-2.0-2.0-0.20","611b1f8d65d3749d42e746c2","D2","batch4","spm_show_trial_num","null","<p class=block-text>Trial 21 out of 60</p>","null","","","","","","","","","","","","","","","","","","","","","","","","","",""
"","","","","","image-button-response","45","128116","0.0-2.0-2.0-1.20","611b1f8d65d3749d42e746c2","D2","batch4","spm_respsonse","5179.70000000298","img/question_2_9.jpeg","3","mat_21","4","1","1","5179.70000000298","","","","","","","","","","","","","","","","","","","","",""
"","","","","","html-keyboard-response","46","129185","0.0-2.0-2.0-0.21","611b1f8d65d3749d42e746c2","D2","batch4","spm_show_trial_num","null","<p class=block-text>Trial 22 out of 60</p>","null","","","","","","","","","","","","","","","","","","","","","","","","","",""
"","","","","","image-button-response","47","145625","0.0-2.0-2.0-1.21","611b1f8d65d3749d42e746c2","D2","batch4","spm_respsonse","16437.09999999404","img/question_2_10.jpeg","2","mat_22","3","1","1","16437.09999999404","","","","","","","","","","","","","","","","","","","","",""
"","","","","","html-keyboard-response","48","146694","0.0-2.0-2.0-0.22","611b1f8d65d3749d42e746c2","D2","batch4","spm_show_trial_num","null","<p class=block-text>Trial 23 out of 60</p>","null","","","","","","","","","","","","","","","","","","","","","","","","","",""
"","","","","","image-button-response","49","156657","0.0-2.0-2.0-1.22","611b1f8d65d3749d42e746c2","D2","batch4","spm_respsonse","9954.89999999851","img/question_2_11.jpeg","3","mat_23","4","1","1","9954.89999999851","","","","","","","","","","","","","","","","","","","","",""
"","","","","","html-keyboard-response","50","157732","0.0-2.0-2.0-0.23","611b1f8d65d3749d42e746c2","D2","batch4","spm_show_trial_num","null","<p class=block-text>Trial 24 out of 60</p>","null","","","","","","","","","","","","","","","","","","","","","","","","","",""
"","","","","","image-button-response","51","180976","0.0-2.0-2.0-1.23","611b1f8d65d3749d42e746c2","D2","batch4","spm_respsonse","23241","img/question_2_12.jpeg","4","mat_24","5","1","1","23241","","","","","","","","","","","","","","","","","","","","",""
"","","","","","html-button-response","52","183457","0.0-2.0-3.0","611b1f8d65d3749d42e746c2","D2","batch4","attention_check","2227.2999999970198","<p class = block-text>Attention check: Please choose 1<br></p>","0","","","true","","","","","","","","","","","","","","","","","","","","","","",""
"","","","","","html-keyboard-response","53","184257","0.0-2.0-4.0-0.0","611b1f8d65d3749d42e746c2","D2","batch4","spm_show_trial_num","null","<p class=block-text>Trial 25 out of 60</p>","null","","","","","","","","","","","","","","","","","","","","","","","","","",""
"","","","","","image-button-response","54","186482","0.0-2.0-4.0-1.0","611b1f8d65d3749d42e746c2","D2","batch4","spm_respsonse","2221.89999999851","img/question_3_1.jpeg","7","mat_25","8","1","1","2221.89999999851","","","","","","","","","","","","","","","","","","","","",""
"","","","","","html-keyboard-response","55","187552","0.0-2.0-4.0-0.1","611b1f8d65d3749d42e746c2","D2","batch4","spm_show_trial_num","null","<p class=block-text>Trial 26 out of 60</p>","null","","","","","","","","","","","","","","","","","","","","","","","","","",""
"","","","","","image-button-response","56","194137","0.0-2.0-4.0-1.1","611b1f8d65d3749d42e746c2","D2","batch4","spm_respsonse","6583.5","img/question_3_2.jpeg","1","mat_26","2","1","1","6583.5","","","","","","","","","","","","","","","","","","","","",""
"","","","","","html-keyboard-response","57","195193","0.0-2.0-4.0-0.2","611b1f8d65d3749d42e746c2","D2","batch4","spm_show_trial_num","null","<p class=block-text>Trial 27 out of 60</p>","null","","","","","","","","","","","","","","","","","","","","","","","","","",""
"","","","","","image-button-response","58","203634","0.0-2.0-4.0-1.2","611b1f8d65d3749d42e746c2","D2","batch4","spm_respsonse","8439.30000000447","img/question_3_3.jpeg","2","mat_27","3","1","1","8439.30000000447","","","","","","","","","","","","","","","","","","","","",""
"","","","","","html-keyboard-response","59","204691","0.0-2.0-4.0-0.3","611b1f8d65d3749d42e746c2","D2","batch4","spm_show_trial_num","null","<p class=block-text>Trial 28 out of 60</p>","null","","","","","","","","","","","","","","","","","","","","","","","","","",""
"","","","","","image-button-response","60","208129","0.0-2.0-4.0-1.3","611b1f8d65d3749d42e746c2","D2","batch4","spm_respsonse","3434.5","img/question_3_4.jpeg","7","mat_28","8","1","1","3434.5","","","","","","","","","","","","","","","","","","","","",""
"","","","","","html-keyboard-response","61","209184","0.0-2.0-4.0-0.4","611b1f8d65d3749d42e746c2","D2","batch4","spm_show_trial_num","null","<p class=block-text>Trial 29 out of 60</p>","null","","","","","","","","","","","","","","","","","","","","","","","","","",""
"","","","","","image-button-response","62","213251","0.0-2.0-4.0-1.4","611b1f8d65d3749d42e746c2","D2","batch4","spm_respsonse","4063.89999999851","img/question_3_5.jpeg","6","mat_29","7","1","1","4063.89999999851","","","","","","","","","","","","","","","","","","","","",""
"","","","","","html-keyboard-response","63","214303","0.0-2.0-4.0-0.5","611b1f8d65d3749d42e746c2","D2","batch4","spm_show_trial_num","null","<p class=block-text>Trial 30 out of 60</p>","null","","","","","","","","","","","","","","","","","","","","","","","","","",""
"","","","","","image-button-response","64","218897","0.0-2.0-4.0-1.5","611b1f8d65d3749d42e746c2","D2","batch4","spm_respsonse","4591.5","img/question_3_6.jpeg","3","mat_30","4","1","1","4591.5","","","","","","","","","","","","","","","","","","","","",""
"","","","","","html-keyboard-response","65","219996","0.0-2.0-4.0-0.6","611b1f8d65d3749d42e746c2","D2","batch4","spm_show_trial_num","null","<p class=block-text>Trial 31 out of 60</p>","null","","","","","","","","","","","","","","","","","","","","","","","","","",""
"","","","","","image-button-response","66","227068","0.0-2.0-4.0-1.6","611b1f8d65d3749d42e746c2","D2","batch4","spm_respsonse","7064.10000000149","img/question_3_7.jpeg","4","mat_31","5","1","1","7064.10000000149","","","","","","","","","","","","","","","","","","","","",""
"","","","","","html-keyboard-response","67","228121","0.0-2.0-4.0-0.7","611b1f8d65d3749d42e746c2","D2","batch4","spm_show_trial_num","null","<p class=block-text>Trial 32 out of 60</p>","null","","","","","","","","","","","","","","","","","","","","","","","","","",""
"","","","","","image-button-response","68","234176","0.0-2.0-4.0-1.7","611b1f8d65d3749d42e746c2","D2","batch4","spm_respsonse","6053.80000000447","img/question_3_8.jpeg","0","mat_32","1","1","1","6053.80000000447","","","","","","","","","","","","","","","","","","","","",""
"","","","","","html-keyboard-response","69","235229","0.0-2.0-4.0-0.8","611b1f8d65d3749d42e746c2","D2","batch4","spm_show_trial_num","null","<p class=block-text>Trial 33 out of 60</p>","null","","","","","","","","","","","","","","","","","","","","","","","","","",""
"","","","","","image-button-response","70","241698","0.0-2.0-4.0-1.8","611b1f8d65d3749d42e746c2","D2","batch4","spm_respsonse","6461.30000000447","img/question_3_9.jpeg","6","mat_33","7","1","1","6461.30000000447","","","","","","","","","","","","","","","","","","","","",""
"","","","","","html-keyboard-response","71","242760","0.0-2.0-4.0-0.9","611b1f8d65d3749d42e746c2","D2","batch4","spm_show_trial_num","null","<p class=block-text>Trial 34 out of 60</p>","null","","","","","","","","","","","","","","","","","","","","","","","","","",""
"","","","","","image-button-response","72","246210","0.0-2.0-4.0-1.9","611b1f8d65d3749d42e746c2","D2","batch4","spm_respsonse","3447","img/question_3_10.jpeg","5","mat_34","6","1","1","3447","","","","","","","","","","","","","","","","","","","","",""
"","","","","","html-keyboard-response","73","247284","0.0-2.0-4.0-0.10","611b1f8d65d3749d42e746c2","D2","batch4","spm_show_trial_num","null","<p class=block-text>Trial 35 out of 60</p>","null","","","","","","","","","","","","","","","","","","","","","","","","","",""
"","","","","","image-button-response","74","266969","0.0-2.0-4.0-1.10","611b1f8d65d3749d42e746c2","D2","batch4","spm_respsonse","19681.20000000298","img/question_3_11.jpeg","7","mat_35","1","0","0","19681.20000000298","","","","","","","","","","","","","","","","","","","","",""
"","","","","","html-keyboard-response","75","268052","0.0-2.0-4.0-0.11","611b1f8d65d3749d42e746c2","D2","batch4","spm_show_trial_num","null","<p class=block-text>Trial 36 out of 60</p>","null","","","","","","","","","","","","","","","","","","","","","","","","","",""
"","","","","","image-button-response","76","272937","0.0-2.0-4.0-1.11","611b1f8d65d3749d42e746c2","D2","batch4","spm_respsonse","4881.29999999702","img/question_3_12.jpeg","7","mat_36","2","0","0","4881.29999999702","","","","","","","","","","","","","","","","","","","","",""
"","","","","","html-keyboard-response","77","274003","0.0-2.0-4.0-0.12","611b1f8d65d3749d42e746c2","D2","batch4","spm_show_trial_num","null","<p class=block-text>Trial 37 out of 60</p>","null","","","","","","","","","","","","","","","","","","","","","","","","","",""
"","","","","","image-button-response","78","277896","0.0-2.0-4.0-1.12","611b1f8d65d3749d42e746c2","D2","batch4","spm_respsonse","3890.39999999851","img/question_4_1.jpeg","2","mat_37","3","1","1","3890.39999999851","","","","","","","","","","","","","","","","","","","","",""
"","","","","","html-keyboard-response","79","278987","0.0-2.0-4.0-0.13","611b1f8d65d3749d42e746c2","D2","batch4","spm_show_trial_num","null","<p class=block-text>Trial 38 out of 60</p>","null","","","","","","","","","","","","","","","","","","","","","","","","","",""
"","","","","","image-button-response","80","289042","0.0-2.0-4.0-1.13","611b1f8d65d3749d42e746c2","D2","batch4","spm_respsonse","10052.20000000298","img/question_4_2.jpeg","3","mat_38","4","1","1","10052.20000000298","","","","","","","","","","","","","","","","","","","","",""
"","","","","","html-keyboard-response","81","290104","0.0-2.0-4.0-0.14","611b1f8d65d3749d42e746c2","D2","batch4","spm_show_trial_num","null","<p class=block-text>Trial 39 out of 60</p>","null","","","","","","","","","","","","","","","","","","","","","","","","","",""
"","","","","","image-button-response","82","293745","0.0-2.0-4.0-1.14","611b1f8d65d3749d42e746c2","D2","batch4","spm_respsonse","3637.60000000149","img/question_4_3.jpeg","2","mat_39","3","1","1","3637.60000000149","","","","","","","","","","","","","","","","","","","","",""
"","","","","","html-keyboard-response","83","294802","0.0-2.0-4.0-0.15","611b1f8d65d3749d42e746c2","D2","batch4","spm_show_trial_num","null","<p class=block-text>Trial 40 out of 60</p>","null","","","","","","","","","","","","","","","","","","","","","","","","","",""
"","","","","","image-button-response","84","303041","0.0-2.0-4.0-1.15","611b1f8d65d3749d42e746c2","D2","batch4","spm_respsonse","8237.5","img/question_4_4.jpeg","6","mat_40","7","1","1","8237.5","","","","","","","","","","","","","","","","","","","","",""
"","","","","","html-keyboard-response","85","304100","0.0-2.0-4.0-0.16","611b1f8d65d3749d42e746c2","D2","batch4","spm_show_trial_num","null","<p class=block-text>Trial 41 out of 60</p>","null","","","","","","","","","","","","","","","","","","","","","","","","","",""
"","","","","","image-button-response","86","326569","0.0-2.0-4.0-1.16","611b1f8d65d3749d42e746c2","D2","batch4","spm_respsonse","22467","img/question_4_5.jpeg","7","mat_41","8","1","1","22467","","","","","","","","","","","","","","","","","","","","",""
"","","","","","html-keyboard-response","87","327631","0.0-2.0-4.0-0.17","611b1f8d65d3749d42e746c2","D2","batch4","spm_show_trial_num","null","<p class=block-text>Trial 42 out of 60</p>","null","","","","","","","","","","","","","","","","","","","","","","","","","",""
"","","","","","image-button-response","88","344057","0.0-2.0-4.0-1.17","611b1f8d65d3749d42e746c2","D2","batch4","spm_respsonse","16423.29999999702","img/question_4_6.jpeg","5","mat_42","6","1","1","16423.29999999702","","","","","","","","","","","","","","","","","","","","",""
"","","","","","html-keyboard-response","89","345112","0.0-2.0-4.0-0.18","611b1f8d65d3749d42e746c2","D2","batch4","spm_show_trial_num","null","<p class=block-text>Trial 43 out of 60</p>","null","","","","","","","","","","","","","","","","","","","","","","","","","",""
"","","","","","image-button-response","90","352545","0.0-2.0-4.0-1.18","611b1f8d65d3749d42e746c2","D2","batch4","spm_respsonse","7430.89999999851","img/question_4_7.jpeg","4","mat_43","5","1","1","7430.89999999851","","","","","","","","","","","","","","","","","","","","",""
"","","","","","html-keyboard-response","91","353623","0.0-2.0-4.0-0.19","611b1f8d65d3749d42e746c2","D2","batch4","spm_show_trial_num","null","<p class=block-text>Trial 44 out of 60</p>","null","","","","","","","","","","","","","","","","","","","","","","","","","",""
"","","","","","image-button-response","92","359458","0.0-2.0-4.0-1.19","611b1f8d65d3749d42e746c2","D2","batch4","spm_respsonse","5832.80000000447","img/question_4_8.jpeg","3","mat_44","4","1","1","5832.80000000447","","","","","","","","","","","","","","","","","","","","",""
"","","","","","html-keyboard-response","93","360510","0.0-2.0-4.0-0.20","611b1f8d65d3749d42e746c2","D2","batch4","spm_show_trial_num","null","<p class=block-text>Trial 45 out of 60</p>","null","","","","","","","","","","","","","","","","","","","","","","","","","",""
"","","","","","image-button-response","94","369529","0.0-2.0-4.0-1.20","611b1f8d65d3749d42e746c2","D2","batch4","spm_respsonse","9016.29999999702","img/question_4_9.jpeg","2","mat_45","1","0","0","9016.29999999702","","","","","","","","","","","","","","","","","","","","",""
"","","","","","html-keyboard-response","95","370609","0.0-2.0-4.0-0.21","611b1f8d65d3749d42e746c2","D2","batch4","spm_show_trial_num","null","<p class=block-text>Trial 46 out of 60</p>","null","","","","","","","","","","","","","","","","","","","","","","","","","",""
"","","","","","image-button-response","96","387905","0.0-2.0-4.0-1.21","611b1f8d65d3749d42e746c2","D2","batch4","spm_respsonse","17291","img/question_4_10.jpeg","4","mat_46","2","0","0","17291","","","","","","","","","","","","","","","","","","","","",""
"","","","","","html-keyboard-response","97","388979","0.0-2.0-4.0-0.22","611b1f8d65d3749d42e746c2","D2","batch4","spm_show_trial_num","null","<p class=block-text>Trial 47 out of 60</p>","null","","","","","","","","","","","","","","","","","","","","","","","","","",""
"","","","","","image-button-response","98","391313","0.0-2.0-4.0-1.22","611b1f8d65d3749d42e746c2","D2","batch4","spm_respsonse","2331.5","img/question_4_11.jpeg","7","mat_47","5","0","0","2331.5","","","","","","","","","","","","","","","","","","","","",""
"","","","","","html-keyboard-response","99","392371","0.0-2.0-4.0-0.23","611b1f8d65d3749d42e746c2","D2","batch4","spm_show_trial_num","null","<p class=block-text>Trial 48 out of 60</p>","null","","","","","","","","","","","","","","","","","","","","","","","","","",""
"","","","","","image-button-response","100","399618","0.0-2.0-4.0-1.23","611b1f8d65d3749d42e746c2","D2","batch4","spm_respsonse","7245","img/question_4_12.jpeg","6","mat_48","6","0","0","7245","","","","","","","","","","","","","","","","","","","","",""
"","","","","","html-keyboard-response","101","400689","0.0-2.0-4.0-0.24","611b1f8d65d3749d42e746c2","D2","batch4","spm_show_trial_num","null","<p class=block-text>Trial 49 out of 60</p>","null","","","","","","","","","","","","","","","","","","","","","","","","","",""
"","","","","","image-button-response","102","402955","0.0-2.0-4.0-1.24","611b1f8d65d3749d42e746c2","D2","batch4","spm_respsonse","2261.4000000059605","img/question_5_1.jpeg","6","mat_49","7","1","1","2261.4000000059605","","","","","","","","","","","","","","","","","","","","",""
"","","","","","html-keyboard-response","103","404014","0.0-2.0-4.0-0.25","611b1f8d65d3749d42e746c2","D2","batch4","spm_show_trial_num","null","<p class=block-text>Trial 50 out of 60</p>","null","","","","","","","","","","","","","","","","","","","","","","","","","",""
"","","","","","image-button-response","104","415705","0.0-2.0-4.0-1.25","611b1f8d65d3749d42e746c2","D2","batch4","spm_respsonse","11688.29999999702","img/question_5_2.jpeg","5","mat_50","6","1","1","11688.29999999702","","","","","","","","","","","","","","","","","","","","",""
"","","","","","html-keyboard-response","105","416790","0.0-2.0-4.0-0.26","611b1f8d65d3749d42e746c2","D2","batch4","spm_show_trial_num","null","<p class=block-text>Trial 51 out of 60</p>","null","","","","","","","","","","","","","","","","","","","","","","","","","",""
"","","","","","image-button-response","106","420865","0.0-2.0-4.0-1.26","611b1f8d65d3749d42e746c2","D2","batch4","spm_respsonse","4073.10000000149","img/question_5_3.jpeg","7","mat_51","8","1","1","4073.10000000149","","","","","","","","","","","","","","","","","","","","",""
"","","","","","html-keyboard-response","107","421935","0.0-2.0-4.0-0.27","611b1f8d65d3749d42e746c2","D2","batch4","spm_show_trial_num","null","<p class=block-text>Trial 52 out of 60</p>","null","","","","","","","","","","","","","","","","","","","","","","","","","",""
"","","","","","image-button-response","108","427177","0.0-2.0-4.0-1.27","611b1f8d65d3749d42e746c2","D2","batch4","spm_respsonse","5239.499999992549","img/question_5_4.jpeg","7","mat_52","2","0","0","5239.499999992549","","","","","","","","","","","","","","","","","","","","",""
"","","","","","html-keyboard-response","109","428244","0.0-2.0-4.0-0.28","611b1f8d65d3749d42e746c2","D2","batch4","spm_show_trial_num","null","<p class=block-text>Trial 53 out of 60</p>","null","","","","","","","","","","","","","","","","","","","","","","","","","",""
"","","","","","image-button-response","110","456001","0.0-2.0-4.0-1.28","611b1f8d65d3749d42e746c2","D2","batch4","spm_respsonse","27755.29999999702","img/question_5_5.jpeg","2","mat_53","1","0","0","27755.29999999702","","","","","","","","","","","","","","","","","","","","",""
"","","","","","html-keyboard-response","111","457070","0.0-2.0-4.0-0.29","611b1f8d65d3749d42e746c2","D2","batch4","spm_show_trial_num","null","<p class=block-text>Trial 54 out of 60</p>","null","","","","","","","","","","","","","","","","","","","","","","","","","",""
"","","","","","image-button-response","112","483745","0.0-2.0-4.0-1.29","611b1f8d65d3749d42e746c2","D2","batch4","spm_respsonse","26672.79999999702","img/question_5_6.jpeg","4","mat_54","5","1","1","26672.79999999702","","","","","","","","","","","","","","","","","","","","",""
"","","","","","html-keyboard-response","113","484826","0.0-2.0-4.0-0.30","611b1f8d65d3749d42e746c2","D2","batch4","spm_show_trial_num","null","<p class=block-text>Trial 55 out of 60</p>","null","","","","","","","","","","","","","","","","","","","","","","","","","",""
"","","","","","image-button-response","114","494243","0.0-2.0-4.0-1.30","611b1f8d65d3749d42e746c2","D2","batch4","spm_respsonse","9413.5","img/question_5_7.jpeg","5","mat_55","1","0","0","9413.5","","","","","","","","","","","","","","","","","","","","",""
"","","","","","html-keyboard-response","115","495299","0.0-2.0-4.0-0.31","611b1f8d65d3749d42e746c2","D2","batch4","spm_show_trial_num","null","<p class=block-text>Trial 56 out of 60</p>","null","","","","","","","","","","","","","","","","","","","","","","","","","",""
"","","","","","image-button-response","116","505107","0.0-2.0-4.0-1.31","611b1f8d65d3749d42e746c2","D2","batch4","spm_respsonse","9805.59999999404","img/question_5_8.jpeg","2","mat_56","6","0","0","9805.59999999404","","","","","","","","","","","","","","","","","","","","",""
"","","","","","html-keyboard-response","117","506163","0.0-2.0-4.0-0.32","611b1f8d65d3749d42e746c2","D2","batch4","spm_show_trial_num","null","<p class=block-text>Trial 57 out of 60</p>","null","","","","","","","","","","","","","","","","","","","","","","","","","",""
"","","","","","image-button-response","118","510401","0.0-2.0-4.0-1.32","611b1f8d65d3749d42e746c2","D2","batch4","spm_respsonse","4236.5","img/question_5_9.jpeg","3","mat_57","3","0","0","4236.5","","","","","","","","","","","","","","","","","","","","",""
"","","","","","html-keyboard-response","119","511478","0.0-2.0-4.0-0.33","611b1f8d65d3749d42e746c2","D2","batch4","spm_show_trial_num","null","<p class=block-text>Trial 58 out of 60</p>","null","","","","","","","","","","","","","","","","","","","","","","","","","",""
"","","","","","image-button-response","120","527433","0.0-2.0-4.0-1.33","611b1f8d65d3749d42e746c2","D2","batch4","spm_respsonse","15953.29999999702","img/question_5_10.jpeg","1","mat_58","2","1","1","15953.29999999702","","","","","","","","","","","","","","","","","","","","",""
"","","","","","html-keyboard-response","121","528489","0.0-2.0-4.0-0.34","611b1f8d65d3749d42e746c2","D2","batch4","spm_show_trial_num","null","<p class=block-text>Trial 59 out of 60</p>","null","","","","","","","","","","","","","","","","","","","","","","","","","",""
"","","","","","image-button-response","122","542530","0.0-2.0-4.0-1.34","611b1f8d65d3749d42e746c2","D2","batch4","spm_respsonse","14038.10000000894","img/question_5_11.jpeg","3","mat_59","4","1","1","14038.10000000894","","","","","","","","","","","","","","","","","","","","",""
"","","","","","html-keyboard-response","123","543594","0.0-2.0-4.0-0.35","611b1f8d65d3749d42e746c2","D2","batch4","spm_show_trial_num","null","<p class=block-text>Trial 60 out of 60</p>","null","","","","","","","","","","","","","","","","","","","","","","","","","",""
"","","","","","image-button-response","124","550449","0.0-2.0-4.0-1.35","611b1f8d65d3749d42e746c2","D2","batch4","spm_respsonse","6852.79999999702","img/question_5_12.jpeg","0","mat_60","5","0","0","6852.79999999702","","","","","","","","","","","","","","","","","","","","",""
"","","","","","html-button-response","125","551713","0.0-2.0-5.0","611b1f8d65d3749d42e746c2","D2","batch4","spm_goodbye","1011.7000000029802","<p class= block-text>This concludes the Standard Progressive Matrix game. Thank you for your responses!<br> When you are ready, click the button continue</p>","0","","","","","","","","","","","","","","","","","","","","","","","","","",""
"true","","","","","fullscreen","126","553662","0.0-3.0-0.0","611b1f8d65d3749d42e746c2","D2","batch4","","","","","","","","","","","","","","","","","","","","","","","","","","","","","",""
"","","","","","instructions","127","562145","0.0-3.0-1.0-0.0","611b1f8d65d3749d42e746c2","D2","batch4","","8481.90000000596","","","","","","","","[{""page_index"":0,""viewing_time"":3649.7000000029802},{""page_index"":1,""viewing_time"":4831.79999999702}]","","","","","","","","","","","","","","","","","","","",""
"","","","","","html-button-response","128","563113","0.0-3.0-1.0-1.0-0.0","611b1f8d65d3749d42e746c2","D2","batch4","pattern_enter_quiz","967.1999999880791","<p class=block-text> Let's answer a few questions <br>","0","","","","","","","","","","","","","","","","","","","","","","","","","",""
"","","","","","html-button-response","129","571767","0.0-3.0-1.0-1.0-1.0","611b1f8d65d3749d42e746c2","D2","batch4","pattern_quiz","8650.79999999702","<p class = block-text>True or False: You will have as much time as you want to make each choice. <br></p>","1","","","true","","","","","","","","","","","","","","","","","","","","","","",""
"","","","","","html-button-response","130","572957","0.0-3.0-1.0-1.0-2.0","611b1f8d65d3749d42e746c2","D2","batch4","pattern_quiz_feedback","1187.5999999940395","<p class = block-text>Correct! You should make your choice <strong> as fast as you can</strong>.</p>","0","","","","","","","","","","","","","","","","","","","","","","","","","",""
"","","","","","html-button-response","131","575129","0.0-3.0-1.0-1.0-3.0","611b1f8d65d3749d42e746c2","D2","batch4","pattern_quiz","2170","<p class = block-text>True or False: You will look for 4 pieces in black or white color connected in a row either horizontally, vertically or diagonally. <br></p>","0","","","true","","","","","","","","","","","","","","","","","","","","","","",""
"","","","","","html-button-response","132","575857","0.0-3.0-1.0-1.0-4.0","611b1f8d65d3749d42e746c2","D2","batch4","pattern_quiz_feedback","726.7999999970198","<p class = block-text>Correct! </p>","0","","","","","","","","","","","","","","","","","","","","","","","","","",""
"","","","","","html-button-response","133","576569","0.0-3.0-2.0","611b1f8d65d3749d42e746c2","D2","batch4","pattern_enter_practice","709.2000000029802","<p class=block-text> Now that you've understood the game, let's do a few practice trials before we start!<br> <br>","0","","","","","","","","","","","","","","","","","","","","","","","","","",""
"","","","","","image-keyboard-response","134","579881","0.0-3.0-3.0-0.0","611b1f8d65d3749d42e746c2","D2","batch4","pattern_practice","3310.2000000029802","stim/prac_no_16_1.png","j","","j","true","","","","","","","","","","","","","","","","","","","","","","",""
"","","","","","html-keyboard-response","135","580900","0.0-3.0-3.0-1.0","611b1f8d65d3749d42e746c2","D2","batch4","pattern_feedback","null","<p style=""font-size:30px;color:green;"">Correct!</p>","null","","","","","","","","","","","","","","","","","","","","","","","","","",""
"","","","","","image-keyboard-response","136","581744","0.0-3.0-3.0-0.1","611b1f8d65d3749d42e746c2","D2","batch4","pattern_practice","842.6000000089407","stim/prac_yes_16_ver_w1.png","f","","f","true","","","","","","","","","","","","","","","","","","","","","","",""
"","","","","","html-keyboard-response","137","582749","0.0-3.0-3.0-1.1","611b1f8d65d3749d42e746c2","D2","batch4","pattern_feedback","null","<p style=""font-size:30px;color:green;"">Correct!</p>","null","","","","","","","","","","","","","","","","","","","","","","","","","",""
"","","","","","image-keyboard-response","138","583413","0.0-3.0-3.0-0.2","611b1f8d65d3749d42e746c2","D2","batch4","pattern_practice","662.0999999940395","stim/prac_yes_18_hor_w1.png","f","","f","true","","","","","","","","","","","","","","","","","","","","","","",""
"","","","","","html-keyboard-response","139","584429","0.0-3.0-3.0-1.2","611b1f8d65d3749d42e746c2","D2","batch4","pattern_feedback","null","<p style=""font-size:30px;color:green;"">Correct!</p>","null","","","","","","","","","","","","","","","","","","","","","","","","","",""
"","","","","","image-keyboard-response","140","585045","0.0-3.0-3.0-0.3","611b1f8d65d3749d42e746c2","D2","batch4","pattern_practice","614.7999999970198","stim/prac_no_18_1.png","j","","j","true","","","","","","","","","","","","","","","","","","","","","","",""
"","","","","","html-keyboard-response","141","586076","0.0-3.0-3.0-1.3","611b1f8d65d3749d42e746c2","D2","batch4","pattern_feedback","null","<p style=""font-size:30px;color:green;"">Correct!</p>","null","","","","","","","","","","","","","","","","","","","","","","","","","",""
"","","","","","image-keyboard-response","142","587581","0.0-3.0-3.0-0.4","611b1f8d65d3749d42e746c2","D2","batch4","pattern_practice","1502.3999999910593","stim/prac_yes_20_dia_b1.png","f","","f","true","","","","","","","","","","","","","","","","","","","","","","",""
"","","","","","html-keyboard-response","143","588597","0.0-3.0-3.0-1.4","611b1f8d65d3749d42e746c2","D2","batch4","pattern_feedback","null","<p style=""font-size:30px;color:green;"">Correct!</p>","null","","","","","","","","","","","","","","","","","","","","","","","","","",""
"","","","","","html-button-response","144","590705","0.0-3.0-4.0","611b1f8d65d3749d42e746c2","D2","batch4","pattern_enter_official_trials","2106.2999999970198","<p class=block-text> Good job! You are done with practice trials!<br>
        You responded correctly on 100% of the trials.<br>
        Press the button below to start official trials. Now you won't see any feedback about your response</p>","0","","","","","","","","","","","","","","","","","","","","","","","","","",""
"","","","","","html-keyboard-response","145","591522","0.0-3.0-5.0-0.0","611b1f8d65d3749d42e746c2","D2","batch4","pattern_show_trial_num","null","<p class=block-text>Trial 1 out of 78</p>","null","","","","","","","","","","","","","","","","","","","","","","","","","",""
"","","","","","image-keyboard-response","146","592925","0.0-3.0-5.0-1.0","611b1f8d65d3749d42e746c2","D2","batch4","pattern_response","1401.2000000029802","stim/yes_30_ver_b1_b.png","f","pattern_54","f","true","","","","1401.2000000029802","true","1","","","","","","","","","","","","","","","","",""
"","","","","","html-keyboard-response","147","594250","0.0-3.0-5.0-0.1","611b1f8d65d3749d42e746c2","D2","batch4","pattern_show_trial_num","null","<p class=block-text>Trial 2 out of 78</p>","null","","","","","","","","","","","","","","","","","","","","","","","","","",""
"","","","","","image-keyboard-response","148","596221","0.0-3.0-5.0-1.1","611b1f8d65d3749d42e746c2","D2","batch4","pattern_response","1969.7999999970198","stim/yes_51_dia_b1.png","j","pattern_72","f","false","","","","1969.7999999970198","false","1","","","","","","","","","","","","","","","","",""
"","","","","","html-keyboard-response","149","597548","0.0-3.0-5.0-0.2","611b1f8d65d3749d42e746c2","D2","batch4","pattern_show_trial_num","null","<p class=block-text>Trial 3 out of 78</p>","null","","","","","","","","","","","","","","","","","","","","","","","","","",""
"","","","","","image-keyboard-response","150","599165","0.0-3.0-5.0-1.2","611b1f8d65d3749d42e746c2","D2","batch4","pattern_response","1614.7999999970198","stim/yes_33_dia_w1_w.png","f","pattern_56","f","true","","","","1614.7999999970198","true","2","","","","","","","","","","","","","","","","",""
"","","","","","html-keyboard-response","151","600497","0.0-3.0-5.0-0.3","611b1f8d65d3749d42e746c2","D2","batch4","pattern_show_trial_num","null","<p class=block-text>Trial 4 out of 78</p>","null","","","","","","","","","","","","","","","","","","","","","","","","","",""
"","","","","","image-keyboard-response","152","602045","0.0-3.0-5.0-1.3","611b1f8d65d3749d42e746c2","D2","batch4","pattern_response","1546.3999999910593","stim/no_30_1_b.png","j","pattern_13","j","true","","","","1546.3999999910593","true","3","","","","","","","","","","","","","","","","",""
"","","","","","html-keyboard-response","153","603369","0.0-3.0-5.0-0.4","611b1f8d65d3749d42e746c2","D2","batch4","pattern_show_trial_num","null","<p class=block-text>Trial 5 out of 78</p>","null","","","","","","","","","","","","","","","","","","","","","","","","","",""
"","","","","","image-keyboard-response","154","605398","0.0-3.0-5.0-1.4","611b1f8d65d3749d42e746c2","D2","batch4","pattern_response","2027","stim/yes_53_ver_b1_b.png","f","pattern_74","f","true","","","","2027","true","4","","","","","","","","","","","","","","","","",""
"","","","","","html-keyboard-response","155","606729","0.0-3.0-5.0-0.5","611b1f8d65d3749d42e746c2","D2","batch4","pattern_show_trial_num","null","<p class=block-text>Trial 6 out of 78</p>","null","","","","","","","","","","","","","","","","","","","","","","","","","",""
"","","","","","image-keyboard-response","156","609213","0.0-3.0-5.0-1.5","611b1f8d65d3749d42e746c2","D2","batch4","pattern_response","2482.5999999940395","stim/yes_44_ver_w1_w.png","j","pattern_66","f","false","","","","2482.5999999940395","false","4","","","","","","","","","","","","","","","","",""
"","","","","","html-keyboard-response","157","610529","0.0-3.0-5.0-0.6","611b1f8d65d3749d42e746c2","D2","batch4","pattern_show_trial_num","null","<p class=block-text>Trial 7 out of 78</p>","null","","","","","","","","","","","","","","","","","","","","","","","","","",""
"","","","","","image-keyboard-response","158","613077","0.0-3.0-5.0-1.6","611b1f8d65d3749d42e746c2","D2","batch4","pattern_response","2545.6000000089407","stim/no_53_1_b.png","j","pattern_33","j","true","","","","2545.6000000089407","true","5","","","","","","","","","","","","","","","","",""
"","","","","","html-keyboard-response","159","614401","0.0-3.0-5.0-0.7","611b1f8d65d3749d42e746c2","D2","batch4","pattern_show_trial_num","null","<p class=block-text>Trial 8 out of 78</p>","null","","","","","","","","","","","","","","","","","","","","","","","","","",""
"","","","","","image-keyboard-response","160","615115","0.0-3.0-5.0-1.7","611b1f8d65d3749d42e746c2","D2","batch4","pattern_response","711.7999999970198","stim/yes_17_ver_b1_b.png","f","pattern_46","f","true","","","","711.7999999970198","true","6","","","","","","","","","","","","","","","","",""
"","","","","","html-keyboard-response","161","616435","0.0-3.0-5.0-0.8","611b1f8d65d3749d42e746c2","D2","batch4","pattern_show_trial_num","null","<p class=block-text>Trial 9 out of 78</p>","null","","","","","","","","","","","","","","","","","","","","","","","","","",""
"","","","","","image-keyboard-response","162","618237","0.0-3.0-5.0-1.8","611b1f8d65d3749d42e746c2","D2","batch4","pattern_response","1800.5","stim/no_22_1_b.png","j","pattern_07","j","true","","","","1800.5","true","7","","","","","","","","","","","","","","","","",""
"","","","","","html-keyboard-response","163","619561","0.0-3.0-5.0-0.9","611b1f8d65d3749d42e746c2","D2","batch4","pattern_show_trial_num","null","<p class=block-text>Trial 10 out of 78</p>","null","","","","","","","","","","","","","","","","","","","","","","","","","",""
"","","","","","image-keyboard-response","164","622598","0.0-3.0-5.0-1.9","611b1f8d65d3749d42e746c2","D2","batch4","pattern_response","3034.3999999910593","stim/no_39_1_w.png","j","pattern_21","j","true","","","","3034.3999999910593","true","8","","","","","","","","","","","","","","","","",""
"","","","","","html-keyboard-response","165","623929","0.0-3.0-5.0-0.10","611b1f8d65d3749d42e746c2","D2","batch4","pattern_show_trial_num","null","<p class=block-text>Trial 11 out of 78</p>","null","","","","","","","","","","","","","","","","","","","","","","","","","",""
"","","","","","image-keyboard-response","166","629037","0.0-3.0-5.0-1.10","611b1f8d65d3749d42e746c2","D2","batch4","pattern_response","5106.0999999940395","stim/yes_58_dia_w1_w.png","j","pattern_76","f","false","","","","5106.0999999940395","false","8","","","","","","","","","","","","","","","","",""
"","","","","","html-keyboard-response","167","630362","0.0-3.0-5.0-0.11","611b1f8d65d3749d42e746c2","D2","batch4","pattern_show_trial_num","null","<p class=block-text>Trial 12 out of 78</p>","null","","","","","","","","","","","","","","","","","","","","","","","","","",""
"","","","","","image-keyboard-response","168","633880","0.0-3.0-5.0-1.11","611b1f8d65d3749d42e746c2","D2","batch4","pattern_response","3515.9000000059605","stim/no_36_1_b.png","j","pattern_17","j","true","","","","3515.9000000059605","true","9","","","","","","","","","","","","","","","","",""
"","","","","","html-keyboard-response","169","635196","0.0-3.0-5.0-0.12","611b1f8d65d3749d42e746c2","D2","batch4","pattern_show_trial_num","null","<p class=block-text>Trial 13 out of 78</p>","null","","","","","","","","","","","","","","","","","","","","","","","","","",""
"","","","","","image-keyboard-response","170","636213","0.0-3.0-5.0-1.12","611b1f8d65d3749d42e746c2","D2","batch4","pattern_response","1014.6999999880791","stim/yes_26_dia_w2_w.png","f","pattern_50","f","true","","","","1014.6999999880791","true","10","","","","","","","","","","","","","","","","",""
"","","","","","html-keyboard-response","171","637541","0.0-3.0-5.0-0.13","611b1f8d65d3749d42e746c2","D2","batch4","pattern_show_trial_num","null","<p class=block-text>Trial 14 out of 78</p>","null","","","","","","","","","","","","","","","","","","","","","","","","","",""
"","","","","","image-keyboard-response","172","638653","0.0-3.0-5.0-1.13","611b1f8d65d3749d42e746c2","D2","batch4","pattern_response","1105.2999999970198","stim/no_15_1_w.png","j","pattern_03","j","true","","","","1105.2999999970198","true","11","","","","","","","","","","","","","","","","",""
"","","","","","html-keyboard-response","173","639971","0.0-3.0-5.0-0.14","611b1f8d65d3749d42e746c2","D2","batch4","pattern_show_trial_num","null","<p class=block-text>Trial 15 out of 78</p>","null","","","","","","","","","","","","","","","","","","","","","","","","","",""
"","","","","","image-keyboard-response","174","641917","0.0-3.0-5.0-1.14","611b1f8d65d3749d42e746c2","D2","batch4","pattern_response","1945.1000000089407","stim/yes_63_dia_b1.png","f","pattern_78","f","true","","","","1945.1000000089407","true","12","","","","","","","","","","","","","","","","",""
"","","","","","html-keyboard-response","175","643235","0.0-3.0-5.0-0.15","611b1f8d65d3749d42e746c2","D2","batch4","pattern_show_trial_num","null","<p class=block-text>Trial 16 out of 78</p>","null","","","","","","","","","","","","","","","","","","","","","","","","","",""
"","","","","","image-keyboard-response","176","644029","0.0-3.0-5.0-1.15","611b1f8d65d3749d42e746c2","D2","batch4","pattern_response","792.1000000089407","stim/no_12_1.png","j","pattern_01","j","true","","","","792.1000000089407","true","13","","","","","","","","","","","","","","","","",""
"","","","","","html-keyboard-response","177","645347","0.0-3.0-5.0-0.16","611b1f8d65d3749d42e746c2","D2","batch4","pattern_show_trial_num","null","<p class=block-text>Trial 17 out of 78</p>","null","","","","","","","","","","","","","","","","","","","","","","","","","",""
"","","","","","image-keyboard-response","178","648701","0.0-3.0-5.0-1.16","611b1f8d65d3749d42e746c2","D2","batch4","pattern_response","3353.4000000059605","stim/no_51_1.png","j","pattern_31","j","true","","","","3353.4000000059605","true","14","","","","","","","","","","","","","","","","",""
"","","","","","html-keyboard-response","179","650026","0.0-3.0-5.0-0.17","611b1f8d65d3749d42e746c2","D2","batch4","pattern_show_trial_num","null","<p class=block-text>Trial 18 out of 78</p>","null","","","","","","","","","","","","","","","","","","","","","","","","","",""
"","","","","","image-keyboard-response","180","651957","0.0-3.0-5.0-1.17","611b1f8d65d3749d42e746c2","D2","batch4","pattern_response","1928.7999999970198","stim/yes_23_ver_b1.png","f","pattern_48","f","true","","","","1928.7999999970198","true","15","","","","","","","","","","","","","","","","",""
"","","","","","html-keyboard-response","181","653267","0.0-3.0-5.0-0.18","611b1f8d65d3749d42e746c2","D2","batch4","pattern_show_trial_num","null","<p class=block-text>Trial 19 out of 78</p>","null","","","","","","","","","","","","","","","","","","","","","","","","","",""
"","","","","","image-keyboard-response","182","657390","0.0-3.0-5.0-1.18","611b1f8d65d3749d42e746c2","D2","batch4","pattern_response","4121.100000008941","stim/no_67_1.png","j","pattern_39","j","true","","","","4121.100000008941","true","16","","","","","","","","","","","","","","","","",""
"","","","","","html-keyboard-response","183","658716","0.0-3.0-5.0-0.19","611b1f8d65d3749d42e746c2","D2","batch4","pattern_show_trial_num","null","<p class=block-text>Trial 20 out of 78</p>","null","","","","","","","","","","","","","","","","","","","","","","","","","",""
"","","","","","image-keyboard-response","184","661189","0.0-3.0-5.0-1.19","611b1f8d65d3749d42e746c2","D2","batch4","pattern_response","2470.9000000059605","stim/no_37_2_w.png","j","pattern_19","j","true","","","","2470.9000000059605","true","17","","","","","","","","","","","","","","","","",""
"","","","","","html-keyboard-response","185","662505","0.0-3.0-5.0-0.20","611b1f8d65d3749d42e746c2","D2","batch4","pattern_show_trial_num","null","<p class=block-text>Trial 21 out of 78</p>","null","","","","","","","","","","","","","","","","","","","","","","","","","",""
"","","","","","image-keyboard-response","186","663282","0.0-3.0-5.0-1.20","611b1f8d65d3749d42e746c2","D2","batch4","pattern_response","772.2999999970198","stim/yes_29_hor_b1_b.png","f","pattern_52","f","true","","","","772.2999999970198","true","18","","","","","","","","","","","","","","","","",""
"","","","","","html-keyboard-response","187","664591","0.0-3.0-5.0-0.21","611b1f8d65d3749d42e746c2","D2","batch4","pattern_show_trial_num","null","<p class=block-text>Trial 22 out of 78</p>","null","","","","","","","","","","","","","","","","","","","","","","","","","",""
"","","","","","image-keyboard-response","188","665461","0.0-3.0-5.0-1.21","611b1f8d65d3749d42e746c2","D2","batch4","pattern_response","868.2999999970198","stim/yes_36_ver_w1_w.png","f","pattern_58","f","true","","","","868.2999999970198","true","19","","","","","","","","","","","","","","","","",""
"","","","","","html-keyboard-response","189","666776","0.0-3.0-5.0-0.22","611b1f8d65d3749d42e746c2","D2","batch4","pattern_show_trial_num","null","<p class=block-text>Trial 23 out of 78</p>","null","","","","","","","","","","","","","","","","","","","","","","","","","",""
"","","","","","image-keyboard-response","190","667749","0.0-3.0-5.0-1.22","611b1f8d65d3749d42e746c2","D2","batch4","pattern_response","971.6000000089407","stim/yes_49_hor_w1_b.png","f","pattern_70","f","true","","","","971.6000000089407","true","20","","","","","","","","","","","","","","","","",""
"","","","","","html-keyboard-response","191","669082","0.0-3.0-5.0-0.23","611b1f8d65d3749d42e746c2","D2","batch4","pattern_show_trial_num","null","<p class=block-text>Trial 24 out of 78</p>","null","","","","","","","","","","","","","","","","","","","","","","","","","",""
"","","","","","image-keyboard-response","192","670726","0.0-3.0-5.0-1.23","611b1f8d65d3749d42e746c2","D2","batch4","pattern_response","1641.5999999940395","stim/no_33_1_b.png","j","pattern_15","j","true","","","","1641.5999999940395","true","21","","","","","","","","","","","","","","","","",""
"","","","","","html-keyboard-response","193","672056","0.0-3.0-5.0-0.24","611b1f8d65d3749d42e746c2","D2","batch4","pattern_show_trial_num","null","<p class=block-text>Trial 25 out of 78</p>","null","","","","","","","","","","","","","","","","","","","","","","","","","",""
"","","","","","image-keyboard-response","194","672888","0.0-3.0-5.0-1.24","611b1f8d65d3749d42e746c2","D2","batch4","pattern_response","829.1000000089407","stim/yes_70_ver_b1.png","f","pattern_80","f","true","","","","829.1000000089407","true","22","","","","","","","","","","","","","","","","",""
"","","","","","html-keyboard-response","195","674194","0.0-3.0-5.0-0.25","611b1f8d65d3749d42e746c2","D2","batch4","pattern_show_trial_num","null","<p class=block-text>Trial 26 out of 78</p>","null","","","","","","","","","","","","","","","","","","","","","","","","","",""
"","","","","","image-keyboard-response","196","675069","0.0-3.0-5.0-1.25","611b1f8d65d3749d42e746c2","D2","batch4","pattern_response","874","stim/yes_39_hor_w1_w.png","f","pattern_62","f","true","","","","874","true","23","","","","","","","","","","","","","","","","",""
"","","","","","html-keyboard-response","197","676405","0.0-3.0-5.0-0.26","611b1f8d65d3749d42e746c2","D2","batch4","pattern_show_trial_num","null","<p class=block-text>Trial 27 out of 78</p>","null","","","","","","","","","","","","","","","","","","","","","","","","","",""
"","","","","","image-keyboard-response","198","679637","0.0-3.0-5.0-1.26","611b1f8d65d3749d42e746c2","D2","batch4","pattern_response","3231.2999999970198","stim/no_47_1_b.png","j","pattern_27","j","true","","","","3231.2999999970198","true","24","","","","","","","","","","","","","","","","",""
"","","","","","html-keyboard-response","199","680968","0.0-3.0-5.0-0.27","611b1f8d65d3749d42e746c2","D2","batch4","pattern_show_trial_num","null","<p class=block-text>Trial 28 out of 78</p>","null","","","","","","","","","","","","","","","","","","","","","","","","","",""
"","","","","","image-keyboard-response","200","682797","0.0-3.0-5.0-1.27","611b1f8d65d3749d42e746c2","D2","batch4","pattern_response","1827.7999999970198","stim/no_25_1_b.png","j","pattern_09","j","true","","","","1827.7999999970198","true","25","","","","","","","","","","","","","","","","",""
"","","","","","html-keyboard-response","201","684116","0.0-3.0-5.0-0.28","611b1f8d65d3749d42e746c2","D2","batch4","pattern_show_trial_num","null","<p class=block-text>Trial 29 out of 78</p>","null","","","","","","","","","","","","","","","","","","","","","","","","","",""
"","","","","","image-keyboard-response","202","684973","0.0-3.0-5.0-1.28","611b1f8d65d3749d42e746c2","D2","batch4","pattern_response","855","stim/yes_15_dia_b1u_b.png","f","pattern_44","f","true","","","","855","true","26","","","","","","","","","","","","","","","","",""
"","","","","","html-keyboard-response","203","686288","0.0-3.0-5.0-0.29","611b1f8d65d3749d42e746c2","D2","batch4","pattern_show_trial_num","null","<p class=block-text>Trial 30 out of 78</p>","null","","","","","","","","","","","","","","","","","","","","","","","","","",""
"","","","","","image-keyboard-response","204","689061","0.0-3.0-5.0-1.29","611b1f8d65d3749d42e746c2","D2","batch4","pattern_response","2772.300000011921","stim/yes_42_dia_w1_w.png","j","pattern_64","f","false","","","","2772.300000011921","false","26","","","","","","","","","","","","","","","","",""
"","","","","","html-keyboard-response","205","690412","0.0-3.0-5.0-0.30","611b1f8d65d3749d42e746c2","D2","batch4","pattern_show_trial_num","null","<p class=block-text>Trial 31 out of 78</p>","null","","","","","","","","","","","","","","","","","","","","","","","","","",""
"","","","","","image-keyboard-response","206","691254","0.0-3.0-5.0-1.30","611b1f8d65d3749d42e746c2","D2","batch4","pattern_response","839.5","stim/yes_12_hor_w1_w.png","f","pattern_42","f","true","","","","839.5","true","27","","","","","","","","","","","","","","","","",""
"","","","","","html-keyboard-response","207","692571","0.0-3.0-5.0-0.31","611b1f8d65d3749d42e746c2","D2","batch4","pattern_show_trial_num","null","<p class=block-text>Trial 32 out of 78</p>","null","","","","","","","","","","","","","","","","","","","","","","","","","",""
"","","","","","image-keyboard-response","208","696445","0.0-3.0-5.0-1.31","611b1f8d65d3749d42e746c2","D2","batch4","pattern_response","3873.5","stim/no_43_2_b.png","j","pattern_23","j","true","","","","3873.5","true","28","","","","","","","","","","","","","","","","",""
"","","","","","html-keyboard-response","209","697766","0.0-3.0-5.0-0.32","611b1f8d65d3749d42e746c2","D2","batch4","pattern_show_trial_num","null","<p class=block-text>Trial 33 out of 78</p>","null","","","","","","","","","","","","","","","","","","","","","","","","","",""
"","","","","","image-keyboard-response","210","700414","0.0-3.0-5.0-1.32","611b1f8d65d3749d42e746c2","D2","batch4","pattern_response","2645.5999999940395","stim/no_28_2.png","j","pattern_11","j","true","","","","2645.5999999940395","true","29","","","","","","","","","","","","","","","","",""
"","","","","","html-keyboard-response","211","701731","0.0-3.0-5.0-0.33","611b1f8d65d3749d42e746c2","D2","batch4","pattern_show_trial_num","null","<p class=block-text>Trial 34 out of 78</p>","null","","","","","","","","","","","","","","","","","","","","","","","","","",""
"","","","","","image-keyboard-response","212","702558","0.0-3.0-5.0-1.33","611b1f8d65d3749d42e746c2","D2","batch4","pattern_response","824.5999999940395","stim/yes_46_ver_b1_b.png","f","pattern_68","f","true","","","","824.5999999940395","true","30","","","","","","","","","","","","","","","","",""
"","","","","","html-keyboard-response","213","703872","0.0-3.0-5.0-0.34","611b1f8d65d3749d42e746c2","D2","batch4","pattern_show_trial_num","null","<p class=block-text>Trial 35 out of 78</p>","null","","","","","","","","","","","","","","","","","","","","","","","","","",""
"","","","","","image-keyboard-response","214","704901","0.0-3.0-5.0-1.34","611b1f8d65d3749d42e746c2","D2","batch4","pattern_response","1027.7999999970198","stim/no_18_1_b.png","j","pattern_05","j","true","","","","1027.7999999970198","true","31","","","","","","","","","","","","","","","","",""
"","","","","","html-keyboard-response","215","706227","0.0-3.0-5.0-0.35","611b1f8d65d3749d42e746c2","D2","batch4","pattern_show_trial_num","null","<p class=block-text>Trial 36 out of 78</p>","null","","","","","","","","","","","","","","","","","","","","","","","","","",""
"","","","","","image-keyboard-response","216","707301","0.0-3.0-5.0-1.35","611b1f8d65d3749d42e746c2","D2","batch4","pattern_response","1072.5999999940395","stim/yes_37_hor_w1_w.png","f","pattern_60","f","true","","","","1072.5999999940395","true","32","","","","","","","","","","","","","","","","",""
"","","","","","html-keyboard-response","217","708615","0.0-3.0-5.0-0.36","611b1f8d65d3749d42e746c2","D2","batch4","pattern_show_trial_num","null","<p class=block-text>Trial 37 out of 78</p>","null","","","","","","","","","","","","","","","","","","","","","","","","","",""
"","","","","","image-keyboard-response","218","711301","0.0-3.0-5.0-1.36","611b1f8d65d3749d42e746c2","D2","batch4","pattern_response","2685.2999999970198","stim/no_45_1_w.png","j","pattern_25","j","true","","","","2685.2999999970198","true","33","","","","","","","","","","","","","","","","",""
"","","","","","html-keyboard-response","219","712617","0.0-3.0-5.0-0.37","611b1f8d65d3749d42e746c2","D2","batch4","pattern_show_trial_num","null","<p class=block-text>Trial 38 out of 78</p>","null","","","","","","","","","","","","","","","","","","","","","","","","","",""
"","","","","","image-keyboard-response","220","715453","0.0-3.0-5.0-1.37","611b1f8d65d3749d42e746c2","D2","batch4","pattern_response","2834.5","stim/no_58_1_w.png","j","pattern_35","j","true","","","","2834.5","true","34","","","","","","","","","","","","","","","","",""
"","","","","","html-keyboard-response","221","716801","0.0-3.0-5.0-0.38","611b1f8d65d3749d42e746c2","D2","batch4","pattern_show_trial_num","null","<p class=block-text>Trial 39 out of 78</p>","null","","","","","","","","","","","","","","","","","","","","","","","","","",""
"","","","","","image-keyboard-response","222","718685","0.0-3.0-5.0-1.38","611b1f8d65d3749d42e746c2","D2","batch4","pattern_response","1882.5","stim/no_49_2_b.png","j","pattern_29","j","true","","","","1882.5","true","35","","","","","","","","","","","","","","","","",""
"","","","","","image-keyboard-response","223","721517","0.0-3.0-6.0","611b1f8d65d3749d42e746c2","D2","batch4","attention_check","2325.2999999970198","stim/empty_board.png","j","","j","true","","","","","","","500","[""f"",""j""]","","","","","","","","","","","","","","",""
"","","","","","html-keyboard-response","224","722321","0.0-3.0-7.0-0.0","611b1f8d65d3749d42e746c2","D2","batch4","pattern_show_trial_num","null","<p class=block-text>Trial 40 out of 78</p>","null","","","","","","","","","","","","","","","","","","","","","","","","","",""
"","","","","","image-keyboard-response","225","723605","0.0-3.0-7.0-1.0","611b1f8d65d3749d42e746c2","D2","batch4","pattern_response","1282.4000000059605","stim/no_23_1.png","j","pattern_08","j","true","","","","1282.4000000059605","true","36","","","","","","","","","","","","","","","","",""
"","","","","","html-keyboard-response","226","724920","0.0-3.0-7.0-0.1","611b1f8d65d3749d42e746c2","D2","batch4","pattern_show_trial_num","null","<p class=block-text>Trial 41 out of 78</p>","null","","","","","","","","","","","","","","","","","","","","","","","","","",""
"","","","","","image-keyboard-response","227","726253","0.0-3.0-7.0-1.1","611b1f8d65d3749d42e746c2","D2","batch4","pattern_response","1332.5","stim/yes_45_hor_b2_b.png","f","pattern_67","f","true","","","","1332.5","true","37","","","","","","","","","","","","","","","","",""
"","","","","","html-keyboard-response","228","727576","0.0-3.0-7.0-0.2","611b1f8d65d3749d42e746c2","D2","batch4","pattern_show_trial_num","null","<p class=block-text>Trial 42 out of 78</p>","null","","","","","","","","","","","","","","","","","","","","","","","","","",""
"","","","","","image-keyboard-response","229","731053","0.0-3.0-7.0-1.2","611b1f8d65d3749d42e746c2","D2","batch4","pattern_response","3475.5","stim/yes_37_dia_w1.png","j","pattern_59","f","false","","","","3475.5","false","37","","","","","","","","","","","","","","","","",""
"","","","","","html-keyboard-response","230","732361","0.0-3.0-7.0-0.3","611b1f8d65d3749d42e746c2","D2","batch4","pattern_show_trial_num","null","<p class=block-text>Trial 43 out of 78</p>","null","","","","","","","","","","","","","","","","","","","","","","","","","",""
"","","","","","image-keyboard-response","231","734149","0.0-3.0-7.0-1.3","611b1f8d65d3749d42e746c2","D2","batch4","pattern_response","1786.6000000089407","stim/no_34_1_b.png","j","pattern_16","j","true","","","","1786.6000000089407","true","38","","","","","","","","","","","","","","","","",""
"","","","","","html-keyboard-response","232","735467","0.0-3.0-7.0-0.4","611b1f8d65d3749d42e746c2","D2","batch4","pattern_show_trial_num","null","<p class=block-text>Trial 44 out of 78</p>","null","","","","","","","","","","","","","","","","","","","","","","","","","",""
"","","","","","image-keyboard-response","233","736901","0.0-3.0-7.0-1.4","611b1f8d65d3749d42e746c2","D2","batch4","pattern_response","1432.7000000029802","stim/yes_52_ver_w1.png","f","pattern_73","f","true","","","","1432.7000000029802","true","39","","","","","","","","","","","","","","","","",""
"","","","","","html-keyboard-response","234","738229","0.0-3.0-7.0-0.5","611b1f8d65d3749d42e746c2","D2","batch4","pattern_show_trial_num","null","<p class=block-text>Trial 45 out of 78</p>","null","","","","","","","","","","","","","","","","","","","","","","","","","",""
"","","","","","image-keyboard-response","235","740615","0.0-3.0-7.0-1.5","611b1f8d65d3749d42e746c2","D2","batch4","pattern_response","2383.7999999970198","stim/no_44_1.png","j","pattern_24","j","true","","","","2383.7999999970198","true","40","","","","","","","","","","","","","","","","",""
"","","","","","html-keyboard-response","236","741932","0.0-3.0-7.0-0.6","611b1f8d65d3749d42e746c2","D2","batch4","pattern_show_trial_num","null","<p class=block-text>Trial 46 out of 78</p>","null","","","","","","","","","","","","","","","","","","","","","","","","","",""
"","","","","","image-keyboard-response","237","743237","0.0-3.0-7.0-1.6","611b1f8d65d3749d42e746c2","D2","batch4","pattern_response","1303.800000011921","stim/yes_60_ver_b1_b.png","f","pattern_77","f","true","","","","1303.800000011921","true","41","","","","","","","","","","","","","","","","",""
"","","","","","html-keyboard-response","238","744547","0.0-3.0-7.0-0.7","611b1f8d65d3749d42e746c2","D2","batch4","pattern_show_trial_num","null","<p class=block-text>Trial 47 out of 78</p>","null","","","","","","","","","","","","","","","","","","","","","","","","","",""
"","","","","","image-keyboard-response","239","747142","0.0-3.0-7.0-1.7","611b1f8d65d3749d42e746c2","D2","batch4","pattern_response","2592.7999999970198","stim/no_50_1.png","j","pattern_30","j","true","","","","2592.7999999970198","true","42","","","","","","","","","","","","","","","","",""
"","","","","","html-keyboard-response","240","748455","0.0-3.0-7.0-0.8","611b1f8d65d3749d42e746c2","D2","batch4","pattern_show_trial_num","null","<p class=block-text>Trial 48 out of 78</p>","null","","","","","","","","","","","","","","","","","","","","","","","","","",""
"","","","","","image-keyboard-response","241","750589","0.0-3.0-7.0-1.8","611b1f8d65d3749d42e746c2","D2","batch4","pattern_response","2132.5","stim/no_46_1_b.png","j","pattern_26","j","true","","","","2132.5","true","43","","","","","","","","","","","","","","","","",""
"","","","","","html-keyboard-response","242","751919","0.0-3.0-7.0-0.9","611b1f8d65d3749d42e746c2","D2","batch4","pattern_show_trial_num","null","<p class=block-text>Trial 49 out of 78</p>","null","","","","","","","","","","","","","","","","","","","","","","","","","",""
"","","","","","image-keyboard-response","243","753144","0.0-3.0-7.0-1.9","611b1f8d65d3749d42e746c2","D2","batch4","pattern_response","1223.2000000029802","stim/yes_55_hor_w1_w.png","f","pattern_75","f","true","","","","1223.2000000029802","true","44","","","","","","","","","","","","","","","","",""
"","","","","","html-keyboard-response","244","754473","0.0-3.0-7.0-0.10","611b1f8d65d3749d42e746c2","D2","batch4","pattern_show_trial_num","null","<p class=block-text>Trial 50 out of 78</p>","null","","","","","","","","","","","","","","","","","","","","","","","","","",""
"","","","","","image-keyboard-response","245","757725","0.0-3.0-7.0-1.10","611b1f8d65d3749d42e746c2","D2","batch4","pattern_response","3251.199999988079","stim/no_70_2.png","j","pattern_40","j","true","","","","3251.199999988079","true","45","","","","","","","","","","","","","","","","",""
"","","","","","html-keyboard-response","246","759065","0.0-3.0-7.0-0.11","611b1f8d65d3749d42e746c2","D2","batch4","pattern_show_trial_num","null","<p class=block-text>Trial 51 out of 78</p>","null","","","","","","","","","","","","","","","","","","","","","","","","","",""
"","","","","","image-keyboard-response","247","760029","0.0-3.0-7.0-1.11","611b1f8d65d3749d42e746c2","D2","batch4","pattern_response","960.7999999970198","stim/no_26_1_w.png","j","pattern_10","j","true","","","","960.7999999970198","true","46","","","","","","","","","","","","","","","","",""
"","","","","","html-keyboard-response","248","761360","0.0-3.0-7.0-0.12","611b1f8d65d3749d42e746c2","D2","batch4","pattern_show_trial_num","null","<p class=block-text>Trial 52 out of 78</p>","null","","","","","","","","","","","","","","","","","","","","","","","","","",""
"","","","","","image-keyboard-response","249","762581","0.0-3.0-7.0-1.12","611b1f8d65d3749d42e746c2","D2","batch4","pattern_response","1219.2000000029802","stim/yes_38_hor_b1_b.png","f","pattern_61","f","true","","","","1219.2000000029802","true","47","","","","","","","","","","","","","","","","",""
"","","","","","html-keyboard-response","250","763897","0.0-3.0-7.0-0.13","611b1f8d65d3749d42e746c2","D2","batch4","pattern_show_trial_num","null","<p class=block-text>Trial 53 out of 78</p>","null","","","","","","","","","","","","","","","","","","","","","","","","","",""
"","","","","","image-keyboard-response","251","764933","0.0-3.0-7.0-1.13","611b1f8d65d3749d42e746c2","D2","batch4","pattern_response","1033.8999999910593","stim/yes_28_ver_b1.png","f","pattern_51","f","true","","","","1033.8999999910593","true","48","","","","","","","","","","","","","","","","",""
"","","","","","html-keyboard-response","252","766250","0.0-3.0-7.0-0.14","611b1f8d65d3749d42e746c2","D2","batch4","pattern_show_trial_num","null","<p class=block-text>Trial 54 out of 78</p>","null","","","","","","","","","","","","","","","","","","","","","","","","","",""
"","","","","","image-keyboard-response","253","768037","0.0-3.0-7.0-1.14","611b1f8d65d3749d42e746c2","D2","batch4","pattern_response","1785.5","stim/no_52_1.png","j","pattern_32","j","true","","","","1785.5","true","49","","","","","","","","","","","","","","","","",""
"","","","","","html-keyboard-response","254","769354","0.0-3.0-7.0-0.15","611b1f8d65d3749d42e746c2","D2","batch4","pattern_show_trial_num","null","<p class=block-text>Trial 55 out of 78</p>","null","","","","","","","","","","","","","","","","","","","","","","","","","",""
"","","","","","image-keyboard-response","255","770141","0.0-3.0-7.0-1.15","611b1f8d65d3749d42e746c2","D2","batch4","pattern_response","785.5","stim/yes_17_dia_w1.png","f","pattern_45","f","true","","","","785.5","true","50","","","","","","","","","","","","","","","","",""
"","","","","","html-keyboard-response","256","771481","0.0-3.0-7.0-0.16","611b1f8d65d3749d42e746c2","D2","batch4","pattern_show_trial_num","null","<p class=block-text>Trial 56 out of 78</p>","null","","","","","","","","","","","","","","","","","","","","","","","","","",""
"","","","","","image-keyboard-response","257","772629","0.0-3.0-7.0-1.16","611b1f8d65d3749d42e746c2","D2","batch4","pattern_response","1145.9000000059605","stim/no_20_1_w.png","j","pattern_06","j","true","","","","1145.9000000059605","true","51","","","","","","","","","","","","","","","","",""
"","","","","","html-keyboard-response","258","773951","0.0-3.0-7.0-0.17","611b1f8d65d3749d42e746c2","D2","batch4","pattern_show_trial_num","null","<p class=block-text>Trial 57 out of 78</p>","null","","","","","","","","","","","","","","","","","","","","","","","","","",""
"","","","","","image-keyboard-response","259","774805","0.0-3.0-7.0-1.17","611b1f8d65d3749d42e746c2","D2","batch4","pattern_response","853","stim/yes_22_ver_w1.png","f","pattern_47","f","true","","","","853","true","52","","","","","","","","","","","","","","","","",""
"","","","","","html-keyboard-response","260","776119","0.0-3.0-7.0-0.18","611b1f8d65d3749d42e746c2","D2","batch4","pattern_show_trial_num","null","<p class=block-text>Trial 58 out of 78</p>","null","","","","","","","","","","","","","","","","","","","","","","","","","",""
"","","","","","image-keyboard-response","261","777901","0.0-3.0-7.0-1.18","611b1f8d65d3749d42e746c2","D2","batch4","pattern_response","1780.1000000089407","stim/yes_31_hor_b1.png","j","pattern_55","f","false","","","","1780.1000000089407","false","52","","","","","","","","","","","","","","","","",""
"","","","","","html-keyboard-response","262","779232","0.0-3.0-7.0-0.19","611b1f8d65d3749d42e746c2","D2","batch4","pattern_show_trial_num","null","<p class=block-text>Trial 59 out of 78</p>","null","","","","","","","","","","","","","","","","","","","","","","","","","",""
"","","","","","image-keyboard-response","263","780957","0.0-3.0-7.0-1.19","611b1f8d65d3749d42e746c2","D2","batch4","pattern_response","1723.7000000029802","stim/no_48_1_w.png","j","pattern_28","j","true","","","","1723.7000000029802","true","53","","","","","","","","","","","","","","","","",""
"","","","","","html-keyboard-response","264","782280","0.0-3.0-7.0-0.20","611b1f8d65d3749d42e746c2","D2","batch4","pattern_show_trial_num","null","<p class=block-text>Trial 60 out of 78</p>","null","","","","","","","","","","","","","","","","","","","","","","","","","",""
"","","","","","image-keyboard-response","265","783901","0.0-3.0-7.0-1.20","611b1f8d65d3749d42e746c2","D2","batch4","pattern_response","1619.0999999940395","stim/yes_43_ver_w1_w.png","f","pattern_65","f","true","","","","1619.0999999940395","true","54","","","","","","","","","","","","","","","","",""
"","","","","","html-keyboard-response","266","785230","0.0-3.0-7.0-0.21","611b1f8d65d3749d42e746c2","D2","batch4","pattern_show_trial_num","null","<p class=block-text>Trial 61 out of 78</p>","null","","","","","","","","","","","","","","","","","","","","","","","","","",""
"","","","","","image-keyboard-response","267","786637","0.0-3.0-7.0-1.21","611b1f8d65d3749d42e746c2","D2","batch4","pattern_response","1405.5","stim/no_29_1_b.png","j","pattern_12","j","true","","","","1405.5","true","55","","","","","","","","","","","","","","","","",""
"","","","","","html-keyboard-response","268","787951","0.0-3.0-7.0-0.22","611b1f8d65d3749d42e746c2","D2","batch4","pattern_show_trial_num","null","<p class=block-text>Trial 62 out of 78</p>","null","","","","","","","","","","","","","","","","","","","","","","","","","",""
"","","","","","image-keyboard-response","269","789621","0.0-3.0-7.0-1.22","611b1f8d65d3749d42e746c2","D2","batch4","pattern_response","1665.5","stim/no_42_1_w.png","j","pattern_22","j","true","","","","1665.5","true","56","","","","","","","","","","","","","","","","",""
"","","","","","html-keyboard-response","270","790951","0.0-3.0-7.0-0.23","611b1f8d65d3749d42e746c2","D2","batch4","pattern_show_trial_num","null","<p class=block-text>Trial 63 out of 78</p>","null","","","","","","","","","","","","","","","","","","","","","","","","","",""
"","","","","","image-keyboard-response","271","792133","0.0-3.0-7.0-1.23","611b1f8d65d3749d42e746c2","D2","batch4","pattern_response","1178.9000000059605","stim/yes_25_hor_b1_b.png","f","pattern_49","f","true","","","","1178.9000000059605","true","57","","","","","","","","","","","","","","","","",""
"","","","","","html-keyboard-response","272","793448","0.0-3.0-7.0-0.24","611b1f8d65d3749d42e746c2","D2","batch4","pattern_show_trial_num","null","<p class=block-text>Trial 64 out of 78</p>","null","","","","","","","","","","","","","","","","","","","","","","","","","",""
"","","","","","image-keyboard-response","273","795525","0.0-3.0-7.0-1.24","611b1f8d65d3749d42e746c2","D2","batch4","pattern_response","2075.5999999940395","stim/no_36_2_w.png","j","pattern_18","j","true","","","","2075.5999999940395","true","58","","","","","","","","","","","","","","","","",""
"","","","","","html-keyboard-response","274","796847","0.0-3.0-7.0-0.25","611b1f8d65d3749d42e746c2","D2","batch4","pattern_show_trial_num","null","<p class=block-text>Trial 65 out of 78</p>","null","","","","","","","","","","","","","","","","","","","","","","","","","",""
"","","","","","image-keyboard-response","275","799781","0.0-3.0-7.0-1.25","611b1f8d65d3749d42e746c2","D2","batch4","pattern_response","2932.2000000029802","stim/no_65_1_b.png","j","pattern_38","j","true","","","","2932.2000000029802","true","59","","","","","","","","","","","","","","","","",""
"","","","","","html-keyboard-response","276","801108","0.0-3.0-7.0-0.26","611b1f8d65d3749d42e746c2","D2","batch4","pattern_show_trial_num","null","<p class=block-text>Trial 66 out of 78</p>","null","","","","","","","","","","","","","","","","","","","","","","","","","",""
"","","","","","image-keyboard-response","277","803037","0.0-3.0-7.0-1.26","611b1f8d65d3749d42e746c2","D2","batch4","pattern_response","1925.9000000059605","stim/yes_48_dia_w1_w.png","j","pattern_69","f","false","","","","1925.9000000059605","false","59","","","","","","","","","","","","","","","","",""
"","","","","","html-keyboard-response","278","804349","0.0-3.0-7.0-0.27","611b1f8d65d3749d42e746c2","D2","batch4","pattern_show_trial_num","null","<p class=block-text>Trial 67 out of 78</p>","null","","","","","","","","","","","","","","","","","","","","","","","","","",""
"","","","","","image-keyboard-response","279","805918","0.0-3.0-7.0-1.27","611b1f8d65d3749d42e746c2","D2","batch4","pattern_response","1566.2000000029802","stim/yes_40_dia_b1_b.png","j","pattern_63","f","false","","","","1566.2000000029802","false","59","","","","","","","","","","","","","","","","",""
"","","","","","html-keyboard-response","280","807243","0.0-3.0-7.0-0.28","611b1f8d65d3749d42e746c2","D2","batch4","pattern_show_trial_num","null","<p class=block-text>Trial 68 out of 78</p>","null","","","","","","","","","","","","","","","","","","","","","","","","","",""
"","","","","","image-keyboard-response","281","809670","0.0-3.0-7.0-1.28","611b1f8d65d3749d42e746c2","D2","batch4","pattern_response","2424.5","stim/no_62_1_w.png","j","pattern_36","j","true","","","","2424.5","true","60","","","","","","","","","","","","","","","","",""
"","","","","","html-keyboard-response","282","810992","0.0-3.0-7.0-0.29","611b1f8d65d3749d42e746c2","D2","batch4","pattern_show_trial_num","null","<p class=block-text>Trial 69 out of 78</p>","null","","","","","","","","","","","","","","","","","","","","","","","","","",""
"","","","","","image-keyboard-response","283","811934","0.0-3.0-7.0-1.29","611b1f8d65d3749d42e746c2","D2","batch4","pattern_response","938.2000000029802","stim/yes_35_dia_b1.png","f","pattern_57","f","true","","","","938.2000000029802","true","61","","","","","","","","","","","","","","","","",""
"","","","","","html-keyboard-response","284","813257","0.0-3.0-7.0-0.30","611b1f8d65d3749d42e746c2","D2","batch4","pattern_show_trial_num","null","<p class=block-text>Trial 70 out of 78</p>","null","","","","","","","","","","","","","","","","","","","","","","","","","",""
"","","","","","image-keyboard-response","285","814085","0.0-3.0-7.0-1.30","611b1f8d65d3749d42e746c2","D2","batch4","pattern_response","826.6999999880791","stim/no_13_2_b.png","j","pattern_02","j","true","","","","826.6999999880791","true","62","","","","","","","","","","","","","","","","",""
"","","","","","html-keyboard-response","286","815402","0.0-3.0-7.0-0.31","611b1f8d65d3749d42e746c2","D2","batch4","pattern_show_trial_num","null","<p class=block-text>Trial 71 out of 78</p>","null","","","","","","","","","","","","","","","","","","","","","","","","","",""
"","","","","","image-keyboard-response","287","816789","0.0-3.0-7.0-1.31","611b1f8d65d3749d42e746c2","D2","batch4","pattern_response","1385.6000000089407","stim/no_17_1_w.png","j","pattern_04","j","true","","","","1385.6000000089407","true","63","","","","","","","","","","","","","","","","",""
"","","","","","html-keyboard-response","288","818100","0.0-3.0-7.0-0.32","611b1f8d65d3749d42e746c2","D2","batch4","pattern_show_trial_num","null","<p class=block-text>Trial 72 out of 78</p>","null","","","","","","","","","","","","","","","","","","","","","","","","","",""
"","","","","","image-keyboard-response","289","821047","0.0-3.0-7.0-1.32","611b1f8d65d3749d42e746c2","D2","batch4","pattern_response","2945","stim/yes_50_dia_w1.png","f","pattern_71","f","true","","","","2945","true","64","","","","","","","","","","","","","","","","",""
"","","","","","html-keyboard-response","290","822375","0.0-3.0-7.0-0.33","611b1f8d65d3749d42e746c2","D2","batch4","pattern_show_trial_num","null","<p class=block-text>Trial 73 out of 78</p>","null","","","","","","","","","","","","","","","","","","","","","","","","","",""
"","","","","","image-keyboard-response","291","824189","0.0-3.0-7.0-1.33","611b1f8d65d3749d42e746c2","D2","batch4","pattern_response","1807.5","stim/no_38_1_b.png","j","pattern_20","j","true","","","","1807.5","true","65","","","","","","","","","","","","","","","","",""
"","","","","","html-keyboard-response","292","825506","0.0-3.0-7.0-0.34","611b1f8d65d3749d42e746c2","D2","batch4","pattern_show_trial_num","null","<p class=block-text>Trial 74 out of 78</p>","null","","","","","","","","","","","","","","","","","","","","","","","","","",""
"","","","","","image-keyboard-response","293","827365","0.0-3.0-7.0-1.34","611b1f8d65d3749d42e746c2","D2","batch4","pattern_response","1857.5999999940395","stim/yes_67_hor_b1.png","f","pattern_79","f","true","","","","1857.5999999940395","true","66","","","","","","","","","","","","","","","","",""
"","","","","","html-keyboard-response","294","828681","0.0-3.0-7.0-0.35","611b1f8d65d3749d42e746c2","D2","batch4","pattern_show_trial_num","null","<p class=block-text>Trial 75 out of 78</p>","null","","","","","","","","","","","","","","","","","","","","","","","","","",""
"","","","","","image-keyboard-response","295","830429","0.0-3.0-7.0-1.35","611b1f8d65d3749d42e746c2","D2","batch4","pattern_response","1746.5","stim/no_32_1_w.png","j","pattern_14","j","true","","","","1746.5","true","67","","","","","","","","","","","","","","","","",""
"","","","","","html-keyboard-response","296","831751","0.0-3.0-7.0-0.36","611b1f8d65d3749d42e746c2","D2","batch4","pattern_show_trial_num","null","<p class=block-text>Trial 76 out of 78</p>","null","","","","","","","","","","","","","","","","","","","","","","","","","",""
"","","","","","image-keyboard-response","297","832957","0.0-3.0-7.0-1.36","611b1f8d65d3749d42e746c2","D2","batch4","pattern_response","1204.4000000059605","stim/yes_29_ver_w1.png","f","pattern_53","f","true","","","","1204.4000000059605","true","68","","","","","","","","","","","","","","","","",""
"","","","","","html-keyboard-response","298","834285","0.0-3.0-7.0-0.37","611b1f8d65d3749d42e746c2","D2","batch4","pattern_show_trial_num","null","<p class=block-text>Trial 77 out of 78</p>","null","","","","","","","","","","","","","","","","","","","","","","","","","",""
"","","","","","image-keyboard-response","299","835189","0.0-3.0-7.0-1.37","611b1f8d65d3749d42e746c2","D2","batch4","pattern_response","902.2999999970198","stim/yes_14_hor_b1_w.png","f","pattern_43","f","true","","","","902.2999999970198","true","69","","","","","","","","","","","","","","","","",""
"","","","","","html-keyboard-response","300","836506","0.0-3.0-7.0-0.38","611b1f8d65d3749d42e746c2","D2","batch4","pattern_show_trial_num","null","<p class=block-text>Trial 78 out of 78</p>","null","","","","","","","","","","","","","","","","","","","","","","","","","",""
"","","","","","image-keyboard-response","301","839061","0.0-3.0-7.0-1.38","611b1f8d65d3749d42e746c2","D2","batch4","pattern_response","2553.7999999970198","stim/no_55_1_w.png","j","pattern_34","j","true","","","","2553.7999999970198","true","70","","","","","","","","","","","","","","","","",""
"","","","","","html-button-response","302","842282","0.0-3.0-8.0","611b1f8d65d3749d42e746c2","D2","batch4","","2712.7999999970198","<p class = block-text>This concludes the 4-in-a-row detection game.Thank you for your responses!<br>
            You responded correctly on 90% of the trials.<br>
            When you are ready, press ""Continue"" button to continue </p>","0","","","","","","","","","","","","","","","","","","","","","","","","","",""
"true","","","","","fullscreen","303","844957","0.0-4.0-0.0","611b1f8d65d3749d42e746c2","D2","batch4","","","","","","","","","","","","","","","","","","","","","","","","","","","","","",""
"","","","","","instructions","304","942932","0.0-4.0-1.0-0.0-0.0","611b1f8d65d3749d42e746c2","D2","batch4","tol-instructions","97974.90000000596","","","","","","","","[{""page_index"":0,""viewing_time"":80131.5},{""page_index"":1,""viewing_time"":3211.300000011921},{""page_index"":2,""viewing_time"":4524.5999999940395},{""page_index"":3,""viewing_time"":1864.4000000059605},{""page_index"":4,""viewing_time"":2392.7999999970198},{""page_index"":5,""viewing_time"":4311.20000000298},{""page_index"":6,""viewing_time"":1538.5999999940395}]","","","","","","","","","","","","","","","","","","","",""
"","","","","","html-button-response","305","945009","0.0-4.0-1.0-1.0-0.0","611b1f8d65d3749d42e746c2","D2","batch4","tol_enter_quiz","2075.5","<p class=block-text> Let's answer a few questions <br>","0","","","","","","","","","","","","","","","","","","","","","","","","","",""
"","","","","","html-button-response","306","948972","0.0-4.0-1.0-1.0-1.0","611b1f8d65d3749d42e746c2","D2","batch4","tol_quiz","3960.8999999910593","<p class = block-text>True or False: You can only move the ball on top of a peg. <br></p>","0","","","true","","","","","","","","","","","","","","","","","","","","","","",""
"","","","","","html-button-response","307","949889","0.0-4.0-1.0-1.0-2.0","611b1f8d65d3749d42e746c2","D2","batch4","tol_quiz_feedback","915.7000000029802","<p class = block-text>Correct! You can only move the ball on top of a peg.</p>","0","","","","","","","","","","","","","","","","","","","","","","","","","",""
"","","","","","html-button-response","308","953706","0.0-4.0-1.0-1.0-3.0","611b1f8d65d3749d42e746c2","D2","batch4","tol_quiz","3815.2000000029802","<p class = block-text>True or False: You should try to match your board with the target board with fewest moves possible. <br></p>","0","","","true","","","","","","","","","","","","","","","","","","","","","","",""
"","","","","","html-button-response","309","954353","0.0-4.0-1.0-1.0-4.0","611b1f8d65d3749d42e746c2","D2","batch4","tol_quiz_feedback","646.6000000089407","<p class = block-text>Correct! </p>","0","","","","","","","","","","","","","","","","","","","","","","","","","",""
"","","","","","html-button-response","310","955114","0.0-4.0-2.0","611b1f8d65d3749d42e746c2","D2","batch4","","758.7000000029802","<p class=block-text> Now that you've understood the game, let's practice a few easier examples before we start!<br> <br>","0","","","","","","","","","","","","","","","","","","","","","","","","","",""
"","","","","","single-stim-button","311","960084","0.0-4.0-3.0-0.0","611b1f8d65d3749d42e746c2","D2","batch4","tol_practice","4967","","","","","","","","","","","","","","tol_peg_2","4967","4967","0","[[1,2,0],[0,0],[0]]","1","[[1,2,0],[0,0],[3]]","practice","4967","","","","","",""
"","","","","","single-stim-button","312","961570","0.0-4.0-3.0-1.0","611b1f8d65d3749d42e746c2","D2","batch4","tol_practice","1485","","","","","","","","","","","","","","tol_peg_3","1485","1485","0","[[1,2,0],[0,0],[3]]","1","[[1,2,0],[0,0],[3]]","practice","1485","","","","","",""
"","","","","","poldrack-single-stim","313","962579","0.0-4.0-4.0","611b1f8d65d3749d42e746c2","D2","batch4","tol_feedback","-1","","","","","true","","","","","","","","","","1000","1000","500","","","","","","-1","none","true","","0",""
"","","","","","single-stim-button","314","976818","0.0-4.0-5.0-0.0","611b1f8d65d3749d42e746c2","D2","batch4","tol_practice","14238","","","","","","","","","","","","","","tol_peg_1","14238","14238","0","[[1,0,0],[3,0],[0]]","2","[[0,0,0],[3,1],[2]]","practice","14238","","","","","",""
"","","","","","single-stim-button","315","977594","0.0-4.0-5.0-1.0","611b1f8d65d3749d42e746c2","D2","batch4","tol_practice","774","","","","","","","","","","","","","","tol_peg_3","774","774","0","[[1,0,0],[3,0],[2]]","2","[[0,0,0],[3,1],[2]]","practice","774","","","","","",""
"","","","","","single-stim-button","316","978411","0.0-4.0-5.1-0.1","611b1f8d65d3749d42e746c2","D2","batch4","tol_practice","815","","","","","","","","","","","","","","tol_peg_1","815","815","0","[[0,0,0],[3,0],[2]]","3","[[0,0,0],[3,1],[2]]","practice","815","","","","","",""
"","","","","","single-stim-button","317","978826","0.0-4.0-5.1-1.1","611b1f8d65d3749d42e746c2","D2","batch4","tol_practice","415","","","","","","","","","","","","","","tol_peg_2","415","415","0","[[0,0,0],[3,1],[2]]","3","[[0,0,0],[3,1],[2]]","practice","415","","","","","",""
"","","","","","poldrack-single-stim","318","979834","0.0-4.0-6.0","611b1f8d65d3749d42e746c2","D2","batch4","tol_feedback","-1","","","","","true","","","","","","","","","","1000","1000","500","","","","","","-1","none","true","","0",""
"","","","","","single-stim-button","319","982618","0.0-4.0-7.0-0.0","611b1f8d65d3749d42e746c2","D2","batch4","tol_practice","2782","","","","","","","","","","","","","","tol_peg_2","2782","2782","0","[[1,2,0],[0,0],[0]]","4","[[1,0,0],[2,0],[3]]","practice","2782","","","","","",""
"","","","","","single-stim-button","320","983161","0.0-4.0-7.0-1.0","611b1f8d65d3749d42e746c2","D2","batch4","tol_practice","543","","","","","","","","","","","","","","tol_peg_3","543","543","0","[[1,2,0],[0,0],[3]]","4","[[1,0,0],[2,0],[3]]","practice","543","","","","","",""
"","","","","","single-stim-button","321","983753","0.0-4.0-7.1-0.1","611b1f8d65d3749d42e746c2","D2","batch4","tol_practice","591","","","","","","","","","","","","","","tol_peg_1","591","591","0","[[1,0,0],[0,0],[3]]","5","[[1,0,0],[2,0],[3]]","practice","591","","","","","",""
"","","","","","single-stim-button","322","984162","0.0-4.0-7.1-1.1","611b1f8d65d3749d42e746c2","D2","batch4","tol_practice","407","","","","","","","","","","","","","","tol_peg_2","407","407","0","[[1,0,0],[2,0],[3]]","5","[[1,0,0],[2,0],[3]]","practice","407","","","","","",""
"","","","","","poldrack-single-stim","323","985166","0.0-4.0-8.0","611b1f8d65d3749d42e746c2","D2","batch4","tol_feedback","-1","","","","","true","","","","","","","","","","1000","1000","500","","","","","","-1","none","true","","0",""
"","","","","","html-button-response","324","986426","0.0-4.0-9.0","611b1f8d65d3749d42e746c2","D2","batch4","tol_instruction","1258","<div class = centerbox><p class = center-block-text>Great job! You are done with practice trials<br>You are about to start official trials.<br> <br> Problem <strong>1</strong> out of 25 problems</p></div>","0","","","","","","","","","","","","","","","","","","","","","","","","","",""
"","","","","","single-stim-button","325","990842","0.0-4.0-10.0-0.0","611b1f8d65d3749d42e746c2","D2","batch4","tol_tohand","3413","","","","","","","","","","","","","","tol_peg_1","3413","3413","0","[[1,0,0],[3,0],[0]]","1","[[1,3,0],[2,0],[0]]","0","0","","","","","","3"
"","","","","","single-stim-button","326","991586","0.0-4.0-10.0-1.0","611b1f8d65d3749d42e746c2","D2","batch4","tol_toboard","743","","","","","","","","","","","","","","tol_peg_3","743","743","0","[[1,0,0],[3,0],[2]]","1","[[1,3,0],[2,0],[0]]","0","0","","","","","","3"
"","","","","","single-stim-button","327","992105","0.0-4.0-10.1-0.1","611b1f8d65d3749d42e746c2","D2","batch4","tol_tohand","519","","","","","","","","","","","","","","tol_peg_2","519","519","0","[[1,0,0],[0,0],[2]]","2","[[1,3,0],[2,0],[0]]","0","0","","","","","","3"
"","","","","","single-stim-button","328","992673","0.0-4.0-10.1-1.1","611b1f8d65d3749d42e746c2","D2","batch4","tol_toboard","567","","","","","","","","","","","","","","tol_peg_1","567","567","0","[[1,3,0],[0,0],[2]]","2","[[1,3,0],[2,0],[0]]","0","0","","","","","","3"
"","","","","","single-stim-button","329","993578","0.0-4.0-10.2-0.2","611b1f8d65d3749d42e746c2","D2","batch4","tol_tohand","903","","","","","","","","","","","","","","tol_peg_3","903","903","0","[[1,3,0],[0,0],[0]]","3","[[1,3,0],[2,0],[0]]","0","0","","","","","","3"
"","","","","","single-stim-button","330","994226","0.0-4.0-10.2-1.2","611b1f8d65d3749d42e746c2","D2","batch4","tol_toboard","647","","","","","","","","","","","","","","tol_peg_2","647","647","0","[[1,3,0],[2,0],[0]]","3","[[1,3,0],[2,0],[0]]","0","0","","","","","","3"
"","","","","","poldrack-single-stim","331","995227","0.0-4.0-11.0","611b1f8d65d3749d42e746c2","D2","batch4","tol_feedback","-1","","","","","true","","","","","","","","","","1000","1000","500","","","","","","-1","none","true","3413","4835",""
"","","","","","html-button-response","332","996101","0.0-4.0-12.0","611b1f8d65d3749d42e746c2","D2","batch4","tol_trial_num","871.5","<div class = centerbox><p class = center-block-text>problem <strong>2</strong> out of 25 problems</p></div>","0","","","","","","","","","","","","","","","","","","","","","","","","","",""
"","","","","","single-stim-button","333","1002868","0.0-4.0-13.0-0.0","611b1f8d65d3749d42e746c2","D2","batch4","tol_tohand","6765","","","","","","","","","","","","","","tol_peg_1","6765","6765","0","[[1,0,0],[3,0],[0]]","1","[[2,1,3],[0,0],[0]]","1","0","","","","","","5"
"","","","","","single-stim-button","334","1003385","0.0-4.0-13.0-1.0","611b1f8d65d3749d42e746c2","D2","batch4","tol_toboard","516","","","","","","","","","","","","","","tol_peg_3","516","516","0","[[1,0,0],[3,0],[2]]","1","[[2,1,3],[0,0],[0]]","1","0","","","","","","5"
"","","","","","single-stim-button","335","1003953","0.0-4.0-13.1-0.1","611b1f8d65d3749d42e746c2","D2","batch4","tol_tohand","567","","","","","","","","","","","","","","tol_peg_1","567","567","0","[[0,0,0],[3,0],[2]]","2","[[2,1,3],[0,0],[0]]","1","0","","","","","","5"
"","","","","","single-stim-button","336","1004321","0.0-4.0-13.1-1.1","611b1f8d65d3749d42e746c2","D2","batch4","tol_toboard","367","","","","","","","","","","","","","","tol_peg_2","367","367","0","[[0,0,0],[3,1],[2]]","2","[[2,1,3],[0,0],[0]]","1","0","","","","","","5"
"","","","","","single-stim-button","337","1004842","0.0-4.0-13.2-0.2","611b1f8d65d3749d42e746c2","D2","batch4","tol_tohand","519","","","","","","","","","","","","","","tol_peg_3","519","519","0","[[0,0,0],[3,1],[0]]","3","[[2,1,3],[0,0],[0]]","1","0","","","","","","5"
"","","","","","single-stim-button","338","1005435","0.0-4.0-13.2-1.2","611b1f8d65d3749d42e746c2","D2","batch4","tol_toboard","591","","","","","","","","","","","","","","tol_peg_1","591","591","0","[[2,0,0],[3,1],[0]]","3","[[2,1,3],[0,0],[0]]","1","0","","","","","","5"
"","","","","","single-stim-button","339","1005921","0.0-4.0-13.3-0.3","611b1f8d65d3749d42e746c2","D2","batch4","tol_tohand","486","","","","","","","","","","","","","","tol_peg_2","486","486","0","[[2,0,0],[3,0],[0]]","4","[[2,1,3],[0,0],[0]]","1","0","","","","","","5"
"","","","","","single-stim-button","340","1006737","0.0-4.0-13.3-1.3","611b1f8d65d3749d42e746c2","D2","batch4","tol_toboard","815","","","","","","","","","","","","","","tol_peg_1","815","815","0","[[2,1,0],[3,0],[0]]","4","[[2,1,3],[0,0],[0]]","1","0","","","","","","5"
"","","","","","single-stim-button","341","1007227","0.0-4.0-13.4-0.4","611b1f8d65d3749d42e746c2","D2","batch4","tol_tohand","488","","","","","","","","","","","","","","tol_peg_2","488","488","0","[[2,1,0],[0,0],[0]]","5","[[2,1,3],[0,0],[0]]","1","0","","","","","","5"
"","","","","","single-stim-button","342","1007786","0.0-4.0-13.4-1.4","611b1f8d65d3749d42e746c2","D2","batch4","tol_toboard","557","","","","","","","","","","","","","","tol_peg_1","557","557","0","[[2,1,3],[0,0],[0]]","5","[[2,1,3],[0,0],[0]]","1","0","","","","","","5"
"","","","","","poldrack-single-stim","343","1008794","0.0-4.0-14.0","611b1f8d65d3749d42e746c2","D2","batch4","tol_feedback","-1","","","","","true","","","","","","","","","","1000","1000","500","","","","","","-1","none","true","6765","8825",""
"","","","","","html-button-response","344","1009842","0.0-4.0-15.0","611b1f8d65d3749d42e746c2","D2","batch4","tol_trial_num","1046.2000000029802","<div class = centerbox><p class = center-block-text>problem <strong>3</strong> out of 25 problems</p></div>","0","","","","","","","","","","","","","","","","","","","","","","","","","",""
"","","","","","single-stim-button","345","1022689","0.0-4.0-16.0-0.0","611b1f8d65d3749d42e746c2","D2","batch4","tol_tohand","12847","","","","","","","","","","","","","","tol_peg_1","12847","12847","0","[[2,0,0],[0,0],[1]]","1","[[1,2,0],[3,0],[0]]","2","0","","","","","","4"
"","","","","","single-stim-button","346","1023073","0.0-4.0-16.0-1.0","611b1f8d65d3749d42e746c2","D2","batch4","tol_toboard","383","","","","","","","","","","","","","","tol_peg_2","383","383","0","[[2,0,0],[3,0],[1]]","1","[[1,2,0],[3,0],[0]]","2","0","","","","","","4"
"","","","","","single-stim-button","347","1023569","0.0-4.0-16.1-0.1","611b1f8d65d3749d42e746c2","D2","batch4","tol_tohand","495","","","","","","","","","","","","","","tol_peg_1","495","495","0","[[0,0,0],[3,0],[1]]","2","[[1,2,0],[3,0],[0]]","2","0","","","","","","4"
"","","","","","single-stim-button","348","1024234","0.0-4.0-16.1-1.1","611b1f8d65d3749d42e746c2","D2","batch4","tol_toboard","663","","","","","","","","","","","","","","tol_peg_2","663","663","0","[[0,0,0],[3,2],[1]]","2","[[1,2,0],[3,0],[0]]","2","0","","","","","","4"
