"success","timeout","failed_images","failed_audio","failed_video","trial_type","trial_index","time_elapsed","internal_node_id","subject_id","study_id","session_id","task","rt","stimulus","response","item","answer","correct","spm_correct","spm_rt","view_history","fiar_detect_rt","fiar_detect_correct","total_correct_fiar_detect","post_trial_gap","choices","mouse_click","stim_duration","block_duration","timing_post_trial","current_position","tol_num_moves_made","tol_target","tol_problem_id","tol_rt","key_press","possible_responses","tol_correct","preplanning","tol_rt_per_trial","tol_min_moves"
"true","false","[]","[]","[]","preload","0","51994","0.0-0.0","611c2ed2d1d6a90e05ceeb30","D2","batch4","","","","","","","","","","","","","","","","","","","","","","","","","","","","","",""
"true","","","","","fullscreen","1","62600","0.0-1.0-0.0","611c2ed2d1d6a90e05ceeb30","D2","batch4","","","","","","","","","","","","","","","","","","","","","","","","","","","","","",""
"true","","","","","fullscreen","2","64874","0.0-2.0-0.0","611c2ed2d1d6a90e05ceeb30","D2","batch4","spm_fullscreen","","","","","","","","","","","","","","","","","","","","","","","","","","","","",""
"","","","","","html-button-response","3","70805","0.0-2.0-1.0","611c2ed2d1d6a90e05ceeb30","D2","batch4","","5927.399999976158","<p class = block-text><b>Instructions</b> <br>This is a widely used intelligence test in research. <br>In this test, a figure with a missing piece will be presented.<br>Below the figure are alternative pieces to complete the figure, only one of which is correct.<br> Different figures might involve different principles for obtaining the missing piece<br>Your job is to select the most logical piece to complete the figure.</p>","0","","","","","","","","","","","","","","","","","","","","","","","","","",""
"","","","","","html-keyboard-response","4","71628","0.0-2.0-2.0-0.0","611c2ed2d1d6a90e05ceeb30","D2","batch4","spm_show_trial_num","null","<p class=block-text>Trial 1 out of 60</p>","null","","","","","","","","","","","","","","","","","","","","","","","","","",""
"","","","","","image-button-response","5","78315","0.0-2.0-2.0-1.0","611c2ed2d1d6a90e05ceeb30","D2","batch4","spm_respsonse","6670","img/question_1_1.jpeg","2","mat_01","4","0","0","6670","","","","","","","","","","","","","","","","","","","","",""
"","","","","","html-keyboard-response","6","79385","0.0-2.0-2.0-0.1","611c2ed2d1d6a90e05ceeb30","D2","batch4","spm_show_trial_num","null","<p class=block-text>Trial 2 out of 60</p>","null","","","","","","","","","","","","","","","","","","","","","","","","","",""
"","","","","","image-button-response","7","84872","0.0-2.0-2.0-1.1","611c2ed2d1d6a90e05ceeb30","D2","batch4","spm_respsonse","5484.299999952316","img/question_1_2.jpeg","4","mat_02","5","1","1","5484.299999952316","","","","","","","","","","","","","","","","","","","","",""
"","","","","","html-keyboard-response","8","85963","0.0-2.0-2.0-0.2","611c2ed2d1d6a90e05ceeb30","D2","batch4","spm_show_trial_num","null","<p class=block-text>Trial 3 out of 60</p>","null","","","","","","","","","","","","","","","","","","","","","","","","","",""
"","","","","","image-button-response","9","88904","0.0-2.0-2.0-1.2","611c2ed2d1d6a90e05ceeb30","D2","batch4","spm_respsonse","2937.899999976158","img/question_1_3.jpeg","0","mat_03","1","1","1","2937.899999976158","","","","","","","","","","","","","","","","","","","","",""
"","","","","","html-keyboard-response","10","89975","0.0-2.0-2.0-0.3","611c2ed2d1d6a90e05ceeb30","D2","batch4","spm_show_trial_num","null","<p class=block-text>Trial 4 out of 60</p>","null","","","","","","","","","","","","","","","","","","","","","","","","","",""
"","","","","","image-button-response","11","91999","0.0-2.0-2.0-1.3","611c2ed2d1d6a90e05ceeb30","D2","batch4","spm_respsonse","2020.8999999761581","img/question_1_4.jpeg","1","mat_04","2","1","1","2020.8999999761581","","","","","","","","","","","","","","","","","","","","",""
"","","","","","html-keyboard-response","12","93065","0.0-2.0-2.0-0.4","611c2ed2d1d6a90e05ceeb30","D2","batch4","spm_show_trial_num","null","<p class=block-text>Trial 5 out of 60</p>","null","","","","","","","","","","","","","","","","","","","","","","","","","",""
"","","","","","image-button-response","13","97912","0.0-2.0-2.0-1.4","611c2ed2d1d6a90e05ceeb30","D2","batch4","spm_respsonse","4845.5","img/question_1_5.jpeg","5","mat_05","6","1","1","4845.5","","","","","","","","","","","","","","","","","","","","",""
"","","","","","html-keyboard-response","14","98993","0.0-2.0-2.0-0.5","611c2ed2d1d6a90e05ceeb30","D2","batch4","spm_show_trial_num","null","<p class=block-text>Trial 6 out of 60</p>","null","","","","","","","","","","","","","","","","","","","","","","","","","",""
"","","","","","image-button-response","15","102875","0.0-2.0-2.0-1.5","611c2ed2d1d6a90e05ceeb30","D2","batch4","spm_respsonse","3876.899999976158","img/question_1_6.jpeg","2","mat_06","3","1","1","3876.899999976158","","","","","","","","","","","","","","","","","","","","",""
"","","","","","html-keyboard-response","16","103946","0.0-2.0-2.0-0.6","611c2ed2d1d6a90e05ceeb30","D2","batch4","spm_show_trial_num","null","<p class=block-text>Trial 7 out of 60</p>","null","","","","","","","","","","","","","","","","","","","","","","","","","",""
"","","","","","image-button-response","17","108107","0.0-2.0-2.0-1.6","611c2ed2d1d6a90e05ceeb30","D2","batch4","spm_respsonse","4157.700000047684","img/question_1_7.jpeg","5","mat_07","6","1","1","4157.700000047684","","","","","","","","","","","","","","","","","","","","",""
"","","","","","html-keyboard-response","18","109182","0.0-2.0-2.0-0.7","611c2ed2d1d6a90e05ceeb30","D2","batch4","spm_show_trial_num","null","<p class=block-text>Trial 8 out of 60</p>","null","","","","","","","","","","","","","","","","","","","","","","","","","",""
"","","","","","image-button-response","19","114586","0.0-2.0-2.0-1.7","611c2ed2d1d6a90e05ceeb30","D2","batch4","spm_respsonse","5400.699999928474","img/question_1_8.jpeg","1","mat_08","2","1","1","5400.699999928474","","","","","","","","","","","","","","","","","","","","",""
"","","","","","html-keyboard-response","20","115655","0.0-2.0-2.0-0.8","611c2ed2d1d6a90e05ceeb30","D2","batch4","spm_show_trial_num","null","<p class=block-text>Trial 9 out of 60</p>","null","","","","","","","","","","","","","","","","","","","","","","","","","",""
"","","","","","image-button-response","21","120434","0.0-2.0-2.0-1.8","611c2ed2d1d6a90e05ceeb30","D2","batch4","spm_respsonse","4774.699999928474","img/question_1_9.jpeg","0","mat_09","1","1","1","4774.699999928474","","","","","","","","","","","","","","","","","","","","",""
"","","","","","html-keyboard-response","22","121504","0.0-2.0-2.0-0.9","611c2ed2d1d6a90e05ceeb30","D2","batch4","spm_show_trial_num","null","<p class=block-text>Trial 10 out of 60</p>","null","","","","","","","","","","","","","","","","","","","","","","","","","",""
"","","","","","image-button-response","23","130844","0.0-2.0-2.0-1.9","611c2ed2d1d6a90e05ceeb30","D2","batch4","spm_respsonse","9336.700000047684","img/question_1_10.jpeg","2","mat_10","3","1","1","9336.700000047684","","","","","","","","","","","","","","","","","","","","",""
"","","","","","html-keyboard-response","24","131915","0.0-2.0-2.0-0.10","611c2ed2d1d6a90e05ceeb30","D2","batch4","spm_show_trial_num","null","<p class=block-text>Trial 11 out of 60</p>","null","","","","","","","","","","","","","","","","","","","","","","","","","",""
"","","","","","image-button-response","25","138649","0.0-2.0-2.0-1.10","611c2ed2d1d6a90e05ceeb30","D2","batch4","spm_respsonse","6731","img/question_1_11.jpeg","3","mat_11","4","1","1","6731","","","","","","","","","","","","","","","","","","","","",""
"","","","","","html-keyboard-response","26","139711","0.0-2.0-2.0-0.11","611c2ed2d1d6a90e05ceeb30","D2","batch4","spm_show_trial_num","null","<p class=block-text>Trial 12 out of 60</p>","null","","","","","","","","","","","","","","","","","","","","","","","","","",""
"","","","","","image-button-response","27","144331","0.0-2.0-2.0-1.11","611c2ed2d1d6a90e05ceeb30","D2","batch4","spm_respsonse","4617.399999976158","img/question_1_12.jpeg","0","mat_12","5","0","0","4617.399999976158","","","","","","","","","","","","","","","","","","","","",""
"","","","","","html-keyboard-response","28","145397","0.0-2.0-2.0-0.12","611c2ed2d1d6a90e05ceeb30","D2","batch4","spm_show_trial_num","null","<p class=block-text>Trial 13 out of 60</p>","null","","","","","","","","","","","","","","","","","","","","","","","","","",""
"","","","","","image-button-response","29","147627","0.0-2.0-2.0-1.12","611c2ed2d1d6a90e05ceeb30","D2","batch4","spm_respsonse","2226","img/question_2_1.jpeg","1","mat_13","2","1","1","2226","","","","","","","","","","","","","","","","","","","","",""
"","","","","","html-keyboard-response","30","148707","0.0-2.0-2.0-0.13","611c2ed2d1d6a90e05ceeb30","D2","batch4","spm_show_trial_num","null","<p class=block-text>Trial 14 out of 60</p>","null","","","","","","","","","","","","","","","","","","","","","","","","","",""
"","","","","","image-button-response","31","151797","0.0-2.0-2.0-1.13","611c2ed2d1d6a90e05ceeb30","D2","batch4","spm_respsonse","3087.100000023842","img/question_2_2.jpeg","5","mat_14","6","1","1","3087.100000023842","","","","","","","","","","","","","","","","","","","","",""
"","","","","","html-keyboard-response","32","152870","0.0-2.0-2.0-0.14","611c2ed2d1d6a90e05ceeb30","D2","batch4","spm_show_trial_num","null","<p class=block-text>Trial 15 out of 60</p>","null","","","","","","","","","","","","","","","","","","","","","","","","","",""
"","","","","","image-button-response","33","156122","0.0-2.0-2.0-1.14","611c2ed2d1d6a90e05ceeb30","D2","batch4","spm_respsonse","3249","img/question_2_3.jpeg","0","mat_15","1","1","1","3249","","","","","","","","","","","","","","","","","","","","",""
"","","","","","html-keyboard-response","34","157193","0.0-2.0-2.0-0.15","611c2ed2d1d6a90e05ceeb30","D2","batch4","spm_show_trial_num","null","<p class=block-text>Trial 16 out of 60</p>","null","","","","","","","","","","","","","","","","","","","","","","","","","",""
"","","","","","image-button-response","35","160037","0.0-2.0-2.0-1.15","611c2ed2d1d6a90e05ceeb30","D2","batch4","spm_respsonse","2840.7999999523163","img/question_2_4.jpeg","1","mat_16","2","1","1","2840.7999999523163","","","","","","","","","","","","","","","","","","","","",""
"","","","","","html-keyboard-response","36","161106","0.0-2.0-2.0-0.16","611c2ed2d1d6a90e05ceeb30","D2","batch4","spm_show_trial_num","null","<p class=block-text>Trial 17 out of 60</p>","null","","","","","","","","","","","","","","","","","","","","","","","","","",""
"","","","","","image-button-response","37","164114","0.0-2.0-2.0-1.16","611c2ed2d1d6a90e05ceeb30","D2","batch4","spm_respsonse","3004.3000000715256","img/question_2_5.jpeg","0","mat_17","1","1","1","3004.3000000715256","","","","","","","","","","","","","","","","","","","","",""
"","","","","","html-keyboard-response","38","165182","0.0-2.0-2.0-0.17","611c2ed2d1d6a90e05ceeb30","D2","batch4","spm_show_trial_num","null","<p class=block-text>Trial 18 out of 60</p>","null","","","","","","","","","","","","","","","","","","","","","","","","","",""
"","","","","","image-button-response","39","169779","0.0-2.0-2.0-1.17","611c2ed2d1d6a90e05ceeb30","D2","batch4","spm_respsonse","4594","img/question_2_6.jpeg","2","mat_18","3","1","1","4594","","","","","","","","","","","","","","","","","","","","",""
"","","","","","html-keyboard-response","40","170845","0.0-2.0-2.0-0.18","611c2ed2d1d6a90e05ceeb30","D2","batch4","spm_show_trial_num","null","<p class=block-text>Trial 19 out of 60</p>","null","","","","","","","","","","","","","","","","","","","","","","","","","",""
"","","","","","image-button-response","41","183438","0.0-2.0-2.0-1.18","611c2ed2d1d6a90e05ceeb30","D2","batch4","spm_respsonse","12590.299999952316","img/question_2_7.jpeg","0","mat_19","5","0","0","12590.299999952316","","","","","","","","","","","","","","","","","","","","",""
"","","","","","html-keyboard-response","42","184506","0.0-2.0-2.0-0.19","611c2ed2d1d6a90e05ceeb30","D2","batch4","spm_show_trial_num","null","<p class=block-text>Trial 20 out of 60</p>","null","","","","","","","","","","","","","","","","","","","","","","","","","",""
"","","","","","image-button-response","43","189003","0.0-2.0-2.0-1.19","611c2ed2d1d6a90e05ceeb30","D2","batch4","spm_respsonse","4492.899999976158","img/question_2_8.jpeg","2","mat_20","6","0","0","4492.899999976158","","","","","","","","","","","","","","","","","","","","",""
"","","","","","html-keyboard-response","44","190069","0.0-2.0-2.0-0.20","611c2ed2d1d6a90e05ceeb30","D2","batch4","spm_show_trial_num","null","<p class=block-text>Trial 21 out of 60</p>","null","","","","","","","","","","","","","","","","","","","","","","","","","",""
"","","","","","image-button-response","45","194756","0.0-2.0-2.0-1.20","611c2ed2d1d6a90e05ceeb30","D2","batch4","spm_respsonse","4672.400000095367","img/question_2_9.jpeg","3","mat_21","4","1","1","4672.400000095367","","","","","","","","","","","","","","","","","","","","",""
"","","","","","html-keyboard-response","46","195820","0.0-2.0-2.0-0.21","611c2ed2d1d6a90e05ceeb30","D2","batch4","spm_show_trial_num","null","<p class=block-text>Trial 22 out of 60</p>","null","","","","","","","","","","","","","","","","","","","","","","","","","",""
"","","","","","image-button-response","47","200569","0.0-2.0-2.0-1.21","611c2ed2d1d6a90e05ceeb30","D2","batch4","spm_respsonse","4745.800000071526","img/question_2_10.jpeg","2","mat_22","3","1","1","4745.800000071526","","","","","","","","","","","","","","","","","","","","",""
"","","","","","html-keyboard-response","48","201638","0.0-2.0-2.0-0.22","611c2ed2d1d6a90e05ceeb30","D2","batch4","spm_show_trial_num","null","<p class=block-text>Trial 23 out of 60</p>","null","","","","","","","","","","","","","","","","","","","","","","","","","",""
"","","","","","image-button-response","49","208980","0.0-2.0-2.0-1.22","611c2ed2d1d6a90e05ceeb30","D2","batch4","spm_respsonse","7339","img/question_2_11.jpeg","3","mat_23","4","1","1","7339","","","","","","","","","","","","","","","","","","","","",""
"","","","","","html-keyboard-response","50","210056","0.0-2.0-2.0-0.23","611c2ed2d1d6a90e05ceeb30","D2","batch4","spm_show_trial_num","null","<p class=block-text>Trial 24 out of 60</p>","null","","","","","","","","","","","","","","","","","","","","","","","","","",""
"","","","","","image-button-response","51","237625","0.0-2.0-2.0-1.23","611c2ed2d1d6a90e05ceeb30","D2","batch4","spm_respsonse","27565.5","img/question_2_12.jpeg","5","mat_24","5","0","0","27565.5","","","","","","","","","","","","","","","","","","","","",""
"","","","","","html-button-response","52","240693","0.0-2.0-3.0","611c2ed2d1d6a90e05ceeb30","D2","batch4","attention_check","2801.2000000476837","<p class = block-text>Attention check: Please choose 1<br></p>","0","","","true","","","","","","","","","","","","","","","","","","","","","","",""
"","","","","","html-keyboard-response","53","241510","0.0-2.0-4.0-0.0","611c2ed2d1d6a90e05ceeb30","D2","batch4","spm_show_trial_num","null","<p class=block-text>Trial 25 out of 60</p>","null","","","","","","","","","","","","","","","","","","","","","","","","","",""
"","","","","","image-button-response","54","246513","0.0-2.0-4.0-1.0","611c2ed2d1d6a90e05ceeb30","D2","batch4","spm_respsonse","5000.100000023842","img/question_3_1.jpeg","7","mat_25","8","1","1","5000.100000023842","","","","","","","","","","","","","","","","","","","","",""
"","","","","","html-keyboard-response","55","247575","0.0-2.0-4.0-0.1","611c2ed2d1d6a90e05ceeb30","D2","batch4","spm_show_trial_num","null","<p class=block-text>Trial 26 out of 60</p>","null","","","","","","","","","","","","","","","","","","","","","","","","","",""
"","","","","","image-button-response","56","251497","0.0-2.0-4.0-1.1","611c2ed2d1d6a90e05ceeb30","D2","batch4","spm_respsonse","3918.2000000476837","img/question_3_2.jpeg","1","mat_26","2","1","1","3918.2000000476837","","","","","","","","","","","","","","","","","","","","",""
"","","","","","html-keyboard-response","57","252563","0.0-2.0-4.0-0.2","611c2ed2d1d6a90e05ceeb30","D2","batch4","spm_show_trial_num","null","<p class=block-text>Trial 27 out of 60</p>","null","","","","","","","","","","","","","","","","","","","","","","","","","",""
"","","","","","image-button-response","58","264078","0.0-2.0-4.0-1.2","611c2ed2d1d6a90e05ceeb30","D2","batch4","spm_respsonse","11512.100000023842","img/question_3_3.jpeg","2","mat_27","3","1","1","11512.100000023842","","","","","","","","","","","","","","","","","","","","",""
"","","","","","html-keyboard-response","59","265138","0.0-2.0-4.0-0.3","611c2ed2d1d6a90e05ceeb30","D2","batch4","spm_show_trial_num","null","<p class=block-text>Trial 28 out of 60</p>","null","","","","","","","","","","","","","","","","","","","","","","","","","",""
"","","","","","image-button-response","60","278925","0.0-2.0-4.0-1.3","611c2ed2d1d6a90e05ceeb30","D2","batch4","spm_respsonse","13784","img/question_3_4.jpeg","7","mat_28","8","1","1","13784","","","","","","","","","","","","","","","","","","","","",""
"","","","","","html-keyboard-response","61","279990","0.0-2.0-4.0-0.4","611c2ed2d1d6a90e05ceeb30","D2","batch4","spm_show_trial_num","null","<p class=block-text>Trial 29 out of 60</p>","null","","","","","","","","","","","","","","","","","","","","","","","","","",""
"","","","","","image-button-response","62","291309","0.0-2.0-4.0-1.4","611c2ed2d1d6a90e05ceeb30","D2","batch4","spm_respsonse","11315.799999952316","img/question_3_5.jpeg","6","mat_29","7","1","1","11315.799999952316","","","","","","","","","","","","","","","","","","","","",""
"","","","","","html-keyboard-response","63","292373","0.0-2.0-4.0-0.5","611c2ed2d1d6a90e05ceeb30","D2","batch4","spm_show_trial_num","null","<p class=block-text>Trial 30 out of 60</p>","null","","","","","","","","","","","","","","","","","","","","","","","","","",""
"","","","","","image-button-response","64","298635","0.0-2.0-4.0-1.5","611c2ed2d1d6a90e05ceeb30","D2","batch4","spm_respsonse","6258.5","img/question_3_6.jpeg","3","mat_30","4","1","1","6258.5","","","","","","","","","","","","","","","","","","","","",""
"","","","","","html-keyboard-response","65","299694","0.0-2.0-4.0-0.6","611c2ed2d1d6a90e05ceeb30","D2","batch4","spm_show_trial_num","null","<p class=block-text>Trial 31 out of 60</p>","null","","","","","","","","","","","","","","","","","","","","","","","","","",""
"","","","","","image-button-response","66","309449","0.0-2.0-4.0-1.6","611c2ed2d1d6a90e05ceeb30","D2","batch4","spm_respsonse","9752.100000023842","img/question_3_7.jpeg","4","mat_31","5","1","1","9752.100000023842","","","","","","","","","","","","","","","","","","","","",""
"","","","","","html-keyboard-response","67","310518","0.0-2.0-4.0-0.7","611c2ed2d1d6a90e05ceeb30","D2","batch4","spm_show_trial_num","null","<p class=block-text>Trial 32 out of 60</p>","null","","","","","","","","","","","","","","","","","","","","","","","","","",""
"","","","","","image-button-response","68","382811","0.0-2.0-4.0-1.7","611c2ed2d1d6a90e05ceeb30","D2","batch4","spm_respsonse","72289.5","img/question_3_8.jpeg","3","mat_32","1","0","0","72289.5","","","","","","","","","","","","","","","","","","","","",""
"","","","","","html-keyboard-response","69","383871","0.0-2.0-4.0-0.8","611c2ed2d1d6a90e05ceeb30","D2","batch4","spm_show_trial_num","null","<p class=block-text>Trial 33 out of 60</p>","null","","","","","","","","","","","","","","","","","","","","","","","","","",""
"","","","","","image-button-response","70","390865","0.0-2.0-4.0-1.8","611c2ed2d1d6a90e05ceeb30","D2","batch4","spm_respsonse","6990.799999952316","img/question_3_9.jpeg","6","mat_33","7","1","1","6990.799999952316","","","","","","","","","","","","","","","","","","","","",""
"","","","","","html-keyboard-response","71","391948","0.0-2.0-4.0-0.9","611c2ed2d1d6a90e05ceeb30","D2","batch4","spm_show_trial_num","null","<p class=block-text>Trial 34 out of 60</p>","null","","","","","","","","","","","","","","","","","","","","","","","","","",""
"","","","","","image-button-response","72","414113","0.0-2.0-4.0-1.9","611c2ed2d1d6a90e05ceeb30","D2","batch4","spm_respsonse","22162.200000047684","img/question_3_10.jpeg","3","mat_34","6","0","0","22162.200000047684","","","","","","","","","","","","","","","","","","","","",""
"","","","","","html-keyboard-response","73","415192","0.0-2.0-4.0-0.10","611c2ed2d1d6a90e05ceeb30","D2","batch4","spm_show_trial_num","null","<p class=block-text>Trial 35 out of 60</p>","null","","","","","","","","","","","","","","","","","","","","","","","","","",""
"","","","","","image-button-response","74","427761","0.0-2.0-4.0-1.10","611c2ed2d1d6a90e05ceeb30","D2","batch4","spm_respsonse","12563.899999976158","img/question_3_11.jpeg","6","mat_35","1","0","0","12563.899999976158","","","","","","","","","","","","","","","","","","","","",""
"","","","","","html-keyboard-response","75","428829","0.0-2.0-4.0-0.11","611c2ed2d1d6a90e05ceeb30","D2","batch4","spm_show_trial_num","null","<p class=block-text>Trial 36 out of 60</p>","null","","","","","","","","","","","","","","","","","","","","","","","","","",""
"","","","","","image-button-response","76","437705","0.0-2.0-4.0-1.11","611c2ed2d1d6a90e05ceeb30","D2","batch4","spm_respsonse","8872.299999952316","img/question_3_12.jpeg","5","mat_36","2","0","0","8872.299999952316","","","","","","","","","","","","","","","","","","","","",""
"","","","","","html-keyboard-response","77","438768","0.0-2.0-4.0-0.12","611c2ed2d1d6a90e05ceeb30","D2","batch4","spm_show_trial_num","null","<p class=block-text>Trial 37 out of 60</p>","null","","","","","","","","","","","","","","","","","","","","","","","","","",""
"","","","","","image-button-response","78","443619","0.0-2.0-4.0-1.12","611c2ed2d1d6a90e05ceeb30","D2","batch4","spm_respsonse","4847.399999976158","img/question_4_1.jpeg","2","mat_37","3","1","1","4847.399999976158","","","","","","","","","","","","","","","","","","","","",""
"","","","","","html-keyboard-response","79","444697","0.0-2.0-4.0-0.13","611c2ed2d1d6a90e05ceeb30","D2","batch4","spm_show_trial_num","null","<p class=block-text>Trial 38 out of 60</p>","null","","","","","","","","","","","","","","","","","","","","","","","","","",""
"","","","","","image-button-response","80","464245","0.0-2.0-4.0-1.13","611c2ed2d1d6a90e05ceeb30","D2","batch4","spm_respsonse","19544.899999976158","img/question_4_2.jpeg","3","mat_38","4","1","1","19544.899999976158","","","","","","","","","","","","","","","","","","","","",""
"","","","","","html-keyboard-response","81","465326","0.0-2.0-4.0-0.14","611c2ed2d1d6a90e05ceeb30","D2","batch4","spm_show_trial_num","null","<p class=block-text>Trial 39 out of 60</p>","null","","","","","","","","","","","","","","","","","","","","","","","","","",""
"","","","","","image-button-response","82","471780","0.0-2.0-4.0-1.14","611c2ed2d1d6a90e05ceeb30","D2","batch4","spm_respsonse","6450","img/question_4_3.jpeg","2","mat_39","3","1","1","6450","","","","","","","","","","","","","","","","","","","","",""
"","","","","","html-keyboard-response","83","472851","0.0-2.0-4.0-0.15","611c2ed2d1d6a90e05ceeb30","D2","batch4","spm_show_trial_num","null","<p class=block-text>Trial 40 out of 60</p>","null","","","","","","","","","","","","","","","","","","","","","","","","","",""
"","","","","","image-button-response","84","479205","0.0-2.0-4.0-1.15","611c2ed2d1d6a90e05ceeb30","D2","batch4","spm_respsonse","6350.700000047684","img/question_4_4.jpeg","6","mat_40","7","1","1","6350.700000047684","","","","","","","","","","","","","","","","","","","","",""
"","","","","","html-keyboard-response","85","480261","0.0-2.0-4.0-0.16","611c2ed2d1d6a90e05ceeb30","D2","batch4","spm_show_trial_num","null","<p class=block-text>Trial 41 out of 60</p>","null","","","","","","","","","","","","","","","","","","","","","","","","","",""
"","","","","","image-button-response","86","487046","0.0-2.0-4.0-1.16","611c2ed2d1d6a90e05ceeb30","D2","batch4","spm_respsonse","6782.299999952316","img/question_4_5.jpeg","7","mat_41","8","1","1","6782.299999952316","","","","","","","","","","","","","","","","","","","","",""
"","","","","","html-keyboard-response","87","488108","0.0-2.0-4.0-0.17","611c2ed2d1d6a90e05ceeb30","D2","batch4","spm_show_trial_num","null","<p class=block-text>Trial 42 out of 60</p>","null","","","","","","","","","","","","","","","","","","","","","","","","","",""
"","","","","","image-button-response","88","498939","0.0-2.0-4.0-1.17","611c2ed2d1d6a90e05ceeb30","D2","batch4","spm_respsonse","10828.100000023842","img/question_4_6.jpeg","5","mat_42","6","1","1","10828.100000023842","","","","","","","","","","","","","","","","","","","","",""
"","","","","","html-keyboard-response","89","500013","0.0-2.0-4.0-0.18","611c2ed2d1d6a90e05ceeb30","D2","batch4","spm_show_trial_num","null","<p class=block-text>Trial 43 out of 60</p>","null","","","","","","","","","","","","","","","","","","","","","","","","","",""
"","","","","","image-button-response","90","507859","0.0-2.0-4.0-1.18","611c2ed2d1d6a90e05ceeb30","D2","batch4","spm_respsonse","7841.200000047684","img/question_4_7.jpeg","4","mat_43","5","1","1","7841.200000047684","","","","","","","","","","","","","","","","","","","","",""
"","","","","","html-keyboard-response","91","508933","0.0-2.0-4.0-0.19","611c2ed2d1d6a90e05ceeb30","D2","batch4","spm_show_trial_num","null","<p class=block-text>Trial 44 out of 60</p>","null","","","","","","","","","","","","","","","","","","","","","","","","","",""
"","","","","","image-button-response","92","514943","0.0-2.0-4.0-1.19","611c2ed2d1d6a90e05ceeb30","D2","batch4","spm_respsonse","6006.199999928474","img/question_4_8.jpeg","4","mat_44","4","0","0","6006.199999928474","","","","","","","","","","","","","","","","","","","","",""
"","","","","","html-keyboard-response","93","516016","0.0-2.0-4.0-0.20","611c2ed2d1d6a90e05ceeb30","D2","batch4","spm_show_trial_num","null","<p class=block-text>Trial 45 out of 60</p>","null","","","","","","","","","","","","","","","","","","","","","","","","","",""
"","","","","","image-button-response","94","529503","0.0-2.0-4.0-1.20","611c2ed2d1d6a90e05ceeb30","D2","batch4","spm_respsonse","13483.600000023842","img/question_4_9.jpeg","0","mat_45","1","1","1","13483.600000023842","","","","","","","","","","","","","","","","","","","","",""
"","","","","","html-keyboard-response","95","530575","0.0-2.0-4.0-0.21","611c2ed2d1d6a90e05ceeb30","D2","batch4","spm_show_trial_num","null","<p class=block-text>Trial 46 out of 60</p>","null","","","","","","","","","","","","","","","","","","","","","","","","","",""
"","","","","","image-button-response","96","546433","0.0-2.0-4.0-1.21","611c2ed2d1d6a90e05ceeb30","D2","batch4","spm_respsonse","15854.600000023842","img/question_4_10.jpeg","1","mat_46","2","1","1","15854.600000023842","","","","","","","","","","","","","","","","","","","","",""
"","","","","","html-keyboard-response","97","547509","0.0-2.0-4.0-0.22","611c2ed2d1d6a90e05ceeb30","D2","batch4","spm_show_trial_num","null","<p class=block-text>Trial 47 out of 60</p>","null","","","","","","","","","","","","","","","","","","","","","","","","","",""
"","","","","","image-button-response","98","557634","0.0-2.0-4.0-1.22","611c2ed2d1d6a90e05ceeb30","D2","batch4","spm_respsonse","10120.600000023842","img/question_4_11.jpeg","6","mat_47","5","0","0","10120.600000023842","","","","","","","","","","","","","","","","","","","","",""
"","","","","","html-keyboard-response","99","558709","0.0-2.0-4.0-0.23","611c2ed2d1d6a90e05ceeb30","D2","batch4","spm_show_trial_num","null","<p class=block-text>Trial 48 out of 60</p>","null","","","","","","","","","","","","","","","","","","","","","","","","","",""
"","","","","","image-button-response","100","573026","0.0-2.0-4.0-1.23","611c2ed2d1d6a90e05ceeb30","D2","batch4","spm_respsonse","14313.199999928474","img/question_4_12.jpeg","6","mat_48","6","0","0","14313.199999928474","","","","","","","","","","","","","","","","","","","","",""
"","","","","","html-keyboard-response","101","574095","0.0-2.0-4.0-0.24","611c2ed2d1d6a90e05ceeb30","D2","batch4","spm_show_trial_num","null","<p class=block-text>Trial 49 out of 60</p>","null","","","","","","","","","","","","","","","","","","","","","","","","","",""
"","","","","","image-button-response","102","616523","0.0-2.0-4.0-1.24","611c2ed2d1d6a90e05ceeb30","D2","batch4","spm_respsonse","42424.700000047684","img/question_5_1.jpeg","6","mat_49","7","1","1","42424.700000047684","","","","","","","","","","","","","","","","","","","","",""
"","","","","","html-keyboard-response","103","617593","0.0-2.0-4.0-0.25","611c2ed2d1d6a90e05ceeb30","D2","batch4","spm_show_trial_num","null","<p class=block-text>Trial 50 out of 60</p>","null","","","","","","","","","","","","","","","","","","","","","","","","","",""
"","","","","","image-button-response","104","626193","0.0-2.0-4.0-1.25","611c2ed2d1d6a90e05ceeb30","D2","batch4","spm_respsonse","8596.600000023842","img/question_5_2.jpeg","5","mat_50","6","1","1","8596.600000023842","","","","","","","","","","","","","","","","","","","","",""
"","","","","","html-keyboard-response","105","627261","0.0-2.0-4.0-0.26","611c2ed2d1d6a90e05ceeb30","D2","batch4","spm_show_trial_num","null","<p class=block-text>Trial 51 out of 60</p>","null","","","","","","","","","","","","","","","","","","","","","","","","","",""
"","","","","","image-button-response","106","636623","0.0-2.0-4.0-1.26","611c2ed2d1d6a90e05ceeb30","D2","batch4","spm_respsonse","9358.399999976158","img/question_5_3.jpeg","7","mat_51","8","1","1","9358.399999976158","","","","","","","","","","","","","","","","","","","","",""
"","","","","","html-keyboard-response","107","637690","0.0-2.0-4.0-0.27","611c2ed2d1d6a90e05ceeb30","D2","batch4","spm_show_trial_num","null","<p class=block-text>Trial 52 out of 60</p>","null","","","","","","","","","","","","","","","","","","","","","","","","","",""
"","","","","","image-button-response","108","664425","0.0-2.0-4.0-1.27","611c2ed2d1d6a90e05ceeb30","D2","batch4","spm_respsonse","26731.600000023842","img/question_5_4.jpeg","3","mat_52","2","0","0","26731.600000023842","","","","","","","","","","","","","","","","","","","","",""
"","","","","","html-keyboard-response","109","665487","0.0-2.0-4.0-0.28","611c2ed2d1d6a90e05ceeb30","D2","batch4","spm_show_trial_num","null","<p class=block-text>Trial 53 out of 60</p>","null","","","","","","","","","","","","","","","","","","","","","","","","","",""
"","","","","","image-button-response","110","671391","0.0-2.0-4.0-1.28","611c2ed2d1d6a90e05ceeb30","D2","batch4","spm_respsonse","5899.700000047684","img/question_5_5.jpeg","3","mat_53","1","0","0","5899.700000047684","","","","","","","","","","","","","","","","","","","","",""
"","","","","","html-keyboard-response","111","672466","0.0-2.0-4.0-0.29","611c2ed2d1d6a90e05ceeb30","D2","batch4","spm_show_trial_num","null","<p class=block-text>Trial 54 out of 60</p>","null","","","","","","","","","","","","","","","","","","","","","","","","","",""
"","","","","","image-button-response","112","682219","0.0-2.0-4.0-1.29","611c2ed2d1d6a90e05ceeb30","D2","batch4","spm_respsonse","9749.5","img/question_5_6.jpeg","4","mat_54","5","1","1","9749.5","","","","","","","","","","","","","","","","","","","","",""
"","","","","","html-keyboard-response","113","683294","0.0-2.0-4.0-0.30","611c2ed2d1d6a90e05ceeb30","D2","batch4","spm_show_trial_num","null","<p class=block-text>Trial 55 out of 60</p>","null","","","","","","","","","","","","","","","","","","","","","","","","","",""
"","","","","","image-button-response","114","685679","0.0-2.0-4.0-1.30","611c2ed2d1d6a90e05ceeb30","D2","batch4","spm_respsonse","2381.6999999284744","img/question_5_7.jpeg","2","mat_55","1","0","0","2381.6999999284744","","","","","","","","","","","","","","","","","","","","",""
"","","","","","html-keyboard-response","115","686743","0.0-2.0-4.0-0.31","611c2ed2d1d6a90e05ceeb30","D2","batch4","spm_show_trial_num","null","<p class=block-text>Trial 56 out of 60</p>","null","","","","","","","","","","","","","","","","","","","","","","","","","",""
"","","","","","image-button-response","116","691143","0.0-2.0-4.0-1.31","611c2ed2d1d6a90e05ceeb30","D2","batch4","spm_respsonse","4397.300000071526","img/question_5_8.jpeg","6","mat_56","6","0","0","4397.300000071526","","","","","","","","","","","","","","","","","","","","",""
"","","","","","html-keyboard-response","117","692213","0.0-2.0-4.0-0.32","611c2ed2d1d6a90e05ceeb30","D2","batch4","spm_show_trial_num","null","<p class=block-text>Trial 57 out of 60</p>","null","","","","","","","","","","","","","","","","","","","","","","","","","",""
"","","","","","image-button-response","118","696296","0.0-2.0-4.0-1.32","611c2ed2d1d6a90e05ceeb30","D2","batch4","spm_respsonse","4079","img/question_5_9.jpeg","4","mat_57","3","0","0","4079","","","","","","","","","","","","","","","","","","","","",""
"","","","","","html-keyboard-response","119","697374","0.0-2.0-4.0-0.33","611c2ed2d1d6a90e05ceeb30","D2","batch4","spm_show_trial_num","null","<p class=block-text>Trial 58 out of 60</p>","null","","","","","","","","","","","","","","","","","","","","","","","","","",""
"","","","","","image-button-response","120","700633","0.0-2.0-4.0-1.33","611c2ed2d1d6a90e05ceeb30","D2","batch4","spm_respsonse","3255.7999999523163","img/question_5_10.jpeg","2","mat_58","2","0","0","3255.7999999523163","","","","","","","","","","","","","","","","","","","","",""
"","","","","","html-keyboard-response","121","701708","0.0-2.0-4.0-0.34","611c2ed2d1d6a90e05ceeb30","D2","batch4","spm_show_trial_num","null","<p class=block-text>Trial 59 out of 60</p>","null","","","","","","","","","","","","","","","","","","","","","","","","","",""
"","","","","","image-button-response","122","705275","0.0-2.0-4.0-1.34","611c2ed2d1d6a90e05ceeb30","D2","batch4","spm_respsonse","3563.899999976158","img/question_5_11.jpeg","5","mat_59","4","0","0","3563.899999976158","","","","","","","","","","","","","","","","","","","","",""
"","","","","","html-keyboard-response","123","706339","0.0-2.0-4.0-0.35","611c2ed2d1d6a90e05ceeb30","D2","batch4","spm_show_trial_num","null","<p class=block-text>Trial 60 out of 60</p>","null","","","","","","","","","","","","","","","","","","","","","","","","","",""
"","","","","","image-button-response","124","716315","0.0-2.0-4.0-1.35","611c2ed2d1d6a90e05ceeb30","D2","batch4","spm_respsonse","9972.700000047684","img/question_5_12.jpeg","5","mat_60","5","0","0","9972.700000047684","","","","","","","","","","","","","","","","","","","","",""
"","","","","","html-button-response","125","718073","0.0-2.0-5.0","611c2ed2d1d6a90e05ceeb30","D2","batch4","spm_goodbye","1492.8999999761581","<p class= block-text>This concludes the Standard Progressive Matrix game. Thank you for your responses!<br> When you are ready, click the button continue</p>","0","","","","","","","","","","","","","","","","","","","","","","","","","",""
"true","","","","","fullscreen","126","724643","0.0-3.0-0.0","611c2ed2d1d6a90e05ceeb30","D2","batch4","","","","","","","","","","","","","","","","","","","","","","","","","","","","","",""
"","","","","","instructions","127","735680","0.0-3.0-1.0-0.0","611c2ed2d1d6a90e05ceeb30","D2","batch4","","11034.400000095367","","","","","","","","[{""page_index"":0,""viewing_time"":9907.800000071526},{""page_index"":1,""viewing_time"":1125.7999999523163}]","","","","","","","","","","","","","","","","","","","",""
"","","","","","html-button-response","128","738241","0.0-3.0-1.0-1.0-0.0","611c2ed2d1d6a90e05ceeb30","D2","batch4","pattern_enter_quiz","2559.2000000476837","<p class=block-text> Let's answer a few questions <br>","0","","","","","","","","","","","","","","","","","","","","","","","","","",""
"","","","","","html-button-response","129","740518","0.0-3.0-1.0-1.0-1.0","611c2ed2d1d6a90e05ceeb30","D2","batch4","pattern_quiz","2276.6999999284744","<p class = block-text>True or False: You will have as much time as you want to make each choice. <br></p>","1","","","true","","","","","","","","","","","","","","","","","","","","","","",""
"","","","","","html-button-response","130","744407","0.0-3.0-1.0-1.0-2.0","611c2ed2d1d6a90e05ceeb30","D2","batch4","pattern_quiz_feedback","3887.100000023842","<p class = block-text>Correct! You should make your choice <strong> as fast as you can</strong>.</p>","0","","","","","","","","","","","","","","","","","","","","","","","","","",""
"","","","","","html-button-response","131","749035","0.0-3.0-1.0-1.0-3.0","611c2ed2d1d6a90e05ceeb30","D2","batch4","pattern_quiz","4626.300000071526","<p class = block-text>True or False: You will look for 4 pieces in black or white color connected in a row either horizontally, vertically or diagonally. <br></p>","0","","","true","","","","","","","","","","","","","","","","","","","","","","",""
"","","","","","html-button-response","132","750389","0.0-3.0-1.0-1.0-4.0","611c2ed2d1d6a90e05ceeb30","D2","batch4","pattern_quiz_feedback","1352.8000000715256","<p class = block-text>Correct! </p>","0","","","","","","","","","","","","","","","","","","","","","","","","","",""
"","","","","","html-button-response","133","756477","0.0-3.0-2.0","611c2ed2d1d6a90e05ceeb30","D2","batch4","pattern_enter_practice","6085.300000071526","<p class=block-text> Now that you've understood the game, let's do a few practice trials before we start!<br> <br>","0","","","","","","","","","","","","","","","","","","","","","","","","","",""
"","","","","","image-keyboard-response","134","757152","0.0-3.0-3.0-0.0","611c2ed2d1d6a90e05ceeb30","D2","batch4","pattern_practice","673.2999999523163","stim/prac_yes_16_ver_w1.png","f","","f","true","","","","","","","","","","","","","","","","","","","","","","",""
"","","","","","html-keyboard-response","135","758176","0.0-3.0-3.0-1.0","611c2ed2d1d6a90e05ceeb30","D2","batch4","pattern_feedback","null","<p style=""font-size:30px;color:green;"">Correct!</p>","null","","","","","","","","","","","","","","","","","","","","","","","","","",""
"","","","","","image-keyboard-response","136","758939","0.0-3.0-3.0-0.1","611c2ed2d1d6a90e05ceeb30","D2","batch4","pattern_practice","760","stim/prac_yes_18_hor_w1.png","f","","f","true","","","","","","","","","","","","","","","","","","","","","","",""
"","","","","","html-keyboard-response","137","759945","0.0-3.0-3.0-1.1","611c2ed2d1d6a90e05ceeb30","D2","batch4","pattern_feedback","null","<p style=""font-size:30px;color:green;"">Correct!</p>","null","","","","","","","","","","","","","","","","","","","","","","","","","",""
"","","","","","image-keyboard-response","138","762814","0.0-3.0-3.0-0.2","611c2ed2d1d6a90e05ceeb30","D2","batch4","pattern_practice","2866.2000000476837","stim/prac_yes_20_dia_b1.png","j","","f","false","","","","","","","","","","","","","","","","","","","","","","",""
"","","","","","html-keyboard-response","139","763824","0.0-3.0-3.0-1.2","611c2ed2d1d6a90e05ceeb30","D2","batch4","pattern_feedback","null","<p style=""font-size:30px;color:red;"">Wrong.</p>","null","","","","","","","","","","","","","","","","","","","","","","","","","",""
"","","","","","image-keyboard-response","140","766828","0.0-3.0-3.0-0.3","611c2ed2d1d6a90e05ceeb30","D2","batch4","pattern_practice","3000.6999999284744","stim/prac_no_16_1.png","j","","j","true","","","","","","","","","","","","","","","","","","","","","","",""
"","","","","","html-keyboard-response","141","767839","0.0-3.0-3.0-1.3","611c2ed2d1d6a90e05ceeb30","D2","batch4","pattern_feedback","null","<p style=""font-size:30px;color:green;"">Correct!</p>","null","","","","","","","","","","","","","","","","","","","","","","","","","",""
"","","","","","image-keyboard-response","142","769190","0.0-3.0-3.0-0.4","611c2ed2d1d6a90e05ceeb30","D2","batch4","pattern_practice","1347.8000000715256","stim/prac_no_18_1.png","j","","j","true","","","","","","","","","","","","","","","","","","","","","","",""
"","","","","","html-keyboard-response","143","770205","0.0-3.0-3.0-1.4","611c2ed2d1d6a90e05ceeb30","D2","batch4","pattern_feedback","null","<p style=""font-size:30px;color:green;"">Correct!</p>","null","","","","","","","","","","","","","","","","","","","","","","","","","",""
"","","","","","html-button-response","144","773557","0.0-3.0-4.0","611c2ed2d1d6a90e05ceeb30","D2","batch4","pattern_enter_official_trials","3350.600000023842","<p class=block-text> Good job! You are done with practice trials!<br>
        You responded correctly on 80% of the trials.<br>
        Press the button below to start official trials. Now you won't see any feedback about your response</p>","0","","","","","","","","","","","","","","","","","","","","","","","","","",""
"","","","","","html-keyboard-response","145","774363","0.0-3.0-5.0-0.0","611c2ed2d1d6a90e05ceeb30","D2","batch4","pattern_show_trial_num","null","<p class=block-text>Trial 1 out of 78</p>","null","","","","","","","","","","","","","","","","","","","","","","","","","",""
"","","","","","image-keyboard-response","146","775647","0.0-3.0-5.0-1.0","611c2ed2d1d6a90e05ceeb30","D2","batch4","pattern_response","1281.1000000238419","stim/yes_44_ver_w1_w.png","f","pattern_66","f","true","","","","1281.1000000238419","true","1","","","","","","","","","","","","","","","","",""
"","","","","","html-keyboard-response","147","776959","0.0-3.0-5.0-0.1","611c2ed2d1d6a90e05ceeb30","D2","batch4","pattern_show_trial_num","null","<p class=block-text>Trial 2 out of 78</p>","null","","","","","","","","","","","","","","","","","","","","","","","","","",""
"","","","","","image-keyboard-response","148","777641","0.0-3.0-5.0-1.1","611c2ed2d1d6a90e05ceeb30","D2","batch4","pattern_response","678.1999999284744","stim/yes_29_hor_b1_b.png","f","pattern_52","f","true","","","","678.1999999284744","true","2","","","","","","","","","","","","","","","","",""
"","","","","","html-keyboard-response","149","778968","0.0-3.0-5.0-0.2","611c2ed2d1d6a90e05ceeb30","D2","batch4","pattern_show_trial_num","null","<p class=block-text>Trial 3 out of 78</p>","null","","","","","","","","","","","","","","","","","","","","","","","","","",""
"","","","","","image-keyboard-response","150","781019","0.0-3.0-5.0-1.2","611c2ed2d1d6a90e05ceeb30","D2","batch4","pattern_response","2048.2999999523163","stim/no_22_1_b.png","j","pattern_07","j","true","","","","2048.2999999523163","true","3","","","","","","","","","","","","","","","","",""
"","","","","","html-keyboard-response","151","782329","0.0-3.0-5.0-0.3","611c2ed2d1d6a90e05ceeb30","D2","batch4","pattern_show_trial_num","null","<p class=block-text>Trial 4 out of 78</p>","null","","","","","","","","","","","","","","","","","","","","","","","","","",""
"","","","","","image-keyboard-response","152","784971","0.0-3.0-5.0-1.3","611c2ed2d1d6a90e05ceeb30","D2","batch4","pattern_response","2639.3000000715256","stim/yes_26_dia_w2_w.png","j","pattern_50","f","false","","","","2639.3000000715256","false","3","","","","","","","","","","","","","","","","",""
"","","","","","html-keyboard-response","153","786287","0.0-3.0-5.0-0.4","611c2ed2d1d6a90e05ceeb30","D2","batch4","pattern_show_trial_num","null","<p class=block-text>Trial 5 out of 78</p>","null","","","","","","","","","","","","","","","","","","","","","","","","","",""
"","","","","","image-keyboard-response","154","788022","0.0-3.0-5.0-1.4","611c2ed2d1d6a90e05ceeb30","D2","batch4","pattern_response","1732.2000000476837","stim/yes_37_hor_w1_w.png","f","pattern_60","f","true","","","","1732.2000000476837","true","4","","","","","","","","","","","","","","","","",""
"","","","","","html-keyboard-response","155","789334","0.0-3.0-5.0-0.5","611c2ed2d1d6a90e05ceeb30","D2","batch4","pattern_show_trial_num","null","<p class=block-text>Trial 6 out of 78</p>","null","","","","","","","","","","","","","","","","","","","","","","","","","",""
"","","","","","image-keyboard-response","156","790281","0.0-3.0-5.0-1.5","611c2ed2d1d6a90e05ceeb30","D2","batch4","pattern_response","942.3999999761581","stim/yes_53_ver_b1_b.png","f","pattern_74","f","true","","","","942.3999999761581","true","5","","","","","","","","","","","","","","","","",""
"","","","","","html-keyboard-response","157","791599","0.0-3.0-5.0-0.6","611c2ed2d1d6a90e05ceeb30","D2","batch4","pattern_show_trial_num","null","<p class=block-text>Trial 7 out of 78</p>","null","","","","","","","","","","","","","","","","","","","","","","","","","",""
"","","","","","image-keyboard-response","158","792411","0.0-3.0-5.0-1.6","611c2ed2d1d6a90e05ceeb30","D2","batch4","pattern_response","808.3000000715256","stim/yes_46_ver_b1_b.png","f","pattern_68","f","true","","","","808.3000000715256","true","6","","","","","","","","","","","","","","","","",""
"","","","","","html-keyboard-response","159","793727","0.0-3.0-5.0-0.7","611c2ed2d1d6a90e05ceeb30","D2","batch4","pattern_show_trial_num","null","<p class=block-text>Trial 8 out of 78</p>","null","","","","","","","","","","","","","","","","","","","","","","","","","",""
"","","","","","image-keyboard-response","160","794433","0.0-3.0-5.0-1.7","611c2ed2d1d6a90e05ceeb30","D2","batch4","pattern_response","704.2000000476837","stim/yes_15_dia_b1u_b.png","f","pattern_44","f","true","","","","704.2000000476837","true","7","","","","","","","","","","","","","","","","",""
"","","","","","html-keyboard-response","161","795754","0.0-3.0-5.0-0.8","611c2ed2d1d6a90e05ceeb30","D2","batch4","pattern_show_trial_num","null","<p class=block-text>Trial 9 out of 78</p>","null","","","","","","","","","","","","","","","","","","","","","","","","","",""
"","","","","","image-keyboard-response","162","799235","0.0-3.0-5.0-1.8","611c2ed2d1d6a90e05ceeb30","D2","batch4","pattern_response","3479.100000023842","stim/no_49_2_b.png","j","pattern_29","j","true","","","","3479.100000023842","true","8","","","","","","","","","","","","","","","","",""
"","","","","","html-keyboard-response","163","800553","0.0-3.0-5.0-0.9","611c2ed2d1d6a90e05ceeb30","D2","batch4","pattern_show_trial_num","null","<p class=block-text>Trial 10 out of 78</p>","null","","","","","","","","","","","","","","","","","","","","","","","","","",""
"","","","","","image-keyboard-response","164","803513","0.0-3.0-5.0-1.9","611c2ed2d1d6a90e05ceeb30","D2","batch4","pattern_response","2955.7000000476837","stim/yes_58_dia_w1_w.png","j","pattern_76","f","false","","","","2955.7000000476837","false","8","","","","","","","","","","","","","","","","",""
"","","","","","html-keyboard-response","165","804833","0.0-3.0-5.0-0.10","611c2ed2d1d6a90e05ceeb30","D2","batch4","pattern_show_trial_num","null","<p class=block-text>Trial 11 out of 78</p>","null","","","","","","","","","","","","","","","","","","","","","","","","","",""
"","","","","","image-keyboard-response","166","807891","0.0-3.0-5.0-1.10","611c2ed2d1d6a90e05ceeb30","D2","batch4","pattern_response","3053.600000023842","stim/no_53_1_b.png","j","pattern_33","j","true","","","","3053.600000023842","true","9","","","","","","","","","","","","","","","","",""
"","","","","","html-keyboard-response","167","809207","0.0-3.0-5.0-0.11","611c2ed2d1d6a90e05ceeb30","D2","batch4","pattern_show_trial_num","null","<p class=block-text>Trial 12 out of 78</p>","null","","","","","","","","","","","","","","","","","","","","","","","","","",""
"","","","","","image-keyboard-response","168","810401","0.0-3.0-5.0-1.11","611c2ed2d1d6a90e05ceeb30","D2","batch4","pattern_response","1190.6999999284744","stim/no_18_1_b.png","j","pattern_05","j","true","","","","1190.6999999284744","true","10","","","","","","","","","","","","","","","","",""
"","","","","","html-keyboard-response","169","811712","0.0-3.0-5.0-0.12","611c2ed2d1d6a90e05ceeb30","D2","batch4","pattern_show_trial_num","null","<p class=block-text>Trial 13 out of 78</p>","null","","","","","","","","","","","","","","","","","","","","","","","","","",""
"","","","","","image-keyboard-response","170","813551","0.0-3.0-5.0-1.12","611c2ed2d1d6a90e05ceeb30","D2","batch4","pattern_response","1836.2999999523163","stim/no_39_1_w.png","j","pattern_21","j","true","","","","1836.2999999523163","true","11","","","","","","","","","","","","","","","","",""
"","","","","","html-keyboard-response","171","814857","0.0-3.0-5.0-0.13","611c2ed2d1d6a90e05ceeb30","D2","batch4","pattern_show_trial_num","null","<p class=block-text>Trial 14 out of 78</p>","null","","","","","","","","","","","","","","","","","","","","","","","","","",""
"","","","","","image-keyboard-response","172","815579","0.0-3.0-5.0-1.13","611c2ed2d1d6a90e05ceeb30","D2","batch4","pattern_response","719.3999999761581","stim/no_15_1_w.png","j","pattern_03","j","true","","","","719.3999999761581","true","12","","","","","","","","","","","","","","","","",""
"","","","","","html-keyboard-response","173","816896","0.0-3.0-5.0-0.14","611c2ed2d1d6a90e05ceeb30","D2","batch4","pattern_show_trial_num","null","<p class=block-text>Trial 15 out of 78</p>","null","","","","","","","","","","","","","","","","","","","","","","","","","",""
"","","","","","image-keyboard-response","174","817786","0.0-3.0-5.0-1.14","611c2ed2d1d6a90e05ceeb30","D2","batch4","pattern_response","887.5","stim/no_51_1.png","f","pattern_31","j","false","","","","887.5","false","12","","","","","","","","","","","","","","","","",""
"","","","","","html-keyboard-response","175","819103","0.0-3.0-5.0-0.15","611c2ed2d1d6a90e05ceeb30","D2","batch4","pattern_show_trial_num","null","<p class=block-text>Trial 16 out of 78</p>","null","","","","","","","","","","","","","","","","","","","","","","","","","",""
"","","","","","image-keyboard-response","176","819829","0.0-3.0-5.0-1.15","611c2ed2d1d6a90e05ceeb30","D2","batch4","pattern_response","723.6000000238419","stim/no_58_1_w.png","f","pattern_35","j","false","","","","723.6000000238419","false","12","","","","","","","","","","","","","","","","",""
"","","","","","html-keyboard-response","177","821138","0.0-3.0-5.0-0.16","611c2ed2d1d6a90e05ceeb30","D2","batch4","pattern_show_trial_num","null","<p class=block-text>Trial 17 out of 78</p>","null","","","","","","","","","","","","","","","","","","","","","","","","","",""
"","","","","","image-keyboard-response","178","821927","0.0-3.0-5.0-1.16","611c2ed2d1d6a90e05ceeb30","D2","batch4","pattern_response","786.6000000238419","stim/yes_70_ver_b1.png","f","pattern_80","f","true","","","","786.6000000238419","true","13","","","","","","","","","","","","","","","","",""
"","","","","","html-keyboard-response","179","823248","0.0-3.0-5.0-0.17","611c2ed2d1d6a90e05ceeb30","D2","batch4","pattern_show_trial_num","null","<p class=block-text>Trial 18 out of 78</p>","null","","","","","","","","","","","","","","","","","","","","","","","","","",""
"","","","","","image-keyboard-response","180","824482","0.0-3.0-5.0-1.17","611c2ed2d1d6a90e05ceeb30","D2","batch4","pattern_response","1231.3000000715256","stim/yes_42_dia_w1_w.png","f","pattern_64","f","true","","","","1231.3000000715256","true","14","","","","","","","","","","","","","","","","",""
"","","","","","html-keyboard-response","181","825808","0.0-3.0-5.0-0.18","611c2ed2d1d6a90e05ceeb30","D2","batch4","pattern_show_trial_num","null","<p class=block-text>Trial 19 out of 78</p>","null","","","","","","","","","","","","","","","","","","","","","","","","","",""
"","","","","","image-keyboard-response","182","826854","0.0-3.0-5.0-1.18","611c2ed2d1d6a90e05ceeb30","D2","batch4","pattern_response","1044.1999999284744","stim/yes_12_hor_w1_w.png","f","pattern_42","f","true","","","","1044.1999999284744","true","15","","","","","","","","","","","","","","","","",""
"","","","","","html-keyboard-response","183","828171","0.0-3.0-5.0-0.19","611c2ed2d1d6a90e05ceeb30","D2","batch4","pattern_show_trial_num","null","<p class=block-text>Trial 20 out of 78</p>","null","","","","","","","","","","","","","","","","","","","","","","","","","",""
"","","","","","image-keyboard-response","184","829077","0.0-3.0-5.0-1.19","611c2ed2d1d6a90e05ceeb30","D2","batch4","pattern_response","903.3999999761581","stim/yes_63_dia_b1.png","f","pattern_78","f","true","","","","903.3999999761581","true","16","","","","","","","","","","","","","","","","",""
"","","","","","html-keyboard-response","185","830392","0.0-3.0-5.0-0.20","611c2ed2d1d6a90e05ceeb30","D2","batch4","pattern_show_trial_num","null","<p class=block-text>Trial 21 out of 78</p>","null","","","","","","","","","","","","","","","","","","","","","","","","","",""
"","","","","","image-keyboard-response","186","831732","0.0-3.0-5.0-1.20","611c2ed2d1d6a90e05ceeb30","D2","batch4","pattern_response","1337.0999999046326","stim/yes_23_ver_b1.png","f","pattern_48","f","true","","","","1337.0999999046326","true","17","","","","","","","","","","","","","","","","",""
"","","","","","html-keyboard-response","187","833055","0.0-3.0-5.0-0.21","611c2ed2d1d6a90e05ceeb30","D2","batch4","pattern_show_trial_num","null","<p class=block-text>Trial 22 out of 78</p>","null","","","","","","","","","","","","","","","","","","","","","","","","","",""
"","","","","","image-keyboard-response","188","834550","0.0-3.0-5.0-1.21","611c2ed2d1d6a90e05ceeb30","D2","batch4","pattern_response","1492.2999999523163","stim/no_36_1_b.png","j","pattern_17","j","true","","","","1492.2999999523163","true","18","","","","","","","","","","","","","","","","",""
"","","","","","html-keyboard-response","189","835873","0.0-3.0-5.0-0.22","611c2ed2d1d6a90e05ceeb30","D2","batch4","pattern_show_trial_num","null","<p class=block-text>Trial 23 out of 78</p>","null","","","","","","","","","","","","","","","","","","","","","","","","","",""
"","","","","","image-keyboard-response","190","836796","0.0-3.0-5.0-1.22","611c2ed2d1d6a90e05ceeb30","D2","batch4","pattern_response","920.2000000476837","stim/yes_36_ver_w1_w.png","f","pattern_58","f","true","","","","920.2000000476837","true","19","","","","","","","","","","","","","","","","",""
"","","","","","html-keyboard-response","191","838105","0.0-3.0-5.0-0.23","611c2ed2d1d6a90e05ceeb30","D2","batch4","pattern_show_trial_num","null","<p class=block-text>Trial 24 out of 78</p>","null","","","","","","","","","","","","","","","","","","","","","","","","","",""
"","","","","","image-keyboard-response","192","839326","0.0-3.0-5.0-1.23","611c2ed2d1d6a90e05ceeb30","D2","batch4","pattern_response","1217.7000000476837","stim/yes_51_dia_b1.png","j","pattern_72","f","false","","","","1217.7000000476837","false","19","","","","","","","","","","","","","","","","",""
"","","","","","html-keyboard-response","193","840642","0.0-3.0-5.0-0.24","611c2ed2d1d6a90e05ceeb30","D2","batch4","pattern_show_trial_num","null","<p class=block-text>Trial 25 out of 78</p>","null","","","","","","","","","","","","","","","","","","","","","","","","","",""
"","","","","","image-keyboard-response","194","842124","0.0-3.0-5.0-1.24","611c2ed2d1d6a90e05ceeb30","D2","batch4","pattern_response","1479.6000000238419","stim/no_33_1_b.png","j","pattern_15","j","true","","","","1479.6000000238419","true","20","","","","","","","","","","","","","","","","",""
"","","","","","html-keyboard-response","195","843448","0.0-3.0-5.0-0.25","611c2ed2d1d6a90e05ceeb30","D2","batch4","pattern_show_trial_num","null","<p class=block-text>Trial 26 out of 78</p>","null","","","","","","","","","","","","","","","","","","","","","","","","","",""
"","","","","","image-keyboard-response","196","844850","0.0-3.0-5.0-1.25","611c2ed2d1d6a90e05ceeb30","D2","batch4","pattern_response","1398.6000000238419","stim/yes_49_hor_w1_b.png","f","pattern_70","f","true","","","","1398.6000000238419","true","21","","","","","","","","","","","","","","","","",""
"","","","","","html-keyboard-response","197","846173","0.0-3.0-5.0-0.26","611c2ed2d1d6a90e05ceeb30","D2","batch4","pattern_show_trial_num","null","<p class=block-text>Trial 27 out of 78</p>","null","","","","","","","","","","","","","","","","","","","","","","","","","",""
"","","","","","image-keyboard-response","198","846848","0.0-3.0-5.0-1.26","611c2ed2d1d6a90e05ceeb30","D2","batch4","pattern_response","672.8000000715256","stim/no_67_1.png","f","pattern_39","j","false","","","","672.8000000715256","false","21","","","","","","","","","","","","","","","","",""
"","","","","","html-keyboard-response","199","848169","0.0-3.0-5.0-0.27","611c2ed2d1d6a90e05ceeb30","D2","batch4","pattern_show_trial_num","null","<p class=block-text>Trial 28 out of 78</p>","null","","","","","","","","","","","","","","","","","","","","","","","","","",""
"","","","","","image-keyboard-response","200","848888","0.0-3.0-5.0-1.27","611c2ed2d1d6a90e05ceeb30","D2","batch4","pattern_response","716.3000000715256","stim/no_47_1_b.png","f","pattern_27","j","false","","","","716.3000000715256","false","21","","","","","","","","","","","","","","","","",""
"","","","","","html-keyboard-response","201","850210","0.0-3.0-5.0-0.28","611c2ed2d1d6a90e05ceeb30","D2","batch4","pattern_show_trial_num","null","<p class=block-text>Trial 29 out of 78</p>","null","","","","","","","","","","","","","","","","","","","","","","","","","",""
"","","","","","image-keyboard-response","202","851247","0.0-3.0-5.0-1.28","611c2ed2d1d6a90e05ceeb30","D2","batch4","pattern_response","1034.3000000715256","stim/yes_39_hor_w1_w.png","f","pattern_62","f","true","","","","1034.3000000715256","true","22","","","","","","","","","","","","","","","","",""
"","","","","","html-keyboard-response","203","852569","0.0-3.0-5.0-0.29","611c2ed2d1d6a90e05ceeb30","D2","batch4","pattern_show_trial_num","null","<p class=block-text>Trial 30 out of 78</p>","null","","","","","","","","","","","","","","","","","","","","","","","","","",""
"","","","","","image-keyboard-response","204","853730","0.0-3.0-5.0-1.29","611c2ed2d1d6a90e05ceeb30","D2","batch4","pattern_response","1159.1000000238419","stim/no_28_2.png","j","pattern_11","j","true","","","","1159.1000000238419","true","23","","","","","","","","","","","","","","","","",""
"","","","","","html-keyboard-response","205","855053","0.0-3.0-5.0-0.30","611c2ed2d1d6a90e05ceeb30","D2","batch4","pattern_show_trial_num","null","<p class=block-text>Trial 31 out of 78</p>","null","","","","","","","","","","","","","","","","","","","","","","","","","",""
"","","","","","image-keyboard-response","206","856042","0.0-3.0-5.0-1.30","611c2ed2d1d6a90e05ceeb30","D2","batch4","pattern_response","985.3999999761581","stim/no_30_1_b.png","j","pattern_13","j","true","","","","985.3999999761581","true","24","","","","","","","","","","","","","","","","",""
"","","","","","html-keyboard-response","207","857361","0.0-3.0-5.0-0.31","611c2ed2d1d6a90e05ceeb30","D2","batch4","pattern_show_trial_num","null","<p class=block-text>Trial 32 out of 78</p>","null","","","","","","","","","","","","","","","","","","","","","","","","","",""
"","","","","","image-keyboard-response","208","858456","0.0-3.0-5.0-1.31","611c2ed2d1d6a90e05ceeb30","D2","batch4","pattern_response","1092.5","stim/no_43_2_b.png","j","pattern_23","j","true","","","","1092.5","true","25","","","","","","","","","","","","","","","","",""
"","","","","","html-keyboard-response","209","859775","0.0-3.0-5.0-0.32","611c2ed2d1d6a90e05ceeb30","D2","batch4","pattern_show_trial_num","null","<p class=block-text>Trial 33 out of 78</p>","null","","","","","","","","","","","","","","","","","","","","","","","","","",""
"","","","","","image-keyboard-response","210","861121","0.0-3.0-5.0-1.32","611c2ed2d1d6a90e05ceeb30","D2","batch4","pattern_response","1342.9000000953674","stim/no_25_1_b.png","j","pattern_09","j","true","","","","1342.9000000953674","true","26","","","","","","","","","","","","","","","","",""
"","","","","","html-keyboard-response","211","862443","0.0-3.0-5.0-0.33","611c2ed2d1d6a90e05ceeb30","D2","batch4","pattern_show_trial_num","null","<p class=block-text>Trial 34 out of 78</p>","null","","","","","","","","","","","","","","","","","","","","","","","","","",""
"","","","","","image-keyboard-response","212","863309","0.0-3.0-5.0-1.33","611c2ed2d1d6a90e05ceeb30","D2","batch4","pattern_response","863.5","stim/yes_33_dia_w1_w.png","j","pattern_56","f","false","","","","863.5","false","26","","","","","","","","","","","","","","","","",""
"","","","","","html-keyboard-response","213","864629","0.0-3.0-5.0-0.34","611c2ed2d1d6a90e05ceeb30","D2","batch4","pattern_show_trial_num","null","<p class=block-text>Trial 35 out of 78</p>","null","","","","","","","","","","","","","","","","","","","","","","","","","",""
"","","","","","image-keyboard-response","214","866370","0.0-3.0-5.0-1.34","611c2ed2d1d6a90e05ceeb30","D2","batch4","pattern_response","1739","stim/no_37_2_w.png","j","pattern_19","j","true","","","","1739","true","27","","","","","","","","","","","","","","","","",""
"","","","","","html-keyboard-response","215","867679","0.0-3.0-5.0-0.35","611c2ed2d1d6a90e05ceeb30","D2","batch4","pattern_show_trial_num","null","<p class=block-text>Trial 36 out of 78</p>","null","","","","","","","","","","","","","","","","","","","","","","","","","",""
"","","","","","image-keyboard-response","216","869196","0.0-3.0-5.0-1.35","611c2ed2d1d6a90e05ceeb30","D2","batch4","pattern_response","1514.1999999284744","stim/no_45_1_w.png","j","pattern_25","j","true","","","","1514.1999999284744","true","28","","","","","","","","","","","","","","","","",""
"","","","","","html-keyboard-response","217","870504","0.0-3.0-5.0-0.36","611c2ed2d1d6a90e05ceeb30","D2","batch4","pattern_show_trial_num","null","<p class=block-text>Trial 37 out of 78</p>","null","","","","","","","","","","","","","","","","","","","","","","","","","",""
"","","","","","image-keyboard-response","218","871114","0.0-3.0-5.0-1.36","611c2ed2d1d6a90e05ceeb30","D2","batch4","pattern_response","607.1999999284744","stim/yes_30_ver_b1_b.png","j","pattern_54","f","false","","","","607.1999999284744","false","28","","","","","","","","","","","","","","","","",""
"","","","","","html-keyboard-response","219","872432","0.0-3.0-5.0-0.37","611c2ed2d1d6a90e05ceeb30","D2","batch4","pattern_show_trial_num","null","<p class=block-text>Trial 38 out of 78</p>","null","","","","","","","","","","","","","","","","","","","","","","","","","",""
"","","","","","image-keyboard-response","220","873326","0.0-3.0-5.0-1.37","611c2ed2d1d6a90e05ceeb30","D2","batch4","pattern_response","892","stim/yes_17_ver_b1_b.png","f","pattern_46","f","true","","","","892","true","29","","","","","","","","","","","","","","","","",""
"","","","","","html-keyboard-response","221","874637","0.0-3.0-5.0-0.38","611c2ed2d1d6a90e05ceeb30","D2","batch4","pattern_show_trial_num","null","<p class=block-text>Trial 39 out of 78</p>","null","","","","","","","","","","","","","","","","","","","","","","","","","",""
"","","","","","image-keyboard-response","222","875638","0.0-3.0-5.0-1.38","611c2ed2d1d6a90e05ceeb30","D2","batch4","pattern_response","997.8999999761581","stim/no_12_1.png","j","pattern_01","j","true","","","","997.8999999761581","true","30","","","","","","","","","","","","","","","","",""
"","","","","","image-keyboard-response","223","877298","0.0-3.0-6.0","611c2ed2d1d6a90e05ceeb30","D2","batch4","attention_check","1148.7000000476837","stim/empty_board.png","j","","j","true","","","","","","","500","[""f"",""j""]","","","","","","","","","","","","","","",""
"","","","","","html-keyboard-response","224","878110","0.0-3.0-7.0-0.0","611c2ed2d1d6a90e05ceeb30","D2","batch4","pattern_show_trial_num","null","<p class=block-text>Trial 40 out of 78</p>","null","","","","","","","","","","","","","","","","","","","","","","","","","",""
"","","","","","image-keyboard-response","225","879851","0.0-3.0-7.0-1.0","611c2ed2d1d6a90e05ceeb30","D2","batch4","pattern_response","1737.8999999761581","stim/yes_37_dia_w1.png","j","pattern_59","f","false","","","","1737.8999999761581","false","30","","","","","","","","","","","","","","","","",""
"","","","","","html-keyboard-response","226","881159","0.0-3.0-7.0-0.1","611c2ed2d1d6a90e05ceeb30","D2","batch4","pattern_show_trial_num","null","<p class=block-text>Trial 41 out of 78</p>","null","","","","","","","","","","","","","","","","","","","","","","","","","",""
"","","","","","image-keyboard-response","227","882554","0.0-3.0-7.0-1.1","611c2ed2d1d6a90e05ceeb30","D2","batch4","pattern_response","1391.4000000953674","stim/no_48_1_w.png","j","pattern_28","j","true","","","","1391.4000000953674","true","31","","","","","","","","","","","","","","","","",""
"","","","","","html-keyboard-response","228","883872","0.0-3.0-7.0-0.2","611c2ed2d1d6a90e05ceeb30","D2","batch4","pattern_show_trial_num","null","<p class=block-text>Trial 42 out of 78</p>","null","","","","","","","","","","","","","","","","","","","","","","","","","",""
"","","","","","image-keyboard-response","229","885092","0.0-3.0-7.0-1.2","611c2ed2d1d6a90e05ceeb30","D2","batch4","pattern_response","1218.2999999523163","stim/no_20_1_w.png","j","pattern_06","j","true","","","","1218.2999999523163","true","32","","","","","","","","","","","","","","","","",""
"","","","","","html-keyboard-response","230","886406","0.0-3.0-7.0-0.3","611c2ed2d1d6a90e05ceeb30","D2","batch4","pattern_show_trial_num","null","<p class=block-text>Trial 43 out of 78</p>","null","","","","","","","","","","","","","","","","","","","","","","","","","",""
"","","","","","image-keyboard-response","231","887599","0.0-3.0-7.0-1.3","611c2ed2d1d6a90e05ceeb30","D2","batch4","pattern_response","1190","stim/no_38_1_b.png","j","pattern_20","j","true","","","","1190","true","33","","","","","","","","","","","","","","","","",""
"","","","","","html-keyboard-response","232","888923","0.0-3.0-7.0-0.4","611c2ed2d1d6a90e05ceeb30","D2","batch4","pattern_show_trial_num","null","<p class=block-text>Trial 44 out of 78</p>","null","","","","","","","","","","","","","","","","","","","","","","","","","",""
"","","","","","image-keyboard-response","233","890389","0.0-3.0-7.0-1.4","611c2ed2d1d6a90e05ceeb30","D2","batch4","pattern_response","1462.8000000715256","stim/yes_52_ver_w1.png","f","pattern_73","f","true","","","","1462.8000000715256","true","34","","","","","","","","","","","","","","","","",""
"","","","","","html-keyboard-response","234","891714","0.0-3.0-7.0-0.5","611c2ed2d1d6a90e05ceeb30","D2","batch4","pattern_show_trial_num","null","<p class=block-text>Trial 45 out of 78</p>","null","","","","","","","","","","","","","","","","","","","","","","","","","",""
"","","","","","image-keyboard-response","235","892595","0.0-3.0-7.0-1.5","611c2ed2d1d6a90e05ceeb30","D2","batch4","pattern_response","879.3000000715256","stim/no_50_1.png","f","pattern_30","j","false","","","","879.3000000715256","false","34","","","","","","","","","","","","","","","","",""
"","","","","","html-keyboard-response","236","893911","0.0-3.0-7.0-0.6","611c2ed2d1d6a90e05ceeb30","D2","batch4","pattern_show_trial_num","null","<p class=block-text>Trial 46 out of 78</p>","null","","","","","","","","","","","","","","","","","","","","","","","","","",""
"","","","","","image-keyboard-response","237","895083","0.0-3.0-7.0-1.6","611c2ed2d1d6a90e05ceeb30","D2","batch4","pattern_response","1170.6000000238419","stim/no_42_1_w.png","j","pattern_22","j","true","","","","1170.6000000238419","true","35","","","","","","","","","","","","","","","","",""
"","","","","","html-keyboard-response","238","896394","0.0-3.0-7.0-0.7","611c2ed2d1d6a90e05ceeb30","D2","batch4","pattern_show_trial_num","null","<p class=block-text>Trial 47 out of 78</p>","null","","","","","","","","","","","","","","","","","","","","","","","","","",""
"","","","","","image-keyboard-response","239","897261","0.0-3.0-7.0-1.7","611c2ed2d1d6a90e05ceeb30","D2","batch4","pattern_response","864.7000000476837","stim/no_52_1.png","f","pattern_32","j","false","","","","864.7000000476837","false","35","","","","","","","","","","","","","","","","",""
"","","","","","html-keyboard-response","240","898577","0.0-3.0-7.0-0.8","611c2ed2d1d6a90e05ceeb30","D2","batch4","pattern_show_trial_num","null","<p class=block-text>Trial 48 out of 78</p>","null","","","","","","","","","","","","","","","","","","","","","","","","","",""
"","","","","","image-keyboard-response","241","899680","0.0-3.0-7.0-1.8","611c2ed2d1d6a90e05ceeb30","D2","batch4","pattern_response","1100.7000000476837","stim/yes_14_hor_b1_w.png","f","pattern_43","f","true","","","","1100.7000000476837","true","36","","","","","","","","","","","","","","","","",""
"","","","","","html-keyboard-response","242","901007","0.0-3.0-7.0-0.9","611c2ed2d1d6a90e05ceeb30","D2","batch4","pattern_show_trial_num","null","<p class=block-text>Trial 49 out of 78</p>","null","","","","","","","","","","","","","","","","","","","","","","","","","",""
"","","","","","image-keyboard-response","243","902074","0.0-3.0-7.0-1.9","611c2ed2d1d6a90e05ceeb30","D2","batch4","pattern_response","1063.3000000715256","stim/no_70_2.png","f","pattern_40","j","false","","","","1063.3000000715256","false","36","","","","","","","","","","","","","","","","",""
"","","","","","html-keyboard-response","244","903393","0.0-3.0-7.0-0.10","611c2ed2d1d6a90e05ceeb30","D2","batch4","pattern_show_trial_num","null","<p class=block-text>Trial 50 out of 78</p>","null","","","","","","","","","","","","","","","","","","","","","","","","","",""
"","","","","","image-keyboard-response","245","904151","0.0-3.0-7.0-1.10","611c2ed2d1d6a90e05ceeb30","D2","batch4","pattern_response","755","stim/yes_67_hor_b1.png","f","pattern_79","f","true","","","","755","true","37","","","","","","","","","","","","","","","","",""
"","","","","","html-keyboard-response","246","905479","0.0-3.0-7.0-0.11","611c2ed2d1d6a90e05ceeb30","D2","batch4","pattern_show_trial_num","null","<p class=block-text>Trial 51 out of 78</p>","null","","","","","","","","","","","","","","","","","","","","","","","","","",""
"","","","","","image-keyboard-response","247","906239","0.0-3.0-7.0-1.11","611c2ed2d1d6a90e05ceeb30","D2","batch4","pattern_response","758.1000000238419","stim/no_46_1_b.png","f","pattern_26","j","false","","","","758.1000000238419","false","37","","","","","","","","","","","","","","","","",""
"","","","","","html-keyboard-response","248","907566","0.0-3.0-7.0-0.12","611c2ed2d1d6a90e05ceeb30","D2","batch4","pattern_show_trial_num","null","<p class=block-text>Trial 52 out of 78</p>","null","","","","","","","","","","","","","","","","","","","","","","","","","",""
"","","","","","image-keyboard-response","249","908135","0.0-3.0-7.0-1.12","611c2ed2d1d6a90e05ceeb30","D2","batch4","pattern_response","566.1000000238419","stim/no_55_1_w.png","f","pattern_34","j","false","","","","566.1000000238419","false","37","","","","","","","","","","","","","","","","",""
"","","","","","html-keyboard-response","250","909456","0.0-3.0-7.0-0.13","611c2ed2d1d6a90e05ceeb30","D2","batch4","pattern_show_trial_num","null","<p class=block-text>Trial 53 out of 78</p>","null","","","","","","","","","","","","","","","","","","","","","","","","","",""
"","","","","","image-keyboard-response","251","910052","0.0-3.0-7.0-1.13","611c2ed2d1d6a90e05ceeb30","D2","batch4","pattern_response","592.9000000953674","stim/yes_45_hor_b2_b.png","j","pattern_67","f","false","","","","592.9000000953674","false","37","","","","","","","","","","","","","","","","",""
"","","","","","html-keyboard-response","252","911371","0.0-3.0-7.0-0.14","611c2ed2d1d6a90e05ceeb30","D2","batch4","pattern_show_trial_num","null","<p class=block-text>Trial 54 out of 78</p>","null","","","","","","","","","","","","","","","","","","","","","","","","","",""
"","","","","","image-keyboard-response","253","911953","0.0-3.0-7.0-1.14","611c2ed2d1d6a90e05ceeb30","D2","batch4","pattern_response","579.7000000476837","stim/no_44_1.png","j","pattern_24","j","true","","","","579.7000000476837","true","38","","","","","","","","","","","","","","","","",""
"","","","","","html-keyboard-response","254","913263","0.0-3.0-7.0-0.15","611c2ed2d1d6a90e05ceeb30","D2","batch4","pattern_show_trial_num","null","<p class=block-text>Trial 55 out of 78</p>","null","","","","","","","","","","","","","","","","","","","","","","","","","",""
"","","","","","image-keyboard-response","255","914607","0.0-3.0-7.0-1.15","611c2ed2d1d6a90e05ceeb30","D2","batch4","pattern_response","1340.8999999761581","stim/no_65_1_b.png","f","pattern_38","j","false","","","","1340.8999999761581","false","38","","","","","","","","","","","","","","","","",""
"","","","","","html-keyboard-response","256","915935","0.0-3.0-7.0-0.16","611c2ed2d1d6a90e05ceeb30","D2","batch4","pattern_show_trial_num","null","<p class=block-text>Trial 56 out of 78</p>","null","","","","","","","","","","","","","","","","","","","","","","","","","",""
"","","","","","image-keyboard-response","257","916992","0.0-3.0-7.0-1.16","611c2ed2d1d6a90e05ceeb30","D2","batch4","pattern_response","1054.7000000476837","stim/yes_40_dia_b1_b.png","j","pattern_63","f","false","","","","1054.7000000476837","false","38","","","","","","","","","","","","","","","","",""
"","","","","","html-keyboard-response","258","918318","0.0-3.0-7.0-0.17","611c2ed2d1d6a90e05ceeb30","D2","batch4","pattern_show_trial_num","null","<p class=block-text>Trial 57 out of 78</p>","null","","","","","","","","","","","","","","","","","","","","","","","","","",""
"","","","","","image-keyboard-response","259","919493","0.0-3.0-7.0-1.17","611c2ed2d1d6a90e05ceeb30","D2","batch4","pattern_response","1171.8999999761581","stim/yes_50_dia_w1.png","j","pattern_71","f","false","","","","1171.8999999761581","false","38","","","","","","","","","","","","","","","","",""
"","","","","","html-keyboard-response","260","920813","0.0-3.0-7.0-0.18","611c2ed2d1d6a90e05ceeb30","D2","batch4","pattern_show_trial_num","null","<p class=block-text>Trial 58 out of 78</p>","null","","","","","","","","","","","","","","","","","","","","","","","","","",""
"","","","","","image-keyboard-response","261","921671","0.0-3.0-7.0-1.18","611c2ed2d1d6a90e05ceeb30","D2","batch4","pattern_response","855.5999999046326","stim/yes_60_ver_b1_b.png","f","pattern_77","f","true","","","","855.5999999046326","true","39","","","","","","","","","","","","","","","","",""
"","","","","","html-keyboard-response","262","922992","0.0-3.0-7.0-0.19","611c2ed2d1d6a90e05ceeb30","D2","batch4","pattern_show_trial_num","null","<p class=block-text>Trial 59 out of 78</p>","null","","","","","","","","","","","","","","","","","","","","","","","","","",""
"","","","","","image-keyboard-response","263","924104","0.0-3.0-7.0-1.19","611c2ed2d1d6a90e05ceeb30","D2","batch4","pattern_response","1109.5","stim/no_23_1.png","j","pattern_08","j","true","","","","1109.5","true","40","","","","","","","","","","","","","","","","",""
"","","","","","html-keyboard-response","264","925426","0.0-3.0-7.0-0.20","611c2ed2d1d6a90e05ceeb30","D2","batch4","pattern_show_trial_num","null","<p class=block-text>Trial 60 out of 78</p>","null","","","","","","","","","","","","","","","","","","","","","","","","","",""
"","","","","","image-keyboard-response","265","926420","0.0-3.0-7.0-1.20","611c2ed2d1d6a90e05ceeb30","D2","batch4","pattern_response","991.5999999046326","stim/yes_22_ver_w1.png","f","pattern_47","f","true","","","","991.5999999046326","true","41","","","","","","","","","","","","","","","","",""
"","","","","","html-keyboard-response","266","927737","0.0-3.0-7.0-0.21","611c2ed2d1d6a90e05ceeb30","D2","batch4","pattern_show_trial_num","null","<p class=block-text>Trial 61 out of 78</p>","null","","","","","","","","","","","","","","","","","","","","","","","","","",""
"","","","","","image-keyboard-response","267","928738","0.0-3.0-7.0-1.21","611c2ed2d1d6a90e05ceeb30","D2","batch4","pattern_response","998.8999999761581","stim/no_26_1_w.png","j","pattern_10","j","true","","","","998.8999999761581","true","42","","","","","","","","","","","","","","","","",""
"","","","","","html-keyboard-response","268","930060","0.0-3.0-7.0-0.22","611c2ed2d1d6a90e05ceeb30","D2","batch4","pattern_show_trial_num","null","<p class=block-text>Trial 62 out of 78</p>","null","","","","","","","","","","","","","","","","","","","","","","","","","",""
"","","","","","image-keyboard-response","269","930954","0.0-3.0-7.0-1.22","611c2ed2d1d6a90e05ceeb30","D2","batch4","pattern_response","891","stim/yes_29_ver_w1.png","f","pattern_53","f","true","","","","891","true","43","","","","","","","","","","","","","","","","",""
"","","","","","html-keyboard-response","270","932278","0.0-3.0-7.0-0.23","611c2ed2d1d6a90e05ceeb30","D2","batch4","pattern_show_trial_num","null","<p class=block-text>Trial 63 out of 78</p>","null","","","","","","","","","","","","","","","","","","","","","","","","","",""
"","","","","","image-keyboard-response","271","934101","0.0-3.0-7.0-1.23","611c2ed2d1d6a90e05ceeb30","D2","batch4","pattern_response","1820.6000000238419","stim/no_34_1_b.png","j","pattern_16","j","true","","","","1820.6000000238419","true","44","","","","","","","","","","","","","","","","",""
"","","","","","html-keyboard-response","272","935422","0.0-3.0-7.0-0.24","611c2ed2d1d6a90e05ceeb30","D2","batch4","pattern_show_trial_num","null","<p class=block-text>Trial 64 out of 78</p>","null","","","","","","","","","","","","","","","","","","","","","","","","","",""
"","","","","","image-keyboard-response","273","936550","0.0-3.0-7.0-1.24","611c2ed2d1d6a90e05ceeb30","D2","batch4","pattern_response","1121.6000000238419","stim/no_29_1_b.png","j","pattern_12","j","true","","","","1121.6000000238419","true","45","","","","","","","","","","","","","","","","",""
"","","","","","html-keyboard-response","274","937871","0.0-3.0-7.0-0.25","611c2ed2d1d6a90e05ceeb30","D2","batch4","pattern_show_trial_num","null","<p class=block-text>Trial 65 out of 78</p>","null","","","","","","","","","","","","","","","","","","","","","","","","","",""
"","","","","","image-keyboard-response","275","938682","0.0-3.0-7.0-1.25","611c2ed2d1d6a90e05ceeb30","D2","batch4","pattern_response","797.7999999523163","stim/yes_43_ver_w1_w.png","f","pattern_65","f","true","","","","797.7999999523163","true","46","","","","","","","","","","","","","","","","",""
"","","","","","html-keyboard-response","276","940003","0.0-3.0-7.0-0.26","611c2ed2d1d6a90e05ceeb30","D2","batch4","pattern_show_trial_num","null","<p class=block-text>Trial 66 out of 78</p>","null","","","","","","","","","","","","","","","","","","","","","","","","","",""
"","","","","","image-keyboard-response","277","941071","0.0-3.0-7.0-1.26","611c2ed2d1d6a90e05ceeb30","D2","batch4","pattern_response","1065.1000000238419","stim/no_62_1_w.png","j","pattern_36","j","true","","","","1065.1000000238419","true","47","","","","","","","","","","","","","","","","",""
"","","","","","html-keyboard-response","278","942388","0.0-3.0-7.0-0.27","611c2ed2d1d6a90e05ceeb30","D2","batch4","pattern_show_trial_num","null","<p class=block-text>Trial 67 out of 78</p>","null","","","","","","","","","","","","","","","","","","","","","","","","","",""
"","","","","","image-keyboard-response","279","943262","0.0-3.0-7.0-1.27","611c2ed2d1d6a90e05ceeb30","D2","batch4","pattern_response","871.7999999523163","stim/yes_28_ver_b1.png","f","pattern_51","f","true","","","","871.7999999523163","true","48","","","","","","","","","","","","","","","","",""
"","","","","","html-keyboard-response","280","944584","0.0-3.0-7.0-0.28","611c2ed2d1d6a90e05ceeb30","D2","batch4","pattern_show_trial_num","null","<p class=block-text>Trial 68 out of 78</p>","null","","","","","","","","","","","","","","","","","","","","","","","","","",""
"","","","","","image-keyboard-response","281","945775","0.0-3.0-7.0-1.28","611c2ed2d1d6a90e05ceeb30","D2","batch4","pattern_response","1188.7000000476837","stim/yes_31_hor_b1.png","j","pattern_55","f","false","","","","1188.7000000476837","false","48","","","","","","","","","","","","","","","","",""
"","","","","","html-keyboard-response","282","947097","0.0-3.0-7.0-0.29","611c2ed2d1d6a90e05ceeb30","D2","batch4","pattern_show_trial_num","null","<p class=block-text>Trial 69 out of 78</p>","null","","","","","","","","","","","","","","","","","","","","","","","","","",""
"","","","","","image-keyboard-response","283","947908","0.0-3.0-7.0-1.29","611c2ed2d1d6a90e05ceeb30","D2","batch4","pattern_response","807.2000000476837","stim/no_32_1_w.png","j","pattern_14","j","true","","","","807.2000000476837","true","49","","","","","","","","","","","","","","","","",""
"","","","","","html-keyboard-response","284","949227","0.0-3.0-7.0-0.30","611c2ed2d1d6a90e05ceeb30","D2","batch4","pattern_show_trial_num","null","<p class=block-text>Trial 70 out of 78</p>","null","","","","","","","","","","","","","","","","","","","","","","","","","",""
"","","","","","image-keyboard-response","285","950357","0.0-3.0-7.0-1.30","611c2ed2d1d6a90e05ceeb30","D2","batch4","pattern_response","1127.6000000238419","stim/yes_35_dia_b1.png","f","pattern_57","f","true","","","","1127.6000000238419","true","50","","","","","","","","","","","","","","","","",""
"","","","","","html-keyboard-response","286","951675","0.0-3.0-7.0-0.31","611c2ed2d1d6a90e05ceeb30","D2","batch4","pattern_show_trial_num","null","<p class=block-text>Trial 71 out of 78</p>","null","","","","","","","","","","","","","","","","","","","","","","","","","",""
"","","","","","image-keyboard-response","287","952592","0.0-3.0-7.0-1.31","611c2ed2d1d6a90e05ceeb30","D2","batch4","pattern_response","914.5","stim/no_17_1_w.png","j","pattern_04","j","true","","","","914.5","true","51","","","","","","","","","","","","","","","","",""
"","","","","","html-keyboard-response","288","953907","0.0-3.0-7.0-0.32","611c2ed2d1d6a90e05ceeb30","D2","batch4","pattern_show_trial_num","null","<p class=block-text>Trial 72 out of 78</p>","null","","","","","","","","","","","","","","","","","","","","","","","","","",""
"","","","","","image-keyboard-response","289","954871","0.0-3.0-7.0-1.32","611c2ed2d1d6a90e05ceeb30","D2","batch4","pattern_response","961.1000000238419","stim/no_13_2_b.png","j","pattern_02","j","true","","","","961.1000000238419","true","52","","","","","","","","","","","","","","","","",""
"","","","","","html-keyboard-response","290","956188","0.0-3.0-7.0-0.33","611c2ed2d1d6a90e05ceeb30","D2","batch4","pattern_show_trial_num","null","<p class=block-text>Trial 73 out of 78</p>","null","","","","","","","","","","","","","","","","","","","","","","","","","",""
"","","","","","image-keyboard-response","291","956833","0.0-3.0-7.0-1.33","611c2ed2d1d6a90e05ceeb30","D2","batch4","pattern_response","642.8999999761581","stim/yes_25_hor_b1_b.png","f","pattern_49","f","true","","","","642.8999999761581","true","53","","","","","","","","","","","","","","","","",""
"","","","","","html-keyboard-response","292","958147","0.0-3.0-7.0-0.34","611c2ed2d1d6a90e05ceeb30","D2","batch4","pattern_show_trial_num","null","<p class=block-text>Trial 74 out of 78</p>","null","","","","","","","","","","","","","","","","","","","","","","","","","",""
"","","","","","image-keyboard-response","293","959185","0.0-3.0-7.0-1.34","611c2ed2d1d6a90e05ceeb30","D2","batch4","pattern_response","1035.7999999523163","stim/no_36_2_w.png","j","pattern_18","j","true","","","","1035.7999999523163","true","54","","","","","","","","","","","","","","","","",""
"","","","","","html-keyboard-response","294","960513","0.0-3.0-7.0-0.35","611c2ed2d1d6a90e05ceeb30","D2","batch4","pattern_show_trial_num","null","<p class=block-text>Trial 75 out of 78</p>","null","","","","","","","","","","","","","","","","","","","","","","","","","",""
"","","","","","image-keyboard-response","295","961883","0.0-3.0-7.0-1.35","611c2ed2d1d6a90e05ceeb30","D2","batch4","pattern_response","1367.7999999523163","stim/yes_17_dia_w1.png","j","pattern_45","f","false","","","","1367.7999999523163","false","54","","","","","","","","","","","","","","","","",""
"","","","","","html-keyboard-response","296","963199","0.0-3.0-7.0-0.36","611c2ed2d1d6a90e05ceeb30","D2","batch4","pattern_show_trial_num","null","<p class=block-text>Trial 76 out of 78</p>","null","","","","","","","","","","","","","","","","","","","","","","","","","",""
"","","","","","image-keyboard-response","297","964390","0.0-3.0-7.0-1.36","611c2ed2d1d6a90e05ceeb30","D2","batch4","pattern_response","1187.3000000715256","stim/yes_38_hor_b1_b.png","j","pattern_61","f","false","","","","1187.3000000715256","false","54","","","","","","","","","","","","","","","","",""
"","","","","","html-keyboard-response","298","965703","0.0-3.0-7.0-0.37","611c2ed2d1d6a90e05ceeb30","D2","batch4","pattern_show_trial_num","null","<p class=block-text>Trial 77 out of 78</p>","null","","","","","","","","","","","","","","","","","","","","","","","","","",""
"","","","","","image-keyboard-response","299","967245","0.0-3.0-7.0-1.37","611c2ed2d1d6a90e05ceeb30","D2","batch4","pattern_response","1539.6000000238419","stim/yes_48_dia_w1_w.png","f","pattern_69","f","true","","","","1539.6000000238419","true","55","","","","","","","","","","","","","","","","",""
"","","","","","html-keyboard-response","300","968562","0.0-3.0-7.0-0.38","611c2ed2d1d6a90e05ceeb30","D2","batch4","pattern_show_trial_num","null","<p class=block-text>Trial 78 out of 78</p>","null","","","","","","","","","","","","","","","","","","","","","","","","","",""
"","","","","","image-keyboard-response","301","969827","0.0-3.0-7.0-1.38","611c2ed2d1d6a90e05ceeb30","D2","batch4","pattern_response","1262.3999999761581","stim/yes_55_hor_w1_w.png","j","pattern_75","f","false","","","","1262.3999999761581","false","55","","","","","","","","","","","","","","","","",""
"","","","","","html-button-response","302","975918","0.0-3.0-8.0","611c2ed2d1d6a90e05ceeb30","D2","batch4","","5588.600000023842","<p class = block-text>This concludes the 4-in-a-row detection game.Thank you for your responses!<br>
            You responded correctly on 71% of the trials.<br>
            When you are ready, press ""Continue"" button to continue </p>","0","","","","","","","","","","","","","","","","","","","","","","","","","",""
"true","","","","","fullscreen","303","979644","0.0-4.0-0.0","611c2ed2d1d6a90e05ceeb30","D2","batch4","","","","","","","","","","","","","","","","","","","","","","","","","","","","","",""
"","","","","","instructions","304","1020081","0.0-4.0-1.0-0.0-0.0","611c2ed2d1d6a90e05ceeb30","D2","batch4","tol-instructions","40436.10000002384","","","","","","","","[{""page_index"":0,""viewing_time"":11455.600000023842},{""page_index"":1,""viewing_time"":5950.100000023842},{""page_index"":2,""viewing_time"":5564.199999928474},{""page_index"":3,""viewing_time"":6701.800000071526},{""page_index"":4,""viewing_time"":5146.299999952316},{""page_index"":5,""viewing_time"":3509.899999976158},{""page_index"":6,""viewing_time"":2107.899999976158}]","","","","","","","","","","","","","","","","","","","",""
"","","","","","html-button-response","305","1021235","0.0-4.0-1.0-1.0-0.0","611c2ed2d1d6a90e05ceeb30","D2","batch4","tol_enter_quiz","1153","<p class=block-text> Let's answer a few questions <br>","0","","","","","","","","","","","","","","","","","","","","","","","","","",""
"","","","","","html-button-response","306","1025057","0.0-4.0-1.0-1.0-1.0","611c2ed2d1d6a90e05ceeb30","D2","batch4","tol_quiz","3821.5","<p class = block-text>True or False: You can only move the ball on top of a peg. <br></p>","0","","","true","","","","","","","","","","","","","","","","","","","","","","",""
"","","","","","html-button-response","307","1026559","0.0-4.0-1.0-1.0-2.0","611c2ed2d1d6a90e05ceeb30","D2","batch4","tol_quiz_feedback","1501.1000000238419","<p class = block-text>Correct! You can only move the ball on top of a peg.</p>","0","","","","","","","","","","","","","","","","","","","","","","","","","",""
"","","","","","html-button-response","308","1031169","0.0-4.0-1.0-1.0-3.0","611c2ed2d1d6a90e05ceeb30","D2","batch4","tol_quiz","4608.5","<p class = block-text>True or False: You should try to match your board with the target board with fewest moves possible. <br></p>","0","","","true","","","","","","","","","","","","","","","","","","","","","","",""
"","","","","","html-button-response","309","1032261","0.0-4.0-1.0-1.0-4.0","611c2ed2d1d6a90e05ceeb30","D2","batch4","tol_quiz_feedback","1091.1000000238419","<p class = block-text>Correct! </p>","0","","","","","","","","","","","","","","","","","","","","","","","","","",""
"","","","","","html-button-response","310","1034175","0.0-4.0-2.0","611c2ed2d1d6a90e05ceeb30","D2","batch4","","1913.3999999761581","<p class=block-text> Now that you've understood the game, let's practice a few easier examples before we start!<br> <br>","0","","","","","","","","","","","","","","","","","","","","","","","","","",""
"","","","","","single-stim-button","311","1037732","0.0-4.0-3.0-0.0","611c2ed2d1d6a90e05ceeb30","D2","batch4","tol_practice","3556","","","","","","","","","","","","","","tol_peg_2","3556","3556","0","[[1,2,0],[0,0],[0]]","1","[[1,2,0],[0,0],[3]]","practice","3556","","","","","",""
"","","","","","single-stim-button","312","1038269","0.0-4.0-3.0-1.0","611c2ed2d1d6a90e05ceeb30","D2","batch4","tol_practice","534","","","","","","","","","","","","","","tol_peg_2","534","534","0","[[1,2,0],[3,0],[0]]","1","[[1,2,0],[0,0],[3]]","practice","534","","","","","",""
"","","","","","single-stim-button","313","1042567","0.0-4.0-3.1-0.1","611c2ed2d1d6a90e05ceeb30","D2","batch4","tol_practice","4296","","","","","","","","","","","","","","tol_peg_2","4296","4296","0","[[1,2,0],[0,0],[0]]","2","[[1,2,0],[0,0],[3]]","practice","4296","","","","","",""
"","","","","","single-stim-button","314","1043543","0.0-4.0-3.1-1.1","611c2ed2d1d6a90e05ceeb30","D2","batch4","tol_practice","976","","","","","","","","","","","","","","tol_peg_3","976","976","0","[[1,2,0],[0,0],[3]]","2","[[1,2,0],[0,0],[3]]","practice","976","","","","","",""
"","","","","","poldrack-single-stim","315","1044550","0.0-4.0-4.0","611c2ed2d1d6a90e05ceeb30","D2","batch4","tol_feedback","-1","","","","","true","","","","","","","","","","1000","1000","500","","","","","","-1","none","true","","0",""
"","","","","","single-stim-button","316","1050911","0.0-4.0-5.0-0.0","611c2ed2d1d6a90e05ceeb30","D2","batch4","tol_practice","6361","","","","","","","","","","","","","","tol_peg_1","6361","6361","0","[[1,0,0],[3,0],[0]]","3","[[0,0,0],[3,1],[2]]","practice","6361","","","","","",""
"","","","","","single-stim-button","317","1052337","0.0-4.0-5.0-1.0","611c2ed2d1d6a90e05ceeb30","D2","batch4","tol_practice","1426","","","","","","","","","","","","","","tol_peg_3","1426","1426","0","[[1,0,0],[3,0],[2]]","3","[[0,0,0],[3,1],[2]]","practice","1426","","","","","",""
"","","","","","single-stim-button","318","1053281","0.0-4.0-5.1-0.1","611c2ed2d1d6a90e05ceeb30","D2","batch4","tol_practice","943","","","","","","","","","","","","","","tol_peg_1","943","943","0","[[0,0,0],[3,0],[2]]","4","[[0,0,0],[3,1],[2]]","practice","943","","","","","",""
"","","","","","single-stim-button","319","1056614","0.0-4.0-5.1-1.1","611c2ed2d1d6a90e05ceeb30","D2","batch4","tol_practice","3332","","","","","","","","","","","","","","tol_peg_2","3332","3332","0","[[0,0,0],[3,1],[2]]","4","[[0,0,0],[3,1],[2]]","practice","3332","","","","","",""
"","","","","","poldrack-single-stim","320","1057616","0.0-4.0-6.0","611c2ed2d1d6a90e05ceeb30","D2","batch4","tol_feedback","-1","","","","","true","","","","","","","","","","1000","1000","500","","","","","","-1","none","true","","0",""
"","","","","","single-stim-button","321","1061192","0.0-4.0-7.0-0.0","611c2ed2d1d6a90e05ceeb30","D2","batch4","tol_practice","3575","","","","","","","","","","","","","","tol_peg_2","3575","3575","0","[[1,2,0],[0,0],[0]]","5","[[1,0,0],[2,0],[3]]","practice","3575","","","","","",""
"","","","","","single-stim-button","322","1063066","0.0-4.0-7.0-1.0","611c2ed2d1d6a90e05ceeb30","D2","batch4","tol_practice","1873","","","","","","","","","","","","","","tol_peg_3","1873","1873","0","[[1,2,0],[0,0],[3]]","5","[[1,0,0],[2,0],[3]]","practice","1873","","","","","",""
"","","","","","single-stim-button","323","1064074","0.0-4.0-7.1-0.1","611c2ed2d1d6a90e05ceeb30","D2","batch4","tol_practice","1007","","","","","","","","","","","","","","tol_peg_1","1007","1007","0","[[1,0,0],[0,0],[3]]","6","[[1,0,0],[2,0],[3]]","practice","1007","","","","","",""
"","","","","","single-stim-button","324","1064764","0.0-4.0-7.1-1.1","611c2ed2d1d6a90e05ceeb30","D2","batch4","tol_practice","689","","","","","","","","","","","","","","tol_peg_2","689","689","0","[[1,0,0],[2,0],[3]]","6","[[1,0,0],[2,0],[3]]","practice","689","","","","","",""
"","","","","","poldrack-single-stim","325","1065781","0.0-4.0-8.0","611c2ed2d1d6a90e05ceeb30","D2","batch4","tol_feedback","-1","","","","","true","","","","","","","","","","1000","1000","500","","","","","","-1","none","true","","0",""
"","","","","","html-button-response","326","1067405","0.0-4.0-9.0","611c2ed2d1d6a90e05ceeb30","D2","batch4","tol_instruction","1622.8000000715256","<div class = centerbox><p class = center-block-text>Great job! You are done with practice trials<br>You are about to start official trials.<br> <br> Problem <strong>1</strong> out of 25 problems</p></div>","0","","","","","","","","","","","","","","","","","","","","","","","","","",""
"","","","","","single-stim-button","327","1073092","0.0-4.0-10.0-0.0","611c2ed2d1d6a90e05ceeb30","D2","batch4","tol_tohand","4679","","","","","","","","","","","","","","tol_peg_2","4679","4679","0","[[1,2,0],[0,0],[0]]","1","[[1,3,0],[2,0],[0]]","0","0","","","","","","3"
"","","","","","single-stim-button","328","1074586","0.0-4.0-10.0-1.0","611c2ed2d1d6a90e05ceeb30","D2","batch4","tol_toboard","1492","","","","","","","","","","","","","","tol_peg_3","1492","1492","0","[[1,2,0],[0,0],[3]]","1","[[1,3,0],[2,0],[0]]","0","0","","","","","","3"
"","","","","","single-stim-button","329","1075477","0.0-4.0-10.1-0.1","611c2ed2d1d6a90e05ceeb30","D2","batch4","tol_tohand","891","","","","","","","","","","","","","","tol_peg_1","891","891","0","[[1,0,0],[0,0],[3]]","2","[[1,3,0],[2,0],[0]]","0","0","","","","","","3"
"","","","","","single-stim-button","330","1076291","0.0-4.0-10.1-1.1","611c2ed2d1d6a90e05ceeb30","D2","batch4","tol_toboard","813","","","","","","","","","","","","","","tol_peg_2","813","813","0","[[1,0,0],[2,0],[3]]","2","[[1,3,0],[2,0],[0]]","0","0","","","","","","3"
"","","","","","single-stim-button","331","1077911","0.0-4.0-10.2-0.2","611c2ed2d1d6a90e05ceeb30","D2","batch4","tol_tohand","1620","","","","","","","","","","","","","","tol_peg_3","1620","1620","0","[[1,0,0],[2,0],[0]]","3","[[1,3,0],[2,0],[0]]","0","0","","","","","","3"
"","","","","","single-stim-button","332","1078554","0.0-4.0-10.2-1.2","611c2ed2d1d6a90e05ceeb30","D2","batch4","tol_toboard","643","","","","","","","","","","","","","","tol_peg_1","643","643","0","[[1,3,0],[2,0],[0]]","3","[[1,3,0],[2,0],[0]]","0","0","","","","","","3"
"","","","","","poldrack-single-stim","333","1079563","0.0-4.0-11.0","611c2ed2d1d6a90e05ceeb30","D2","batch4","tol_feedback","-1","","","","","true","","","","","","","","","","1000","1000","500","","","","","","-1","none","true","4679","7190",""
"","","","","","html-button-response","334","1080660","0.0-4.0-12.0","611c2ed2d1d6a90e05ceeb30","D2","batch4","tol_trial_num","1094.8999999761581","<div class = centerbox><p class = center-block-text>problem <strong>2</strong> out of 25 problems</p></div>","0","","","","","","","","","","","","","","","","","","","","","","","","","",""
"","","","","","single-stim-button","335","1083061","0.0-4.0-13.0-0.0","611c2ed2d1d6a90e05ceeb30","D2","batch4","tol_tohand","2401","","","","","","","","","","","","","","tol_peg_2","2401","2401","0","[[1,2,0],[0,0],[0]]","1","[[2,1,3],[0,0],[0]]","1","0","","","","","","5"
"","","","","","single-stim-button","336","1084510","0.0-4.0-13.0-1.0","611c2ed2d1d6a90e05ceeb30","D2","batch4","tol_toboard","1447","","","","","","","","","","","","","","tol_peg_3","1447","1447","0","[[1,2,0],[0,0],[3]]","1","[[2,1,3],[0,0],[0]]","1","0","","","","","","5"
"","","","","","single-stim-button","337","1085587","0.0-4.0-13.1-0.1","611c2ed2d1d6a90e05ceeb30","D2","batch4","tol_tohand","1077","","","","","","","","","","","","","","tol_peg_1","1077","1077","0","[[1,0,0],[0,0],[3]]","2","[[2,1,3],[0,0],[0]]","1","0","","","","","","5"
"","","","","","single-stim-button","338","1086323","0.0-4.0-13.1-1.1","611c2ed2d1d6a90e05ceeb30","D2","batch4","tol_toboard","735","","","","","","","","","","","","","","tol_peg_2","735","735","0","[[1,0,0],[2,0],[3]]","2","[[2,1,3],[0,0],[0]]","1","0","","","","","","5"
"","","","","","single-stim-button","339","1093435","0.0-4.0-13.2-0.2","611c2ed2d1d6a90e05ceeb30","D2","batch4","tol_tohand","7111","","","","","","","","","","","","","","tol_peg_3","7111","7111","0","[[1,0,0],[2,0],[0]]","3","[[2,1,3],[0,0],[0]]","1","0","","","","","","5"
"","","","","","single-stim-button","340","1094404","0.0-4.0-13.2-1.2","611c2ed2d1d6a90e05ceeb30","D2","batch4","tol_toboard","967","","","","","","","","","","","","","","tol_peg_2","967","967","0","[[1,0,0],[2,3],[0]]","3","[[2,1,3],[0,0],[0]]","1","0","","","","","","5"
"","","","","","single-stim-button","341","1094975","0.0-4.0-13.3-0.3","611c2ed2d1d6a90e05ceeb30","D2","batch4","tol_tohand","571","","","","","","","","","","","","","","tol_peg_1","571","571","0","[[0,0,0],[2,3],[0]]","4","[[2,1,3],[0,0],[0]]","1","0","","","","","","5"
"","","","","","single-stim-button","342","1096038","0.0-4.0-13.3-1.3","611c2ed2d1d6a90e05ceeb30","D2","batch4","tol_toboard","1062","","","","","","","","","","","","","","tol_peg_3","1062","1062","0","[[0,0,0],[2,3],[1]]","4","[[2,1,3],[0,0],[0]]","1","0","","","","","","5"
"","","","","","single-stim-button","343","1099561","0.0-4.0-13.4-0.4","611c2ed2d1d6a90e05ceeb30","D2","batch4","tol_tohand","3523","","","","","","","","","","","","","","tol_peg_3","3523","3523","0","[[0,0,0],[2,3],[0]]","5","[[2,1,3],[0,0],[0]]","1","0","","","","","","5"
"","","","","","single-stim-button","344","1101034","0.0-4.0-13.4-1.4","611c2ed2d1d6a90e05ceeb30","D2","batch4","tol_toboard","1471","","","","","","","","","","","","","","tol_peg_1","1471","1471","0","[[1,0,0],[2,3],[0]]","5","[[2,1,3],[0,0],[0]]","1","0","","","","","","5"
"","","","","","single-stim-button","345","1101748","0.0-4.0-13.5-0.5","611c2ed2d1d6a90e05ceeb30","D2","batch4","tol_tohand","714","","","","","","","","","","","","","","tol_peg_2","714","714","0","[[1,0,0],[2,0],[0]]","6","[[2,1,3],[0,0],[0]]","1","0","","","","","","5"
"","","","","","single-stim-button","346","1102840","0.0-4.0-13.5-1.5","611c2ed2d1d6a90e05ceeb30","D2","batch4","tol_toboard","1091","","","","","","","","","","","","","","tol_peg_3","1091","1091","0","[[1,0,0],[2,0],[3]]","6","[[2,1,3],[0,0],[0]]","1","0","","","","","","5"
"","","","","","single-stim-button","347","1109888","0.0-4.0-13.6-0.6","611c2ed2d1d6a90e05ceeb30","D2","batch4","tol_tohand","7047","","","","","","","","","","","","","","tol_peg_3","7047","7047","0","[[1,0,0],[2,0],[0]]","7","[[2,1,3],[0,0],[0]]","1","0","","","","","","5"
