"success","timeout","failed_images","failed_audio","failed_video","trial_type","trial_index","time_elapsed","internal_node_id","subject_id","study_id","session_id","task","rt","stimulus","response","item","answer","correct","spm_correct","spm_rt","view_history","mouse_click","stim_duration","block_duration","timing_post_trial","current_position","tol_num_moves_made","tol_target","tol_problem_id","tol_rt","key_press","possible_responses","tol_correct","preplanning","tol_rt_per_trial","tol_min_moves","fiar_detect_rt","fiar_detect_correct","total_correct_fiar_detect","post_trial_gap","choices"
"true","false","[]","[]","[]","preload","0","2989","0.0-0.0","611d7da2640a2e31818c3e18","F1","batch6","","","","","","","","","","","","","","","","","","","","","","","","","","","","","",""
"true","","","","","fullscreen","1","9800","0.0-1.0-0.0","611d7da2640a2e31818c3e18","F1","batch6","","","","","","","","","","","","","","","","","","","","","","","","","","","","","",""
"true","","","","","fullscreen","2","12755","0.0-2.0-0.0","611d7da2640a2e31818c3e18","F1","batch6","spm_fullscreen","","","","","","","","","","","","","","","","","","","","","","","","","","","","",""
"","","","","","html-button-response","3","22918","0.0-2.0-1.0","611d7da2640a2e31818c3e18","F1","batch6","","10161.300000011921","<p class = block-text><b>Instructions</b> <br>This is a widely used intelligence test in research. <br>In this test, a figure with a missing piece will be presented.<br>Below the figure are alternative pieces to complete the figure, only one of which is correct.<br> Different figures might involve different principles for obtaining the missing piece<br>Your job is to select the most logical piece to complete the figure.</p>","0","","","","","","","","","","","","","","","","","","","","","","","","","",""
"","","","","","html-keyboard-response","4","23730","0.0-2.0-2.0-0.0","611d7da2640a2e31818c3e18","F1","batch6","spm_show_trial_num","null","<p class=block-text>Trial 1 out of 60</p>","null","","","","","","","","","","","","","","","","","","","","","","","","","",""
"","","","","","image-button-response","5","30985","0.0-2.0-2.0-1.0","611d7da2640a2e31818c3e18","F1","batch6","spm_respsonse","7248.900000035763","img/question_1_1.jpeg","3","mat_01","4","1","1","7248.900000035763","","","","","","","","","","","","","","","","","","","","",""
"","","","","","html-keyboard-response","6","32050","0.0-2.0-2.0-0.1","611d7da2640a2e31818c3e18","F1","batch6","spm_show_trial_num","null","<p class=block-text>Trial 2 out of 60</p>","null","","","","","","","","","","","","","","","","","","","","","","","","","",""
"","","","","","image-button-response","7","37325","0.0-2.0-2.0-1.1","611d7da2640a2e31818c3e18","F1","batch6","spm_respsonse","5272.699999988079","img/question_1_2.jpeg","4","mat_02","5","1","1","5272.699999988079","","","","","","","","","","","","","","","","","","","","",""
"","","","","","html-keyboard-response","8","38395","0.0-2.0-2.0-0.2","611d7da2640a2e31818c3e18","F1","batch6","spm_show_trial_num","null","<p class=block-text>Trial 3 out of 60</p>","null","","","","","","","","","","","","","","","","","","","","","","","","","",""
"","","","","","image-button-response","9","41741","0.0-2.0-2.0-1.2","611d7da2640a2e31818c3e18","F1","batch6","spm_respsonse","3343.2000000476837","img/question_1_3.jpeg","0","mat_03","1","1","1","3343.2000000476837","","","","","","","","","","","","","","","","","","","","",""
"","","","","","html-keyboard-response","10","42807","0.0-2.0-2.0-0.3","611d7da2640a2e31818c3e18","F1","batch6","spm_show_trial_num","null","<p class=block-text>Trial 4 out of 60</p>","null","","","","","","","","","","","","","","","","","","","","","","","","","",""
"","","","","","image-button-response","11","45855","0.0-2.0-2.0-1.3","611d7da2640a2e31818c3e18","F1","batch6","spm_respsonse","3045.2999999523163","img/question_1_4.jpeg","1","mat_04","2","1","1","3045.2999999523163","","","","","","","","","","","","","","","","","","","","",""
"","","","","","html-keyboard-response","12","46925","0.0-2.0-2.0-0.4","611d7da2640a2e31818c3e18","F1","batch6","spm_show_trial_num","null","<p class=block-text>Trial 5 out of 60</p>","null","","","","","","","","","","","","","","","","","","","","","","","","","",""
"","","","","","image-button-response","13","50615","0.0-2.0-2.0-1.4","611d7da2640a2e31818c3e18","F1","batch6","spm_respsonse","3688.5","img/question_1_5.jpeg","5","mat_05","6","1","1","3688.5","","","","","","","","","","","","","","","","","","","","",""
"","","","","","html-keyboard-response","14","51684","0.0-2.0-2.0-0.5","611d7da2640a2e31818c3e18","F1","batch6","spm_show_trial_num","null","<p class=block-text>Trial 6 out of 60</p>","null","","","","","","","","","","","","","","","","","","","","","","","","","",""
"","","","","","image-button-response","15","55100","0.0-2.0-2.0-1.5","611d7da2640a2e31818c3e18","F1","batch6","spm_respsonse","3414.5","img/question_1_6.jpeg","2","mat_06","3","1","1","3414.5","","","","","","","","","","","","","","","","","","","","",""
"","","","","","html-keyboard-response","16","56182","0.0-2.0-2.0-0.6","611d7da2640a2e31818c3e18","F1","batch6","spm_show_trial_num","null","<p class=block-text>Trial 7 out of 60</p>","null","","","","","","","","","","","","","","","","","","","","","","","","","",""
"","","","","","image-button-response","17","59747","0.0-2.0-2.0-1.6","611d7da2640a2e31818c3e18","F1","batch6","spm_respsonse","3563.5","img/question_1_7.jpeg","5","mat_07","6","1","1","3563.5","","","","","","","","","","","","","","","","","","","","",""
"","","","","","html-keyboard-response","18","60827","0.0-2.0-2.0-0.7","611d7da2640a2e31818c3e18","F1","batch6","spm_show_trial_num","null","<p class=block-text>Trial 8 out of 60</p>","null","","","","","","","","","","","","","","","","","","","","","","","","","",""
"","","","","","image-button-response","19","66760","0.0-2.0-2.0-1.7","611d7da2640a2e31818c3e18","F1","batch6","spm_respsonse","5931.300000011921","img/question_1_8.jpeg","1","mat_08","2","1","1","5931.300000011921","","","","","","","","","","","","","","","","","","","","",""
"","","","","","html-keyboard-response","20","67838","0.0-2.0-2.0-0.8","611d7da2640a2e31818c3e18","F1","batch6","spm_show_trial_num","null","<p class=block-text>Trial 9 out of 60</p>","null","","","","","","","","","","","","","","","","","","","","","","","","","",""
"","","","","","image-button-response","21","74160","0.0-2.0-2.0-1.8","611d7da2640a2e31818c3e18","F1","batch6","spm_respsonse","6319.599999964237","img/question_1_9.jpeg","0","mat_09","1","1","1","6319.599999964237","","","","","","","","","","","","","","","","","","","","",""
"","","","","","html-keyboard-response","22","75229","0.0-2.0-2.0-0.9","611d7da2640a2e31818c3e18","F1","batch6","spm_show_trial_num","null","<p class=block-text>Trial 10 out of 60</p>","null","","","","","","","","","","","","","","","","","","","","","","","","","",""
"","","","","","image-button-response","23","80776","0.0-2.0-2.0-1.9","611d7da2640a2e31818c3e18","F1","batch6","spm_respsonse","5545.699999988079","img/question_1_10.jpeg","2","mat_10","3","1","1","5545.699999988079","","","","","","","","","","","","","","","","","","","","",""
"","","","","","html-keyboard-response","24","81842","0.0-2.0-2.0-0.10","611d7da2640a2e31818c3e18","F1","batch6","spm_show_trial_num","null","<p class=block-text>Trial 11 out of 60</p>","null","","","","","","","","","","","","","","","","","","","","","","","","","",""
"","","","","","image-button-response","25","97982","0.0-2.0-2.0-1.10","611d7da2640a2e31818c3e18","F1","batch6","spm_respsonse","16137.300000011921","img/question_1_11.jpeg","3","mat_11","4","1","1","16137.300000011921","","","","","","","","","","","","","","","","","","","","",""
"","","","","","html-keyboard-response","26","99049","0.0-2.0-2.0-0.11","611d7da2640a2e31818c3e18","F1","batch6","spm_show_trial_num","null","<p class=block-text>Trial 12 out of 60</p>","null","","","","","","","","","","","","","","","","","","","","","","","","","",""
"","","","","","image-button-response","27","111695","0.0-2.0-2.0-1.11","611d7da2640a2e31818c3e18","F1","batch6","spm_respsonse","12643.099999964237","img/question_1_12.jpeg","4","mat_12","5","1","1","12643.099999964237","","","","","","","","","","","","","","","","","","","","",""
"","","","","","html-keyboard-response","28","112762","0.0-2.0-2.0-0.12","611d7da2640a2e31818c3e18","F1","batch6","spm_show_trial_num","null","<p class=block-text>Trial 13 out of 60</p>","null","","","","","","","","","","","","","","","","","","","","","","","","","",""
"","","","","","image-button-response","29","128824","0.0-2.0-2.0-1.12","611d7da2640a2e31818c3e18","F1","batch6","spm_respsonse","16059.699999988079","img/question_2_1.jpeg","1","mat_13","2","1","1","16059.699999988079","","","","","","","","","","","","","","","","","","","","",""
"","","","","","html-keyboard-response","30","129903","0.0-2.0-2.0-0.13","611d7da2640a2e31818c3e18","F1","batch6","spm_show_trial_num","null","<p class=block-text>Trial 14 out of 60</p>","null","","","","","","","","","","","","","","","","","","","","","","","","","",""
"","","","","","image-button-response","31","142675","0.0-2.0-2.0-1.13","611d7da2640a2e31818c3e18","F1","batch6","spm_respsonse","12768.5","img/question_2_2.jpeg","5","mat_14","6","1","1","12768.5","","","","","","","","","","","","","","","","","","","","",""
"","","","","","html-keyboard-response","32","143742","0.0-2.0-2.0-0.14","611d7da2640a2e31818c3e18","F1","batch6","spm_show_trial_num","null","<p class=block-text>Trial 15 out of 60</p>","null","","","","","","","","","","","","","","","","","","","","","","","","","",""
"","","","","","image-button-response","33","147841","0.0-2.0-2.0-1.14","611d7da2640a2e31818c3e18","F1","batch6","spm_respsonse","4096.200000047684","img/question_2_3.jpeg","0","mat_15","1","1","1","4096.200000047684","","","","","","","","","","","","","","","","","","","","",""
"","","","","","html-keyboard-response","34","148907","0.0-2.0-2.0-0.15","611d7da2640a2e31818c3e18","F1","batch6","spm_show_trial_num","null","<p class=block-text>Trial 16 out of 60</p>","null","","","","","","","","","","","","","","","","","","","","","","","","","",""
"","","","","","image-button-response","35","153826","0.0-2.0-2.0-1.15","611d7da2640a2e31818c3e18","F1","batch6","spm_respsonse","4917.199999988079","img/question_2_4.jpeg","1","mat_16","2","1","1","4917.199999988079","","","","","","","","","","","","","","","","","","","","",""
"","","","","","html-keyboard-response","36","154901","0.0-2.0-2.0-0.16","611d7da2640a2e31818c3e18","F1","batch6","spm_show_trial_num","null","<p class=block-text>Trial 17 out of 60</p>","null","","","","","","","","","","","","","","","","","","","","","","","","","",""
"","","","","","image-button-response","37","160162","0.0-2.0-2.0-1.16","611d7da2640a2e31818c3e18","F1","batch6","spm_respsonse","5258.399999976158","img/question_2_5.jpeg","0","mat_17","1","1","1","5258.399999976158","","","","","","","","","","","","","","","","","","","","",""
"","","","","","html-keyboard-response","38","161229","0.0-2.0-2.0-0.17","611d7da2640a2e31818c3e18","F1","batch6","spm_show_trial_num","null","<p class=block-text>Trial 18 out of 60</p>","null","","","","","","","","","","","","","","","","","","","","","","","","","",""
"","","","","","image-button-response","39","164969","0.0-2.0-2.0-1.17","611d7da2640a2e31818c3e18","F1","batch6","spm_respsonse","3737.899999976158","img/question_2_6.jpeg","2","mat_18","3","1","1","3737.899999976158","","","","","","","","","","","","","","","","","","","","",""
"","","","","","html-keyboard-response","40","166035","0.0-2.0-2.0-0.18","611d7da2640a2e31818c3e18","F1","batch6","spm_show_trial_num","null","<p class=block-text>Trial 19 out of 60</p>","null","","","","","","","","","","","","","","","","","","","","","","","","","",""
"","","","","","image-button-response","41","179149","0.0-2.0-2.0-1.18","611d7da2640a2e31818c3e18","F1","batch6","spm_respsonse","13110.400000035763","img/question_2_7.jpeg","4","mat_19","5","1","1","13110.400000035763","","","","","","","","","","","","","","","","","","","","",""
"","","","","","html-keyboard-response","42","180219","0.0-2.0-2.0-0.19","611d7da2640a2e31818c3e18","F1","batch6","spm_show_trial_num","null","<p class=block-text>Trial 20 out of 60</p>","null","","","","","","","","","","","","","","","","","","","","","","","","","",""
"","","","","","image-button-response","43","186186","0.0-2.0-2.0-1.19","611d7da2640a2e31818c3e18","F1","batch6","spm_respsonse","5964.299999952316","img/question_2_8.jpeg","5","mat_20","6","1","1","5964.299999952316","","","","","","","","","","","","","","","","","","","","",""
"","","","","","html-keyboard-response","44","187244","0.0-2.0-2.0-0.20","611d7da2640a2e31818c3e18","F1","batch6","spm_show_trial_num","null","<p class=block-text>Trial 21 out of 60</p>","null","","","","","","","","","","","","","","","","","","","","","","","","","",""
"","","","","","image-button-response","45","190473","0.0-2.0-2.0-1.20","611d7da2640a2e31818c3e18","F1","batch6","spm_respsonse","3226.199999988079","img/question_2_9.jpeg","3","mat_21","4","1","1","3226.199999988079","","","","","","","","","","","","","","","","","","","","",""
"","","","","","html-keyboard-response","46","191530","0.0-2.0-2.0-0.21","611d7da2640a2e31818c3e18","F1","batch6","spm_show_trial_num","null","<p class=block-text>Trial 22 out of 60</p>","null","","","","","","","","","","","","","","","","","","","","","","","","","",""
"","","","","","image-button-response","47","195762","0.0-2.0-2.0-1.21","611d7da2640a2e31818c3e18","F1","batch6","spm_respsonse","4229.699999988079","img/question_2_10.jpeg","2","mat_22","3","1","1","4229.699999988079","","","","","","","","","","","","","","","","","","","","",""
"","","","","","html-keyboard-response","48","196822","0.0-2.0-2.0-0.22","611d7da2640a2e31818c3e18","F1","batch6","spm_show_trial_num","null","<p class=block-text>Trial 23 out of 60</p>","null","","","","","","","","","","","","","","","","","","","","","","","","","",""
"","","","","","image-button-response","49","203233","0.0-2.0-2.0-1.22","611d7da2640a2e31818c3e18","F1","batch6","spm_respsonse","6408.300000011921","img/question_2_11.jpeg","3","mat_23","4","1","1","6408.300000011921","","","","","","","","","","","","","","","","","","","","",""
"","","","","","html-keyboard-response","50","204295","0.0-2.0-2.0-0.23","611d7da2640a2e31818c3e18","F1","batch6","spm_show_trial_num","null","<p class=block-text>Trial 24 out of 60</p>","null","","","","","","","","","","","","","","","","","","","","","","","","","",""
"","","","","","image-button-response","51","211528","0.0-2.0-2.0-1.23","611d7da2640a2e31818c3e18","F1","batch6","spm_respsonse","7230.300000011921","img/question_2_12.jpeg","4","mat_24","5","1","1","7230.300000011921","","","","","","","","","","","","","","","","","","","","",""
"","","","","","html-button-response","52","213898","0.0-2.0-3.0","611d7da2640a2e31818c3e18","F1","batch6","attention_check","2108.099999964237","<p class = block-text>Attention check: Please choose 1<br></p>","0","","","true","","","","","","","","","","","","","","","","","","","","","","",""
"","","","","","html-keyboard-response","53","214703","0.0-2.0-4.0-0.0","611d7da2640a2e31818c3e18","F1","batch6","spm_show_trial_num","null","<p class=block-text>Trial 25 out of 60</p>","null","","","","","","","","","","","","","","","","","","","","","","","","","",""
"","","","","","image-button-response","54","221355","0.0-2.0-4.0-1.0","611d7da2640a2e31818c3e18","F1","batch6","spm_respsonse","6649.700000047684","img/question_3_1.jpeg","7","mat_25","8","1","1","6649.700000047684","","","","","","","","","","","","","","","","","","","","",""
"","","","","","html-keyboard-response","55","222428","0.0-2.0-4.0-0.1","611d7da2640a2e31818c3e18","F1","batch6","spm_show_trial_num","null","<p class=block-text>Trial 26 out of 60</p>","null","","","","","","","","","","","","","","","","","","","","","","","","","",""
"","","","","","image-button-response","56","240272","0.0-2.0-4.0-1.1","611d7da2640a2e31818c3e18","F1","batch6","spm_respsonse","17841.099999964237","img/question_3_2.jpeg","1","mat_26","2","1","1","17841.099999964237","","","","","","","","","","","","","","","","","","","","",""
"","","","","","html-keyboard-response","57","241335","0.0-2.0-4.0-0.2","611d7da2640a2e31818c3e18","F1","batch6","spm_show_trial_num","null","<p class=block-text>Trial 27 out of 60</p>","null","","","","","","","","","","","","","","","","","","","","","","","","","",""
"","","","","","image-button-response","58","249854","0.0-2.0-4.0-1.2","611d7da2640a2e31818c3e18","F1","batch6","spm_respsonse","8516","img/question_3_3.jpeg","2","mat_27","3","1","1","8516","","","","","","","","","","","","","","","","","","","","",""
"","","","","","html-keyboard-response","59","250912","0.0-2.0-4.0-0.3","611d7da2640a2e31818c3e18","F1","batch6","spm_show_trial_num","null","<p class=block-text>Trial 28 out of 60</p>","null","","","","","","","","","","","","","","","","","","","","","","","","","",""
"","","","","","image-button-response","60","257355","0.0-2.0-4.0-1.3","611d7da2640a2e31818c3e18","F1","batch6","spm_respsonse","6439.599999964237","img/question_3_4.jpeg","7","mat_28","8","1","1","6439.599999964237","","","","","","","","","","","","","","","","","","","","",""
"","","","","","html-keyboard-response","61","258427","0.0-2.0-4.0-0.4","611d7da2640a2e31818c3e18","F1","batch6","spm_show_trial_num","null","<p class=block-text>Trial 29 out of 60</p>","null","","","","","","","","","","","","","","","","","","","","","","","","","",""
"","","","","","image-button-response","62","269674","0.0-2.0-4.0-1.4","611d7da2640a2e31818c3e18","F1","batch6","spm_respsonse","11244.5","img/question_3_5.jpeg","6","mat_29","7","1","1","11244.5","","","","","","","","","","","","","","","","","","","","",""
"","","","","","html-keyboard-response","63","270752","0.0-2.0-4.0-0.5","611d7da2640a2e31818c3e18","F1","batch6","spm_show_trial_num","null","<p class=block-text>Trial 30 out of 60</p>","null","","","","","","","","","","","","","","","","","","","","","","","","","",""
"","","","","","image-button-response","64","279443","0.0-2.0-4.0-1.5","611d7da2640a2e31818c3e18","F1","batch6","spm_respsonse","8688","img/question_3_6.jpeg","3","mat_30","4","1","1","8688","","","","","","","","","","","","","","","","","","","","",""
"","","","","","html-keyboard-response","65","280517","0.0-2.0-4.0-0.6","611d7da2640a2e31818c3e18","F1","batch6","spm_show_trial_num","null","<p class=block-text>Trial 31 out of 60</p>","null","","","","","","","","","","","","","","","","","","","","","","","","","",""
"","","","","","image-button-response","66","286788","0.0-2.0-4.0-1.6","611d7da2640a2e31818c3e18","F1","batch6","spm_respsonse","6268.800000011921","img/question_3_7.jpeg","4","mat_31","5","1","1","6268.800000011921","","","","","","","","","","","","","","","","","","","","",""
"","","","","","html-keyboard-response","67","287857","0.0-2.0-4.0-0.7","611d7da2640a2e31818c3e18","F1","batch6","spm_show_trial_num","null","<p class=block-text>Trial 32 out of 60</p>","null","","","","","","","","","","","","","","","","","","","","","","","","","",""
"","","","","","image-button-response","68","300783","0.0-2.0-4.0-1.7","611d7da2640a2e31818c3e18","F1","batch6","spm_respsonse","12923.399999976158","img/question_3_8.jpeg","0","mat_32","1","1","1","12923.399999976158","","","","","","","","","","","","","","","","","","","","",""
"","","","","","html-keyboard-response","69","301862","0.0-2.0-4.0-0.8","611d7da2640a2e31818c3e18","F1","batch6","spm_show_trial_num","null","<p class=block-text>Trial 33 out of 60</p>","null","","","","","","","","","","","","","","","","","","","","","","","","","",""
"","","","","","image-button-response","70","314235","0.0-2.0-4.0-1.8","611d7da2640a2e31818c3e18","F1","batch6","spm_respsonse","12370.699999988079","img/question_3_9.jpeg","6","mat_33","7","1","1","12370.699999988079","","","","","","","","","","","","","","","","","","","","",""
"","","","","","html-keyboard-response","71","315302","0.0-2.0-4.0-0.9","611d7da2640a2e31818c3e18","F1","batch6","spm_show_trial_num","null","<p class=block-text>Trial 34 out of 60</p>","null","","","","","","","","","","","","","","","","","","","","","","","","","",""
"","","","","","image-button-response","72","328272","0.0-2.0-4.0-1.9","611d7da2640a2e31818c3e18","F1","batch6","spm_respsonse","12967.800000011921","img/question_3_10.jpeg","5","mat_34","6","1","1","12967.800000011921","","","","","","","","","","","","","","","","","","","","",""
"","","","","","html-keyboard-response","73","329332","0.0-2.0-4.0-0.10","611d7da2640a2e31818c3e18","F1","batch6","spm_show_trial_num","null","<p class=block-text>Trial 35 out of 60</p>","null","","","","","","","","","","","","","","","","","","","","","","","","","",""
"","","","","","image-button-response","74","342018","0.0-2.0-4.0-1.10","611d7da2640a2e31818c3e18","F1","batch6","spm_respsonse","12682.5","img/question_3_11.jpeg","0","mat_35","1","1","1","12682.5","","","","","","","","","","","","","","","","","","","","",""
"","","","","","html-keyboard-response","75","343083","0.0-2.0-4.0-0.11","611d7da2640a2e31818c3e18","F1","batch6","spm_show_trial_num","null","<p class=block-text>Trial 36 out of 60</p>","null","","","","","","","","","","","","","","","","","","","","","","","","","",""
"","","","","","image-button-response","76","354302","0.0-2.0-4.0-1.11","611d7da2640a2e31818c3e18","F1","batch6","spm_respsonse","11217.300000011921","img/question_3_12.jpeg","1","mat_36","2","1","1","11217.300000011921","","","","","","","","","","","","","","","","","","","","",""
"","","","","","html-keyboard-response","77","355360","0.0-2.0-4.0-0.12","611d7da2640a2e31818c3e18","F1","batch6","spm_show_trial_num","null","<p class=block-text>Trial 37 out of 60</p>","null","","","","","","","","","","","","","","","","","","","","","","","","","",""
"","","","","","image-button-response","78","358689","0.0-2.0-4.0-1.12","611d7da2640a2e31818c3e18","F1","batch6","spm_respsonse","3325.600000023842","img/question_4_1.jpeg","2","mat_37","3","1","1","3325.600000023842","","","","","","","","","","","","","","","","","","","","",""
"","","","","","html-keyboard-response","79","359758","0.0-2.0-4.0-0.13","611d7da2640a2e31818c3e18","F1","batch6","spm_show_trial_num","null","<p class=block-text>Trial 38 out of 60</p>","null","","","","","","","","","","","","","","","","","","","","","","","","","",""
"","","","","","image-button-response","80","371758","0.0-2.0-4.0-1.13","611d7da2640a2e31818c3e18","F1","batch6","spm_respsonse","11996.699999988079","img/question_4_2.jpeg","3","mat_38","4","1","1","11996.699999988079","","","","","","","","","","","","","","","","","","","","",""
"","","","","","html-keyboard-response","81","372827","0.0-2.0-4.0-0.14","611d7da2640a2e31818c3e18","F1","batch6","spm_show_trial_num","null","<p class=block-text>Trial 39 out of 60</p>","null","","","","","","","","","","","","","","","","","","","","","","","","","",""
"","","","","","image-button-response","82","383231","0.0-2.0-4.0-1.14","611d7da2640a2e31818c3e18","F1","batch6","spm_respsonse","10402.199999988079","img/question_4_3.jpeg","2","mat_39","3","1","1","10402.199999988079","","","","","","","","","","","","","","","","","","","","",""
"","","","","","html-keyboard-response","83","384303","0.0-2.0-4.0-0.15","611d7da2640a2e31818c3e18","F1","batch6","spm_show_trial_num","null","<p class=block-text>Trial 40 out of 60</p>","null","","","","","","","","","","","","","","","","","","","","","","","","","",""
"","","","","","image-button-response","84","390378","0.0-2.0-4.0-1.15","611d7da2640a2e31818c3e18","F1","batch6","spm_respsonse","6072.5","img/question_4_4.jpeg","6","mat_40","7","1","1","6072.5","","","","","","","","","","","","","","","","","","","","",""
"","","","","","html-keyboard-response","85","391455","0.0-2.0-4.0-0.16","611d7da2640a2e31818c3e18","F1","batch6","spm_show_trial_num","null","<p class=block-text>Trial 41 out of 60</p>","null","","","","","","","","","","","","","","","","","","","","","","","","","",""
"","","","","","image-button-response","86","403349","0.0-2.0-4.0-1.16","611d7da2640a2e31818c3e18","F1","batch6","spm_respsonse","11890.600000023842","img/question_4_5.jpeg","7","mat_41","8","1","1","11890.600000023842","","","","","","","","","","","","","","","","","","","","",""
"","","","","","html-keyboard-response","87","404420","0.0-2.0-4.0-0.17","611d7da2640a2e31818c3e18","F1","batch6","spm_show_trial_num","null","<p class=block-text>Trial 42 out of 60</p>","null","","","","","","","","","","","","","","","","","","","","","","","","","",""
"","","","","","image-button-response","88","415957","0.0-2.0-4.0-1.17","611d7da2640a2e31818c3e18","F1","batch6","spm_respsonse","11534.299999952316","img/question_4_6.jpeg","5","mat_42","6","1","1","11534.299999952316","","","","","","","","","","","","","","","","","","","","",""
"","","","","","html-keyboard-response","89","417034","0.0-2.0-4.0-0.18","611d7da2640a2e31818c3e18","F1","batch6","spm_show_trial_num","null","<p class=block-text>Trial 43 out of 60</p>","null","","","","","","","","","","","","","","","","","","","","","","","","","",""
"","","","","","image-button-response","90","430359","0.0-2.0-4.0-1.18","611d7da2640a2e31818c3e18","F1","batch6","spm_respsonse","13321.900000035763","img/question_4_7.jpeg","4","mat_43","5","1","1","13321.900000035763","","","","","","","","","","","","","","","","","","","","",""
"","","","","","html-keyboard-response","91","431426","0.0-2.0-4.0-0.19","611d7da2640a2e31818c3e18","F1","batch6","spm_show_trial_num","null","<p class=block-text>Trial 44 out of 60</p>","null","","","","","","","","","","","","","","","","","","","","","","","","","",""
"","","","","","image-button-response","92","455671","0.0-2.0-4.0-1.19","611d7da2640a2e31818c3e18","F1","batch6","spm_respsonse","24242.5","img/question_4_8.jpeg","3","mat_44","4","1","1","24242.5","","","","","","","","","","","","","","","","","","","","",""
"","","","","","html-keyboard-response","93","456735","0.0-2.0-4.0-0.20","611d7da2640a2e31818c3e18","F1","batch6","spm_show_trial_num","null","<p class=block-text>Trial 45 out of 60</p>","null","","","","","","","","","","","","","","","","","","","","","","","","","",""
"","","","","","image-button-response","94","498025","0.0-2.0-4.0-1.20","611d7da2640a2e31818c3e18","F1","batch6","spm_respsonse","41287.30000001192","img/question_4_9.jpeg","0","mat_45","1","1","1","41287.30000001192","","","","","","","","","","","","","","","","","","","","",""
"","","","","","html-keyboard-response","95","499097","0.0-2.0-4.0-0.21","611d7da2640a2e31818c3e18","F1","batch6","spm_show_trial_num","null","<p class=block-text>Trial 46 out of 60</p>","null","","","","","","","","","","","","","","","","","","","","","","","","","",""
"","","","","","image-button-response","96","562650","0.0-2.0-4.0-1.21","611d7da2640a2e31818c3e18","F1","batch6","spm_respsonse","63550.39999997616","img/question_4_10.jpeg","1","mat_46","2","1","1","63550.39999997616","","","","","","","","","","","","","","","","","","","","",""
"","","","","","html-keyboard-response","97","563713","0.0-2.0-4.0-0.22","611d7da2640a2e31818c3e18","F1","batch6","spm_show_trial_num","null","<p class=block-text>Trial 47 out of 60</p>","null","","","","","","","","","","","","","","","","","","","","","","","","","",""
"","","","","","image-button-response","98","628174","0.0-2.0-4.0-1.22","611d7da2640a2e31818c3e18","F1","batch6","spm_respsonse","64458.89999997616","img/question_4_11.jpeg","4","mat_47","5","1","1","64458.89999997616","","","","","","","","","","","","","","","","","","","","",""
"","","","","","html-keyboard-response","99","629235","0.0-2.0-4.0-0.23","611d7da2640a2e31818c3e18","F1","batch6","spm_show_trial_num","null","<p class=block-text>Trial 48 out of 60</p>","null","","","","","","","","","","","","","","","","","","","","","","","","","",""
"","","","","","image-button-response","100","722007","0.0-2.0-4.0-1.23","611d7da2640a2e31818c3e18","F1","batch6","spm_respsonse","92769.69999998808","img/question_4_12.jpeg","5","mat_48","6","1","1","92769.69999998808","","","","","","","","","","","","","","","","","","","","",""
"","","","","","html-keyboard-response","101","723085","0.0-2.0-4.0-0.24","611d7da2640a2e31818c3e18","F1","batch6","spm_show_trial_num","null","<p class=block-text>Trial 49 out of 60</p>","null","","","","","","","","","","","","","","","","","","","","","","","","","",""
"","","","","","image-button-response","102","731476","0.0-2.0-4.0-1.24","611d7da2640a2e31818c3e18","F1","batch6","spm_respsonse","8388.599999964237","img/question_5_1.jpeg","6","mat_49","7","1","1","8388.599999964237","","","","","","","","","","","","","","","","","","","","",""
"","","","","","html-keyboard-response","103","732536","0.0-2.0-4.0-0.25","611d7da2640a2e31818c3e18","F1","batch6","spm_show_trial_num","null","<p class=block-text>Trial 50 out of 60</p>","null","","","","","","","","","","","","","","","","","","","","","","","","","",""
"","","","","","image-button-response","104","747142","0.0-2.0-4.0-1.25","611d7da2640a2e31818c3e18","F1","batch6","spm_respsonse","14603.699999988079","img/question_5_2.jpeg","5","mat_50","6","1","1","14603.699999988079","","","","","","","","","","","","","","","","","","","","",""
"","","","","","html-keyboard-response","105","748199","0.0-2.0-4.0-0.26","611d7da2640a2e31818c3e18","F1","batch6","spm_show_trial_num","null","<p class=block-text>Trial 51 out of 60</p>","null","","","","","","","","","","","","","","","","","","","","","","","","","",""
"","","","","","image-button-response","106","759216","0.0-2.0-4.0-1.26","611d7da2640a2e31818c3e18","F1","batch6","spm_respsonse","11014.399999976158","img/question_5_3.jpeg","7","mat_51","8","1","1","11014.399999976158","","","","","","","","","","","","","","","","","","","","",""
"","","","","","html-keyboard-response","107","760278","0.0-2.0-4.0-0.27","611d7da2640a2e31818c3e18","F1","batch6","spm_show_trial_num","null","<p class=block-text>Trial 52 out of 60</p>","null","","","","","","","","","","","","","","","","","","","","","","","","","",""
"","","","","","image-button-response","108","769836","0.0-2.0-4.0-1.27","611d7da2640a2e31818c3e18","F1","batch6","spm_respsonse","9555.300000011921","img/question_5_4.jpeg","1","mat_52","2","1","1","9555.300000011921","","","","","","","","","","","","","","","","","","","","",""
"","","","","","html-keyboard-response","109","770897","0.0-2.0-4.0-0.28","611d7da2640a2e31818c3e18","F1","batch6","spm_show_trial_num","null","<p class=block-text>Trial 53 out of 60</p>","null","","","","","","","","","","","","","","","","","","","","","","","","","",""
"","","","","","image-button-response","110","783649","0.0-2.0-4.0-1.28","611d7da2640a2e31818c3e18","F1","batch6","spm_respsonse","12749.900000035763","img/question_5_5.jpeg","0","mat_53","1","1","1","12749.900000035763","","","","","","","","","","","","","","","","","","","","",""
"","","","","","html-keyboard-response","111","784716","0.0-2.0-4.0-0.29","611d7da2640a2e31818c3e18","F1","batch6","spm_show_trial_num","null","<p class=block-text>Trial 54 out of 60</p>","null","","","","","","","","","","","","","","","","","","","","","","","","","",""
"","","","","","image-button-response","112","800811","0.0-2.0-4.0-1.29","611d7da2640a2e31818c3e18","F1","batch6","spm_respsonse","16092.099999964237","img/question_5_6.jpeg","4","mat_54","5","1","1","16092.099999964237","","","","","","","","","","","","","","","","","","","","",""
"","","","","","html-keyboard-response","113","801882","0.0-2.0-4.0-0.30","611d7da2640a2e31818c3e18","F1","batch6","spm_show_trial_num","null","<p class=block-text>Trial 55 out of 60</p>","null","","","","","","","","","","","","","","","","","","","","","","","","","",""
"","","","","","image-button-response","114","855588","0.0-2.0-4.0-1.30","611d7da2640a2e31818c3e18","F1","batch6","spm_respsonse","53703.39999997616","img/question_5_7.jpeg","0","mat_55","1","1","1","53703.39999997616","","","","","","","","","","","","","","","","","","","","",""
"","","","","","html-keyboard-response","115","856643","0.0-2.0-4.0-0.31","611d7da2640a2e31818c3e18","F1","batch6","spm_show_trial_num","null","<p class=block-text>Trial 56 out of 60</p>","null","","","","","","","","","","","","","","","","","","","","","","","","","",""
"","","","","","image-button-response","116","873679","0.0-2.0-4.0-1.31","611d7da2640a2e31818c3e18","F1","batch6","spm_respsonse","17032.69999998808","img/question_5_8.jpeg","5","mat_56","6","1","1","17032.69999998808","","","","","","","","","","","","","","","","","","","","",""
"","","","","","html-keyboard-response","117","874762","0.0-2.0-4.0-0.32","611d7da2640a2e31818c3e18","F1","batch6","spm_show_trial_num","null","<p class=block-text>Trial 57 out of 60</p>","null","","","","","","","","","","","","","","","","","","","","","","","","","",""
"","","","","","image-button-response","118","918410","0.0-2.0-4.0-1.32","611d7da2640a2e31818c3e18","F1","batch6","spm_respsonse","43644.10000002384","img/question_5_9.jpeg","2","mat_57","3","1","1","43644.10000002384","","","","","","","","","","","","","","","","","","","","",""
"","","","","","html-keyboard-response","119","919489","0.0-2.0-4.0-0.33","611d7da2640a2e31818c3e18","F1","batch6","spm_show_trial_num","null","<p class=block-text>Trial 58 out of 60</p>","null","","","","","","","","","","","","","","","","","","","","","","","","","",""
"","","","","","image-button-response","120","1037321","0.0-2.0-4.0-1.33","611d7da2640a2e31818c3e18","F1","batch6","spm_respsonse","117828.89999997616","img/question_5_10.jpeg","1","mat_58","2","1","1","117828.89999997616","","","","","","","","","","","","","","","","","","","","",""
"","","","","","html-keyboard-response","121","1038391","0.0-2.0-4.0-0.34","611d7da2640a2e31818c3e18","F1","batch6","spm_show_trial_num","null","<p class=block-text>Trial 59 out of 60</p>","null","","","","","","","","","","","","","","","","","","","","","","","","","",""
"","","","","","image-button-response","122","1094666","0.0-2.0-4.0-1.34","611d7da2640a2e31818c3e18","F1","batch6","spm_respsonse","56271.89999997616","img/question_5_11.jpeg","3","mat_59","4","1","1","56271.89999997616","","","","","","","","","","","","","","","","","","","","",""
"","","","","","html-keyboard-response","123","1095728","0.0-2.0-4.0-0.35","611d7da2640a2e31818c3e18","F1","batch6","spm_show_trial_num","null","<p class=block-text>Trial 60 out of 60</p>","null","","","","","","","","","","","","","","","","","","","","","","","","","",""
"","","","","","image-button-response","124","1133410","0.0-2.0-4.0-1.35","611d7da2640a2e31818c3e18","F1","batch6","spm_respsonse","37678.80000001192","img/question_5_12.jpeg","4","mat_60","5","1","1","37678.80000001192","","","","","","","","","","","","","","","","","","","","",""
"","","","","","html-button-response","125","1134971","0.0-2.0-5.0","611d7da2640a2e31818c3e18","F1","batch6","spm_goodbye","1304.300000011921","<p class= block-text>This concludes the Standard Progressive Matrix game. Thank you for your responses!<br> When you are ready, click the button continue</p>","0","","","","","","","","","","","","","","","","","","","","","","","","","",""
"true","","","","","fullscreen","126","1137046","0.0-3.0-0.0","611d7da2640a2e31818c3e18","F1","batch6","","","","","","","","","","","","","","","","","","","","","","","","","","","","","",""
"","","","","","instructions","127","1169723","0.0-3.0-1.0-0.0-0.0","611d7da2640a2e31818c3e18","F1","batch6","tol-instructions","32676.69999998808","","","","","","","","[{""page_index"":0,""viewing_time"":3672.099999964237},{""page_index"":1,""viewing_time"":8267},{""page_index"":2,""viewing_time"":1952.7000000476837},{""page_index"":3,""viewing_time"":4313.399999976158},{""page_index"":4,""viewing_time"":4904.100000023842},{""page_index"":5,""viewing_time"":8172.299999952316},{""page_index"":6,""viewing_time"":1394.6000000238419}]","","","","","","","","","","","","","","","","","","","",""
"","","","","","html-button-response","128","1170735","0.0-3.0-1.0-1.0-0.0","611d7da2640a2e31818c3e18","F1","batch6","tol_enter_quiz","1010.6000000238419","<p class=block-text> Let's answer a few questions <br>","0","","","","","","","","","","","","","","","","","","","","","","","","","",""
"","","","","","html-button-response","129","1173502","0.0-3.0-1.0-1.0-1.0","611d7da2640a2e31818c3e18","F1","batch6","tol_quiz","2766.400000035763","<p class = block-text>True or False: You can only move the ball on top of a peg. <br></p>","0","","","true","","","","","","","","","","","","","","","","","","","","","","",""
"","","","","","html-button-response","130","1174728","0.0-3.0-1.0-1.0-2.0","611d7da2640a2e31818c3e18","F1","batch6","tol_quiz_feedback","1223.5","<p class = block-text>Correct! You can only move the ball on top of a peg.</p>","0","","","","","","","","","","","","","","","","","","","","","","","","","",""
"","","","","","html-button-response","131","1179033","0.0-3.0-1.0-1.0-3.0","611d7da2640a2e31818c3e18","F1","batch6","tol_quiz","4304.400000035763","<p class = block-text>True or False: You should try to match your board with the target board with fewest moves possible. <br></p>","0","","","true","","","","","","","","","","","","","","","","","","","","","","",""
"","","","","","html-button-response","132","1179866","0.0-3.0-1.0-1.0-4.0","611d7da2640a2e31818c3e18","F1","batch6","tol_quiz_feedback","831.7999999523163","<p class = block-text>Correct! </p>","0","","","","","","","","","","","","","","","","","","","","","","","","","",""
"","","","","","html-button-response","133","1181563","0.0-3.0-2.0","611d7da2640a2e31818c3e18","F1","batch6","","1694","<p class=block-text> Now that you've understood the game, let's practice a few easier examples before we start!<br> <br>","0","","","","","","","","","","","","","","","","","","","","","","","","","",""
"","","","","","single-stim-button","134","1183809","0.0-3.0-3.0-0.0","611d7da2640a2e31818c3e18","F1","batch6","tol_practice","2244","","","","","","","","","tol_peg_2","2244","2244","0","[[1,2,0],[0,0],[0]]","1","[[1,2,0],[0,0],[3]]","practice","2244","","","","","","","","","","",""
"","","","","","single-stim-button","135","1185319","0.0-3.0-3.0-1.0","611d7da2640a2e31818c3e18","F1","batch6","tol_practice","1508","","","","","","","","","tol_peg_3","1508","1508","0","[[1,2,0],[0,0],[3]]","1","[[1,2,0],[0,0],[3]]","practice","1508","","","","","","","","","","",""
"","","","","","poldrack-single-stim","136","1186326","0.0-3.0-4.0","611d7da2640a2e31818c3e18","F1","batch6","tol_feedback","-1","","","","","true","","","","","1000","1000","500","","","","","","-1","none","true","","0","","","","","",""
"","","","","","single-stim-button","137","1190179","0.0-3.0-5.0-0.0","611d7da2640a2e31818c3e18","F1","batch6","tol_practice","3853","","","","","","","","","tol_peg_1","3853","3853","0","[[1,0,0],[3,0],[0]]","2","[[0,0,0],[3,1],[2]]","practice","3853","","","","","","","","","","",""
"","","","","","single-stim-button","138","1191132","0.0-3.0-5.0-1.0","611d7da2640a2e31818c3e18","F1","batch6","tol_practice","952","","","","","","","","","tol_peg_3","952","952","0","[[1,0,0],[3,0],[2]]","2","[[0,0,0],[3,1],[2]]","practice","952","","","","","","","","","","",""
"","","","","","single-stim-button","139","1193018","0.0-3.0-5.1-0.1","611d7da2640a2e31818c3e18","F1","batch6","tol_practice","1885","","","","","","","","","tol_peg_1","1885","1885","0","[[0,0,0],[3,0],[2]]","3","[[0,0,0],[3,1],[2]]","practice","1885","","","","","","","","","","",""
"","","","","","single-stim-button","140","1193944","0.0-3.0-5.1-1.1","611d7da2640a2e31818c3e18","F1","batch6","tol_practice","926","","","","","","","","","tol_peg_2","926","926","0","[[0,0,0],[3,1],[2]]","3","[[0,0,0],[3,1],[2]]","practice","926","","","","","","","","","","",""
"","","","","","poldrack-single-stim","141","1194956","0.0-3.0-6.0","611d7da2640a2e31818c3e18","F1","batch6","tol_feedback","-1","","","","","true","","","","","1000","1000","500","","","","","","-1","none","true","","0","","","","","",""
"","","","","","single-stim-button","142","1198073","0.0-3.0-7.0-0.0","611d7da2640a2e31818c3e18","F1","batch6","tol_practice","3116","","","","","","","","","tol_peg_2","3116","3116","0","[[1,2,0],[0,0],[0]]","4","[[1,0,0],[2,0],[3]]","practice","3116","","","","","","","","","","",""
"","","","","","single-stim-button","143","1199090","0.0-3.0-7.0-1.0","611d7da2640a2e31818c3e18","F1","batch6","tol_practice","1016","","","","","","","","","tol_peg_3","1016","1016","0","[[1,2,0],[0,0],[3]]","4","[[1,0,0],[2,0],[3]]","practice","1016","","","","","","","","","","",""
"","","","","","single-stim-button","144","1200593","0.0-3.0-7.1-0.1","611d7da2640a2e31818c3e18","F1","batch6","tol_practice","1502","","","","","","","","","tol_peg_1","1502","1502","0","[[1,0,0],[0,0],[3]]","5","[[1,0,0],[2,0],[3]]","practice","1502","","","","","","","","","","",""
"","","","","","single-stim-button","145","1201352","0.0-3.0-7.1-1.1","611d7da2640a2e31818c3e18","F1","batch6","tol_practice","757","","","","","","","","","tol_peg_2","757","757","0","[[1,0,0],[2,0],[3]]","5","[[1,0,0],[2,0],[3]]","practice","757","","","","","","","","","","",""
"","","","","","poldrack-single-stim","146","1202353","0.0-3.0-8.0","611d7da2640a2e31818c3e18","F1","batch6","tol_feedback","-1","","","","","true","","","","","1000","1000","500","","","","","","-1","none","true","","0","","","","","",""
"","","","","","html-button-response","147","1203619","0.0-3.0-9.0","611d7da2640a2e31818c3e18","F1","batch6","tol_instruction","1265","<div class = centerbox><p class = center-block-text>Great job! You are done with practice trials<br>You are about to start official trials.<br> <br> Problem <strong>1</strong> out of 25 problems</p></div>","0","","","","","","","","","","","","","","","","","","","","","","","","","",""
"","","","","","single-stim-button","148","1210304","0.0-3.0-10.0-0.0","611d7da2640a2e31818c3e18","F1","batch6","tol_tohand","5673","","","","","","","","","tol_peg_2","5673","5673","0","[[1,2,0],[0,0],[0]]","1","[[1,3,0],[2,0],[0]]","0","0","","","","","","3","","","","",""
"","","","","","single-stim-button","149","1211400","0.0-3.0-10.0-1.0","611d7da2640a2e31818c3e18","F1","batch6","tol_toboard","1094","","","","","","","","","tol_peg_3","1094","1094","0","[[1,2,0],[0,0],[3]]","1","[[1,3,0],[2,0],[0]]","0","0","","","","","","3","","","","",""
"","","","","","single-stim-button","150","1212868","0.0-3.0-10.1-0.1","611d7da2640a2e31818c3e18","F1","batch6","tol_tohand","1467","","","","","","","","","tol_peg_1","1467","1467","0","[[1,0,0],[0,0],[3]]","2","[[1,3,0],[2,0],[0]]","0","0","","","","","","3","","","","",""
"","","","","","single-stim-button","151","1213845","0.0-3.0-10.1-1.1","611d7da2640a2e31818c3e18","F1","batch6","tol_toboard","976","","","","","","","","","tol_peg_2","976","976","0","[[1,0,0],[2,0],[3]]","2","[[1,3,0],[2,0],[0]]","0","0","","","","","","3","","","","",""
"","","","","","single-stim-button","152","1214727","0.0-3.0-10.2-0.2","611d7da2640a2e31818c3e18","F1","batch6","tol_tohand","881","","","","","","","","","tol_peg_3","881","881","0","[[1,0,0],[2,0],[0]]","3","[[1,3,0],[2,0],[0]]","0","0","","","","","","3","","","","",""
"","","","","","single-stim-button","153","1215431","0.0-3.0-10.2-1.2","611d7da2640a2e31818c3e18","F1","batch6","tol_toboard","703","","","","","","","","","tol_peg_1","703","703","0","[[1,3,0],[2,0],[0]]","3","[[1,3,0],[2,0],[0]]","0","0","","","","","","3","","","","",""
"","","","","","poldrack-single-stim","154","1216433","0.0-3.0-11.0","611d7da2640a2e31818c3e18","F1","batch6","tol_feedback","-1","","","","","true","","","","","1000","1000","500","","","","","","-1","none","true","5673","8021","","","","","",""
"","","","","","html-button-response","155","1217360","0.0-3.0-12.0","611d7da2640a2e31818c3e18","F1","batch6","tol_trial_num","925.7999999523163","<div class = centerbox><p class = center-block-text>problem <strong>2</strong> out of 25 problems</p></div>","0","","","","","","","","","","","","","","","","","","","","","","","","","",""
"","","","","","single-stim-button","156","1225323","0.0-3.0-13.0-0.0","611d7da2640a2e31818c3e18","F1","batch6","tol_tohand","7962","","","","","","","","","tol_peg_1","7962","7962","0","[[1,0,0],[3,0],[0]]","1","[[2,1,3],[0,0],[0]]","1","0","","","","","","5","","","","",""
"","","","","","single-stim-button","157","1240183","0.0-3.0-13.0-1.0","611d7da2640a2e31818c3e18","F1","batch6","tol_toboard","14859","","","","","","","","","tol_peg_3","14859","14859","0","[[1,0,0],[3,0],[2]]","1","[[2,1,3],[0,0],[0]]","1","0","","","","","","5","","","","",""
"","","","","","single-stim-button","158","1241994","0.0-3.0-13.1-0.1","611d7da2640a2e31818c3e18","F1","batch6","tol_tohand","1810","","","","","","","","","tol_peg_1","1810","1810","0","[[0,0,0],[3,0],[2]]","2","[[2,1,3],[0,0],[0]]","1","0","","","","","","5","","","","",""
"","","","","","single-stim-button","159","1243989","0.0-3.0-13.1-1.1","611d7da2640a2e31818c3e18","F1","batch6","tol_toboard","1995","","","","","","","","","tol_peg_2","1995","1995","0","[[0,0,0],[3,1],[2]]","2","[[2,1,3],[0,0],[0]]","1","0","","","","","","5","","","","",""
"","","","","","single-stim-button","160","1245836","0.0-3.0-13.2-0.2","611d7da2640a2e31818c3e18","F1","batch6","tol_tohand","1847","","","","","","","","","tol_peg_3","1847","1847","0","[[0,0,0],[3,1],[0]]","3","[[2,1,3],[0,0],[0]]","1","0","","","","","","5","","","","",""
"","","","","","single-stim-button","161","1246659","0.0-3.0-13.2-1.2","611d7da2640a2e31818c3e18","F1","batch6","tol_toboard","822","","","","","","","","","tol_peg_1","822","822","0","[[2,0,0],[3,1],[0]]","3","[[2,1,3],[0,0],[0]]","1","0","","","","","","5","","","","",""
"","","","","","single-stim-button","162","1247403","0.0-3.0-13.3-0.3","611d7da2640a2e31818c3e18","F1","batch6","tol_tohand","742","","","","","","","","","tol_peg_2","742","742","0","[[2,0,0],[3,0],[0]]","4","[[2,1,3],[0,0],[0]]","1","0","","","","","","5","","","","",""
"","","","","","single-stim-button","163","1248264","0.0-3.0-13.3-1.3","611d7da2640a2e31818c3e18","F1","batch6","tol_toboard","861","","","","","","","","","tol_peg_1","861","861","0","[[2,1,0],[3,0],[0]]","4","[[2,1,3],[0,0],[0]]","1","0","","","","","","5","","","","",""
"","","","","","single-stim-button","164","1249115","0.0-3.0-13.4-0.4","611d7da2640a2e31818c3e18","F1","batch6","tol_tohand","850","","","","","","","","","tol_peg_2","850","850","0","[[2,1,0],[0,0],[0]]","5","[[2,1,3],[0,0],[0]]","1","0","","","","","","5","","","","",""
"","","","","","single-stim-button","165","1249917","0.0-3.0-13.4-1.4","611d7da2640a2e31818c3e18","F1","batch6","tol_toboard","800","","","","","","","","","tol_peg_1","800","800","0","[[2,1,3],[0,0],[0]]","5","[[2,1,3],[0,0],[0]]","1","0","","","","","","5","","","","",""
"","","","","","poldrack-single-stim","166","1250928","0.0-3.0-14.0","611d7da2640a2e31818c3e18","F1","batch6","tol_feedback","-1","","","","","true","","","","","1000","1000","500","","","","","","-1","none","true","7962","13211","","","","","",""
"","","","","","html-button-response","167","1251927","0.0-3.0-15.0","611d7da2640a2e31818c3e18","F1","batch6","tol_trial_num","998.0999999642372","<div class = centerbox><p class = center-block-text>problem <strong>3</strong> out of 25 problems</p></div>","0","","","","","","","","","","","","","","","","","","","","","","","","","",""
"","","","","","single-stim-button","168","1265895","0.0-3.0-16.0-0.0","611d7da2640a2e31818c3e18","F1","batch6","tol_tohand","13966","","","","","","","","","tol_peg_1","13966","13966","0","[[2,0,0],[0,0],[1]]","1","[[1,2,0],[3,0],[0]]","2","0","","","","","","4","","","","",""
"","","","","","single-stim-button","169","1267198","0.0-3.0-16.0-1.0","611d7da2640a2e31818c3e18","F1","batch6","tol_toboard","1302","","","","","","","","","tol_peg_2","1302","1302","0","[[2,0,0],[3,0],[1]]","1","[[1,2,0],[3,0],[0]]","2","0","","","","","","4","","","","",""
"","","","","","single-stim-button","170","1268278","0.0-3.0-16.1-0.1","611d7da2640a2e31818c3e18","F1","batch6","tol_tohand","1080","","","","","","","","","tol_peg_1","1080","1080","0","[[0,0,0],[3,0],[1]]","2","[[1,2,0],[3,0],[0]]","2","0","","","","","","4","","","","",""
"","","","","","single-stim-button","171","1269738","0.0-3.0-16.1-1.1","611d7da2640a2e31818c3e18","F1","batch6","tol_toboard","1458","","","","","","","","","tol_peg_2","1458","1458","0","[[0,0,0],[3,2],[1]]","2","[[1,2,0],[3,0],[0]]","2","0","","","","","","4","","","","",""
"","","","","","single-stim-button","172","1270882","0.0-3.0-16.2-0.2","611d7da2640a2e31818c3e18","F1","batch6","tol_tohand","1144","","","","","","","","","tol_peg_3","1144","1144","0","[[0,0,0],[3,2],[0]]","3","[[1,2,0],[3,0],[0]]","2","0","","","","","","4","","","","",""
"","","","","","single-stim-button","173","1272054","0.0-3.0-16.2-1.2","611d7da2640a2e31818c3e18","F1","batch6","tol_toboard","1170","","","","","","","","","tol_peg_1","1170","1170","0","[[1,0,0],[3,2],[0]]","3","[[1,2,0],[3,0],[0]]","2","0","","","","","","4","","","","",""
"","","","","","single-stim-button","174","1273150","0.0-3.0-16.3-0.3","611d7da2640a2e31818c3e18","F1","batch6","tol_tohand","1096","","","","","","","","","tol_peg_2","1096","1096","0","[[1,0,0],[3,0],[0]]","4","[[1,2,0],[3,0],[0]]","2","0","","","","","","4","","","","",""
"","","","","","single-stim-button","175","1274052","0.0-3.0-16.3-1.3","611d7da2640a2e31818c3e18","F1","batch6","tol_toboard","901","","","","","","","","","tol_peg_1","901","901","0","[[1,2,0],[3,0],[0]]","4","[[1,2,0],[3,0],[0]]","2","0","","","","","","4","","","","",""
"","","","","","poldrack-single-stim","176","1275057","0.0-3.0-17.0","611d7da2640a2e31818c3e18","F1","batch6","tol_feedback","-1","","","","","true","","","","","1000","1000","500","","","","","","-1","none","true","13966","17286","","","","","",""
"","","","","","html-button-response","177","1276084","0.0-3.0-18.0","611d7da2640a2e31818c3e18","F1","batch6","tol_trial_num","1026","<div class = centerbox><p class = center-block-text>problem <strong>4</strong> out of 25 problems</p></div>","0","","","","","","","","","","","","","","","","","","","","","","","","","",""
"","","","","","single-stim-button","178","1280639","0.0-3.0-19.0-0.0","611d7da2640a2e31818c3e18","F1","batch6","tol_tohand","4554","","","","","","","","","tol_peg_2","4554","4554","0","[[3,0,0],[2,0],[0]]","1","[[3,0,0],[1,0],[2]]","3","0","","","","","","3","","","","",""
"","","","","","single-stim-button","179","1282364","0.0-3.0-19.0-1.0","611d7da2640a2e31818c3e18","F1","batch6","tol_toboard","1724","","","","","","","","","tol_peg_1","1724","1724","0","[[3,1,0],[2,0],[0]]","1","[[3,0,0],[1,0],[2]]","3","0","","","","","","3","","","","",""
"","","","","","single-stim-button","180","1283438","0.0-3.0-19.1-0.1","611d7da2640a2e31818c3e18","F1","batch6","tol_tohand","1073","","","","","","","","","tol_peg_2","1073","1073","0","[[3,1,0],[0,0],[0]]","2","[[3,0,0],[1,0],[2]]","3","0","","","","","","3","","","","",""
"","","","","","single-stim-button","181","1284182","0.0-3.0-19.1-1.1","611d7da2640a2e31818c3e18","F1","batch6","tol_toboard","743","","","","","","","","","tol_peg_3","743","743","0","[[3,1,0],[0,0],[2]]","2","[[3,0,0],[1,0],[2]]","3","0","","","","","","3","","","","",""
"","","","","","single-stim-button","182","1285076","0.0-3.0-19.2-0.2","611d7da2640a2e31818c3e18","F1","batch6","tol_tohand","894","","","","","","","","","tol_peg_1","894","894","0","[[3,0,0],[0,0],[2]]","3","[[3,0,0],[1,0],[2]]","3","0","","","","","","3","","","","",""
"","","","","","single-stim-button","183","1285898","0.0-3.0-19.2-1.2","611d7da2640a2e31818c3e18","F1","batch6","tol_toboard","822","","","","","","","","","tol_peg_2","822","822","0","[[3,0,0],[1,0],[2]]","3","[[3,0,0],[1,0],[2]]","3","0","","","","","","3","","","","",""
"","","","","","poldrack-single-stim","184","1286905","0.0-3.0-20.0","611d7da2640a2e31818c3e18","F1","batch6","tol_feedback","-1","","","","","true","","","","","1000","1000","500","","","","","","-1","none","true","4554","6521","","","","","",""
"","","","","","html-button-response","185","1287681","0.0-3.0-21.0","611d7da2640a2e31818c3e18","F1","batch6","tol_trial_num","774.7000000476837","<div class = centerbox><p class = center-block-text>problem <strong>5</strong> out of 25 problems</p></div>","0","","","","","","","","","","","","","","","","","","","","","","","","","",""
"","","","","","single-stim-button","186","1319690","0.0-3.0-22.0-0.0","611d7da2640a2e31818c3e18","F1","batch6","tol_tohand","32007","","","","","","","","","tol_peg_3","32007","32007","0","[[1,0,0],[2,0],[0]]","1","[[0,0,0],[1,2],[3]]","4","0","","","","","","7","","","","",""
"","","","","","single-stim-button","187","1321727","0.0-3.0-22.0-1.0","611d7da2640a2e31818c3e18","F1","batch6","tol_toboard","2037","","","","","","","","","tol_peg_1","2037","2037","0","[[1,3,0],[2,0],[0]]","1","[[0,0,0],[1,2],[3]]","4","0","","","","","","7","","","","",""
"","","","","","single-stim-button","188","1322509","0.0-3.0-22.1-0.1","611d7da2640a2e31818c3e18","F1","batch6","tol_tohand","781","","","","","","","","","tol_peg_2","781","781","0","[[1,3,0],[0,0],[0]]","2","[[0,0,0],[1,2],[3]]","4","0","","","","","","7","","","","",""
"","","","","","single-stim-button","189","1323359","0.0-3.0-22.1-1.1","611d7da2640a2e31818c3e18","F1","batch6","tol_toboard","849","","","","","","","","","tol_peg_3","849","849","0","[[1,3,0],[0,0],[2]]","2","[[0,0,0],[1,2],[3]]","4","0","","","","","","7","","","","",""
"","","","","","single-stim-button","190","1329849","0.0-3.0-22.2-0.2","611d7da2640a2e31818c3e18","F1","batch6","tol_tohand","6489","","","","","","","","","tol_peg_3","6489","6489","0","[[1,3,0],[0,0],[0]]","3","[[0,0,0],[1,2],[3]]","4","0","","","","","","7","","","","",""
"","","","","","single-stim-button","191","1332341","0.0-3.0-22.2-1.2","611d7da2640a2e31818c3e18","F1","batch6","tol_toboard","2491","","","","","","","","","tol_peg_2","2491","2491","0","[[1,3,0],[2,0],[0]]","3","[[0,0,0],[1,2],[3]]","4","0","","","","","","7","","","","",""
"","","","","","single-stim-button","192","1338339","0.0-3.0-22.3-0.3","611d7da2640a2e31818c3e18","F1","batch6","tol_tohand","5997","","","","","","","","","tol_peg_1","5997","5997","0","[[1,0,0],[2,0],[0]]","4","[[0,0,0],[1,2],[3]]","4","0","","","","","","7","","","","",""
"","","","","","single-stim-button","193","1342136","0.0-3.0-22.3-1.3","611d7da2640a2e31818c3e18","F1","batch6","tol_toboard","3796","","","","","","","","","tol_peg_2","3796","3796","0","[[1,0,0],[2,3],[0]]","4","[[0,0,0],[1,2],[3]]","4","0","","","","","","7","","","","",""
"","","","","","single-stim-button","194","1343281","0.0-3.0-22.4-0.4","611d7da2640a2e31818c3e18","F1","batch6","tol_tohand","1144","","","","","","","","","tol_peg_1","1144","1144","0","[[0,0,0],[2,3],[0]]","5","[[0,0,0],[1,2],[3]]","4","0","","","","","","7","","","","",""
"","","","","","single-stim-button","195","1345721","0.0-3.0-22.4-1.4","611d7da2640a2e31818c3e18","F1","batch6","tol_toboard","2439","","","","","","","","","tol_peg_3","2439","2439","0","[[0,0,0],[2,3],[1]]","5","[[0,0,0],[1,2],[3]]","4","0","","","","","","7","","","","",""
"","","","","","single-stim-button","196","1348026","0.0-3.0-22.5-0.5","611d7da2640a2e31818c3e18","F1","batch6","tol_tohand","2304","","","","","","","","","tol_peg_2","2304","2304","0","[[0,0,0],[2,0],[1]]","6","[[0,0,0],[1,2],[3]]","4","0","","","","","","7","","","","",""
"","","","","","single-stim-button","197","1350638","0.0-3.0-22.5-1.5","611d7da2640a2e31818c3e18","F1","batch6","tol_toboard","2610","","","","","","","","","tol_peg_1","2610","2610","0","[[3,0,0],[2,0],[1]]","6","[[0,0,0],[1,2],[3]]","4","0","","","","","","7","","","","",""
"","","","","","single-stim-button","198","1351720","0.0-3.0-22.6-0.6","611d7da2640a2e31818c3e18","F1","batch6","tol_tohand","1082","","","","","","","","","tol_peg_2","1082","1082","0","[[3,0,0],[0,0],[1]]","7","[[0,0,0],[1,2],[3]]","4","0","","","","","","7","","","","",""
"","","","","","single-stim-button","199","1352599","0.0-3.0-22.6-1.6","611d7da2640a2e31818c3e18","F1","batch6","tol_toboard","878","","","","","","","","","tol_peg_1","878","878","0","[[3,2,0],[0,0],[1]]","7","[[0,0,0],[1,2],[3]]","4","0","","","","","","7","","","","",""
"","","","","","single-stim-button","200","1353957","0.0-3.0-22.7-0.7","611d7da2640a2e31818c3e18","F1","batch6","tol_tohand","1358","","","","","","","","","tol_peg_3","1358","1358","0","[[3,2,0],[0,0],[0]]","8","[[0,0,0],[1,2],[3]]","4","0","","","","","","7","","","","",""
"","","","","","single-stim-button","201","1355103","0.0-3.0-22.7-1.7","611d7da2640a2e31818c3e18","F1","batch6","tol_toboard","1145","","","","","","","","","tol_peg_2","1145","1145","0","[[3,2,0],[1,0],[0]]","8","[[0,0,0],[1,2],[3]]","4","0","","","","","","7","","","","",""
"","","","","","single-stim-button","202","1355919","0.0-3.0-22.8-0.8","611d7da2640a2e31818c3e18","F1","batch6","tol_tohand","816","","","","","","","","","tol_peg_1","816","816","0","[[3,0,0],[1,0],[0]]","9","[[0,0,0],[1,2],[3]]","4","0","","","","","","7","","","","",""
"","","","","","single-stim-button","203","1357351","0.0-3.0-22.8-1.8","611d7da2640a2e31818c3e18","F1","batch6","tol_toboard","1431","","","","","","","","","tol_peg_2","1431","1431","0","[[3,0,0],[1,2],[0]]","9","[[0,0,0],[1,2],[3]]","4","0","","","","","","7","","","","",""
"","","","","","single-stim-button","204","1358018","0.0-3.0-22.9-0.9","611d7da2640a2e31818c3e18","F1","batch6","tol_tohand","665","","","","","","","","","tol_peg_1","665","665","0","[[0,0,0],[1,2],[0]]","10","[[0,0,0],[1,2],[3]]","4","0","","","","","","7","","","","",""
"","","","","","single-stim-button","205","1358832","0.0-3.0-22.9-1.9","611d7da2640a2e31818c3e18","F1","batch6","tol_toboard","814","","","","","","","","","tol_peg_3","814","814","0","[[0,0,0],[1,2],[3]]","10","[[0,0,0],[1,2],[3]]","4","0","","","","","","7","","","","",""
"","","","","","poldrack-single-stim","206","1359849","0.0-3.0-23.0","611d7da2640a2e31818c3e18","F1","batch6","tol_feedback","-1","","","","","true","","","","","1000","1000","500","","","","","","-1","none","true","32007","52643","","","","","",""
"","","","","","html-button-response","207","1360608","0.0-3.0-24.0","611d7da2640a2e31818c3e18","F1","batch6","tol_trial_num","757.5","<div class = centerbox><p class = center-block-text>problem <strong>6</strong> out of 25 problems</p></div>","0","","","","","","","","","","","","","","","","","","","","","","","","","",""
"","","","","","single-stim-button","208","1405213","0.0-3.0-25.0-0.0","611d7da2640a2e31818c3e18","F1","batch6","tol_tohand","44605","","","","","","","","","tol_peg_3","44605","44605","0","[[0,0,0],[1,2],[0]]","1","[[1,0,0],[2,3],[0]]","5","0","","","","","","6","","","","",""
"","","","","","single-stim-button","209","1406338","0.0-3.0-25.0-1.0","611d7da2640a2e31818c3e18","F1","batch6","tol_toboard","1123","","","","","","","","","tol_peg_1","1123","1123","0","[[3,0,0],[1,2],[0]]","1","[[1,0,0],[2,3],[0]]","5","0","","","","","","6","","","","",""
"","","","","","single-stim-button","210","1408334","0.0-3.0-25.1-0.1","611d7da2640a2e31818c3e18","F1","batch6","tol_tohand","1996","","","","","","","","","tol_peg_2","1996","1996","0","[[3,0,0],[1,0],[0]]","2","[[1,0,0],[2,3],[0]]","5","0","","","","","","6","","","","",""
"","","","","","single-stim-button","211","1409488","0.0-3.0-25.1-1.1","611d7da2640a2e31818c3e18","F1","batch6","tol_toboard","1154","","","","","","","","","tol_peg_3","1154","1154","0","[[3,0,0],[1,0],[2]]","2","[[1,0,0],[2,3],[0]]","5","0","","","","","","6","","","","",""
"","","","","","single-stim-button","212","1414116","0.0-3.0-25.2-0.2","611d7da2640a2e31818c3e18","F1","batch6","tol_tohand","4626","","","","","","","","","tol_peg_2","4626","4626","0","[[3,0,0],[0,0],[2]]","3","[[1,0,0],[2,3],[0]]","5","0","","","","","","6","","","","",""
"","","","","","single-stim-button","213","1415054","0.0-3.0-25.2-1.2","611d7da2640a2e31818c3e18","F1","batch6","tol_toboard","937","","","","","","","","","tol_peg_1","937","937","0","[[3,1,0],[0,0],[2]]","3","[[1,0,0],[2,3],[0]]","5","0","","","","","","6","","","","",""
"","","","","","single-stim-button","214","1416012","0.0-3.0-25.3-0.3","611d7da2640a2e31818c3e18","F1","batch6","tol_tohand","958","","","","","","","","","tol_peg_3","958","958","0","[[3,1,0],[0,0],[0]]","4","[[1,0,0],[2,3],[0]]","5","0","","","","","","6","","","","",""
"","","","","","single-stim-button","215","1417329","0.0-3.0-25.3-1.3","611d7da2640a2e31818c3e18","F1","batch6","tol_toboard","1317","","","","","","","","","tol_peg_2","1317","1317","0","[[3,1,0],[2,0],[0]]","4","[[1,0,0],[2,3],[0]]","5","0","","","","","","6","","","","",""
"","","","","","single-stim-button","216","1418001","0.0-3.0-25.4-0.4","611d7da2640a2e31818c3e18","F1","batch6","tol_tohand","671","","","","","","","","","tol_peg_1","671","671","0","[[3,0,0],[2,0],[0]]","5","[[1,0,0],[2,3],[0]]","5","0","","","","","","6","","","","",""
"","","","","","single-stim-button","217","1418896","0.0-3.0-25.4-1.4","611d7da2640a2e31818c3e18","F1","batch6","tol_toboard","893","","","","","","","","","tol_peg_3","893","893","0","[[3,0,0],[2,0],[1]]","5","[[1,0,0],[2,3],[0]]","5","0","","","","","","6","","","","",""
"","","","","","single-stim-button","218","1419963","0.0-3.0-25.5-0.5","611d7da2640a2e31818c3e18","F1","batch6","tol_tohand","1067","","","","","","","","","tol_peg_1","1067","1067","0","[[0,0,0],[2,0],[1]]","6","[[1,0,0],[2,3],[0]]","5","0","","","","","","6","","","","",""
"","","","","","single-stim-button","219","1420671","0.0-3.0-25.5-1.5","611d7da2640a2e31818c3e18","F1","batch6","tol_toboard","706","","","","","","","","","tol_peg_2","706","706","0","[[0,0,0],[2,3],[1]]","6","[[1,0,0],[2,3],[0]]","5","0","","","","","","6","","","","",""
"","","","","","single-stim-button","220","1421316","0.0-3.0-25.6-0.6","611d7da2640a2e31818c3e18","F1","batch6","tol_tohand","644","","","","","","","","","tol_peg_3","644","644","0","[[0,0,0],[2,3],[0]]","7","[[1,0,0],[2,3],[0]]","5","0","","","","","","6","","","","",""
"","","","","","single-stim-button","221","1422097","0.0-3.0-25.6-1.6","611d7da2640a2e31818c3e18","F1","batch6","tol_toboard","780","","","","","","","","","tol_peg_1","780","780","0","[[1,0,0],[2,3],[0]]","7","[[1,0,0],[2,3],[0]]","5","0","","","","","","6","","","","",""
"","","","","","poldrack-single-stim","222","1423105","0.0-3.0-26.0","611d7da2640a2e31818c3e18","F1","batch6","tol_feedback","-1","","","","","true","","","","","1000","1000","500","","","","","","-1","none","true","44605","54567","","","","","",""
"","","","","","html-button-response","223","1424028","0.0-3.0-27.0","611d7da2640a2e31818c3e18","F1","batch6","tol_trial_num","922","<div class = centerbox><p class = center-block-text>problem <strong>7</strong> out of 25 problems</p></div>","0","","","","","","","","","","","","","","","","","","","","","","","","","",""
"","","","","","single-stim-button","224","1434198","0.0-3.0-28.0-0.0","611d7da2640a2e31818c3e18","F1","batch6","tol_tohand","10169","","","","","","","","","tol_peg_3","10169","10169","0","[[2,1,0],[0,0],[0]]","1","[[1,2,0],[3,0],[0]]","6","0","","","","","","5","","","","",""
"","","","","","single-stim-button","225","1435075","0.0-3.0-28.0-1.0","611d7da2640a2e31818c3e18","F1","batch6","tol_toboard","876","","","","","","","","","tol_peg_2","876","876","0","[[2,1,0],[3,0],[0]]","1","[[1,2,0],[3,0],[0]]","6","0","","","","","","5","","","","",""
"","","","","","single-stim-button","226","1437022","0.0-3.0-28.1-0.1","611d7da2640a2e31818c3e18","F1","batch6","tol_tohand","1945","","","","","","","","","tol_peg_1","1945","1945","0","[[2,0,0],[3,0],[0]]","2","[[1,2,0],[3,0],[0]]","6","0","","","","","","5","","","","",""
"","","","","","single-stim-button","227","1438806","0.0-3.0-28.1-1.1","611d7da2640a2e31818c3e18","F1","batch6","tol_toboard","1784","","","","","","","","","tol_peg_2","1784","1784","0","[[2,0,0],[3,1],[0]]","2","[[1,2,0],[3,0],[0]]","6","0","","","","","","5","","","","",""
"","","","","","single-stim-button","228","1439415","0.0-3.0-28.2-0.2","611d7da2640a2e31818c3e18","F1","batch6","tol_tohand","609","","","","","","","","","tol_peg_1","609","609","0","[[0,0,0],[3,1],[0]]","3","[[1,2,0],[3,0],[0]]","6","0","","","","","","5","","","","",""
"","","","","","single-stim-button","229","1442199","0.0-3.0-28.2-1.2","611d7da2640a2e31818c3e18","F1","batch6","tol_toboard","2784","","","","","","","","","tol_peg_3","2784","2784","0","[[0,0,0],[3,1],[2]]","3","[[1,2,0],[3,0],[0]]","6","0","","","","","","5","","","","",""
"","","","","","single-stim-button","230","1442899","0.0-3.0-28.3-0.3","611d7da2640a2e31818c3e18","F1","batch6","tol_tohand","699","","","","","","","","","tol_peg_2","699","699","0","[[0,0,0],[3,0],[2]]","4","[[1,2,0],[3,0],[0]]","6","0","","","","","","5","","","","",""
"","","","","","single-stim-button","231","1443888","0.0-3.0-28.3-1.3","611d7da2640a2e31818c3e18","F1","batch6","tol_toboard","987","","","","","","","","","tol_peg_1","987","987","0","[[1,0,0],[3,0],[2]]","4","[[1,2,0],[3,0],[0]]","6","0","","","","","","5","","","","",""
"","","","","","single-stim-button","232","1444639","0.0-3.0-28.4-0.4","611d7da2640a2e31818c3e18","F1","batch6","tol_tohand","751","","","","","","","","","tol_peg_3","751","751","0","[[1,0,0],[3,0],[0]]","5","[[1,2,0],[3,0],[0]]","6","0","","","","","","5","","","","",""
"","","","","","single-stim-button","233","1445562","0.0-3.0-28.4-1.4","611d7da2640a2e31818c3e18","F1","batch6","tol_toboard","923","","","","","","","","","tol_peg_1","923","923","0","[[1,2,0],[3,0],[0]]","5","[[1,2,0],[3,0],[0]]","6","0","","","","","","5","","","","",""
"","","","","","poldrack-single-stim","234","1446564","0.0-3.0-29.0","611d7da2640a2e31818c3e18","F1","batch6","tol_feedback","-1","","","","","true","","","","","1000","1000","500","","","","","","-1","none","true","10169","14173","","","","","",""
"","","","","","html-button-response","235","1447172","0.0-3.0-30.0","611d7da2640a2e31818c3e18","F1","batch6","tol_trial_num","607.3000000119209","<div class = centerbox><p class = center-block-text>problem <strong>8</strong> out of 25 problems</p></div>","0","","","","","","","","","","","","","","","","","","","","","","","","","",""
"","","","","","single-stim-button","236","1451538","0.0-3.0-31.0-0.0","611d7da2640a2e31818c3e18","F1","batch6","tol_tohand","4365","","","","","","","","","tol_peg_3","4365","4365","0","[[0,0,0],[2,3],[0]]","1","[[1,2,0],[3,0],[0]]","7","0","","","","","","4","","","","",""
"","","","","","single-stim-button","237","1452454","0.0-3.0-31.0-1.0","611d7da2640a2e31818c3e18","F1","batch6","tol_toboard","915","","","","","","","","","tol_peg_1","915","915","0","[[1,0,0],[2,3],[0]]","1","[[1,2,0],[3,0],[0]]","7","0","","","","","","4","","","","",""
"","","","","","single-stim-button","238","1453449","0.0-3.0-31.1-0.1","611d7da2640a2e31818c3e18","F1","batch6","tol_tohand","993","","","","","","","","","tol_peg_2","993","993","0","[[1,0,0],[2,0],[0]]","2","[[1,2,0],[3,0],[0]]","7","0","","","","","","4","","","","",""
"","","","","","single-stim-button","239","1454156","0.0-3.0-31.1-1.1","611d7da2640a2e31818c3e18","F1","batch6","tol_toboard","707","","","","","","","","","tol_peg_3","707","707","0","[[1,0,0],[2,0],[3]]","2","[[1,2,0],[3,0],[0]]","7","0","","","","","","4","","","","",""
"","","","","","single-stim-button","240","1454701","0.0-3.0-31.2-0.2","611d7da2640a2e31818c3e18","F1","batch6","tol_tohand","544","","","","","","","","","tol_peg_2","544","544","0","[[1,0,0],[0,0],[3]]","3","[[1,2,0],[3,0],[0]]","7","0","","","","","","4","","","","",""
"","","","","","single-stim-button","241","1455509","0.0-3.0-31.2-1.2","611d7da2640a2e31818c3e18","F1","batch6","tol_toboard","808","","","","","","","","","tol_peg_1","808","808","0","[[1,2,0],[0,0],[3]]","3","[[1,2,0],[3,0],[0]]","7","0","","","","","","4","","","","",""
"","","","","","single-stim-button","242","1456376","0.0-3.0-31.3-0.3","611d7da2640a2e31818c3e18","F1","batch6","tol_tohand","866","","","","","","","","","tol_peg_3","866","866","0","[[1,2,0],[0,0],[0]]","4","[[1,2,0],[3,0],[0]]","7","0","","","","","","4","","","","",""
"","","","","","single-stim-button","243","1457069","0.0-3.0-31.3-1.3","611d7da2640a2e31818c3e18","F1","batch6","tol_toboard","692","","","","","","","","","tol_peg_2","692","692","0","[[1,2,0],[3,0],[0]]","4","[[1,2,0],[3,0],[0]]","7","0","","","","","","4","","","","",""
"","","","","","poldrack-single-stim","244","1458082","0.0-3.0-32.0","611d7da2640a2e31818c3e18","F1","batch6","tol_feedback","-1","","","","","true","","","","","1000","1000","500","","","","","","-1","none","true","4365","6768","","","","","",""
"","","","","","html-button-response","245","1458681","0.0-3.0-33.0","611d7da2640a2e31818c3e18","F1","batch6","tol_trial_num","598.5","<div class = centerbox><p class = center-block-text>problem <strong>9</strong> out of 25 problems</p></div>","0","","","","","","","","","","","","","","","","","","","","","","","","","",""
"","","","","","single-stim-button","246","1469309","0.0-3.0-34.0-0.0","611d7da2640a2e31818c3e18","F1","batch6","tol_tohand","10626","","","","","","","","","tol_peg_3","10626","10626","0","[[3,2,0],[0,0],[0]]","1","[[2,1,0],[3,0],[0]]","8","0","","","","","","6","","","","",""
"","","","","","single-stim-button","247","1470640","0.0-3.0-34.0-1.0","611d7da2640a2e31818c3e18","F1","batch6","tol_toboard","1331","","","","","","","","","tol_peg_2","1331","1331","0","[[3,2,0],[1,0],[0]]","1","[[2,1,0],[3,0],[0]]","8","0","","","","","","6","","","","",""
"","","","","","single-stim-button","248","1471505","0.0-3.0-34.1-0.1","611d7da2640a2e31818c3e18","F1","batch6","tol_tohand","864","","","","","","","","","tol_peg_1","864","864","0","[[3,0,0],[1,0],[0]]","2","[[2,1,0],[3,0],[0]]","8","0","","","","","","6","","","","",""
"","","","","","single-stim-button","249","1472784","0.0-3.0-34.1-1.1","611d7da2640a2e31818c3e18","F1","batch6","tol_toboard","1278","","","","","","","","","tol_peg_2","1278","1278","0","[[3,0,0],[1,2],[0]]","2","[[2,1,0],[3,0],[0]]","8","0","","","","","","6","","","","",""
"","","","","","single-stim-button","250","1473452","0.0-3.0-34.2-0.2","611d7da2640a2e31818c3e18","F1","batch6","tol_tohand","667","","","","","","","","","tol_peg_1","667","667","0","[[0,0,0],[1,2],[0]]","3","[[2,1,0],[3,0],[0]]","8","0","","","","","","6","","","","",""
"","","","","","single-stim-button","251","1474197","0.0-3.0-34.2-1.2","611d7da2640a2e31818c3e18","F1","batch6","tol_toboard","745","","","","","","","","","tol_peg_3","745","745","0","[[0,0,0],[1,2],[3]]","3","[[2,1,0],[3,0],[0]]","8","0","","","","","","6","","","","",""
"","","","","","single-stim-button","252","1474762","0.0-3.0-34.3-0.3","611d7da2640a2e31818c3e18","F1","batch6","tol_tohand","564","","","","","","","","","tol_peg_2","564","564","0","[[0,0,0],[1,0],[3]]","4","[[2,1,0],[3,0],[0]]","8","0","","","","","","6","","","","",""
"","","","","","single-stim-button","253","1475684","0.0-3.0-34.3-1.3","611d7da2640a2e31818c3e18","F1","batch6","tol_toboard","921","","","","","","","","","tol_peg_1","921","921","0","[[2,0,0],[1,0],[3]]","4","[[2,1,0],[3,0],[0]]","8","0","","","","","","6","","","","",""
"","","","","","single-stim-button","254","1476452","0.0-3.0-34.4-0.4","611d7da2640a2e31818c3e18","F1","batch6","tol_tohand","767","","","","","","","","","tol_peg_2","767","767","0","[[2,0,0],[0,0],[3]]","5","[[2,1,0],[3,0],[0]]","8","0","","","","","","6","","","","",""
"","","","","","single-stim-button","255","1477868","0.0-3.0-34.4-1.4","611d7da2640a2e31818c3e18","F1","batch6","tol_toboard","1415","","","","","","","","","tol_peg_1","1415","1415","0","[[2,1,0],[0,0],[3]]","5","[[2,1,0],[3,0],[0]]","8","0","","","","","","6","","","","",""
"","","","","","single-stim-button","256","1478470","0.0-3.0-34.5-0.5","611d7da2640a2e31818c3e18","F1","batch6","tol_tohand","600","","","","","","","","","tol_peg_3","600","600","0","[[2,1,0],[0,0],[0]]","6","[[2,1,0],[3,0],[0]]","8","0","","","","","","6","","","","",""
"","","","","","single-stim-button","257","1479250","0.0-3.0-34.5-1.5","611d7da2640a2e31818c3e18","F1","batch6","tol_toboard","780","","","","","","","","","tol_peg_2","780","780","0","[[2,1,0],[3,0],[0]]","6","[[2,1,0],[3,0],[0]]","8","0","","","","","","6","","","","",""
"","","","","","poldrack-single-stim","258","1480265","0.0-3.0-35.0","611d7da2640a2e31818c3e18","F1","batch6","tol_feedback","-1","","","","","true","","","","","1000","1000","500","","","","","","-1","none","true","10626","14088","","","","","",""
"","","","","","html-button-response","259","1481097","0.0-3.0-36.0","611d7da2640a2e31818c3e18","F1","batch6","tol_trial_num","831.3000000119209","<div class = centerbox><p class = center-block-text>problem <strong>10</strong> out of 25 problems</p></div>","0","","","","","","","","","","","","","","","","","","","","","","","","","",""
"","","","","","single-stim-button","260","1485656","0.0-3.0-37.0-0.0","611d7da2640a2e31818c3e18","F1","batch6","tol_tohand","4558","","","","","","","","","tol_peg_2","4558","4558","0","[[3,0,0],[0,0],[2]]","1","[[3,0,0],[2,1],[0]]","9","0","","","","","","3","","","","",""
"","","","","","single-stim-button","261","1486578","0.0-3.0-37.0-1.0","611d7da2640a2e31818c3e18","F1","batch6","tol_toboard","921","","","","","","","","","tol_peg_1","921","921","0","[[3,1,0],[0,0],[2]]","1","[[3,0,0],[2,1],[0]]","9","0","","","","","","3","","","","",""
"","","","","","single-stim-button","262","1487402","0.0-3.0-37.1-0.1","611d7da2640a2e31818c3e18","F1","batch6","tol_tohand","823","","","","","","","","","tol_peg_3","823","823","0","[[3,1,0],[0,0],[0]]","2","[[3,0,0],[2,1],[0]]","9","0","","","","","","3","","","","",""
"","","","","","single-stim-button","263","1488140","0.0-3.0-37.1-1.1","611d7da2640a2e31818c3e18","F1","batch6","tol_toboard","737","","","","","","","","","tol_peg_2","737","737","0","[[3,1,0],[2,0],[0]]","2","[[3,0,0],[2,1],[0]]","9","0","","","","","","3","","","","",""
"","","","","","single-stim-button","264","1488905","0.0-3.0-37.2-0.2","611d7da2640a2e31818c3e18","F1","batch6","tol_tohand","764","","","","","","","","","tol_peg_1","764","764","0","[[3,0,0],[2,0],[0]]","3","[[3,0,0],[2,1],[0]]","9","0","","","","","","3","","","","",""
"","","","","","single-stim-button","265","1489857","0.0-3.0-37.2-1.2","611d7da2640a2e31818c3e18","F1","batch6","tol_toboard","952","","","","","","","","","tol_peg_2","952","952","0","[[3,0,0],[2,1],[0]]","3","[[3,0,0],[2,1],[0]]","9","0","","","","","","3","","","","",""
"","","","","","poldrack-single-stim","266","1490868","0.0-3.0-38.0","611d7da2640a2e31818c3e18","F1","batch6","tol_feedback","-1","","","","","true","","","","","1000","1000","500","","","","","","-1","none","true","4558","6145","","","","","",""
"","","","","","html-button-response","267","1491673","0.0-3.0-39.0","611d7da2640a2e31818c3e18","F1","batch6","tol_trial_num","804.3999999761581","<div class = centerbox><p class = center-block-text>problem <strong>11</strong> out of 25 problems</p></div>","0","","","","","","","","","","","","","","","","","","","","","","","","","",""
"","","","","","single-stim-button","268","1522462","0.0-3.0-40.0-0.0","611d7da2640a2e31818c3e18","F1","batch6","tol_tohand","30788","","","","","","","","","tol_peg_2","30788","30788","0","[[1,2,0],[0,0],[0]]","1","[[2,0,0],[1,3],[0]]","10","0","","","","","","6","","","","",""
"","","","","","single-stim-button","269","1523065","0.0-3.0-40.0-1.0","611d7da2640a2e31818c3e18","F1","batch6","tol_toboard","601","","","","","","","","","tol_peg_3","601","601","0","[[1,2,0],[0,0],[3]]","1","[[2,0,0],[1,3],[0]]","10","0","","","","","","6","","","","",""
"","","","","","single-stim-button","270","1526485","0.0-3.0-40.1-0.1","611d7da2640a2e31818c3e18","F1","batch6","tol_tohand","3420","","","","","","","","","tol_peg_1","3420","3420","0","[[1,0,0],[0,0],[3]]","2","[[2,0,0],[1,3],[0]]","10","0","","","","","","6","","","","",""
"","","","","","single-stim-button","271","1527494","0.0-3.0-40.1-1.1","611d7da2640a2e31818c3e18","F1","batch6","tol_toboard","1008","","","","","","","","","tol_peg_2","1008","1008","0","[[1,0,0],[2,0],[3]]","2","[[2,0,0],[1,3],[0]]","10","0","","","","","","6","","","","",""
"","","","","","single-stim-button","272","1529435","0.0-3.0-40.2-0.2","611d7da2640a2e31818c3e18","F1","batch6","tol_tohand","1940","","","","","","","","","tol_peg_1","1940","1940","0","[[0,0,0],[2,0],[3]]","3","[[2,0,0],[1,3],[0]]","10","0","","","","","","6","","","","",""
"","","","","","single-stim-button","273","1533163","0.0-3.0-40.2-1.2","611d7da2640a2e31818c3e18","F1","batch6","tol_toboard","3727","","","","","","","","","tol_peg_2","3727","3727","0","[[0,0,0],[2,1],[3]]","3","[[2,0,0],[1,3],[0]]","10","0","","","","","","6","","","","",""
"","","","","","single-stim-button","274","1535324","0.0-3.0-40.3-0.3","611d7da2640a2e31818c3e18","F1","batch6","tol_tohand","2159","","","","","","","","","tol_peg_2","2159","2159","0","[[0,0,0],[2,0],[3]]","4","[[2,0,0],[1,3],[0]]","10","0","","","","","","6","","","","",""
"","","","","","single-stim-button","275","1546538","0.0-3.0-40.3-1.3","611d7da2640a2e31818c3e18","F1","batch6","tol_toboard","11214","","","","","","","","","tol_peg_1","11214","11214","0","[[1,0,0],[2,0],[3]]","4","[[2,0,0],[1,3],[0]]","10","0","","","","","","6","","","","",""
"","","","","","single-stim-button","276","1553528","0.0-3.0-40.4-0.4","611d7da2640a2e31818c3e18","F1","batch6","tol_tohand","6989","","","","","","","","","tol_peg_2","6989","6989","0","[[1,0,0],[0,0],[3]]","5","[[2,0,0],[1,3],[0]]","10","0","","","","","","6","","","","",""
"","","","","","single-stim-button","277","1554559","0.0-3.0-40.4-1.4","611d7da2640a2e31818c3e18","F1","batch6","tol_toboard","1030","","","","","","","","","tol_peg_1","1030","1030","0","[[1,2,0],[0,0],[3]]","5","[[2,0,0],[1,3],[0]]","10","0","","","","","","6","","","","",""
"","","","","","single-stim-button","278","1577629","0.0-3.0-40.5-0.5","611d7da2640a2e31818c3e18","F1","batch6","tol_tohand","23069","","","","","","","","","tol_peg_3","23069","23069","0","[[1,2,0],[0,0],[0]]","6","[[2,0,0],[1,3],[0]]","10","0","","","","","","6","","","","",""
"","","","","","single-stim-button","279","1578286","0.0-3.0-40.5-1.5","611d7da2640a2e31818c3e18","F1","batch6","tol_toboard","656","","","","","","","","","tol_peg_2","656","656","0","[[1,2,0],[3,0],[0]]","6","[[2,0,0],[1,3],[0]]","10","0","","","","","","6","","","","",""
"","","","","","single-stim-button","280","1579503","0.0-3.0-40.6-0.6","611d7da2640a2e31818c3e18","F1","batch6","tol_tohand","1216","","","","","","","","","tol_peg_1","1216","1216","0","[[1,0,0],[3,0],[0]]","7","[[2,0,0],[1,3],[0]]","10","0","","","","","","6","","","","",""
"","","","","","single-stim-button","281","1580458","0.0-3.0-40.6-1.6","611d7da2640a2e31818c3e18","F1","batch6","tol_toboard","955","","","","","","","","","tol_peg_2","955","955","0","[[1,0,0],[3,2],[0]]","7","[[2,0,0],[1,3],[0]]","10","0","","","","","","6","","","","",""
"","","","","","single-stim-button","282","1581345","0.0-3.0-40.7-0.7","611d7da2640a2e31818c3e18","F1","batch6","tol_tohand","886","","","","","","","","","tol_peg_1","886","886","0","[[0,0,0],[3,2],[0]]","8","[[2,0,0],[1,3],[0]]","10","0","","","","","","6","","","","",""
"","","","","","single-stim-button","283","1582362","0.0-3.0-40.7-1.7","611d7da2640a2e31818c3e18","F1","batch6","tol_toboard","1017","","","","","","","","","tol_peg_3","1017","1017","0","[[0,0,0],[3,2],[1]]","8","[[2,0,0],[1,3],[0]]","10","0","","","","","","6","","","","",""
"","","","","","single-stim-button","284","1583464","0.0-3.0-40.8-0.8","611d7da2640a2e31818c3e18","F1","batch6","tol_tohand","1101","","","","","","","","","tol_peg_2","1101","1101","0","[[0,0,0],[3,0],[1]]","9","[[2,0,0],[1,3],[0]]","10","0","","","","","","6","","","","",""
"","","","","","single-stim-button","285","1584421","0.0-3.0-40.8-1.8","611d7da2640a2e31818c3e18","F1","batch6","tol_toboard","956","","","","","","","","","tol_peg_1","956","956","0","[[2,0,0],[3,0],[1]]","9","[[2,0,0],[1,3],[0]]","10","0","","","","","","6","","","","",""
"","","","","","single-stim-button","286","1586089","0.0-3.0-40.9-0.9","611d7da2640a2e31818c3e18","F1","batch6","tol_tohand","1667","","","","","","","","","tol_peg_2","1667","1667","0","[[2,0,0],[0,0],[1]]","10","[[2,0,0],[1,3],[0]]","10","0","","","","","","6","","","","",""
"","","","","","single-stim-button","287","1587305","0.0-3.0-40.9-1.9","611d7da2640a2e31818c3e18","F1","batch6","tol_toboard","1215","","","","","","","","","tol_peg_1","1215","1215","0","[[2,3,0],[0,0],[1]]","10","[[2,0,0],[1,3],[0]]","10","0","","","","","","6","","","","",""
"","","","","","single-stim-button","288","1587921","0.0-3.0-40.10-0.10","611d7da2640a2e31818c3e18","F1","batch6","tol_tohand","615","","","","","","","","","tol_peg_3","615","615","0","[[2,3,0],[0,0],[0]]","11","[[2,0,0],[1,3],[0]]","10","0","","","","","","6","","","","",""
"","","","","","single-stim-button","289","1588594","0.0-3.0-40.10-1.10","611d7da2640a2e31818c3e18","F1","batch6","tol_toboard","671","","","","","","","","","tol_peg_2","671","671","0","[[2,3,0],[1,0],[0]]","11","[[2,0,0],[1,3],[0]]","10","0","","","","","","6","","","","",""
"","","","","","single-stim-button","290","1589187","0.0-3.0-40.11-0.11","611d7da2640a2e31818c3e18","F1","batch6","tol_tohand","593","","","","","","","","","tol_peg_1","593","593","0","[[2,0,0],[1,0],[0]]","12","[[2,0,0],[1,3],[0]]","10","0","","","","","","6","","","","",""
"","","","","","single-stim-button","291","1589982","0.0-3.0-40.11-1.11","611d7da2640a2e31818c3e18","F1","batch6","tol_toboard","794","","","","","","","","","tol_peg_2","794","794","0","[[2,0,0],[1,3],[0]]","12","[[2,0,0],[1,3],[0]]","10","0","","","","","","6","","","","",""
"","","","","","poldrack-single-stim","292","1590994","0.0-3.0-41.0","611d7da2640a2e31818c3e18","F1","batch6","tol_feedback","-1","","","","","true","","","","","1000","1000","500","","","","","","-1","none","true","30788","74443","","","","","",""
"","","","","","html-button-response","293","1591821","0.0-3.0-42.0","611d7da2640a2e31818c3e18","F1","batch6","tol_trial_num","826.5","<div class = centerbox><p class = center-block-text>problem <strong>12</strong> out of 25 problems</p></div>","0","","","","","","","","","","","","","","","","","","","","","","","","","",""
"","","","","","single-stim-button","294","1596829","0.0-3.0-43.0-0.0","611d7da2640a2e31818c3e18","F1","batch6","tol_tohand","5006","","","","","","","","","tol_peg_1","5006","5006","0","[[1,0,0],[3,0],[0]]","1","[[2,3,0],[0,0],[1]]","11","0","","","","","","4","","","","",""
"","","","","","single-stim-button","295","1597597","0.0-3.0-43.0-1.0","611d7da2640a2e31818c3e18","F1","batch6","tol_toboard","767","","","","","","","","","tol_peg_2","767","767","0","[[1,0,0],[3,2],[0]]","1","[[2,3,0],[0,0],[1]]","11","0","","","","","","4","","","","",""
"","","","","","single-stim-button","296","1598284","0.0-3.0-43.1-0.1","611d7da2640a2e31818c3e18","F1","batch6","tol_tohand","686","","","","","","","","","tol_peg_1","686","686","0","[[0,0,0],[3,2],[0]]","2","[[2,3,0],[0,0],[1]]","11","0","","","","","","4","","","","",""
"","","","","","single-stim-button","297","1599108","0.0-3.0-43.1-1.1","611d7da2640a2e31818c3e18","F1","batch6","tol_toboard","823","","","","","","","","","tol_peg_3","823","823","0","[[0,0,0],[3,2],[1]]","2","[[2,3,0],[0,0],[1]]","11","0","","","","","","4","","","","",""
"","","","","","single-stim-button","298","1600000","0.0-3.0-43.2-0.2","611d7da2640a2e31818c3e18","F1","batch6","tol_tohand","892","","","","","","","","","tol_peg_2","892","892","0","[[0,0,0],[3,0],[1]]","3","[[2,3,0],[0,0],[1]]","11","0","","","","","","4","","","","",""
"","","","","","single-stim-button","299","1600559","0.0-3.0-43.2-1.2","611d7da2640a2e31818c3e18","F1","batch6","tol_toboard","558","","","","","","","","","tol_peg_1","558","558","0","[[2,0,0],[3,0],[1]]","3","[[2,3,0],[0,0],[1]]","11","0","","","","","","4","","","","",""
"","","","","","single-stim-button","300","1601189","0.0-3.0-43.3-0.3","611d7da2640a2e31818c3e18","F1","batch6","tol_tohand","629","","","","","","","","","tol_peg_2","629","629","0","[[2,0,0],[0,0],[1]]","4","[[2,3,0],[0,0],[1]]","11","0","","","","","","4","","","","",""
"","","","","","single-stim-button","301","1601927","0.0-3.0-43.3-1.3","611d7da2640a2e31818c3e18","F1","batch6","tol_toboard","738","","","","","","","","","tol_peg_1","738","738","0","[[2,3,0],[0,0],[1]]","4","[[2,3,0],[0,0],[1]]","11","0","","","","","","4","","","","",""
"","","","","","poldrack-single-stim","302","1602933","0.0-3.0-44.0","611d7da2640a2e31818c3e18","F1","batch6","tol_feedback","-1","","","","","true","","","","","1000","1000","500","","","","","","-1","none","true","5006","7213","","","","","",""
"","","","","","html-button-response","303","1603529","0.0-3.0-45.0","611d7da2640a2e31818c3e18","F1","batch6","tol_trial_num","595.1999999880791","<div class = centerbox><p class = center-block-text>problem <strong>13</strong> out of 25 problems</p></div>","0","","","","","","","","","","","","","","","","","","","","","","","","","",""
"","","","","","single-stim-button","304","1617290","0.0-3.0-46.0-0.0","611d7da2640a2e31818c3e18","F1","batch6","tol_tohand","13761","","","","","","","","","tol_peg_1","13761","13761","0","[[1,0,0],[3,0],[0]]","1","[[0,0,0],[2,3],[1]]","12","0","","","","","","4","","","","",""
"","","","","","single-stim-button","305","1618428","0.0-3.0-46.0-1.0","611d7da2640a2e31818c3e18","F1","batch6","tol_toboard","1137","","","","","","","","","tol_peg_2","1137","1137","0","[[1,0,0],[3,2],[0]]","1","[[0,0,0],[2,3],[1]]","12","0","","","","","","4","","","","",""
"","","","","","single-stim-button","306","1620160","0.0-3.0-46.1-0.1","611d7da2640a2e31818c3e18","F1","batch6","tol_tohand","1731","","","","","","","","","tol_peg_1","1731","1731","0","[[0,0,0],[3,2],[0]]","2","[[0,0,0],[2,3],[1]]","12","0","","","","","","4","","","","",""
"","","","","","single-stim-button","307","1621055","0.0-3.0-46.1-1.1","611d7da2640a2e31818c3e18","F1","batch6","tol_toboard","894","","","","","","","","","tol_peg_3","894","894","0","[[0,0,0],[3,2],[1]]","2","[[0,0,0],[2,3],[1]]","12","0","","","","","","4","","","","",""
"","","","","","single-stim-button","308","1621821","0.0-3.0-46.2-0.2","611d7da2640a2e31818c3e18","F1","batch6","tol_tohand","765","","","","","","","","","tol_peg_2","765","765","0","[[0,0,0],[3,0],[1]]","3","[[0,0,0],[2,3],[1]]","12","0","","","","","","4","","","","",""
"","","","","","single-stim-button","309","1622551","0.0-3.0-46.2-1.2","611d7da2640a2e31818c3e18","F1","batch6","tol_toboard","730","","","","","","","","","tol_peg_1","730","730","0","[[2,0,0],[3,0],[1]]","3","[[0,0,0],[2,3],[1]]","12","0","","","","","","4","","","","",""
"","","","","","single-stim-button","310","1623349","0.0-3.0-46.3-0.3","611d7da2640a2e31818c3e18","F1","batch6","tol_tohand","797","","","","","","","","","tol_peg_2","797","797","0","[[2,0,0],[0,0],[1]]","4","[[0,0,0],[2,3],[1]]","12","0","","","","","","4","","","","",""
"","","","","","single-stim-button","311","1624126","0.0-3.0-46.3-1.3","611d7da2640a2e31818c3e18","F1","batch6","tol_toboard","775","","","","","","","","","tol_peg_1","775","775","0","[[2,3,0],[0,0],[1]]","4","[[0,0,0],[2,3],[1]]","12","0","","","","","","4","","","","",""
"","","","","","single-stim-button","312","1640470","0.0-3.0-46.4-0.4","611d7da2640a2e31818c3e18","F1","batch6","tol_tohand","16343","","","","","","","","","tol_peg_1","16343","16343","0","[[2,0,0],[0,0],[1]]","5","[[0,0,0],[2,3],[1]]","12","0","","","","","","4","","","","",""
"","","","","","single-stim-button","313","1641827","0.0-3.0-46.4-1.4","611d7da2640a2e31818c3e18","F1","batch6","tol_toboard","1356","","","","","","","","","tol_peg_2","1356","1356","0","[[2,0,0],[3,0],[1]]","5","[[0,0,0],[2,3],[1]]","12","0","","","","","","4","","","","",""
"","","","","","single-stim-button","314","1644963","0.0-3.0-46.5-0.5","611d7da2640a2e31818c3e18","F1","batch6","tol_tohand","3135","","","","","","","","","tol_peg_1","3135","3135","0","[[0,0,0],[3,0],[1]]","6","[[0,0,0],[2,3],[1]]","12","0","","","","","","4","","","","",""
"","","","","","single-stim-button","315","1645778","0.0-3.0-46.5-1.5","611d7da2640a2e31818c3e18","F1","batch6","tol_toboard","814","","","","","","","","","tol_peg_2","814","814","0","[[0,0,0],[3,2],[1]]","6","[[0,0,0],[2,3],[1]]","12","0","","","","","","4","","","","",""
"","","","","","single-stim-button","316","1647538","0.0-3.0-46.6-0.6","611d7da2640a2e31818c3e18","F1","batch6","tol_tohand","1759","","","","","","","","","tol_peg_3","1759","1759","0","[[0,0,0],[3,2],[0]]","7","[[0,0,0],[2,3],[1]]","12","0","","","","","","4","","","","",""
"","","","","","single-stim-button","317","1648641","0.0-3.0-46.6-1.6","611d7da2640a2e31818c3e18","F1","batch6","tol_toboard","1102","","","","","","","","","tol_peg_1","1102","1102","0","[[1,0,0],[3,2],[0]]","7","[[0,0,0],[2,3],[1]]","12","0","","","","","","4","","","","",""
"","","","","","single-stim-button","318","1649507","0.0-3.0-46.7-0.7","611d7da2640a2e31818c3e18","F1","batch6","tol_tohand","865","","","","","","","","","tol_peg_2","865","865","0","[[1,0,0],[3,0],[0]]","8","[[0,0,0],[2,3],[1]]","12","0","","","","","","4","","","","",""
"","","","","","single-stim-button","319","1650658","0.0-3.0-46.7-1.7","611d7da2640a2e31818c3e18","F1","batch6","tol_toboard","1151","","","","","","","","","tol_peg_3","1151","1151","0","[[1,0,0],[3,0],[2]]","8","[[0,0,0],[2,3],[1]]","12","0","","","","","","4","","","","",""
"","","","","","single-stim-button","320","1651224","0.0-3.0-46.8-0.8","611d7da2640a2e31818c3e18","F1","batch6","tol_tohand","565","","","","","","","","","tol_peg_2","565","565","0","[[1,0,0],[0,0],[2]]","9","[[0,0,0],[2,3],[1]]","12","0","","","","","","4","","","","",""
"","","","","","single-stim-button","321","1652090","0.0-3.0-46.8-1.8","611d7da2640a2e31818c3e18","F1","batch6","tol_toboard","865","","","","","","","","","tol_peg_1","865","865","0","[[1,3,0],[0,0],[2]]","9","[[0,0,0],[2,3],[1]]","12","0","","","","","","4","","","","",""
"","","","","","single-stim-button","322","1653321","0.0-3.0-46.9-0.9","611d7da2640a2e31818c3e18","F1","batch6","tol_tohand","1229","","","","","","","","","tol_peg_3","1229","1229","0","[[1,3,0],[0,0],[0]]","10","[[0,0,0],[2,3],[1]]","12","0","","","","","","4","","","","",""
"","","","","","single-stim-button","323","1654044","0.0-3.0-46.9-1.9","611d7da2640a2e31818c3e18","F1","batch6","tol_toboard","723","","","","","","","","","tol_peg_2","723","723","0","[[1,3,0],[2,0],[0]]","10","[[0,0,0],[2,3],[1]]","12","0","","","","","","4","","","","",""
"","","","","","single-stim-button","324","1654666","0.0-3.0-46.10-0.10","611d7da2640a2e31818c3e18","F1","batch6","tol_tohand","621","","","","","","","","","tol_peg_1","621","621","0","[[1,0,0],[2,0],[0]]","11","[[0,0,0],[2,3],[1]]","12","0","","","","","","4","","","","",""
"","","","","","single-stim-button","325","1655188","0.0-3.0-46.10-1.10","611d7da2640a2e31818c3e18","F1","batch6","tol_toboard","521","","","","","","","","","tol_peg_2","521","521","0","[[1,0,0],[2,3],[0]]","11","[[0,0,0],[2,3],[1]]","12","0","","","","","","4","","","","",""
"","","","","","single-stim-button","326","1655770","0.0-3.0-46.11-0.11","611d7da2640a2e31818c3e18","F1","batch6","tol_tohand","581","","","","","","","","","tol_peg_1","581","581","0","[[0,0,0],[2,3],[0]]","12","[[0,0,0],[2,3],[1]]","12","0","","","","","","4","","","","",""
"","","","","","single-stim-button","327","1657407","0.0-3.0-46.11-1.11","611d7da2640a2e31818c3e18","F1","batch6","tol_toboard","1637","","","","","","","","","tol_peg_3","1637","1637","0","[[0,0,0],[2,3],[1]]","12","[[0,0,0],[2,3],[1]]","12","0","","","","","","4","","","","",""
"","","","","","poldrack-single-stim","328","1658412","0.0-3.0-47.0","611d7da2640a2e31818c3e18","F1","batch6","tol_feedback","-1","","","","","true","","","","","1000","1000","500","","","","","","-1","none","true","13761","42152","","","","","",""
"","","","","","html-button-response","329","1661574","0.0-3.0-48.0","611d7da2640a2e31818c3e18","F1","batch6","attention_check","3160.899999976158","<p class = block-text>How many balls are in your board<br></p>","1","","","true","","","","","","","","","","","","","","","","","","","","","","",""
"","","","","","html-button-response","330","1663182","0.0-3.0-49.0","611d7da2640a2e31818c3e18","F1","batch6","tol_trial_num","1606.699999988079","<div class = centerbox><p class = center-block-text>problem <strong>14</strong> out of 25 problems</p></div>","0","","","","","","","","","","","","","","","","","","","","","","","","","",""
"","","","","","single-stim-button","331","1673000","0.0-3.0-50.0-0.0","611d7da2640a2e31818c3e18","F1","batch6","tol_tohand","9817","","","","","","","","","tol_peg_1","9817","9817","0","[[2,0,0],[3,0],[0]]","1","[[1,2,0],[3,0],[0]]","13","0","","","","","","4","","","","",""
"","","","","","single-stim-button","332","1673804","0.0-3.0-50.0-1.0","611d7da2640a2e31818c3e18","F1","batch6","tol_toboard","803","","","","","","","","","tol_peg_2","803","803","0","[[2,0,0],[3,1],[0]]","1","[[1,2,0],[3,0],[0]]","13","0","","","","","","4","","","","",""
"","","","","","single-stim-button","333","1674610","0.0-3.0-50.1-0.1","611d7da2640a2e31818c3e18","F1","batch6","tol_tohand","805","","","","","","","","","tol_peg_1","805","805","0","[[0,0,0],[3,1],[0]]","2","[[1,2,0],[3,0],[0]]","13","0","","","","","","4","","","","",""
"","","","","","single-stim-button","334","1675397","0.0-3.0-50.1-1.1","611d7da2640a2e31818c3e18","F1","batch6","tol_toboard","785","","","","","","","","","tol_peg_3","785","785","0","[[0,0,0],[3,1],[2]]","2","[[1,2,0],[3,0],[0]]","13","0","","","","","","4","","","","",""
"","","","","","single-stim-button","335","1676271","0.0-3.0-50.2-0.2","611d7da2640a2e31818c3e18","F1","batch6","tol_tohand","874","","","","","","","","","tol_peg_2","874","874","0","[[0,0,0],[3,0],[2]]","3","[[1,2,0],[3,0],[0]]","13","0","","","","","","4","","","","",""
"","","","","","single-stim-button","336","1677144","0.0-3.0-50.2-1.2","611d7da2640a2e31818c3e18","F1","batch6","tol_toboard","872","","","","","","","","","tol_peg_1","872","872","0","[[1,0,0],[3,0],[2]]","3","[[1,2,0],[3,0],[0]]","13","0","","","","","","4","","","","",""
"","","","","","single-stim-button","337","1677968","0.0-3.0-50.3-0.3","611d7da2640a2e31818c3e18","F1","batch6","tol_tohand","823","","","","","","","","","tol_peg_3","823","823","0","[[1,0,0],[3,0],[0]]","4","[[1,2,0],[3,0],[0]]","13","0","","","","","","4","","","","",""
"","","","","","single-stim-button","338","1679021","0.0-3.0-50.3-1.3","611d7da2640a2e31818c3e18","F1","batch6","tol_toboard","1051","","","","","","","","","tol_peg_1","1051","1051","0","[[1,2,0],[3,0],[0]]","4","[[1,2,0],[3,0],[0]]","13","0","","","","","","4","","","","",""
"","","","","","poldrack-single-stim","339","1680029","0.0-3.0-51.0","611d7da2640a2e31818c3e18","F1","batch6","tol_feedback","-1","","","","","true","","","","","1000","1000","500","","","","","","-1","none","true","9817","12319","","","","","",""
"","","","","","html-button-response","340","1680751","0.0-3.0-52.0","611d7da2640a2e31818c3e18","F1","batch6","tol_trial_num","721.3000000119209","<div class = centerbox><p class = center-block-text>problem <strong>15</strong> out of 25 problems</p></div>","0","","","","","","","","","","","","","","","","","","","","","","","","","",""
"","","","","","single-stim-button","341","1685531","0.0-3.0-53.0-0.0","611d7da2640a2e31818c3e18","F1","batch6","tol_tohand","4780","","","","","","","","","tol_peg_1","4780","4780","0","[[1,0,0],[3,0],[0]]","1","[[2,0,0],[3,0],[1]]","14","0","","","","","","3","","","","",""
"","","","","","single-stim-button","342","1686219","0.0-3.0-53.0-1.0","611d7da2640a2e31818c3e18","F1","batch6","tol_toboard","687","","","","","","","","","tol_peg_2","687","687","0","[[1,0,0],[3,2],[0]]","1","[[2,0,0],[3,0],[1]]","14","0","","","","","","3","","","","",""
"","","","","","single-stim-button","343","1686891","0.0-3.0-53.1-0.1","611d7da2640a2e31818c3e18","F1","batch6","tol_tohand","671","","","","","","","","","tol_peg_1","671","671","0","[[0,0,0],[3,2],[0]]","2","[[2,0,0],[3,0],[1]]","14","0","","","","","","3","","","","",""
"","","","","","single-stim-button","344","1687880","0.0-3.0-53.1-1.1","611d7da2640a2e31818c3e18","F1","batch6","tol_toboard","988","","","","","","","","","tol_peg_3","988","988","0","[[0,0,0],[3,2],[1]]","2","[[2,0,0],[3,0],[1]]","14","0","","","","","","3","","","","",""
"","","","","","single-stim-button","345","1688417","0.0-3.0-53.2-0.2","611d7da2640a2e31818c3e18","F1","batch6","tol_tohand","537","","","","","","","","","tol_peg_2","537","537","0","[[0,0,0],[3,0],[1]]","3","[[2,0,0],[3,0],[1]]","14","0","","","","","","3","","","","",""
"","","","","","single-stim-button","346","1689010","0.0-3.0-53.2-1.2","611d7da2640a2e31818c3e18","F1","batch6","tol_toboard","592","","","","","","","","","tol_peg_1","592","592","0","[[2,0,0],[3,0],[1]]","3","[[2,0,0],[3,0],[1]]","14","0","","","","","","3","","","","",""
"","","","","","poldrack-single-stim","347","1690015","0.0-3.0-54.0","611d7da2640a2e31818c3e18","F1","batch6","tol_feedback","-1","","","","","true","","","","","1000","1000","500","","","","","","-1","none","true","4780","5988","","","","","",""
"","","","","","html-button-response","348","1690591","0.0-3.0-55.0","611d7da2640a2e31818c3e18","F1","batch6","tol_trial_num","575.1000000238419","<div class = centerbox><p class = center-block-text>problem <strong>16</strong> out of 25 problems</p></div>","0","","","","","","","","","","","","","","","","","","","","","","","","","",""
"","","","","","single-stim-button","349","1699723","0.0-3.0-56.0-0.0","611d7da2640a2e31818c3e18","F1","batch6","tol_tohand","9131","","","","","","","","","tol_peg_3","9131","9131","0","[[0,0,0],[2,3],[0]]","1","[[2,3,0],[1,0],[0]]","15","0","","","","","","7","","","","",""
"","","","","","single-stim-button","350","1700705","0.0-3.0-56.0-1.0","611d7da2640a2e31818c3e18","F1","batch6","tol_toboard","980","","","","","","","","","tol_peg_1","980","980","0","[[1,0,0],[2,3],[0]]","1","[[2,3,0],[1,0],[0]]","15","0","","","","","","7","","","","",""
"","","","","","single-stim-button","351","1701418","0.0-3.0-56.1-0.1","611d7da2640a2e31818c3e18","F1","batch6","tol_tohand","713","","","","","","","","","tol_peg_2","713","713","0","[[1,0,0],[2,0],[0]]","2","[[2,3,0],[1,0],[0]]","15","0","","","","","","7","","","","",""
"","","","","","single-stim-button","352","1702457","0.0-3.0-56.1-1.1","611d7da2640a2e31818c3e18","F1","batch6","tol_toboard","1039","","","","","","","","","tol_peg_3","1039","1039","0","[[1,0,0],[2,0],[3]]","2","[[2,3,0],[1,0],[0]]","15","0","","","","","","7","","","","",""
"","","","","","single-stim-button","353","1704546","0.0-3.0-56.2-0.2","611d7da2640a2e31818c3e18","F1","batch6","tol_tohand","2088","","","","","","","","","tol_peg_1","2088","2088","0","[[0,0,0],[2,0],[3]]","3","[[2,3,0],[1,0],[0]]","15","0","","","","","","7","","","","",""
