"success","timeout","failed_images","failed_audio","failed_video","trial_type","trial_index","time_elapsed","internal_node_id","subject_id","study_id","session_id","task","rt","stimulus","response","item","answer","correct","spm_correct","spm_rt","view_history","fiar_detect_rt","fiar_detect_correct","total_correct_fiar_detect","post_trial_gap","choices","mouse_click","stim_duration","block_duration","timing_post_trial","current_position","tol_num_moves_made","tol_target","tol_problem_id","tol_rt","key_press","possible_responses","tol_correct","preplanning","tol_rt_per_trial","tol_min_moves"
"true","false","[]","[]","[]","preload","0","14965","0.0-0.0","6120602a67554358bbd53c9d","C3","batch3","","","","","","","","","","","","","","","","","","","","","","","","","","","","","",""
"true","","","","","fullscreen","1","34086","0.0-1.0-0.0","6120602a67554358bbd53c9d","C3","batch3","","","","","","","","","","","","","","","","","","","","","","","","","","","","","",""
"true","","","","","fullscreen","2","39621","0.0-2.0-0.0","6120602a67554358bbd53c9d","C3","batch3","spm_fullscreen","","","","","","","","","","","","","","","","","","","","","","","","","","","","",""
"","","","","","html-button-response","3","69047","0.0-2.0-1.0","6120602a67554358bbd53c9d","C3","batch3","","29423.600000023842","<p class = block-text><b>Instructions</b> <br>This is a widely used intelligence test in research. <br>In this test, a figure with a missing piece will be presented.<br>Below the figure are alternative pieces to complete the figure, only one of which is correct.<br> Different figures might involve different principles for obtaining the missing piece<br>Your job is to select the most logical piece to complete the figure.</p>","0","","","","","","","","","","","","","","","","","","","","","","","","","",""
"","","","","","html-keyboard-response","4","69850","0.0-2.0-2.0-0.0","6120602a67554358bbd53c9d","C3","batch3","spm_show_trial_num","null","<p class=block-text>Trial 1 out of 60</p>","null","","","","","","","","","","","","","","","","","","","","","","","","","",""
"","","","","","image-button-response","5","75223","0.0-2.0-2.0-1.0","6120602a67554358bbd53c9d","C3","batch3","spm_respsonse","5369","img/question_1_1.jpeg","3","mat_01","4","1","1","5369","","","","","","","","","","","","","","","","","","","","",""
"","","","","","html-keyboard-response","6","76275","0.0-2.0-2.0-0.1","6120602a67554358bbd53c9d","C3","batch3","spm_show_trial_num","null","<p class=block-text>Trial 2 out of 60</p>","null","","","","","","","","","","","","","","","","","","","","","","","","","",""
"","","","","","image-button-response","7","79175","0.0-2.0-2.0-1.1","6120602a67554358bbd53c9d","C3","batch3","spm_respsonse","2896.7999999523163","img/question_1_2.jpeg","4","mat_02","5","1","1","2896.7999999523163","","","","","","","","","","","","","","","","","","","","",""
"","","","","","html-keyboard-response","8","80226","0.0-2.0-2.0-0.2","6120602a67554358bbd53c9d","C3","batch3","spm_show_trial_num","null","<p class=block-text>Trial 3 out of 60</p>","null","","","","","","","","","","","","","","","","","","","","","","","","","",""
"","","","","","image-button-response","9","83743","0.0-2.0-2.0-1.2","6120602a67554358bbd53c9d","C3","batch3","spm_respsonse","3514.7000000476837","img/question_1_3.jpeg","0","mat_03","1","1","1","3514.7000000476837","","","","","","","","","","","","","","","","","","","","",""
"","","","","","html-keyboard-response","10","84809","0.0-2.0-2.0-0.3","6120602a67554358bbd53c9d","C3","batch3","spm_show_trial_num","null","<p class=block-text>Trial 4 out of 60</p>","null","","","","","","","","","","","","","","","","","","","","","","","","","",""
"","","","","","image-button-response","11","89495","0.0-2.0-2.0-1.3","6120602a67554358bbd53c9d","C3","batch3","spm_respsonse","4684.100000023842","img/question_1_4.jpeg","1","mat_04","2","1","1","4684.100000023842","","","","","","","","","","","","","","","","","","","","",""
"","","","","","html-keyboard-response","12","90559","0.0-2.0-2.0-0.4","6120602a67554358bbd53c9d","C3","batch3","spm_show_trial_num","null","<p class=block-text>Trial 5 out of 60</p>","null","","","","","","","","","","","","","","","","","","","","","","","","","",""
"","","","","","image-button-response","13","96719","0.0-2.0-2.0-1.4","6120602a67554358bbd53c9d","C3","batch3","spm_respsonse","6156.600000023842","img/question_1_5.jpeg","5","mat_05","6","1","1","6156.600000023842","","","","","","","","","","","","","","","","","","","","",""
"","","","","","html-keyboard-response","14","97797","0.0-2.0-2.0-0.5","6120602a67554358bbd53c9d","C3","batch3","spm_show_trial_num","null","<p class=block-text>Trial 6 out of 60</p>","null","","","","","","","","","","","","","","","","","","","","","","","","","",""
"","","","","","image-button-response","15","102047","0.0-2.0-2.0-1.5","6120602a67554358bbd53c9d","C3","batch3","spm_respsonse","4246.899999976158","img/question_1_6.jpeg","2","mat_06","3","1","1","4246.899999976158","","","","","","","","","","","","","","","","","","","","",""
"","","","","","html-keyboard-response","16","103100","0.0-2.0-2.0-0.6","6120602a67554358bbd53c9d","C3","batch3","spm_show_trial_num","null","<p class=block-text>Trial 7 out of 60</p>","null","","","","","","","","","","","","","","","","","","","","","","","","","",""
"","","","","","image-button-response","17","108231","0.0-2.0-2.0-1.6","6120602a67554358bbd53c9d","C3","batch3","spm_respsonse","5127.899999976158","img/question_1_7.jpeg","5","mat_07","6","1","1","5127.899999976158","","","","","","","","","","","","","","","","","","","","",""
"","","","","","html-keyboard-response","18","109293","0.0-2.0-2.0-0.7","6120602a67554358bbd53c9d","C3","batch3","spm_show_trial_num","null","<p class=block-text>Trial 8 out of 60</p>","null","","","","","","","","","","","","","","","","","","","","","","","","","",""
"","","","","","image-button-response","19","115855","0.0-2.0-2.0-1.7","6120602a67554358bbd53c9d","C3","batch3","spm_respsonse","6558.100000023842","img/question_1_8.jpeg","1","mat_08","2","1","1","6558.100000023842","","","","","","","","","","","","","","","","","","","","",""
"","","","","","html-keyboard-response","20","116906","0.0-2.0-2.0-0.8","6120602a67554358bbd53c9d","C3","batch3","spm_show_trial_num","null","<p class=block-text>Trial 9 out of 60</p>","null","","","","","","","","","","","","","","","","","","","","","","","","","",""
"","","","","","image-button-response","21","123167","0.0-2.0-2.0-1.8","6120602a67554358bbd53c9d","C3","batch3","spm_respsonse","6257.100000023842","img/question_1_9.jpeg","0","mat_09","1","1","1","6257.100000023842","","","","","","","","","","","","","","","","","","","","",""
"","","","","","html-keyboard-response","22","124220","0.0-2.0-2.0-0.9","6120602a67554358bbd53c9d","C3","batch3","spm_show_trial_num","null","<p class=block-text>Trial 10 out of 60</p>","null","","","","","","","","","","","","","","","","","","","","","","","","","",""
"","","","","","image-button-response","23","128895","0.0-2.0-2.0-1.9","6120602a67554358bbd53c9d","C3","batch3","spm_respsonse","4671.599999904633","img/question_1_10.jpeg","2","mat_10","3","1","1","4671.599999904633","","","","","","","","","","","","","","","","","","","","",""
"","","","","","html-keyboard-response","24","129949","0.0-2.0-2.0-0.10","6120602a67554358bbd53c9d","C3","batch3","spm_show_trial_num","null","<p class=block-text>Trial 11 out of 60</p>","null","","","","","","","","","","","","","","","","","","","","","","","","","",""
"","","","","","image-button-response","25","137119","0.0-2.0-2.0-1.10","6120602a67554358bbd53c9d","C3","batch3","spm_respsonse","7166.200000047684","img/question_1_11.jpeg","3","mat_11","4","1","1","7166.200000047684","","","","","","","","","","","","","","","","","","","","",""
"","","","","","html-keyboard-response","26","138171","0.0-2.0-2.0-0.11","6120602a67554358bbd53c9d","C3","batch3","spm_show_trial_num","null","<p class=block-text>Trial 12 out of 60</p>","null","","","","","","","","","","","","","","","","","","","","","","","","","",""
"","","","","","image-button-response","27","155695","0.0-2.0-2.0-1.11","6120602a67554358bbd53c9d","C3","batch3","spm_respsonse","17520.100000023842","img/question_1_12.jpeg","4","mat_12","5","1","1","17520.100000023842","","","","","","","","","","","","","","","","","","","","",""
"","","","","","html-keyboard-response","28","156751","0.0-2.0-2.0-0.12","6120602a67554358bbd53c9d","C3","batch3","spm_show_trial_num","null","<p class=block-text>Trial 13 out of 60</p>","null","","","","","","","","","","","","","","","","","","","","","","","","","",""
"","","","","","image-button-response","29","160839","0.0-2.0-2.0-1.12","6120602a67554358bbd53c9d","C3","batch3","spm_respsonse","4084.399999976158","img/question_2_1.jpeg","1","mat_13","2","1","1","4084.399999976158","","","","","","","","","","","","","","","","","","","","",""
"","","","","","html-keyboard-response","30","161901","0.0-2.0-2.0-0.13","6120602a67554358bbd53c9d","C3","batch3","spm_show_trial_num","null","<p class=block-text>Trial 14 out of 60</p>","null","","","","","","","","","","","","","","","","","","","","","","","","","",""
"","","","","","image-button-response","31","167151","0.0-2.0-2.0-1.13","6120602a67554358bbd53c9d","C3","batch3","spm_respsonse","5246.399999976158","img/question_2_2.jpeg","5","mat_14","6","1","1","5246.399999976158","","","","","","","","","","","","","","","","","","","","",""
"","","","","","html-keyboard-response","32","168212","0.0-2.0-2.0-0.14","6120602a67554358bbd53c9d","C3","batch3","spm_show_trial_num","null","<p class=block-text>Trial 15 out of 60</p>","null","","","","","","","","","","","","","","","","","","","","","","","","","",""
"","","","","","image-button-response","33","172535","0.0-2.0-2.0-1.14","6120602a67554358bbd53c9d","C3","batch3","spm_respsonse","4319.400000095367","img/question_2_3.jpeg","0","mat_15","1","1","1","4319.400000095367","","","","","","","","","","","","","","","","","","","","",""
"","","","","","html-keyboard-response","34","173594","0.0-2.0-2.0-0.15","6120602a67554358bbd53c9d","C3","batch3","spm_show_trial_num","null","<p class=block-text>Trial 16 out of 60</p>","null","","","","","","","","","","","","","","","","","","","","","","","","","",""
"","","","","","image-button-response","35","177999","0.0-2.0-2.0-1.15","6120602a67554358bbd53c9d","C3","batch3","spm_respsonse","4401.899999976158","img/question_2_4.jpeg","1","mat_16","2","1","1","4401.899999976158","","","","","","","","","","","","","","","","","","","","",""
"","","","","","html-keyboard-response","36","179062","0.0-2.0-2.0-0.16","6120602a67554358bbd53c9d","C3","batch3","spm_show_trial_num","null","<p class=block-text>Trial 17 out of 60</p>","null","","","","","","","","","","","","","","","","","","","","","","","","","",""
"","","","","","image-button-response","37","184743","0.0-2.0-2.0-1.16","6120602a67554358bbd53c9d","C3","batch3","spm_respsonse","5677.200000047684","img/question_2_5.jpeg","0","mat_17","1","1","1","5677.200000047684","","","","","","","","","","","","","","","","","","","","",""
"","","","","","html-keyboard-response","38","185808","0.0-2.0-2.0-0.17","6120602a67554358bbd53c9d","C3","batch3","spm_show_trial_num","null","<p class=block-text>Trial 18 out of 60</p>","null","","","","","","","","","","","","","","","","","","","","","","","","","",""
"","","","","","image-button-response","39","191590","0.0-2.0-2.0-1.17","6120602a67554358bbd53c9d","C3","batch3","spm_respsonse","5779.600000023842","img/question_2_6.jpeg","2","mat_18","3","1","1","5779.600000023842","","","","","","","","","","","","","","","","","","","","",""
"","","","","","html-keyboard-response","40","192642","0.0-2.0-2.0-0.18","6120602a67554358bbd53c9d","C3","batch3","spm_show_trial_num","null","<p class=block-text>Trial 19 out of 60</p>","null","","","","","","","","","","","","","","","","","","","","","","","","","",""
"","","","","","image-button-response","41","199062","0.0-2.0-2.0-1.18","6120602a67554358bbd53c9d","C3","batch3","spm_respsonse","6416.5","img/question_2_7.jpeg","0","mat_19","5","0","0","6416.5","","","","","","","","","","","","","","","","","","","","",""
"","","","","","html-keyboard-response","42","200125","0.0-2.0-2.0-0.19","6120602a67554358bbd53c9d","C3","batch3","spm_show_trial_num","null","<p class=block-text>Trial 20 out of 60</p>","null","","","","","","","","","","","","","","","","","","","","","","","","","",""
"","","","","","image-button-response","43","208558","0.0-2.0-2.0-1.19","6120602a67554358bbd53c9d","C3","batch3","spm_respsonse","8429.399999976158","img/question_2_8.jpeg","5","mat_20","6","1","1","8429.399999976158","","","","","","","","","","","","","","","","","","","","",""
"","","","","","html-keyboard-response","44","209610","0.0-2.0-2.0-0.20","6120602a67554358bbd53c9d","C3","batch3","spm_show_trial_num","null","<p class=block-text>Trial 21 out of 60</p>","null","","","","","","","","","","","","","","","","","","","","","","","","","",""
"","","","","","image-button-response","45","215582","0.0-2.0-2.0-1.20","6120602a67554358bbd53c9d","C3","batch3","spm_respsonse","5968","img/question_2_9.jpeg","3","mat_21","4","1","1","5968","","","","","","","","","","","","","","","","","","","","",""
"","","","","","html-keyboard-response","46","216634","0.0-2.0-2.0-0.21","6120602a67554358bbd53c9d","C3","batch3","spm_show_trial_num","null","<p class=block-text>Trial 22 out of 60</p>","null","","","","","","","","","","","","","","","","","","","","","","","","","",""
"","","","","","image-button-response","47","221886","0.0-2.0-2.0-1.21","6120602a67554358bbd53c9d","C3","batch3","spm_respsonse","5250.400000095367","img/question_2_10.jpeg","2","mat_22","3","1","1","5250.400000095367","","","","","","","","","","","","","","","","","","","","",""
"","","","","","html-keyboard-response","48","222939","0.0-2.0-2.0-0.22","6120602a67554358bbd53c9d","C3","batch3","spm_show_trial_num","null","<p class=block-text>Trial 23 out of 60</p>","null","","","","","","","","","","","","","","","","","","","","","","","","","",""
"","","","","","image-button-response","49","228358","0.0-2.0-2.0-1.22","6120602a67554358bbd53c9d","C3","batch3","spm_respsonse","5415.5","img/question_2_11.jpeg","3","mat_23","4","1","1","5415.5","","","","","","","","","","","","","","","","","","","","",""
"","","","","","html-keyboard-response","50","229409","0.0-2.0-2.0-0.23","6120602a67554358bbd53c9d","C3","batch3","spm_show_trial_num","null","<p class=block-text>Trial 24 out of 60</p>","null","","","","","","","","","","","","","","","","","","","","","","","","","",""
"","","","","","image-button-response","51","238838","0.0-2.0-2.0-1.23","6120602a67554358bbd53c9d","C3","batch3","spm_respsonse","9425.100000023842","img/question_2_12.jpeg","4","mat_24","5","1","1","9425.100000023842","","","","","","","","","","","","","","","","","","","","",""
"","","","","","html-button-response","52","241326","0.0-2.0-3.0","6120602a67554358bbd53c9d","C3","batch3","attention_check","2235.2000000476837","<p class = block-text>Attention check: Please choose 1<br></p>","0","","","true","","","","","","","","","","","","","","","","","","","","","","",""
"","","","","","html-keyboard-response","53","242127","0.0-2.0-4.0-0.0","6120602a67554358bbd53c9d","C3","batch3","spm_show_trial_num","null","<p class=block-text>Trial 25 out of 60</p>","null","","","","","","","","","","","","","","","","","","","","","","","","","",""
"","","","","","image-button-response","54","248135","0.0-2.0-4.0-1.0","6120602a67554358bbd53c9d","C3","batch3","spm_respsonse","6003.299999952316","img/question_3_1.jpeg","7","mat_25","8","1","1","6003.299999952316","","","","","","","","","","","","","","","","","","","","",""
"","","","","","html-keyboard-response","55","249187","0.0-2.0-4.0-0.1","6120602a67554358bbd53c9d","C3","batch3","spm_show_trial_num","null","<p class=block-text>Trial 26 out of 60</p>","null","","","","","","","","","","","","","","","","","","","","","","","","","",""
"","","","","","image-button-response","56","256862","0.0-2.0-4.0-1.1","6120602a67554358bbd53c9d","C3","batch3","spm_respsonse","7672.399999976158","img/question_3_2.jpeg","1","mat_26","2","1","1","7672.399999976158","","","","","","","","","","","","","","","","","","","","",""
"","","","","","html-keyboard-response","57","257929","0.0-2.0-4.0-0.2","6120602a67554358bbd53c9d","C3","batch3","spm_show_trial_num","null","<p class=block-text>Trial 27 out of 60</p>","null","","","","","","","","","","","","","","","","","","","","","","","","","",""
"","","","","","image-button-response","58","264863","0.0-2.0-4.0-1.2","6120602a67554358bbd53c9d","C3","batch3","spm_respsonse","6929.5","img/question_3_3.jpeg","2","mat_27","3","1","1","6929.5","","","","","","","","","","","","","","","","","","","","",""
"","","","","","html-keyboard-response","59","265915","0.0-2.0-4.0-0.3","6120602a67554358bbd53c9d","C3","batch3","spm_show_trial_num","null","<p class=block-text>Trial 28 out of 60</p>","null","","","","","","","","","","","","","","","","","","","","","","","","","",""
"","","","","","image-button-response","60","276951","0.0-2.0-4.0-1.3","6120602a67554358bbd53c9d","C3","batch3","spm_respsonse","11032.5","img/question_3_4.jpeg","7","mat_28","8","1","1","11032.5","","","","","","","","","","","","","","","","","","","","",""
"","","","","","html-keyboard-response","61","278003","0.0-2.0-4.0-0.4","6120602a67554358bbd53c9d","C3","batch3","spm_show_trial_num","null","<p class=block-text>Trial 29 out of 60</p>","null","","","","","","","","","","","","","","","","","","","","","","","","","",""
"","","","","","image-button-response","62","287839","0.0-2.0-4.0-1.4","6120602a67554358bbd53c9d","C3","batch3","spm_respsonse","9832.300000071526","img/question_3_5.jpeg","6","mat_29","7","1","1","9832.300000071526","","","","","","","","","","","","","","","","","","","","",""
"","","","","","html-keyboard-response","63","288891","0.0-2.0-4.0-0.5","6120602a67554358bbd53c9d","C3","batch3","spm_show_trial_num","null","<p class=block-text>Trial 30 out of 60</p>","null","","","","","","","","","","","","","","","","","","","","","","","","","",""
"","","","","","image-button-response","64","296231","0.0-2.0-4.0-1.5","6120602a67554358bbd53c9d","C3","batch3","spm_respsonse","7335.400000095367","img/question_3_6.jpeg","3","mat_30","4","1","1","7335.400000095367","","","","","","","","","","","","","","","","","","","","",""
"","","","","","html-keyboard-response","65","297283","0.0-2.0-4.0-0.6","6120602a67554358bbd53c9d","C3","batch3","spm_show_trial_num","null","<p class=block-text>Trial 31 out of 60</p>","null","","","","","","","","","","","","","","","","","","","","","","","","","",""
"","","","","","image-button-response","66","306199","0.0-2.0-4.0-1.6","6120602a67554358bbd53c9d","C3","batch3","spm_respsonse","8912.400000095367","img/question_3_7.jpeg","4","mat_31","5","1","1","8912.400000095367","","","","","","","","","","","","","","","","","","","","",""
"","","","","","html-keyboard-response","67","307251","0.0-2.0-4.0-0.7","6120602a67554358bbd53c9d","C3","batch3","spm_show_trial_num","null","<p class=block-text>Trial 32 out of 60</p>","null","","","","","","","","","","","","","","","","","","","","","","","","","",""
"","","","","","image-button-response","68","342422","0.0-2.0-4.0-1.7","6120602a67554358bbd53c9d","C3","batch3","spm_respsonse","35168.40000009537","img/question_3_8.jpeg","0","mat_32","1","1","1","35168.40000009537","","","","","","","","","","","","","","","","","","","","",""
"","","","","","html-keyboard-response","69","343480","0.0-2.0-4.0-0.8","6120602a67554358bbd53c9d","C3","batch3","spm_show_trial_num","null","<p class=block-text>Trial 33 out of 60</p>","null","","","","","","","","","","","","","","","","","","","","","","","","","",""
"","","","","","image-button-response","70","351174","0.0-2.0-4.0-1.8","6120602a67554358bbd53c9d","C3","batch3","spm_respsonse","7690.699999928474","img/question_3_9.jpeg","6","mat_33","7","1","1","7690.699999928474","","","","","","","","","","","","","","","","","","","","",""
"","","","","","html-keyboard-response","71","352227","0.0-2.0-4.0-0.9","6120602a67554358bbd53c9d","C3","batch3","spm_show_trial_num","null","<p class=block-text>Trial 34 out of 60</p>","null","","","","","","","","","","","","","","","","","","","","","","","","","",""
"","","","","","image-button-response","72","365575","0.0-2.0-4.0-1.9","6120602a67554358bbd53c9d","C3","batch3","spm_respsonse","13343.5","img/question_3_10.jpeg","5","mat_34","6","1","1","13343.5","","","","","","","","","","","","","","","","","","","","",""
"","","","","","html-keyboard-response","73","366626","0.0-2.0-4.0-0.10","6120602a67554358bbd53c9d","C3","batch3","spm_show_trial_num","null","<p class=block-text>Trial 35 out of 60</p>","null","","","","","","","","","","","","","","","","","","","","","","","","","",""
"","","","","","image-button-response","74","388223","0.0-2.0-4.0-1.10","6120602a67554358bbd53c9d","C3","batch3","spm_respsonse","21593.399999976158","img/question_3_11.jpeg","4","mat_35","1","0","0","21593.399999976158","","","","","","","","","","","","","","","","","","","","",""
"","","","","","html-keyboard-response","75","389275","0.0-2.0-4.0-0.11","6120602a67554358bbd53c9d","C3","batch3","spm_show_trial_num","null","<p class=block-text>Trial 36 out of 60</p>","null","","","","","","","","","","","","","","","","","","","","","","","","","",""
"","","","","","image-button-response","76","408719","0.0-2.0-4.0-1.11","6120602a67554358bbd53c9d","C3","batch3","spm_respsonse","19440.600000023842","img/question_3_12.jpeg","2","mat_36","2","0","0","19440.600000023842","","","","","","","","","","","","","","","","","","","","",""
"","","","","","html-keyboard-response","77","409771","0.0-2.0-4.0-0.12","6120602a67554358bbd53c9d","C3","batch3","spm_show_trial_num","null","<p class=block-text>Trial 37 out of 60</p>","null","","","","","","","","","","","","","","","","","","","","","","","","","",""
"","","","","","image-button-response","78","414463","0.0-2.0-4.0-1.12","6120602a67554358bbd53c9d","C3","batch3","spm_respsonse","4688.300000071526","img/question_4_1.jpeg","2","mat_37","3","1","1","4688.300000071526","","","","","","","","","","","","","","","","","","","","",""
"","","","","","html-keyboard-response","79","415516","0.0-2.0-4.0-0.13","6120602a67554358bbd53c9d","C3","batch3","spm_show_trial_num","null","<p class=block-text>Trial 38 out of 60</p>","null","","","","","","","","","","","","","","","","","","","","","","","","","",""
"","","","","","image-button-response","80","424870","0.0-2.0-4.0-1.13","6120602a67554358bbd53c9d","C3","batch3","spm_respsonse","9351.5","img/question_4_2.jpeg","3","mat_38","4","1","1","9351.5","","","","","","","","","","","","","","","","","","","","",""
"","","","","","html-keyboard-response","81","425935","0.0-2.0-4.0-0.14","6120602a67554358bbd53c9d","C3","batch3","spm_show_trial_num","null","<p class=block-text>Trial 39 out of 60</p>","null","","","","","","","","","","","","","","","","","","","","","","","","","",""
"","","","","","image-button-response","82","439094","0.0-2.0-4.0-1.14","6120602a67554358bbd53c9d","C3","batch3","spm_respsonse","13155.599999904633","img/question_4_3.jpeg","2","mat_39","3","1","1","13155.599999904633","","","","","","","","","","","","","","","","","","","","",""
"","","","","","html-keyboard-response","83","440151","0.0-2.0-4.0-0.15","6120602a67554358bbd53c9d","C3","batch3","spm_show_trial_num","null","<p class=block-text>Trial 40 out of 60</p>","null","","","","","","","","","","","","","","","","","","","","","","","","","",""
"","","","","","image-button-response","84","449294","0.0-2.0-4.0-1.15","6120602a67554358bbd53c9d","C3","batch3","spm_respsonse","9139.200000047684","img/question_4_4.jpeg","6","mat_40","7","1","1","9139.200000047684","","","","","","","","","","","","","","","","","","","","",""
"","","","","","html-keyboard-response","85","450359","0.0-2.0-4.0-0.16","6120602a67554358bbd53c9d","C3","batch3","spm_show_trial_num","null","<p class=block-text>Trial 41 out of 60</p>","null","","","","","","","","","","","","","","","","","","","","","","","","","",""
"","","","","","image-button-response","86","460846","0.0-2.0-4.0-1.16","6120602a67554358bbd53c9d","C3","batch3","spm_respsonse","10484.100000023842","img/question_4_5.jpeg","7","mat_41","8","1","1","10484.100000023842","","","","","","","","","","","","","","","","","","","","",""
"","","","","","html-keyboard-response","87","461899","0.0-2.0-4.0-0.17","6120602a67554358bbd53c9d","C3","batch3","spm_show_trial_num","null","<p class=block-text>Trial 42 out of 60</p>","null","","","","","","","","","","","","","","","","","","","","","","","","","",""
"","","","","","image-button-response","88","473638","0.0-2.0-4.0-1.17","6120602a67554358bbd53c9d","C3","batch3","spm_respsonse","11735.5","img/question_4_6.jpeg","5","mat_42","6","1","1","11735.5","","","","","","","","","","","","","","","","","","","","",""
"","","","","","html-keyboard-response","89","474691","0.0-2.0-4.0-0.18","6120602a67554358bbd53c9d","C3","batch3","spm_show_trial_num","null","<p class=block-text>Trial 43 out of 60</p>","null","","","","","","","","","","","","","","","","","","","","","","","","","",""
"","","","","","image-button-response","90","488046","0.0-2.0-4.0-1.18","6120602a67554358bbd53c9d","C3","batch3","spm_respsonse","13352.299999952316","img/question_4_7.jpeg","4","mat_43","5","1","1","13352.299999952316","","","","","","","","","","","","","","","","","","","","",""
"","","","","","html-keyboard-response","91","489097","0.0-2.0-4.0-0.19","6120602a67554358bbd53c9d","C3","batch3","spm_show_trial_num","null","<p class=block-text>Trial 44 out of 60</p>","null","","","","","","","","","","","","","","","","","","","","","","","","","",""
"","","","","","image-button-response","92","508510","0.0-2.0-4.0-1.19","6120602a67554358bbd53c9d","C3","batch3","spm_respsonse","19409.399999976158","img/question_4_8.jpeg","3","mat_44","4","1","1","19409.399999976158","","","","","","","","","","","","","","","","","","","","",""
"","","","","","html-keyboard-response","93","509563","0.0-2.0-4.0-0.20","6120602a67554358bbd53c9d","C3","batch3","spm_show_trial_num","null","<p class=block-text>Trial 45 out of 60</p>","null","","","","","","","","","","","","","","","","","","","","","","","","","",""
"","","","","","image-button-response","94","522310","0.0-2.0-4.0-1.20","6120602a67554358bbd53c9d","C3","batch3","spm_respsonse","12745.299999952316","img/question_4_9.jpeg","0","mat_45","1","1","1","12745.299999952316","","","","","","","","","","","","","","","","","","","","",""
"","","","","","html-keyboard-response","95","523368","0.0-2.0-4.0-0.21","6120602a67554358bbd53c9d","C3","batch3","spm_show_trial_num","null","<p class=block-text>Trial 46 out of 60</p>","null","","","","","","","","","","","","","","","","","","","","","","","","","",""
"","","","","","image-button-response","96","539038","0.0-2.0-4.0-1.21","6120602a67554358bbd53c9d","C3","batch3","spm_respsonse","15666.799999952316","img/question_4_10.jpeg","1","mat_46","2","1","1","15666.799999952316","","","","","","","","","","","","","","","","","","","","",""
"","","","","","html-keyboard-response","97","540090","0.0-2.0-4.0-0.22","6120602a67554358bbd53c9d","C3","batch3","spm_show_trial_num","null","<p class=block-text>Trial 47 out of 60</p>","null","","","","","","","","","","","","","","","","","","","","","","","","","",""
"","","","","","image-button-response","98","566703","0.0-2.0-4.0-1.22","6120602a67554358bbd53c9d","C3","batch3","spm_respsonse","26608.600000023842","img/question_4_11.jpeg","4","mat_47","5","1","1","26608.600000023842","","","","","","","","","","","","","","","","","","","","",""
"","","","","","html-keyboard-response","99","567755","0.0-2.0-4.0-0.23","6120602a67554358bbd53c9d","C3","batch3","spm_show_trial_num","null","<p class=block-text>Trial 48 out of 60</p>","null","","","","","","","","","","","","","","","","","","","","","","","","","",""
"","","","","","image-button-response","100","629278","0.0-2.0-4.0-1.23","6120602a67554358bbd53c9d","C3","batch3","spm_respsonse","61520.39999997616","img/question_4_12.jpeg","4","mat_48","6","0","0","61520.39999997616","","","","","","","","","","","","","","","","","","","","",""
"","","","","","html-keyboard-response","101","630332","0.0-2.0-4.0-0.24","6120602a67554358bbd53c9d","C3","batch3","spm_show_trial_num","null","<p class=block-text>Trial 49 out of 60</p>","null","","","","","","","","","","","","","","","","","","","","","","","","","",""
"","","","","","image-button-response","102","646534","0.0-2.0-4.0-1.24","6120602a67554358bbd53c9d","C3","batch3","spm_respsonse","16198.899999976158","img/question_5_1.jpeg","6","mat_49","7","1","1","16198.899999976158","","","","","","","","","","","","","","","","","","","","",""
"","","","","","html-keyboard-response","103","647595","0.0-2.0-4.0-0.25","6120602a67554358bbd53c9d","C3","batch3","spm_show_trial_num","null","<p class=block-text>Trial 50 out of 60</p>","null","","","","","","","","","","","","","","","","","","","","","","","","","",""
"","","","","","image-button-response","104","685342","0.0-2.0-4.0-1.25","6120602a67554358bbd53c9d","C3","batch3","spm_respsonse","37743.40000009537","img/question_5_2.jpeg","0","mat_50","6","0","0","37743.40000009537","","","","","","","","","","","","","","","","","","","","",""
"","","","","","html-keyboard-response","105","686394","0.0-2.0-4.0-0.26","6120602a67554358bbd53c9d","C3","batch3","spm_show_trial_num","null","<p class=block-text>Trial 51 out of 60</p>","null","","","","","","","","","","","","","","","","","","","","","","","","","",""
"","","","","","image-button-response","106","735926","0.0-2.0-4.0-1.26","6120602a67554358bbd53c9d","C3","batch3","spm_respsonse","49529","img/question_5_3.jpeg","1","mat_51","8","0","0","49529","","","","","","","","","","","","","","","","","","","","",""
"","","","","","html-keyboard-response","107","736979","0.0-2.0-4.0-0.27","6120602a67554358bbd53c9d","C3","batch3","spm_show_trial_num","null","<p class=block-text>Trial 52 out of 60</p>","null","","","","","","","","","","","","","","","","","","","","","","","","","",""
"","","","","","image-button-response","108","756358","0.0-2.0-4.0-1.27","6120602a67554358bbd53c9d","C3","batch3","spm_respsonse","19376.399999976158","img/question_5_4.jpeg","2","mat_52","2","0","0","19376.399999976158","","","","","","","","","","","","","","","","","","","","",""
"","","","","","html-keyboard-response","109","757424","0.0-2.0-4.0-0.28","6120602a67554358bbd53c9d","C3","batch3","spm_show_trial_num","null","<p class=block-text>Trial 53 out of 60</p>","null","","","","","","","","","","","","","","","","","","","","","","","","","",""
"","","","","","image-button-response","110","782958","0.0-2.0-4.0-1.28","6120602a67554358bbd53c9d","C3","batch3","spm_respsonse","25530.799999952316","img/question_5_5.jpeg","1","mat_53","1","0","0","25530.799999952316","","","","","","","","","","","","","","","","","","","","",""
"","","","","","html-keyboard-response","111","784011","0.0-2.0-4.0-0.29","6120602a67554358bbd53c9d","C3","batch3","spm_show_trial_num","null","<p class=block-text>Trial 54 out of 60</p>","null","","","","","","","","","","","","","","","","","","","","","","","","","",""
"","","","","","image-button-response","112","850566","0.0-2.0-4.0-1.29","6120602a67554358bbd53c9d","C3","batch3","spm_respsonse","66552.09999990463","img/question_5_6.jpeg","4","mat_54","5","1","1","66552.09999990463","","","","","","","","","","","","","","","","","","","","",""
"","","","","","html-keyboard-response","113","851619","0.0-2.0-4.0-0.30","6120602a67554358bbd53c9d","C3","batch3","spm_show_trial_num","null","<p class=block-text>Trial 55 out of 60</p>","null","","","","","","","","","","","","","","","","","","","","","","","","","",""
"","","","","","image-button-response","114","883830","0.0-2.0-4.0-1.30","6120602a67554358bbd53c9d","C3","batch3","spm_respsonse","32207.199999928474","img/question_5_7.jpeg","0","mat_55","1","1","1","32207.199999928474","","","","","","","","","","","","","","","","","","","","",""
"","","","","","html-keyboard-response","115","884884","0.0-2.0-4.0-0.31","6120602a67554358bbd53c9d","C3","batch3","spm_show_trial_num","null","<p class=block-text>Trial 56 out of 60</p>","null","","","","","","","","","","","","","","","","","","","","","","","","","",""
"","","","","","image-button-response","116","897222","0.0-2.0-4.0-1.31","6120602a67554358bbd53c9d","C3","batch3","spm_respsonse","12334.799999952316","img/question_5_8.jpeg","7","mat_56","6","0","0","12334.799999952316","","","","","","","","","","","","","","","","","","","","",""
"","","","","","html-keyboard-response","117","898274","0.0-2.0-4.0-0.32","6120602a67554358bbd53c9d","C3","batch3","spm_show_trial_num","null","<p class=block-text>Trial 57 out of 60</p>","null","","","","","","","","","","","","","","","","","","","","","","","","","",""
"","","","","","image-button-response","118","909166","0.0-2.0-4.0-1.32","6120602a67554358bbd53c9d","C3","batch3","spm_respsonse","10888.799999952316","img/question_5_9.jpeg","4","mat_57","3","0","0","10888.799999952316","","","","","","","","","","","","","","","","","","","","",""
"","","","","","html-keyboard-response","119","910219","0.0-2.0-4.0-0.33","6120602a67554358bbd53c9d","C3","batch3","spm_show_trial_num","null","<p class=block-text>Trial 58 out of 60</p>","null","","","","","","","","","","","","","","","","","","","","","","","","","",""
"","","","","","image-button-response","120","944943","0.0-2.0-4.0-1.33","6120602a67554358bbd53c9d","C3","batch3","spm_respsonse","34719.89999997616","img/question_5_10.jpeg","6","mat_58","2","0","0","34719.89999997616","","","","","","","","","","","","","","","","","","","","",""
"","","","","","html-keyboard-response","121","945995","0.0-2.0-4.0-0.34","6120602a67554358bbd53c9d","C3","batch3","spm_show_trial_num","null","<p class=block-text>Trial 59 out of 60</p>","null","","","","","","","","","","","","","","","","","","","","","","","","","",""
"","","","","","image-button-response","122","964679","0.0-2.0-4.0-1.34","6120602a67554358bbd53c9d","C3","batch3","spm_respsonse","18680.5","img/question_5_11.jpeg","7","mat_59","4","0","0","18680.5","","","","","","","","","","","","","","","","","","","","",""
"","","","","","html-keyboard-response","123","965731","0.0-2.0-4.0-0.35","6120602a67554358bbd53c9d","C3","batch3","spm_show_trial_num","null","<p class=block-text>Trial 60 out of 60</p>","null","","","","","","","","","","","","","","","","","","","","","","","","","",""
"","","","","","image-button-response","124","990062","0.0-2.0-4.0-1.35","6120602a67554358bbd53c9d","C3","batch3","spm_respsonse","24327.5","img/question_5_12.jpeg","6","mat_60","5","0","0","24327.5","","","","","","","","","","","","","","","","","","","","",""
"","","","","","html-button-response","125","992294","0.0-2.0-5.0","6120602a67554358bbd53c9d","C3","batch3","spm_goodbye","1979.0999999046326","<p class= block-text>This concludes the Standard Progressive Matrix game. Thank you for your responses!<br> When you are ready, click the button continue</p>","0","","","","","","","","","","","","","","","","","","","","","","","","","",""
"true","","","","","fullscreen","126","996375","0.0-3.0-0.0","6120602a67554358bbd53c9d","C3","batch3","","","","","","","","","","","","","","","","","","","","","","","","","","","","","",""
"","","","","","instructions","127","1037798","0.0-3.0-1.0-0.0","6120602a67554358bbd53c9d","C3","batch3","","41421.200000047684","","","","","","","","[{""page_index"":0,""viewing_time"":28973.100000023842},{""page_index"":1,""viewing_time"":12447.899999976158}]","","","","","","","","","","","","","","","","","","","",""
"","","","","","html-button-response","128","1039174","0.0-3.0-1.0-1.0-0.0","6120602a67554358bbd53c9d","C3","batch3","pattern_enter_quiz","1375.2000000476837","<p class=block-text> Let's answer a few questions <br>","0","","","","","","","","","","","","","","","","","","","","","","","","","",""
"","","","","","html-button-response","129","1046150","0.0-3.0-1.0-1.0-1.0","6120602a67554358bbd53c9d","C3","batch3","pattern_quiz","6975.199999928474","<p class = block-text>True or False: You will have as much time as you want to make each choice. <br></p>","1","","","true","","","","","","","","","","","","","","","","","","","","","","",""
"","","","","","html-button-response","130","1048486","0.0-3.0-1.0-1.0-2.0","6120602a67554358bbd53c9d","C3","batch3","pattern_quiz_feedback","2334.5","<p class = block-text>Correct! You should make your choice <strong> as fast as you can</strong>.</p>","0","","","","","","","","","","","","","","","","","","","","","","","","","",""
"","","","","","html-button-response","131","1056406","0.0-3.0-1.0-1.0-3.0","6120602a67554358bbd53c9d","C3","batch3","pattern_quiz","7919.200000047684","<p class = block-text>True or False: You will look for 4 pieces in black or white color connected in a row either horizontally, vertically or diagonally. <br></p>","0","","","true","","","","","","","","","","","","","","","","","","","","","","",""
"","","","","","html-button-response","132","1057918","0.0-3.0-1.0-1.0-4.0","6120602a67554358bbd53c9d","C3","batch3","pattern_quiz_feedback","1511.1999999284744","<p class = block-text>Correct! </p>","0","","","","","","","","","","","","","","","","","","","","","","","","","",""
"","","","","","html-button-response","133","1062062","0.0-3.0-2.0","6120602a67554358bbd53c9d","C3","batch3","pattern_enter_practice","4142.5","<p class=block-text> Now that you've understood the game, let's do a few practice trials before we start!<br> <br>","0","","","","","","","","","","","","","","","","","","","","","","","","","",""
"","","","","","image-keyboard-response","134","1063561","0.0-3.0-3.0-0.0","6120602a67554358bbd53c9d","C3","batch3","pattern_practice","1497.1000000238419","stim/prac_yes_18_hor_w1.png","f","","f","true","","","","","","","","","","","","","","","","","","","","","","",""
"","","","","","html-keyboard-response","135","1064578","0.0-3.0-3.0-1.0","6120602a67554358bbd53c9d","C3","batch3","pattern_feedback","null","<p style=""font-size:30px;color:green;"">Correct!</p>","null","","","","","","","","","","","","","","","","","","","","","","","","","",""
"","","","","","image-keyboard-response","136","1065938","0.0-3.0-3.0-0.1","6120602a67554358bbd53c9d","C3","batch3","pattern_practice","1358.3999999761581","stim/prac_no_16_1.png","j","","j","true","","","","","","","","","","","","","","","","","","","","","","",""
"","","","","","html-keyboard-response","137","1066943","0.0-3.0-3.0-1.1","6120602a67554358bbd53c9d","C3","batch3","pattern_feedback","null","<p style=""font-size:30px;color:green;"">Correct!</p>","null","","","","","","","","","","","","","","","","","","","","","","","","","",""
"","","","","","image-keyboard-response","138","1067730","0.0-3.0-3.0-0.2","6120602a67554358bbd53c9d","C3","batch3","pattern_practice","785.2999999523163","stim/prac_yes_16_ver_w1.png","f","","f","true","","","","","","","","","","","","","","","","","","","","","","",""
"","","","","","html-keyboard-response","139","1068732","0.0-3.0-3.0-1.2","6120602a67554358bbd53c9d","C3","batch3","pattern_feedback","null","<p style=""font-size:30px;color:green;"">Correct!</p>","null","","","","","","","","","","","","","","","","","","","","","","","","","",""
"","","","","","image-keyboard-response","140","1069717","0.0-3.0-3.0-0.3","6120602a67554358bbd53c9d","C3","batch3","pattern_practice","982.8999999761581","stim/prac_no_18_1.png","j","","j","true","","","","","","","","","","","","","","","","","","","","","","",""
"","","","","","html-keyboard-response","141","1070737","0.0-3.0-3.0-1.3","6120602a67554358bbd53c9d","C3","batch3","pattern_feedback","null","<p style=""font-size:30px;color:green;"">Correct!</p>","null","","","","","","","","","","","","","","","","","","","","","","","","","",""
"","","","","","image-keyboard-response","142","1071909","0.0-3.0-3.0-0.4","6120602a67554358bbd53c9d","C3","batch3","pattern_practice","1169","stim/prac_yes_20_dia_b1.png","j","","f","false","","","","","","","","","","","","","","","","","","","","","","",""
"","","","","","html-keyboard-response","143","1072920","0.0-3.0-3.0-1.4","6120602a67554358bbd53c9d","C3","batch3","pattern_feedback","null","<p style=""font-size:30px;color:red;"">Wrong.</p>","null","","","","","","","","","","","","","","","","","","","","","","","","","",""
"","","","","","html-button-response","144","1076694","0.0-3.0-4.0","6120602a67554358bbd53c9d","C3","batch3","pattern_enter_official_trials","3771.3000000715256","<p class=block-text> Good job! You are done with practice trials!<br>
        You responded correctly on 80% of the trials.<br>
        Press the button below to start official trials. Now you won't see any feedback about your response</p>","0","","","","","","","","","","","","","","","","","","","","","","","","","",""
"","","","","","html-keyboard-response","145","1077495","0.0-3.0-5.0-0.0","6120602a67554358bbd53c9d","C3","batch3","pattern_show_trial_num","null","<p class=block-text>Trial 1 out of 78</p>","null","","","","","","","","","","","","","","","","","","","","","","","","","",""
"","","","","","image-keyboard-response","146","1079165","0.0-3.0-5.0-1.0","6120602a67554358bbd53c9d","C3","batch3","pattern_response","1667.1000000238419","stim/no_28_2.png","j","pattern_11","j","true","","","","1667.1000000238419","true","1","","","","","","","","","","","","","","","","",""
"","","","","","html-keyboard-response","147","1080475","0.0-3.0-5.0-0.1","6120602a67554358bbd53c9d","C3","batch3","pattern_show_trial_num","null","<p class=block-text>Trial 2 out of 78</p>","null","","","","","","","","","","","","","","","","","","","","","","","","","",""
"","","","","","image-keyboard-response","148","1082563","0.0-3.0-5.0-1.1","6120602a67554358bbd53c9d","C3","batch3","pattern_response","2086.2999999523163","stim/no_37_2_w.png","j","pattern_19","j","true","","","","2086.2999999523163","true","2","","","","","","","","","","","","","","","","",""
"","","","","","html-keyboard-response","149","1083887","0.0-3.0-5.0-0.2","6120602a67554358bbd53c9d","C3","batch3","pattern_show_trial_num","null","<p class=block-text>Trial 3 out of 78</p>","null","","","","","","","","","","","","","","","","","","","","","","","","","",""
"","","","","","image-keyboard-response","150","1084672","0.0-3.0-5.0-1.2","6120602a67554358bbd53c9d","C3","batch3","pattern_response","783.6000000238419","stim/yes_17_ver_b1_b.png","f","pattern_46","f","true","","","","783.6000000238419","true","3","","","","","","","","","","","","","","","","",""
"","","","","","html-keyboard-response","151","1085980","0.0-3.0-5.0-0.3","6120602a67554358bbd53c9d","C3","batch3","pattern_show_trial_num","null","<p class=block-text>Trial 4 out of 78</p>","null","","","","","","","","","","","","","","","","","","","","","","","","","",""
"","","","","","image-keyboard-response","152","1088115","0.0-3.0-5.0-1.3","6120602a67554358bbd53c9d","C3","batch3","pattern_response","2132.5","stim/no_33_1_b.png","j","pattern_15","j","true","","","","2132.5","true","4","","","","","","","","","","","","","","","","",""
"","","","","","html-keyboard-response","153","1089426","0.0-3.0-5.0-0.4","6120602a67554358bbd53c9d","C3","batch3","pattern_show_trial_num","null","<p class=block-text>Trial 5 out of 78</p>","null","","","","","","","","","","","","","","","","","","","","","","","","","",""
"","","","","","image-keyboard-response","154","1090680","0.0-3.0-5.0-1.4","6120602a67554358bbd53c9d","C3","batch3","pattern_response","1251.6000000238419","stim/yes_26_dia_w2_w.png","f","pattern_50","f","true","","","","1251.6000000238419","true","5","","","","","","","","","","","","","","","","",""
"","","","","","html-keyboard-response","155","1092003","0.0-3.0-5.0-0.5","6120602a67554358bbd53c9d","C3","batch3","pattern_show_trial_num","null","<p class=block-text>Trial 6 out of 78</p>","null","","","","","","","","","","","","","","","","","","","","","","","","","",""
"","","","","","image-keyboard-response","156","1093337","0.0-3.0-5.0-1.5","6120602a67554358bbd53c9d","C3","batch3","pattern_response","1332.1000000238419","stim/yes_23_ver_b1.png","f","pattern_48","f","true","","","","1332.1000000238419","true","6","","","","","","","","","","","","","","","","",""
"","","","","","html-keyboard-response","157","1094670","0.0-3.0-5.0-0.6","6120602a67554358bbd53c9d","C3","batch3","pattern_show_trial_num","null","<p class=block-text>Trial 7 out of 78</p>","null","","","","","","","","","","","","","","","","","","","","","","","","","",""
"","","","","","image-keyboard-response","158","1096645","0.0-3.0-5.0-1.6","6120602a67554358bbd53c9d","C3","batch3","pattern_response","1973.7000000476837","stim/no_30_1_b.png","j","pattern_13","j","true","","","","1973.7000000476837","true","7","","","","","","","","","","","","","","","","",""
"","","","","","html-keyboard-response","159","1097961","0.0-3.0-5.0-0.7","6120602a67554358bbd53c9d","C3","batch3","pattern_show_trial_num","null","<p class=block-text>Trial 8 out of 78</p>","null","","","","","","","","","","","","","","","","","","","","","","","","","",""
"","","","","","image-keyboard-response","160","1101351","0.0-3.0-5.0-1.7","6120602a67554358bbd53c9d","C3","batch3","pattern_response","3387.899999976158","stim/no_45_1_w.png","j","pattern_25","j","true","","","","3387.899999976158","true","8","","","","","","","","","","","","","","","","",""
"","","","","","html-keyboard-response","161","1102675","0.0-3.0-5.0-0.8","6120602a67554358bbd53c9d","C3","batch3","pattern_show_trial_num","null","<p class=block-text>Trial 9 out of 78</p>","null","","","","","","","","","","","","","","","","","","","","","","","","","",""
"","","","","","image-keyboard-response","162","1104480","0.0-3.0-5.0-1.8","6120602a67554358bbd53c9d","C3","batch3","pattern_response","1801.6000000238419","stim/yes_46_ver_b1_b.png","f","pattern_68","f","true","","","","1801.6000000238419","true","9","","","","","","","","","","","","","","","","",""
"","","","","","html-keyboard-response","163","1105798","0.0-3.0-5.0-0.9","6120602a67554358bbd53c9d","C3","batch3","pattern_show_trial_num","null","<p class=block-text>Trial 10 out of 78</p>","null","","","","","","","","","","","","","","","","","","","","","","","","","",""
"","","","","","image-keyboard-response","164","1107232","0.0-3.0-5.0-1.9","6120602a67554358bbd53c9d","C3","batch3","pattern_response","1430.3999999761581","stim/no_12_1.png","j","pattern_01","j","true","","","","1430.3999999761581","true","10","","","","","","","","","","","","","","","","",""
"","","","","","html-keyboard-response","165","1108548","0.0-3.0-5.0-0.10","6120602a67554358bbd53c9d","C3","batch3","pattern_show_trial_num","null","<p class=block-text>Trial 11 out of 78</p>","null","","","","","","","","","","","","","","","","","","","","","","","","","",""
"","","","","","image-keyboard-response","166","1110248","0.0-3.0-5.0-1.10","6120602a67554358bbd53c9d","C3","batch3","pattern_response","1697.2000000476837","stim/yes_42_dia_w1_w.png","f","pattern_64","f","true","","","","1697.2000000476837","true","11","","","","","","","","","","","","","","","","",""
"","","","","","html-keyboard-response","167","1111577","0.0-3.0-5.0-0.11","6120602a67554358bbd53c9d","C3","batch3","pattern_show_trial_num","null","<p class=block-text>Trial 12 out of 78</p>","null","","","","","","","","","","","","","","","","","","","","","","","","","",""
"","","","","","image-keyboard-response","168","1114272","0.0-3.0-5.0-1.11","6120602a67554358bbd53c9d","C3","batch3","pattern_response","2692.100000023842","stim/yes_44_ver_w1_w.png","j","pattern_66","f","false","","","","2692.100000023842","false","11","","","","","","","","","","","","","","","","",""
"","","","","","html-keyboard-response","169","1115591","0.0-3.0-5.0-0.12","6120602a67554358bbd53c9d","C3","batch3","pattern_show_trial_num","null","<p class=block-text>Trial 13 out of 78</p>","null","","","","","","","","","","","","","","","","","","","","","","","","","",""
"","","","","","image-keyboard-response","170","1116620","0.0-3.0-5.0-1.12","6120602a67554358bbd53c9d","C3","batch3","pattern_response","1026.7999999523163","stim/yes_33_dia_w1_w.png","f","pattern_56","f","true","","","","1026.7999999523163","true","12","","","","","","","","","","","","","","","","",""
"","","","","","html-keyboard-response","171","1117950","0.0-3.0-5.0-0.13","6120602a67554358bbd53c9d","C3","batch3","pattern_show_trial_num","null","<p class=block-text>Trial 14 out of 78</p>","null","","","","","","","","","","","","","","","","","","","","","","","","","",""
"","","","","","image-keyboard-response","172","1119198","0.0-3.0-5.0-1.13","6120602a67554358bbd53c9d","C3","batch3","pattern_response","1246.7000000476837","stim/yes_49_hor_w1_b.png","f","pattern_70","f","true","","","","1246.7000000476837","true","13","","","","","","","","","","","","","","","","",""
"","","","","","html-keyboard-response","173","1120518","0.0-3.0-5.0-0.14","6120602a67554358bbd53c9d","C3","batch3","pattern_show_trial_num","null","<p class=block-text>Trial 15 out of 78</p>","null","","","","","","","","","","","","","","","","","","","","","","","","","",""
"","","","","","image-keyboard-response","174","1122517","0.0-3.0-5.0-1.14","6120602a67554358bbd53c9d","C3","batch3","pattern_response","1997.2999999523163","stim/no_15_1_w.png","j","pattern_03","j","true","","","","1997.2999999523163","true","14","","","","","","","","","","","","","","","","",""
"","","","","","html-keyboard-response","175","1123833","0.0-3.0-5.0-0.15","6120602a67554358bbd53c9d","C3","batch3","pattern_show_trial_num","null","<p class=block-text>Trial 16 out of 78</p>","null","","","","","","","","","","","","","","","","","","","","","","","","","",""
"","","","","","image-keyboard-response","176","1124865","0.0-3.0-5.0-1.15","6120602a67554358bbd53c9d","C3","batch3","pattern_response","1029.6000000238419","stim/yes_70_ver_b1.png","f","pattern_80","f","true","","","","1029.6000000238419","true","15","","","","","","","","","","","","","","","","",""
"","","","","","html-keyboard-response","177","1126169","0.0-3.0-5.0-0.16","6120602a67554358bbd53c9d","C3","batch3","pattern_show_trial_num","null","<p class=block-text>Trial 17 out of 78</p>","null","","","","","","","","","","","","","","","","","","","","","","","","","",""
"","","","","","image-keyboard-response","178","1127670","0.0-3.0-5.0-1.16","6120602a67554358bbd53c9d","C3","batch3","pattern_response","1499.1000000238419","stim/yes_30_ver_b1_b.png","f","pattern_54","f","true","","","","1499.1000000238419","true","16","","","","","","","","","","","","","","","","",""
"","","","","","html-keyboard-response","179","1128999","0.0-3.0-5.0-0.17","6120602a67554358bbd53c9d","C3","batch3","pattern_show_trial_num","null","<p class=block-text>Trial 18 out of 78</p>","null","","","","","","","","","","","","","","","","","","","","","","","","","",""
"","","","","","image-keyboard-response","180","1130479","0.0-3.0-5.0-1.17","6120602a67554358bbd53c9d","C3","batch3","pattern_response","1478.1000000238419","stim/no_18_1_b.png","j","pattern_05","j","true","","","","1478.1000000238419","true","17","","","","","","","","","","","","","","","","",""
"","","","","","html-keyboard-response","181","1131783","0.0-3.0-5.0-0.18","6120602a67554358bbd53c9d","C3","batch3","pattern_show_trial_num","null","<p class=block-text>Trial 19 out of 78</p>","null","","","","","","","","","","","","","","","","","","","","","","","","","",""
"","","","","","image-keyboard-response","182","1134111","0.0-3.0-5.0-1.18","6120602a67554358bbd53c9d","C3","batch3","pattern_response","2325.399999976158","stim/no_36_1_b.png","j","pattern_17","j","true","","","","2325.399999976158","true","18","","","","","","","","","","","","","","","","",""
"","","","","","html-keyboard-response","183","1135413","0.0-3.0-5.0-0.19","6120602a67554358bbd53c9d","C3","batch3","pattern_show_trial_num","null","<p class=block-text>Trial 20 out of 78</p>","null","","","","","","","","","","","","","","","","","","","","","","","","","",""
"","","","","","image-keyboard-response","184","1137162","0.0-3.0-5.0-1.19","6120602a67554358bbd53c9d","C3","batch3","pattern_response","1747.7000000476837","stim/no_22_1_b.png","j","pattern_07","j","true","","","","1747.7000000476837","true","19","","","","","","","","","","","","","","","","",""
"","","","","","html-keyboard-response","185","1138475","0.0-3.0-5.0-0.20","6120602a67554358bbd53c9d","C3","batch3","pattern_show_trial_num","null","<p class=block-text>Trial 21 out of 78</p>","null","","","","","","","","","","","","","","","","","","","","","","","","","",""
"","","","","","image-keyboard-response","186","1139243","0.0-3.0-5.0-1.20","6120602a67554358bbd53c9d","C3","batch3","pattern_response","765.5","stim/yes_12_hor_w1_w.png","f","pattern_42","f","true","","","","765.5","true","20","","","","","","","","","","","","","","","","",""
"","","","","","html-keyboard-response","187","1140560","0.0-3.0-5.0-0.21","6120602a67554358bbd53c9d","C3","batch3","pattern_show_trial_num","null","<p class=block-text>Trial 22 out of 78</p>","null","","","","","","","","","","","","","","","","","","","","","","","","","",""
"","","","","","image-keyboard-response","188","1142503","0.0-3.0-5.0-1.21","6120602a67554358bbd53c9d","C3","batch3","pattern_response","1940.2000000476837","stim/yes_53_ver_b1_b.png","f","pattern_74","f","true","","","","1940.2000000476837","true","21","","","","","","","","","","","","","","","","",""
"","","","","","html-keyboard-response","189","1143822","0.0-3.0-5.0-0.22","6120602a67554358bbd53c9d","C3","batch3","pattern_show_trial_num","null","<p class=block-text>Trial 23 out of 78</p>","null","","","","","","","","","","","","","","","","","","","","","","","","","",""
"","","","","","image-keyboard-response","190","1146435","0.0-3.0-5.0-1.22","6120602a67554358bbd53c9d","C3","batch3","pattern_response","2611.3000000715256","stim/yes_63_dia_b1.png","f","pattern_78","f","true","","","","2611.3000000715256","true","22","","","","","","","","","","","","","","","","",""
"","","","","","html-keyboard-response","191","1147743","0.0-3.0-5.0-0.23","6120602a67554358bbd53c9d","C3","batch3","pattern_show_trial_num","null","<p class=block-text>Trial 24 out of 78</p>","null","","","","","","","","","","","","","","","","","","","","","","","","","",""
"","","","","","image-keyboard-response","192","1150972","0.0-3.0-5.0-1.23","6120602a67554358bbd53c9d","C3","batch3","pattern_response","3227.8000000715256","stim/no_49_2_b.png","j","pattern_29","j","true","","","","3227.8000000715256","true","23","","","","","","","","","","","","","","","","",""
"","","","","","html-keyboard-response","193","1152275","0.0-3.0-5.0-0.24","6120602a67554358bbd53c9d","C3","batch3","pattern_show_trial_num","null","<p class=block-text>Trial 25 out of 78</p>","null","","","","","","","","","","","","","","","","","","","","","","","","","",""
"","","","","","image-keyboard-response","194","1153154","0.0-3.0-5.0-1.24","6120602a67554358bbd53c9d","C3","batch3","pattern_response","876.3999999761581","stim/yes_39_hor_w1_w.png","f","pattern_62","f","true","","","","876.3999999761581","true","24","","","","","","","","","","","","","","","","",""
"","","","","","html-keyboard-response","195","1154455","0.0-3.0-5.0-0.25","6120602a67554358bbd53c9d","C3","batch3","pattern_show_trial_num","null","<p class=block-text>Trial 26 out of 78</p>","null","","","","","","","","","","","","","","","","","","","","","","","","","",""
"","","","","","image-keyboard-response","196","1158753","0.0-3.0-5.0-1.25","6120602a67554358bbd53c9d","C3","batch3","pattern_response","4295.600000023842","stim/no_67_1.png","j","pattern_39","j","true","","","","4295.600000023842","true","25","","","","","","","","","","","","","","","","",""
"","","","","","html-keyboard-response","197","1160084","0.0-3.0-5.0-0.26","6120602a67554358bbd53c9d","C3","batch3","pattern_show_trial_num","null","<p class=block-text>Trial 27 out of 78</p>","null","","","","","","","","","","","","","","","","","","","","","","","","","",""
"","","","","","image-keyboard-response","198","1164556","0.0-3.0-5.0-1.26","6120602a67554358bbd53c9d","C3","batch3","pattern_response","4469","stim/no_51_1.png","j","pattern_31","j","true","","","","4469","true","26","","","","","","","","","","","","","","","","",""
"","","","","","html-keyboard-response","199","1165872","0.0-3.0-5.0-0.27","6120602a67554358bbd53c9d","C3","batch3","pattern_show_trial_num","null","<p class=block-text>Trial 28 out of 78</p>","null","","","","","","","","","","","","","","","","","","","","","","","","","",""
"","","","","","image-keyboard-response","200","1167194","0.0-3.0-5.0-1.27","6120602a67554358bbd53c9d","C3","batch3","pattern_response","1310.6000000238419","stim/yes_51_dia_b1.png","f","pattern_72","f","true","","","","1310.6000000238419","true","27","","","","","","","","","","","","","","","","",""
"","","","","","html-keyboard-response","201","1168509","0.0-3.0-5.0-0.28","6120602a67554358bbd53c9d","C3","batch3","pattern_show_trial_num","null","<p class=block-text>Trial 29 out of 78</p>","null","","","","","","","","","","","","","","","","","","","","","","","","","",""
"","","","","","image-keyboard-response","202","1169401","0.0-3.0-5.0-1.28","6120602a67554358bbd53c9d","C3","batch3","pattern_response","890.1000000238419","stim/yes_29_hor_b1_b.png","f","pattern_52","f","true","","","","890.1000000238419","true","28","","","","","","","","","","","","","","","","",""
"","","","","","html-keyboard-response","203","1170721","0.0-3.0-5.0-0.29","6120602a67554358bbd53c9d","C3","batch3","pattern_show_trial_num","null","<p class=block-text>Trial 30 out of 78</p>","null","","","","","","","","","","","","","","","","","","","","","","","","","",""
"","","","","","image-keyboard-response","204","1171630","0.0-3.0-5.0-1.29","6120602a67554358bbd53c9d","C3","batch3","pattern_response","907.3000000715256","stim/yes_15_dia_b1u_b.png","f","pattern_44","f","true","","","","907.3000000715256","true","29","","","","","","","","","","","","","","","","",""
"","","","","","html-keyboard-response","205","1172945","0.0-3.0-5.0-0.30","6120602a67554358bbd53c9d","C3","batch3","pattern_show_trial_num","null","<p class=block-text>Trial 31 out of 78</p>","null","","","","","","","","","","","","","","","","","","","","","","","","","",""
"","","","","","image-keyboard-response","206","1175827","0.0-3.0-5.0-1.30","6120602a67554358bbd53c9d","C3","batch3","pattern_response","2880","stim/no_43_2_b.png","j","pattern_23","j","true","","","","2880","true","30","","","","","","","","","","","","","","","","",""
"","","","","","html-keyboard-response","207","1177158","0.0-3.0-5.0-0.31","6120602a67554358bbd53c9d","C3","batch3","pattern_show_trial_num","null","<p class=block-text>Trial 32 out of 78</p>","null","","","","","","","","","","","","","","","","","","","","","","","","","",""
"","","","","","image-keyboard-response","208","1180681","0.0-3.0-5.0-1.31","6120602a67554358bbd53c9d","C3","batch3","pattern_response","3520","stim/no_47_1_b.png","j","pattern_27","j","true","","","","3520","true","31","","","","","","","","","","","","","","","","",""
"","","","","","html-keyboard-response","209","1181994","0.0-3.0-5.0-0.32","6120602a67554358bbd53c9d","C3","batch3","pattern_show_trial_num","null","<p class=block-text>Trial 33 out of 78</p>","null","","","","","","","","","","","","","","","","","","","","","","","","","",""
"","","","","","image-keyboard-response","210","1185261","0.0-3.0-5.0-1.32","6120602a67554358bbd53c9d","C3","batch3","pattern_response","3263.7000000476837","stim/no_25_1_b.png","j","pattern_09","j","true","","","","3263.7000000476837","true","32","","","","","","","","","","","","","","","","",""
"","","","","","html-keyboard-response","211","1186580","0.0-3.0-5.0-0.33","6120602a67554358bbd53c9d","C3","batch3","pattern_show_trial_num","null","<p class=block-text>Trial 34 out of 78</p>","null","","","","","","","","","","","","","","","","","","","","","","","","","",""
"","","","","","image-keyboard-response","212","1188059","0.0-3.0-5.0-1.33","6120602a67554358bbd53c9d","C3","batch3","pattern_response","1476.5","stim/yes_37_hor_w1_w.png","f","pattern_60","f","true","","","","1476.5","true","33","","","","","","","","","","","","","","","","",""
"","","","","","html-keyboard-response","213","1189370","0.0-3.0-5.0-0.34","6120602a67554358bbd53c9d","C3","batch3","pattern_show_trial_num","null","<p class=block-text>Trial 35 out of 78</p>","null","","","","","","","","","","","","","","","","","","","","","","","","","",""
"","","","","","image-keyboard-response","214","1192313","0.0-3.0-5.0-1.34","6120602a67554358bbd53c9d","C3","batch3","pattern_response","2941.100000023842","stim/no_39_1_w.png","j","pattern_21","j","true","","","","2941.100000023842","true","34","","","","","","","","","","","","","","","","",""
"","","","","","html-keyboard-response","215","1193634","0.0-3.0-5.0-0.35","6120602a67554358bbd53c9d","C3","batch3","pattern_show_trial_num","null","<p class=block-text>Trial 36 out of 78</p>","null","","","","","","","","","","","","","","","","","","","","","","","","","",""
"","","","","","image-keyboard-response","216","1194463","0.0-3.0-5.0-1.35","6120602a67554358bbd53c9d","C3","batch3","pattern_response","827.2999999523163","stim/yes_36_ver_w1_w.png","f","pattern_58","f","true","","","","827.2999999523163","true","35","","","","","","","","","","","","","","","","",""
"","","","","","html-keyboard-response","217","1195778","0.0-3.0-5.0-0.36","6120602a67554358bbd53c9d","C3","batch3","pattern_show_trial_num","null","<p class=block-text>Trial 37 out of 78</p>","null","","","","","","","","","","","","","","","","","","","","","","","","","",""
"","","","","","image-keyboard-response","218","1199182","0.0-3.0-5.0-1.36","6120602a67554358bbd53c9d","C3","batch3","pattern_response","3401.0999999046326","stim/yes_58_dia_w1_w.png","j","pattern_76","f","false","","","","3401.0999999046326","false","35","","","","","","","","","","","","","","","","",""
"","","","","","html-keyboard-response","219","1200506","0.0-3.0-5.0-0.37","6120602a67554358bbd53c9d","C3","batch3","pattern_show_trial_num","null","<p class=block-text>Trial 38 out of 78</p>","null","","","","","","","","","","","","","","","","","","","","","","","","","",""
"","","","","","image-keyboard-response","220","1204224","0.0-3.0-5.0-1.37","6120602a67554358bbd53c9d","C3","batch3","pattern_response","3715.5","stim/no_53_1_b.png","j","pattern_33","j","true","","","","3715.5","true","36","","","","","","","","","","","","","","","","",""
"","","","","","html-keyboard-response","221","1205536","0.0-3.0-5.0-0.38","6120602a67554358bbd53c9d","C3","batch3","pattern_show_trial_num","null","<p class=block-text>Trial 39 out of 78</p>","null","","","","","","","","","","","","","","","","","","","","","","","","","",""
"","","","","","image-keyboard-response","222","1209743","0.0-3.0-5.0-1.38","6120602a67554358bbd53c9d","C3","batch3","pattern_response","4204","stim/no_58_1_w.png","j","pattern_35","j","true","","","","4204","true","37","","","","","","","","","","","","","","","","",""
"","","","","","image-keyboard-response","223","1213329","0.0-3.0-6.0","6120602a67554358bbd53c9d","C3","batch3","attention_check","3088.899999976158","stim/empty_board.png","j","","j","true","","","","","","","500","[""f"",""j""]","","","","","","","","","","","","","","",""
"","","","","","html-keyboard-response","224","1214135","0.0-3.0-7.0-0.0","6120602a67554358bbd53c9d","C3","batch3","pattern_show_trial_num","null","<p class=block-text>Trial 40 out of 78</p>","null","","","","","","","","","","","","","","","","","","","","","","","","","",""
"","","","","","image-keyboard-response","225","1216154","0.0-3.0-7.0-1.0","6120602a67554358bbd53c9d","C3","batch3","pattern_response","2015.7000000476837","stim/yes_67_hor_b1.png","f","pattern_79","f","true","","","","2015.7000000476837","true","38","","","","","","","","","","","","","","","","",""
"","","","","","html-keyboard-response","226","1217467","0.0-3.0-7.0-0.1","6120602a67554358bbd53c9d","C3","batch3","pattern_show_trial_num","null","<p class=block-text>Trial 41 out of 78</p>","null","","","","","","","","","","","","","","","","","","","","","","","","","",""
"","","","","","image-keyboard-response","227","1221813","0.0-3.0-7.0-1.1","6120602a67554358bbd53c9d","C3","batch3","pattern_response","4344.200000047684","stim/yes_60_ver_b1_b.png","f","pattern_77","f","true","","","","4344.200000047684","true","39","","","","","","","","","","","","","","","","",""
"","","","","","html-keyboard-response","228","1223132","0.0-3.0-7.0-0.2","6120602a67554358bbd53c9d","C3","batch3","pattern_show_trial_num","null","<p class=block-text>Trial 42 out of 78</p>","null","","","","","","","","","","","","","","","","","","","","","","","","","",""
"","","","","","image-keyboard-response","229","1225814","0.0-3.0-7.0-1.2","6120602a67554358bbd53c9d","C3","batch3","pattern_response","2679","stim/yes_48_dia_w1_w.png","f","pattern_69","f","true","","","","2679","true","40","","","","","","","","","","","","","","","","",""
"","","","","","html-keyboard-response","230","1227141","0.0-3.0-7.0-0.3","6120602a67554358bbd53c9d","C3","batch3","pattern_show_trial_num","null","<p class=block-text>Trial 43 out of 78</p>","null","","","","","","","","","","","","","","","","","","","","","","","","","",""
"","","","","","image-keyboard-response","231","1229759","0.0-3.0-7.0-1.3","6120602a67554358bbd53c9d","C3","batch3","pattern_response","2614.899999976158","stim/no_23_1.png","j","pattern_08","j","true","","","","2614.899999976158","true","41","","","","","","","","","","","","","","","","",""
"","","","","","html-keyboard-response","232","1231078","0.0-3.0-7.0-0.4","6120602a67554358bbd53c9d","C3","batch3","pattern_show_trial_num","null","<p class=block-text>Trial 44 out of 78</p>","null","","","","","","","","","","","","","","","","","","","","","","","","","",""
"","","","","","image-keyboard-response","233","1232590","0.0-3.0-7.0-1.4","6120602a67554358bbd53c9d","C3","batch3","pattern_response","1509.2999999523163","stim/yes_55_hor_w1_w.png","f","pattern_75","f","true","","","","1509.2999999523163","true","42","","","","","","","","","","","","","","","","",""
"","","","","","html-keyboard-response","234","1233897","0.0-3.0-7.0-0.5","6120602a67554358bbd53c9d","C3","batch3","pattern_show_trial_num","null","<p class=block-text>Trial 45 out of 78</p>","null","","","","","","","","","","","","","","","","","","","","","","","","","",""
"","","","","","image-keyboard-response","235","1234683","0.0-3.0-7.0-1.5","6120602a67554358bbd53c9d","C3","batch3","pattern_response","783.1999999284744","stim/yes_14_hor_b1_w.png","f","pattern_43","f","true","","","","783.1999999284744","true","43","","","","","","","","","","","","","","","","",""
"","","","","","html-keyboard-response","236","1236014","0.0-3.0-7.0-0.6","6120602a67554358bbd53c9d","C3","batch3","pattern_show_trial_num","null","<p class=block-text>Trial 46 out of 78</p>","null","","","","","","","","","","","","","","","","","","","","","","","","","",""
"","","","","","image-keyboard-response","237","1236979","0.0-3.0-7.0-1.6","6120602a67554358bbd53c9d","C3","batch3","pattern_response","963.3999999761581","stim/yes_17_dia_w1.png","f","pattern_45","f","true","","","","963.3999999761581","true","44","","","","","","","","","","","","","","","","",""
"","","","","","html-keyboard-response","238","1238283","0.0-3.0-7.0-0.7","6120602a67554358bbd53c9d","C3","batch3","pattern_show_trial_num","null","<p class=block-text>Trial 47 out of 78</p>","null","","","","","","","","","","","","","","","","","","","","","","","","","",""
"","","","","","image-keyboard-response","239","1239031","0.0-3.0-7.0-1.7","6120602a67554358bbd53c9d","C3","batch3","pattern_response","746.1999999284744","stim/yes_22_ver_w1.png","f","pattern_47","f","true","","","","746.1999999284744","true","45","","","","","","","","","","","","","","","","",""
"","","","","","html-keyboard-response","240","1240334","0.0-3.0-7.0-0.8","6120602a67554358bbd53c9d","C3","batch3","pattern_show_trial_num","null","<p class=block-text>Trial 48 out of 78</p>","null","","","","","","","","","","","","","","","","","","","","","","","","","",""
"","","","","","image-keyboard-response","241","1241191","0.0-3.0-7.0-1.8","6120602a67554358bbd53c9d","C3","batch3","pattern_response","854.7999999523163","stim/yes_25_hor_b1_b.png","f","pattern_49","f","true","","","","854.7999999523163","true","46","","","","","","","","","","","","","","","","",""
"","","","","","html-keyboard-response","242","1242505","0.0-3.0-7.0-0.9","6120602a67554358bbd53c9d","C3","batch3","pattern_show_trial_num","null","<p class=block-text>Trial 49 out of 78</p>","null","","","","","","","","","","","","","","","","","","","","","","","","","",""
"","","","","","image-keyboard-response","243","1248384","0.0-3.0-7.0-1.9","6120602a67554358bbd53c9d","C3","batch3","pattern_response","5876.600000023842","stim/no_65_1_b.png","j","pattern_38","j","true","","","","5876.600000023842","true","47","","","","","","","","","","","","","","","","",""
"","","","","","html-keyboard-response","244","1249690","0.0-3.0-7.0-0.10","6120602a67554358bbd53c9d","C3","batch3","pattern_show_trial_num","null","<p class=block-text>Trial 50 out of 78</p>","null","","","","","","","","","","","","","","","","","","","","","","","","","",""
"","","","","","image-keyboard-response","245","1254975","0.0-3.0-7.0-1.10","6120602a67554358bbd53c9d","C3","batch3","pattern_response","5282.300000071526","stim/no_55_1_w.png","j","pattern_34","j","true","","","","5282.300000071526","true","48","","","","","","","","","","","","","","","","",""
"","","","","","html-keyboard-response","246","1256298","0.0-3.0-7.0-0.11","6120602a67554358bbd53c9d","C3","batch3","pattern_show_trial_num","null","<p class=block-text>Trial 51 out of 78</p>","null","","","","","","","","","","","","","","","","","","","","","","","","","",""
"","","","","","image-keyboard-response","247","1258651","0.0-3.0-7.0-1.11","6120602a67554358bbd53c9d","C3","batch3","pattern_response","2350.1999999284744","stim/no_17_1_w.png","j","pattern_04","j","true","","","","2350.1999999284744","true","49","","","","","","","","","","","","","","","","",""
"","","","","","html-keyboard-response","248","1259975","0.0-3.0-7.0-0.12","6120602a67554358bbd53c9d","C3","batch3","pattern_show_trial_num","null","<p class=block-text>Trial 52 out of 78</p>","null","","","","","","","","","","","","","","","","","","","","","","","","","",""
"","","","","","image-keyboard-response","249","1265938","0.0-3.0-7.0-1.12","6120602a67554358bbd53c9d","C3","batch3","pattern_response","5960","stim/no_62_1_w.png","j","pattern_36","j","true","","","","5960","true","50","","","","","","","","","","","","","","","","",""
"","","","","","html-keyboard-response","250","1267259","0.0-3.0-7.0-0.13","6120602a67554358bbd53c9d","C3","batch3","pattern_show_trial_num","null","<p class=block-text>Trial 53 out of 78</p>","null","","","","","","","","","","","","","","","","","","","","","","","","","",""
"","","","","","image-keyboard-response","251","1271024","0.0-3.0-7.0-1.13","6120602a67554358bbd53c9d","C3","batch3","pattern_response","3752.7000000476837","stim/no_52_1.png","j","pattern_32","j","true","","","","3752.7000000476837","true","51","","","","","","","","","","","","","","","","",""
"","","","","","html-keyboard-response","252","1272341","0.0-3.0-7.0-0.14","6120602a67554358bbd53c9d","C3","batch3","pattern_show_trial_num","null","<p class=block-text>Trial 54 out of 78</p>","null","","","","","","","","","","","","","","","","","","","","","","","","","",""
"","","","","","image-keyboard-response","253","1274295","0.0-3.0-7.0-1.14","6120602a67554358bbd53c9d","C3","batch3","pattern_response","1943.6000000238419","stim/yes_31_hor_b1.png","f","pattern_55","f","true","","","","1943.6000000238419","true","52","","","","","","","","","","","","","","","","",""
"","","","","","html-keyboard-response","254","1275612","0.0-3.0-7.0-0.15","6120602a67554358bbd53c9d","C3","batch3","pattern_show_trial_num","null","<p class=block-text>Trial 55 out of 78</p>","null","","","","","","","","","","","","","","","","","","","","","","","","","",""
"","","","","","image-keyboard-response","255","1278699","0.0-3.0-7.0-1.15","6120602a67554358bbd53c9d","C3","batch3","pattern_response","3085.600000023842","stim/no_34_1_b.png","j","pattern_16","j","true","","","","3085.600000023842","true","53","","","","","","","","","","","","","","","","",""
"","","","","","html-keyboard-response","256","1280019","0.0-3.0-7.0-0.16","6120602a67554358bbd53c9d","C3","batch3","pattern_show_trial_num","null","<p class=block-text>Trial 56 out of 78</p>","null","","","","","","","","","","","","","","","","","","","","","","","","","",""
"","","","","","image-keyboard-response","257","1282121","0.0-3.0-7.0-1.16","6120602a67554358bbd53c9d","C3","batch3","pattern_response","2098.5999999046326","stim/no_20_1_w.png","j","pattern_06","j","true","","","","2098.5999999046326","true","54","","","","","","","","","","","","","","","","",""
"","","","","","html-keyboard-response","258","1283443","0.0-3.0-7.0-0.17","6120602a67554358bbd53c9d","C3","batch3","pattern_show_trial_num","null","<p class=block-text>Trial 57 out of 78</p>","null","","","","","","","","","","","","","","","","","","","","","","","","","",""
"","","","","","image-keyboard-response","259","1286273","0.0-3.0-7.0-1.17","6120602a67554358bbd53c9d","C3","batch3","pattern_response","2828","stim/no_29_1_b.png","j","pattern_12","j","true","","","","2828","true","55","","","","","","","","","","","","","","","","",""
"","","","","","html-keyboard-response","260","1287603","0.0-3.0-7.0-0.18","6120602a67554358bbd53c9d","C3","batch3","pattern_show_trial_num","null","<p class=block-text>Trial 58 out of 78</p>","null","","","","","","","","","","","","","","","","","","","","","","","","","",""
"","","","","","image-keyboard-response","261","1290144","0.0-3.0-7.0-1.18","6120602a67554358bbd53c9d","C3","batch3","pattern_response","2537.7999999523163","stim/no_32_1_w.png","j","pattern_14","j","true","","","","2537.7999999523163","true","56","","","","","","","","","","","","","","","","",""
"","","","","","html-keyboard-response","262","1291449","0.0-3.0-7.0-0.19","6120602a67554358bbd53c9d","C3","batch3","pattern_show_trial_num","null","<p class=block-text>Trial 59 out of 78</p>","null","","","","","","","","","","","","","","","","","","","","","","","","","",""
"","","","","","image-keyboard-response","263","1292274","0.0-3.0-7.0-1.19","6120602a67554358bbd53c9d","C3","batch3","pattern_response","822.3999999761581","stim/yes_38_hor_b1_b.png","f","pattern_61","f","true","","","","822.3999999761581","true","57","","","","","","","","","","","","","","","","",""
"","","","","","html-keyboard-response","264","1293580","0.0-3.0-7.0-0.20","6120602a67554358bbd53c9d","C3","batch3","pattern_show_trial_num","null","<p class=block-text>Trial 60 out of 78</p>","null","","","","","","","","","","","","","","","","","","","","","","","","","",""
"","","","","","image-keyboard-response","265","1294522","0.0-3.0-7.0-1.20","6120602a67554358bbd53c9d","C3","batch3","pattern_response","939.7000000476837","stim/yes_28_ver_b1.png","f","pattern_51","f","true","","","","939.7000000476837","true","58","","","","","","","","","","","","","","","","",""
"","","","","","html-keyboard-response","266","1295828","0.0-3.0-7.0-0.21","6120602a67554358bbd53c9d","C3","batch3","pattern_show_trial_num","null","<p class=block-text>Trial 61 out of 78</p>","null","","","","","","","","","","","","","","","","","","","","","","","","","",""
"","","","","","image-keyboard-response","267","1296864","0.0-3.0-7.0-1.21","6120602a67554358bbd53c9d","C3","batch3","pattern_response","1033.6000000238419","stim/yes_43_ver_w1_w.png","f","pattern_65","f","true","","","","1033.6000000238419","true","59","","","","","","","","","","","","","","","","",""
"","","","","","html-keyboard-response","268","1298174","0.0-3.0-7.0-0.22","6120602a67554358bbd53c9d","C3","batch3","pattern_show_trial_num","null","<p class=block-text>Trial 62 out of 78</p>","null","","","","","","","","","","","","","","","","","","","","","","","","","",""
"","","","","","image-keyboard-response","269","1299068","0.0-3.0-7.0-1.22","6120602a67554358bbd53c9d","C3","batch3","pattern_response","891.3999999761581","stim/yes_29_ver_w1.png","f","pattern_53","f","true","","","","891.3999999761581","true","60","","","","","","","","","","","","","","","","",""
"","","","","","html-keyboard-response","270","1300397","0.0-3.0-7.0-0.23","6120602a67554358bbd53c9d","C3","batch3","pattern_show_trial_num","null","<p class=block-text>Trial 63 out of 78</p>","null","","","","","","","","","","","","","","","","","","","","","","","","","",""
"","","","","","image-keyboard-response","271","1303329","0.0-3.0-7.0-1.23","6120602a67554358bbd53c9d","C3","batch3","pattern_response","2929.7999999523163","stim/no_38_1_b.png","j","pattern_20","j","true","","","","2929.7999999523163","true","61","","","","","","","","","","","","","","","","",""
"","","","","","html-keyboard-response","272","1304658","0.0-3.0-7.0-0.24","6120602a67554358bbd53c9d","C3","batch3","pattern_show_trial_num","null","<p class=block-text>Trial 64 out of 78</p>","null","","","","","","","","","","","","","","","","","","","","","","","","","",""
"","","","","","image-keyboard-response","273","1308138","0.0-3.0-7.0-1.24","6120602a67554358bbd53c9d","C3","batch3","pattern_response","3479","stim/no_70_2.png","j","pattern_40","j","true","","","","3479","true","62","","","","","","","","","","","","","","","","",""
"","","","","","html-keyboard-response","274","1309459","0.0-3.0-7.0-0.25","6120602a67554358bbd53c9d","C3","batch3","pattern_show_trial_num","null","<p class=block-text>Trial 65 out of 78</p>","null","","","","","","","","","","","","","","","","","","","","","","","","","",""
"","","","","","image-keyboard-response","275","1311161","0.0-3.0-7.0-1.25","6120602a67554358bbd53c9d","C3","batch3","pattern_response","1698.8999999761581","stim/yes_50_dia_w1.png","f","pattern_71","f","true","","","","1698.8999999761581","true","63","","","","","","","","","","","","","","","","",""
"","","","","","html-keyboard-response","276","1312475","0.0-3.0-7.0-0.26","6120602a67554358bbd53c9d","C3","batch3","pattern_show_trial_num","null","<p class=block-text>Trial 66 out of 78</p>","null","","","","","","","","","","","","","","","","","","","","","","","","","",""
"","","","","","image-keyboard-response","277","1313737","0.0-3.0-7.0-1.26","6120602a67554358bbd53c9d","C3","batch3","pattern_response","1258.8999999761581","stim/yes_52_ver_w1.png","f","pattern_73","f","true","","","","1258.8999999761581","true","64","","","","","","","","","","","","","","","","",""
"","","","","","html-keyboard-response","278","1315059","0.0-3.0-7.0-0.27","6120602a67554358bbd53c9d","C3","batch3","pattern_show_trial_num","null","<p class=block-text>Trial 67 out of 78</p>","null","","","","","","","","","","","","","","","","","","","","","","","","","",""
"","","","","","image-keyboard-response","279","1318918","0.0-3.0-7.0-1.27","6120602a67554358bbd53c9d","C3","batch3","pattern_response","3856.899999976158","stim/no_36_2_w.png","j","pattern_18","j","true","","","","3856.899999976158","true","65","","","","","","","","","","","","","","","","",""
"","","","","","html-keyboard-response","280","1320222","0.0-3.0-7.0-0.28","6120602a67554358bbd53c9d","C3","batch3","pattern_show_trial_num","null","<p class=block-text>Trial 68 out of 78</p>","null","","","","","","","","","","","","","","","","","","","","","","","","","",""
"","","","","","image-keyboard-response","281","1323184","0.0-3.0-7.0-1.28","6120602a67554358bbd53c9d","C3","batch3","pattern_response","2958.399999976158","stim/no_46_1_b.png","j","pattern_26","j","true","","","","2958.399999976158","true","66","","","","","","","","","","","","","","","","",""
"","","","","","html-keyboard-response","282","1324516","0.0-3.0-7.0-0.29","6120602a67554358bbd53c9d","C3","batch3","pattern_show_trial_num","null","<p class=block-text>Trial 69 out of 78</p>","null","","","","","","","","","","","","","","","","","","","","","","","","","",""
"","","","","","image-keyboard-response","283","1325946","0.0-3.0-7.0-1.29","6120602a67554358bbd53c9d","C3","batch3","pattern_response","1427.3999999761581","stim/no_13_2_b.png","j","pattern_02","j","true","","","","1427.3999999761581","true","67","","","","","","","","","","","","","","","","",""
"","","","","","html-keyboard-response","284","1327260","0.0-3.0-7.0-0.30","6120602a67554358bbd53c9d","C3","batch3","pattern_show_trial_num","null","<p class=block-text>Trial 70 out of 78</p>","null","","","","","","","","","","","","","","","","","","","","","","","","","",""
"","","","","","image-keyboard-response","285","1332447","0.0-3.0-7.0-1.30","6120602a67554358bbd53c9d","C3","batch3","pattern_response","5185.299999952316","stim/no_48_1_w.png","j","pattern_28","j","true","","","","5185.299999952316","true","68","","","","","","","","","","","","","","","","",""
"","","","","","html-keyboard-response","286","1333776","0.0-3.0-7.0-0.31","6120602a67554358bbd53c9d","C3","batch3","pattern_show_trial_num","null","<p class=block-text>Trial 71 out of 78</p>","null","","","","","","","","","","","","","","","","","","","","","","","","","",""
"","","","","","image-keyboard-response","287","1336412","0.0-3.0-7.0-1.31","6120602a67554358bbd53c9d","C3","batch3","pattern_response","2643","stim/no_42_1_w.png","j","pattern_22","j","true","","","","2643","true","69","","","","","","","","","","","","","","","","",""
"","","","","","html-keyboard-response","288","1337717","0.0-3.0-7.0-0.32","6120602a67554358bbd53c9d","C3","batch3","pattern_show_trial_num","null","<p class=block-text>Trial 72 out of 78</p>","null","","","","","","","","","","","","","","","","","","","","","","","","","",""
"","","","","","image-keyboard-response","289","1343481","0.0-3.0-7.0-1.32","6120602a67554358bbd53c9d","C3","batch3","pattern_response","5761.199999928474","stim/no_50_1.png","j","pattern_30","j","true","","","","5761.199999928474","true","70","","","","","","","","","","","","","","","","",""
"","","","","","html-keyboard-response","290","1344798","0.0-3.0-7.0-0.33","6120602a67554358bbd53c9d","C3","batch3","pattern_show_trial_num","null","<p class=block-text>Trial 73 out of 78</p>","null","","","","","","","","","","","","","","","","","","","","","","","","","",""
"","","","","","image-keyboard-response","291","1346184","0.0-3.0-7.0-1.33","6120602a67554358bbd53c9d","C3","batch3","pattern_response","1383.3999999761581","stim/yes_40_dia_b1_b.png","f","pattern_63","f","true","","","","1383.3999999761581","true","71","","","","","","","","","","","","","","","","",""
"","","","","","html-keyboard-response","292","1347503","0.0-3.0-7.0-0.34","6120602a67554358bbd53c9d","C3","batch3","pattern_show_trial_num","null","<p class=block-text>Trial 74 out of 78</p>","null","","","","","","","","","","","","","","","","","","","","","","","","","",""
"","","","","","image-keyboard-response","293","1349287","0.0-3.0-7.0-1.34","6120602a67554358bbd53c9d","C3","batch3","pattern_response","1781.3000000715256","stim/yes_45_hor_b2_b.png","f","pattern_67","f","true","","","","1781.3000000715256","true","72","","","","","","","","","","","","","","","","",""
"","","","","","html-keyboard-response","294","1350596","0.0-3.0-7.0-0.35","6120602a67554358bbd53c9d","C3","batch3","pattern_show_trial_num","null","<p class=block-text>Trial 75 out of 78</p>","null","","","","","","","","","","","","","","","","","","","","","","","","","",""
"","","","","","image-keyboard-response","295","1352028","0.0-3.0-7.0-1.35","6120602a67554358bbd53c9d","C3","batch3","pattern_response","1428.7999999523163","stim/yes_35_dia_b1.png","f","pattern_57","f","true","","","","1428.7999999523163","true","73","","","","","","","","","","","","","","","","",""
"","","","","","html-keyboard-response","296","1353351","0.0-3.0-7.0-0.36","6120602a67554358bbd53c9d","C3","batch3","pattern_show_trial_num","null","<p class=block-text>Trial 76 out of 78</p>","null","","","","","","","","","","","","","","","","","","","","","","","","","",""
"","","","","","image-keyboard-response","297","1356637","0.0-3.0-7.0-1.36","6120602a67554358bbd53c9d","C3","batch3","pattern_response","3283.7000000476837","stim/no_44_1.png","j","pattern_24","j","true","","","","3283.7000000476837","true","74","","","","","","","","","","","","","","","","",""
"","","","","","html-keyboard-response","298","1357944","0.0-3.0-7.0-0.37","6120602a67554358bbd53c9d","C3","batch3","pattern_show_trial_num","null","<p class=block-text>Trial 77 out of 78</p>","null","","","","","","","","","","","","","","","","","","","","","","","","","",""
"","","","","","image-keyboard-response","299","1359490","0.0-3.0-7.0-1.37","6120602a67554358bbd53c9d","C3","batch3","pattern_response","1542.7999999523163","stim/no_26_1_w.png","j","pattern_10","j","true","","","","1542.7999999523163","true","75","","","","","","","","","","","","","","","","",""
"","","","","","html-keyboard-response","300","1360802","0.0-3.0-7.0-0.38","6120602a67554358bbd53c9d","C3","batch3","pattern_show_trial_num","null","<p class=block-text>Trial 78 out of 78</p>","null","","","","","","","","","","","","","","","","","","","","","","","","","",""
"","","","","","image-keyboard-response","301","1362916","0.0-3.0-7.0-1.38","6120602a67554358bbd53c9d","C3","batch3","pattern_response","2110.7999999523163","stim/yes_37_dia_w1.png","f","pattern_59","f","true","","","","2110.7999999523163","true","76","","","","","","","","","","","","","","","","",""
"","","","","","html-button-response","302","1368003","0.0-3.0-8.0","6120602a67554358bbd53c9d","C3","batch3","","4571.100000023842","<p class = block-text>This concludes the 4-in-a-row detection game.Thank you for your responses!<br>
            You responded correctly on 97% of the trials.<br>
            When you are ready, press ""Continue"" button to continue </p>","0","","","","","","","","","","","","","","","","","","","","","","","","","",""
"true","","","","","fullscreen","303","1374060","0.0-4.0-0.0","6120602a67554358bbd53c9d","C3","batch3","","","","","","","","","","","","","","","","","","","","","","","","","","","","","",""
"","","","","","instructions","304","1478342","0.0-4.0-1.0-0.0-0.0","6120602a67554358bbd53c9d","C3","batch3","tol-instructions","104270.09999990463","","","","","","","","[{""page_index"":0,""viewing_time"":21365.899999976158},{""page_index"":1,""viewing_time"":8864},{""page_index"":2,""viewing_time"":12367.899999976158},{""page_index"":3,""viewing_time"":18384},{""page_index"":4,""viewing_time"":15640},{""page_index"":5,""viewing_time"":21167.799999952316},{""page_index"":6,""viewing_time"":6480.200000047684}]","","","","","","","","","","","","","","","","","","","",""
"","","","","","html-button-response","305","1480422","0.0-4.0-1.0-1.0-0.0","6120602a67554358bbd53c9d","C3","batch3","tol_enter_quiz","2079.2000000476837","<p class=block-text> Let's answer a few questions <br>","0","","","","","","","","","","","","","","","","","","","","","","","","","",""
"","","","","","html-button-response","306","1492158","0.0-4.0-1.0-1.0-1.0","6120602a67554358bbd53c9d","C3","batch3","tol_quiz","11735.100000023842","<p class = block-text>True or False: You can only move the ball on top of a peg. <br></p>","0","","","true","","","","","","","","","","","","","","","","","","","","","","",""
"","","","","","html-button-response","307","1493454","0.0-4.0-1.0-1.0-2.0","6120602a67554358bbd53c9d","C3","batch3","tol_quiz_feedback","1295.1000000238419","<p class = block-text>Correct! You can only move the ball on top of a peg.</p>","0","","","","","","","","","","","","","","","","","","","","","","","","","",""
"","","","","","html-button-response","308","1498230","0.0-4.0-1.0-1.0-3.0","6120602a67554358bbd53c9d","C3","batch3","tol_quiz","4775.299999952316","<p class = block-text>True or False: You should try to match your board with the target board with fewest moves possible. <br></p>","0","","","true","","","","","","","","","","","","","","","","","","","","","","",""
"","","","","","html-button-response","309","1499286","0.0-4.0-1.0-1.0-4.0","6120602a67554358bbd53c9d","C3","batch3","tol_quiz_feedback","1055.1000000238419","<p class = block-text>Correct! </p>","0","","","","","","","","","","","","","","","","","","","","","","","","","",""
"","","","","","html-button-response","310","1503158","0.0-4.0-2.0","6120602a67554358bbd53c9d","C3","batch3","","3871","<p class=block-text> Now that you've understood the game, let's practice a few easier examples before we start!<br> <br>","0","","","","","","","","","","","","","","","","","","","","","","","","","",""
"","","","","","single-stim-button","311","1505599","0.0-4.0-3.0-0.0","6120602a67554358bbd53c9d","C3","batch3","tol_practice","2439","","","","","","","","","","","","","","tol_peg_2","2439","2439","0","[[1,2,0],[0,0],[0]]","1","[[1,2,0],[0,0],[3]]","practice","2439","","","","","",""
"","","","","","single-stim-button","312","1507670","0.0-4.0-3.0-1.0","6120602a67554358bbd53c9d","C3","batch3","tol_practice","2070","","","","","","","","","","","","","","tol_peg_3","2070","2070","0","[[1,2,0],[0,0],[3]]","1","[[1,2,0],[0,0],[3]]","practice","2070","","","","","",""
"","","","","","poldrack-single-stim","313","1508672","0.0-4.0-4.0","6120602a67554358bbd53c9d","C3","batch3","tol_feedback","-1","","","","","true","","","","","","","","","","1000","1000","500","","","","","","-1","none","true","","0",""
"","","","","","single-stim-button","314","1512894","0.0-4.0-5.0-0.0","6120602a67554358bbd53c9d","C3","batch3","tol_practice","4221","","","","","","","","","","","","","","tol_peg_1","4221","4221","0","[[1,0,0],[3,0],[0]]","2","[[0,0,0],[3,1],[2]]","practice","4221","","","","","",""
"","","","","","single-stim-button","315","1514230","0.0-4.0-5.0-1.0","6120602a67554358bbd53c9d","C3","batch3","tol_practice","1336","","","","","","","","","","","","","","tol_peg_3","1336","1336","0","[[1,0,0],[3,0],[2]]","2","[[0,0,0],[3,1],[2]]","practice","1336","","","","","",""
"","","","","","single-stim-button","316","1515110","0.0-4.0-5.1-0.1","6120602a67554358bbd53c9d","C3","batch3","tol_practice","880","","","","","","","","","","","","","","tol_peg_1","880","880","0","[[0,0,0],[3,0],[2]]","3","[[0,0,0],[3,1],[2]]","practice","880","","","","","",""
"","","","","","single-stim-button","317","1516158","0.0-4.0-5.1-1.1","6120602a67554358bbd53c9d","C3","batch3","tol_practice","1047","","","","","","","","","","","","","","tol_peg_2","1047","1047","0","[[0,0,0],[3,1],[2]]","3","[[0,0,0],[3,1],[2]]","practice","1047","","","","","",""
"","","","","","poldrack-single-stim","318","1517159","0.0-4.0-6.0","6120602a67554358bbd53c9d","C3","batch3","tol_feedback","-1","","","","","true","","","","","","","","","","1000","1000","500","","","","","","-1","none","true","","0",""
"","","","","","single-stim-button","319","1520070","0.0-4.0-7.0-0.0","6120602a67554358bbd53c9d","C3","batch3","tol_practice","2910","","","","","","","","","","","","","","tol_peg_2","2910","2910","0","[[1,2,0],[0,0],[0]]","4","[[1,0,0],[2,0],[3]]","practice","2910","","","","","",""
"","","","","","single-stim-button","320","1520806","0.0-4.0-7.0-1.0","6120602a67554358bbd53c9d","C3","batch3","tol_practice","736","","","","","","","","","","","","","","tol_peg_3","736","736","0","[[1,2,0],[0,0],[3]]","4","[[1,0,0],[2,0],[3]]","practice","736","","","","","",""
"","","","","","single-stim-button","321","1521534","0.0-4.0-7.1-0.1","6120602a67554358bbd53c9d","C3","batch3","tol_practice","728","","","","","","","","","","","","","","tol_peg_1","728","728","0","[[1,0,0],[0,0],[3]]","5","[[1,0,0],[2,0],[3]]","practice","728","","","","","",""
"","","","","","single-stim-button","322","1522214","0.0-4.0-7.1-1.1","6120602a67554358bbd53c9d","C3","batch3","tol_practice","680","","","","","","","","","","","","","","tol_peg_2","680","680","0","[[1,0,0],[2,0],[3]]","5","[[1,0,0],[2,0],[3]]","practice","680","","","","","",""
"","","","","","poldrack-single-stim","323","1523220","0.0-4.0-8.0","6120602a67554358bbd53c9d","C3","batch3","tol_feedback","-1","","","","","true","","","","","","","","","","1000","1000","500","","","","","","-1","none","true","","0",""
"","","","","","html-button-response","324","1525270","0.0-4.0-9.0","6120602a67554358bbd53c9d","C3","batch3","tol_instruction","2048.5","<div class = centerbox><p class = center-block-text>Great job! You are done with practice trials<br>You are about to start official trials.<br> <br> Problem <strong>1</strong> out of 25 problems</p></div>","0","","","","","","","","","","","","","","","","","","","","","","","","","",""
"","","","","","single-stim-button","325","1529862","0.0-4.0-10.0-0.0","6120602a67554358bbd53c9d","C3","batch3","tol_tohand","3579","","","","","","","","","","","","","","tol_peg_2","3579","3579","0","[[1,2,0],[0,0],[0]]","1","[[1,3,0],[2,0],[0]]","0","0","","","","","","3"
"","","","","","single-stim-button","326","1531814","0.0-4.0-10.0-1.0","6120602a67554358bbd53c9d","C3","batch3","tol_toboard","1952","","","","","","","","","","","","","","tol_peg_3","1952","1952","0","[[1,2,0],[0,0],[3]]","1","[[1,3,0],[2,0],[0]]","0","0","","","","","","3"
"","","","","","single-stim-button","327","1533294","0.0-4.0-10.1-0.1","6120602a67554358bbd53c9d","C3","batch3","tol_tohand","1480","","","","","","","","","","","","","","tol_peg_1","1480","1480","0","[[1,0,0],[0,0],[3]]","2","[[1,3,0],[2,0],[0]]","0","0","","","","","","3"
"","","","","","single-stim-button","328","1534238","0.0-4.0-10.1-1.1","6120602a67554358bbd53c9d","C3","batch3","tol_toboard","944","","","","","","","","","","","","","","tol_peg_2","944","944","0","[[1,0,0],[2,0],[3]]","2","[[1,3,0],[2,0],[0]]","0","0","","","","","","3"
"","","","","","single-stim-button","329","1535214","0.0-4.0-10.2-0.2","6120602a67554358bbd53c9d","C3","batch3","tol_tohand","976","","","","","","","","","","","","","","tol_peg_3","976","976","0","[[1,0,0],[2,0],[0]]","3","[[1,3,0],[2,0],[0]]","0","0","","","","","","3"
"","","","","","single-stim-button","330","1536558","0.0-4.0-10.2-1.2","6120602a67554358bbd53c9d","C3","batch3","tol_toboard","1343","","","","","","","","","","","","","","tol_peg_1","1343","1343","0","[[1,3,0],[2,0],[0]]","3","[[1,3,0],[2,0],[0]]","0","0","","","","","","3"
"","","","","","poldrack-single-stim","331","1537559","0.0-4.0-11.0","6120602a67554358bbd53c9d","C3","batch3","tol_feedback","-1","","","","","true","","","","","","","","","","1000","1000","500","","","","","","-1","none","true","3579","6035",""
"","","","","","html-button-response","332","1538718","0.0-4.0-12.0","6120602a67554358bbd53c9d","C3","batch3","tol_trial_num","1157.6000000238419","<div class = centerbox><p class = center-block-text>problem <strong>2</strong> out of 25 problems</p></div>","0","","","","","","","","","","","","","","","","","","","","","","","","","",""
"","","","","","single-stim-button","333","1542302","0.0-4.0-13.0-0.0","6120602a67554358bbd53c9d","C3","batch3","tol_tohand","3584","","","","","","","","","","","","","","tol_peg_1","3584","3584","0","[[1,0,0],[3,0],[0]]","1","[[2,1,3],[0,0],[0]]","1","0","","","","","","5"
"","","","","","single-stim-button","334","1550718","0.0-4.0-13.0-1.0","6120602a67554358bbd53c9d","C3","batch3","tol_toboard","8416","","","","","","","","","","","","","","tol_peg_2","8416","8416","0","[[1,0,0],[3,2],[0]]","1","[[2,1,3],[0,0],[0]]","1","0","","","","","","5"
"","","","","","single-stim-button","335","1553246","0.0-4.0-13.1-0.1","6120602a67554358bbd53c9d","C3","batch3","tol_tohand","2528","","","","","","","","","","","","","","tol_peg_1","2528","2528","0","[[0,0,0],[3,2],[0]]","2","[[2,1,3],[0,0],[0]]","1","0","","","","","","5"
"","","","","","single-stim-button","336","1553838","0.0-4.0-13.1-1.1","6120602a67554358bbd53c9d","C3","batch3","tol_toboard","592","","","","","","","","","","","","","","tol_peg_3","592","592","0","[[0,0,0],[3,2],[1]]","2","[[2,1,3],[0,0],[0]]","1","0","","","","","","5"
"","","","","","single-stim-button","337","1554526","0.0-4.0-13.2-0.2","6120602a67554358bbd53c9d","C3","batch3","tol_tohand","688","","","","","","","","","","","","","","tol_peg_2","688","688","0","[[0,0,0],[3,0],[1]]","3","[[2,1,3],[0,0],[0]]","1","0","","","","","","5"
"","","","","","single-stim-button","338","1555742","0.0-4.0-13.2-1.2","6120602a67554358bbd53c9d","C3","batch3","tol_toboard","1215","","","","","","","","","","","","","","tol_peg_1","1215","1215","0","[[2,0,0],[3,0],[1]]","3","[[2,1,3],[0,0],[0]]","1","0","","","","","","5"
"","","","","","single-stim-button","339","1556798","0.0-4.0-13.3-0.3","6120602a67554358bbd53c9d","C3","batch3","tol_tohand","1056","","","","","","","","","","","","","","tol_peg_3","1056","1056","0","[[2,0,0],[3,0],[0]]","4","[[2,1,3],[0,0],[0]]","1","0","","","","","","5"
"","","","","","single-stim-button","340","1557574","0.0-4.0-13.3-1.3","6120602a67554358bbd53c9d","C3","batch3","tol_toboard","775","","","","","","","","","","","","","","tol_peg_1","775","775","0","[[2,1,0],[3,0],[0]]","4","[[2,1,3],[0,0],[0]]","1","0","","","","","","5"
"","","","","","single-stim-button","341","1558367","0.0-4.0-13.4-0.4","6120602a67554358bbd53c9d","C3","batch3","tol_tohand","792","","","","","","","","","","","","","","tol_peg_2","792","792","0","[[2,1,0],[0,0],[0]]","5","[[2,1,3],[0,0],[0]]","1","0","","","","","","5"
"","","","","","single-stim-button","342","1559238","0.0-4.0-13.4-1.4","6120602a67554358bbd53c9d","C3","batch3","tol_toboard","871","","","","","","","","","","","","","","tol_peg_1","871","871","0","[[2,1,3],[0,0],[0]]","5","[[2,1,3],[0,0],[0]]","1","0","","","","","","5"
"","","","","","poldrack-single-stim","343","1560252","0.0-4.0-14.0","6120602a67554358bbd53c9d","C3","batch3","tol_feedback","-1","","","","","true","","","","","","","","","","1000","1000","500","","","","","","-1","none","true","3584","8648",""
"","","","","","html-button-response","344","1561766","0.0-4.0-15.0","6120602a67554358bbd53c9d","C3","batch3","tol_trial_num","1512.5","<div class = centerbox><p class = center-block-text>problem <strong>3</strong> out of 25 problems</p></div>","0","","","","","","","","","","","","","","","","","","","","","","","","","",""
"","","","","","single-stim-button","345","1566854","0.0-4.0-16.0-0.0","6120602a67554358bbd53c9d","C3","batch3","tol_tohand","5088","","","","","","","","","","","","","","tol_peg_1","5088","5088","0","[[2,0,0],[0,0],[1]]","1","[[1,2,0],[3,0],[0]]","2","0","","","","","","4"
"","","","","","single-stim-button","346","1568198","0.0-4.0-16.0-1.0","6120602a67554358bbd53c9d","C3","batch3","tol_toboard","1344","","","","","","","","","","","","","","tol_peg_2","1344","1344","0","[[2,0,0],[3,0],[1]]","1","[[1,2,0],[3,0],[0]]","2","0","","","","","","4"
