"success","timeout","failed_images","failed_audio","failed_video","trial_type","trial_index","time_elapsed","internal_node_id","subject_id","study_id","session_id","task","rt","stimulus","response","item","answer","correct","spm_correct","spm_rt","view_history","fiar_detect_rt","fiar_detect_correct","total_correct_fiar_detect","post_trial_gap","choices","mouse_click","stim_duration","block_duration","timing_post_trial","current_position","tol_num_moves_made","tol_target","tol_problem_id","tol_rt","key_press","possible_responses","tol_correct","preplanning","tol_rt_per_trial","tol_min_moves"
"true","false","[]","[]","[]","preload","0","18503","0.0-0.0","612517df29cd32c6632b4a44","C3","batch3","","","","","","","","","","","","","","","","","","","","","","","","","","","","","",""
"true","","","","","fullscreen","1","30858","0.0-1.0-0.0","612517df29cd32c6632b4a44","C3","batch3","","","","","","","","","","","","","","","","","","","","","","","","","","","","","",""
"true","","","","","fullscreen","2","35134","0.0-2.0-0.0","612517df29cd32c6632b4a44","C3","batch3","spm_fullscreen","","","","","","","","","","","","","","","","","","","","","","","","","","","","",""
"","","","","","html-button-response","3","45910","0.0-2.0-1.0","612517df29cd32c6632b4a44","C3","batch3","","10771.70000000298","<p class = block-text><b>Instructions</b> <br>This is a widely used intelligence test in research. <br>In this test, a figure with a missing piece will be presented.<br>Below the figure are alternative pieces to complete the figure, only one of which is correct.<br> Different figures might involve different principles for obtaining the missing piece<br>Your job is to select the most logical piece to complete the figure.</p>","0","","","","","","","","","","","","","","","","","","","","","","","","","",""
"","","","","","html-keyboard-response","4","46721","0.0-2.0-2.0-0.0","612517df29cd32c6632b4a44","C3","batch3","spm_show_trial_num","null","<p class=block-text>Trial 1 out of 60</p>","null","","","","","","","","","","","","","","","","","","","","","","","","","",""
"","","","","","image-button-response","5","51315","0.0-2.0-2.0-1.0","612517df29cd32c6632b4a44","C3","batch3","spm_respsonse","4584.79999999702","img/question_1_1.jpeg","3","mat_01","4","1","1","4584.79999999702","","","","","","","","","","","","","","","","","","","","",""
"","","","","","html-keyboard-response","6","52371","0.0-2.0-2.0-0.1","612517df29cd32c6632b4a44","C3","batch3","spm_show_trial_num","null","<p class=block-text>Trial 2 out of 60</p>","null","","","","","","","","","","","","","","","","","","","","","","","","","",""
"","","","","","image-button-response","7","57309","0.0-2.0-2.0-1.1","612517df29cd32c6632b4a44","C3","batch3","spm_respsonse","4934.29999999702","img/question_1_2.jpeg","4","mat_02","5","1","1","4934.29999999702","","","","","","","","","","","","","","","","","","","","",""
"","","","","","html-keyboard-response","8","58369","0.0-2.0-2.0-0.2","612517df29cd32c6632b4a44","C3","batch3","spm_show_trial_num","null","<p class=block-text>Trial 3 out of 60</p>","null","","","","","","","","","","","","","","","","","","","","","","","","","",""
"","","","","","image-button-response","9","63534","0.0-2.0-2.0-1.2","612517df29cd32c6632b4a44","C3","batch3","spm_respsonse","5159.800000011921","img/question_1_3.jpeg","0","mat_03","1","1","1","5159.800000011921","","","","","","","","","","","","","","","","","","","","",""
"","","","","","html-keyboard-response","10","64596","0.0-2.0-2.0-0.3","612517df29cd32c6632b4a44","C3","batch3","spm_show_trial_num","null","<p class=block-text>Trial 4 out of 60</p>","null","","","","","","","","","","","","","","","","","","","","","","","","","",""
"","","","","","image-button-response","11","68486","0.0-2.0-2.0-1.3","612517df29cd32c6632b4a44","C3","batch3","spm_respsonse","3885.699999988079","img/question_1_4.jpeg","1","mat_04","2","1","1","3885.699999988079","","","","","","","","","","","","","","","","","","","","",""
"","","","","","html-keyboard-response","12","69564","0.0-2.0-2.0-0.4","612517df29cd32c6632b4a44","C3","batch3","spm_show_trial_num","null","<p class=block-text>Trial 5 out of 60</p>","null","","","","","","","","","","","","","","","","","","","","","","","","","",""
"","","","","","image-button-response","13","73118","0.0-2.0-2.0-1.4","612517df29cd32c6632b4a44","C3","batch3","spm_respsonse","3550.7000000029802","img/question_1_5.jpeg","5","mat_05","6","1","1","3550.7000000029802","","","","","","","","","","","","","","","","","","","","",""
"","","","","","html-keyboard-response","14","74184","0.0-2.0-2.0-0.5","612517df29cd32c6632b4a44","C3","batch3","spm_show_trial_num","null","<p class=block-text>Trial 6 out of 60</p>","null","","","","","","","","","","","","","","","","","","","","","","","","","",""
"","","","","","image-button-response","15","77134","0.0-2.0-2.0-1.5","612517df29cd32c6632b4a44","C3","batch3","spm_respsonse","2948.2000000029802","img/question_1_6.jpeg","2","mat_06","3","1","1","2948.2000000029802","","","","","","","","","","","","","","","","","","","","",""
"","","","","","html-keyboard-response","16","78203","0.0-2.0-2.0-0.6","612517df29cd32c6632b4a44","C3","batch3","spm_show_trial_num","null","<p class=block-text>Trial 7 out of 60</p>","null","","","","","","","","","","","","","","","","","","","","","","","","","",""
"","","","","","image-button-response","17","83416","0.0-2.0-2.0-1.6","612517df29cd32c6632b4a44","C3","batch3","spm_respsonse","5210.5","img/question_1_7.jpeg","5","mat_07","6","1","1","5210.5","","","","","","","","","","","","","","","","","","","","",""
"","","","","","html-keyboard-response","18","84491","0.0-2.0-2.0-0.7","612517df29cd32c6632b4a44","C3","batch3","spm_show_trial_num","null","<p class=block-text>Trial 8 out of 60</p>","null","","","","","","","","","","","","","","","","","","","","","","","","","",""
"","","","","","image-button-response","19","89638","0.0-2.0-2.0-1.7","612517df29cd32c6632b4a44","C3","batch3","spm_respsonse","5142.0999999940395","img/question_1_8.jpeg","1","mat_08","2","1","1","5142.0999999940395","","","","","","","","","","","","","","","","","","","","",""
"","","","","","html-keyboard-response","20","90713","0.0-2.0-2.0-0.8","612517df29cd32c6632b4a44","C3","batch3","spm_show_trial_num","null","<p class=block-text>Trial 9 out of 60</p>","null","","","","","","","","","","","","","","","","","","","","","","","","","",""
"","","","","","image-button-response","21","95153","0.0-2.0-2.0-1.8","612517df29cd32c6632b4a44","C3","batch3","spm_respsonse","4436.5","img/question_1_9.jpeg","0","mat_09","1","1","1","4436.5","","","","","","","","","","","","","","","","","","","","",""
"","","","","","html-keyboard-response","22","96216","0.0-2.0-2.0-0.9","612517df29cd32c6632b4a44","C3","batch3","spm_show_trial_num","null","<p class=block-text>Trial 10 out of 60</p>","null","","","","","","","","","","","","","","","","","","","","","","","","","",""
"","","","","","image-button-response","23","101076","0.0-2.0-2.0-1.9","612517df29cd32c6632b4a44","C3","batch3","spm_respsonse","4856","img/question_1_10.jpeg","2","mat_10","3","1","1","4856","","","","","","","","","","","","","","","","","","","","",""
"","","","","","html-keyboard-response","24","102154","0.0-2.0-2.0-0.10","612517df29cd32c6632b4a44","C3","batch3","spm_show_trial_num","null","<p class=block-text>Trial 11 out of 60</p>","null","","","","","","","","","","","","","","","","","","","","","","","","","",""
"","","","","","image-button-response","25","111503","0.0-2.0-2.0-1.10","612517df29cd32c6632b4a44","C3","batch3","spm_respsonse","9344.20000000298","img/question_1_11.jpeg","3","mat_11","4","1","1","9344.20000000298","","","","","","","","","","","","","","","","","","","","",""
"","","","","","html-keyboard-response","26","112578","0.0-2.0-2.0-0.11","612517df29cd32c6632b4a44","C3","batch3","spm_show_trial_num","null","<p class=block-text>Trial 12 out of 60</p>","null","","","","","","","","","","","","","","","","","","","","","","","","","",""
"","","","","","image-button-response","27","120349","0.0-2.0-2.0-1.11","612517df29cd32c6632b4a44","C3","batch3","spm_respsonse","7766.5999999940395","img/question_1_12.jpeg","0","mat_12","5","0","0","7766.5999999940395","","","","","","","","","","","","","","","","","","","","",""
"","","","","","html-keyboard-response","28","121418","0.0-2.0-2.0-0.12","612517df29cd32c6632b4a44","C3","batch3","spm_show_trial_num","null","<p class=block-text>Trial 13 out of 60</p>","null","","","","","","","","","","","","","","","","","","","","","","","","","",""
"","","","","","image-button-response","29","123951","0.0-2.0-2.0-1.12","612517df29cd32c6632b4a44","C3","batch3","spm_respsonse","2529.2999999970198","img/question_2_1.jpeg","1","mat_13","2","1","1","2529.2999999970198","","","","","","","","","","","","","","","","","","","","",""
"","","","","","html-keyboard-response","30","125022","0.0-2.0-2.0-0.13","612517df29cd32c6632b4a44","C3","batch3","spm_show_trial_num","null","<p class=block-text>Trial 14 out of 60</p>","null","","","","","","","","","","","","","","","","","","","","","","","","","",""
"","","","","","image-button-response","31","130584","0.0-2.0-2.0-1.13","612517df29cd32c6632b4a44","C3","batch3","spm_respsonse","5557.79999999702","img/question_2_2.jpeg","5","mat_14","6","1","1","5557.79999999702","","","","","","","","","","","","","","","","","","","","",""
"","","","","","html-keyboard-response","32","131659","0.0-2.0-2.0-0.14","612517df29cd32c6632b4a44","C3","batch3","spm_show_trial_num","null","<p class=block-text>Trial 15 out of 60</p>","null","","","","","","","","","","","","","","","","","","","","","","","","","",""
"","","","","","image-button-response","33","134506","0.0-2.0-2.0-1.14","612517df29cd32c6632b4a44","C3","batch3","spm_respsonse","2842.7000000029802","img/question_2_3.jpeg","0","mat_15","1","1","1","2842.7000000029802","","","","","","","","","","","","","","","","","","","","",""
"","","","","","html-keyboard-response","34","135579","0.0-2.0-2.0-0.15","612517df29cd32c6632b4a44","C3","batch3","spm_show_trial_num","null","<p class=block-text>Trial 16 out of 60</p>","null","","","","","","","","","","","","","","","","","","","","","","","","","",""
"","","","","","image-button-response","35","140302","0.0-2.0-2.0-1.15","612517df29cd32c6632b4a44","C3","batch3","spm_respsonse","4719.300000011921","img/question_2_4.jpeg","1","mat_16","2","1","1","4719.300000011921","","","","","","","","","","","","","","","","","","","","",""
"","","","","","html-keyboard-response","36","141367","0.0-2.0-2.0-0.16","612517df29cd32c6632b4a44","C3","batch3","spm_show_trial_num","null","<p class=block-text>Trial 17 out of 60</p>","null","","","","","","","","","","","","","","","","","","","","","","","","","",""
"","","","","","image-button-response","37","146682","0.0-2.0-2.0-1.16","612517df29cd32c6632b4a44","C3","batch3","spm_respsonse","5310.5999999940395","img/question_2_5.jpeg","0","mat_17","1","1","1","5310.5999999940395","","","","","","","","","","","","","","","","","","","","",""
"","","","","","html-keyboard-response","38","147754","0.0-2.0-2.0-0.17","612517df29cd32c6632b4a44","C3","batch3","spm_show_trial_num","null","<p class=block-text>Trial 18 out of 60</p>","null","","","","","","","","","","","","","","","","","","","","","","","","","",""
"","","","","","image-button-response","39","156935","0.0-2.0-2.0-1.17","612517df29cd32c6632b4a44","C3","batch3","spm_respsonse","9176.39999999106","img/question_2_6.jpeg","2","mat_18","3","1","1","9176.39999999106","","","","","","","","","","","","","","","","","","","","",""
"","","","","","html-keyboard-response","40","158012","0.0-2.0-2.0-0.18","612517df29cd32c6632b4a44","C3","batch3","spm_show_trial_num","null","<p class=block-text>Trial 19 out of 60</p>","null","","","","","","","","","","","","","","","","","","","","","","","","","",""
"","","","","","image-button-response","41","176588","0.0-2.0-2.0-1.18","612517df29cd32c6632b4a44","C3","batch3","spm_respsonse","18571.10000000894","img/question_2_7.jpeg","4","mat_19","5","1","1","18571.10000000894","","","","","","","","","","","","","","","","","","","","",""
"","","","","","html-keyboard-response","42","177661","0.0-2.0-2.0-0.19","612517df29cd32c6632b4a44","C3","batch3","spm_show_trial_num","null","<p class=block-text>Trial 20 out of 60</p>","null","","","","","","","","","","","","","","","","","","","","","","","","","",""
"","","","","","image-button-response","43","186213","0.0-2.0-2.0-1.19","612517df29cd32c6632b4a44","C3","batch3","spm_respsonse","8547.60000000894","img/question_2_8.jpeg","5","mat_20","6","1","1","8547.60000000894","","","","","","","","","","","","","","","","","","","","",""
"","","","","","html-keyboard-response","44","187284","0.0-2.0-2.0-0.20","612517df29cd32c6632b4a44","C3","batch3","spm_show_trial_num","null","<p class=block-text>Trial 21 out of 60</p>","null","","","","","","","","","","","","","","","","","","","","","","","","","",""
"","","","","","image-button-response","45","190231","0.0-2.0-2.0-1.20","612517df29cd32c6632b4a44","C3","batch3","spm_respsonse","2942.6000000089407","img/question_2_9.jpeg","3","mat_21","4","1","1","2942.6000000089407","","","","","","","","","","","","","","","","","","","","",""
"","","","","","html-keyboard-response","46","191304","0.0-2.0-2.0-0.21","612517df29cd32c6632b4a44","C3","batch3","spm_show_trial_num","null","<p class=block-text>Trial 22 out of 60</p>","null","","","","","","","","","","","","","","","","","","","","","","","","","",""
"","","","","","image-button-response","47","196211","0.0-2.0-2.0-1.21","612517df29cd32c6632b4a44","C3","batch3","spm_respsonse","4901","img/question_2_10.jpeg","2","mat_22","3","1","1","4901","","","","","","","","","","","","","","","","","","","","",""
"","","","","","html-keyboard-response","48","197274","0.0-2.0-2.0-0.22","612517df29cd32c6632b4a44","C3","batch3","spm_show_trial_num","null","<p class=block-text>Trial 23 out of 60</p>","null","","","","","","","","","","","","","","","","","","","","","","","","","",""
"","","","","","image-button-response","49","201634","0.0-2.0-2.0-1.22","612517df29cd32c6632b4a44","C3","batch3","spm_respsonse","4355.0999999940395","img/question_2_11.jpeg","3","mat_23","4","1","1","4355.0999999940395","","","","","","","","","","","","","","","","","","","","",""
"","","","","","html-keyboard-response","50","202712","0.0-2.0-2.0-0.23","612517df29cd32c6632b4a44","C3","batch3","spm_show_trial_num","null","<p class=block-text>Trial 24 out of 60</p>","null","","","","","","","","","","","","","","","","","","","","","","","","","",""
"","","","","","image-button-response","51","221763","0.0-2.0-2.0-1.23","612517df29cd32c6632b4a44","C3","batch3","spm_respsonse","19045.40000000596","img/question_2_12.jpeg","4","mat_24","5","1","1","19045.40000000596","","","","","","","","","","","","","","","","","","","","",""
"","","","","","html-button-response","52","223743","0.0-2.0-3.0","612517df29cd32c6632b4a44","C3","batch3","attention_check","1720.3999999910593","<p class = block-text>Attention check: Please choose 1<br></p>","0","","","true","","","","","","","","","","","","","","","","","","","","","","",""
"","","","","","html-keyboard-response","53","224551","0.0-2.0-4.0-0.0","612517df29cd32c6632b4a44","C3","batch3","spm_show_trial_num","null","<p class=block-text>Trial 25 out of 60</p>","null","","","","","","","","","","","","","","","","","","","","","","","","","",""
"","","","","","image-button-response","54","233680","0.0-2.0-4.0-1.0","612517df29cd32c6632b4a44","C3","batch3","spm_respsonse","9121.60000000894","img/question_3_1.jpeg","7","mat_25","8","1","1","9121.60000000894","","","","","","","","","","","","","","","","","","","","",""
"","","","","","html-keyboard-response","55","234753","0.0-2.0-4.0-0.1","612517df29cd32c6632b4a44","C3","batch3","spm_show_trial_num","null","<p class=block-text>Trial 26 out of 60</p>","null","","","","","","","","","","","","","","","","","","","","","","","","","",""
"","","","","","image-button-response","56","242622","0.0-2.0-4.0-1.1","612517df29cd32c6632b4a44","C3","batch3","spm_respsonse","7864.79999999702","img/question_3_2.jpeg","1","mat_26","2","1","1","7864.79999999702","","","","","","","","","","","","","","","","","","","","",""
"","","","","","html-keyboard-response","57","243693","0.0-2.0-4.0-0.2","612517df29cd32c6632b4a44","C3","batch3","spm_show_trial_num","null","<p class=block-text>Trial 27 out of 60</p>","null","","","","","","","","","","","","","","","","","","","","","","","","","",""
"","","","","","image-button-response","58","252004","0.0-2.0-4.0-1.2","612517df29cd32c6632b4a44","C3","batch3","spm_respsonse","8306.79999999702","img/question_3_3.jpeg","2","mat_27","3","1","1","8306.79999999702","","","","","","","","","","","","","","","","","","","","",""
"","","","","","html-keyboard-response","59","253082","0.0-2.0-4.0-0.3","612517df29cd32c6632b4a44","C3","batch3","spm_show_trial_num","null","<p class=block-text>Trial 28 out of 60</p>","null","","","","","","","","","","","","","","","","","","","","","","","","","",""
"","","","","","image-button-response","60","267453","0.0-2.0-4.0-1.3","612517df29cd32c6632b4a44","C3","batch3","spm_respsonse","14366.70000000298","img/question_3_4.jpeg","7","mat_28","8","1","1","14366.70000000298","","","","","","","","","","","","","","","","","","","","",""
"","","","","","html-keyboard-response","61","268527","0.0-2.0-4.0-0.4","612517df29cd32c6632b4a44","C3","batch3","spm_show_trial_num","null","<p class=block-text>Trial 29 out of 60</p>","null","","","","","","","","","","","","","","","","","","","","","","","","","",""
"","","","","","image-button-response","62","281950","0.0-2.0-4.0-1.4","612517df29cd32c6632b4a44","C3","batch3","spm_respsonse","13418.79999999702","img/question_3_5.jpeg","6","mat_29","7","1","1","13418.79999999702","","","","","","","","","","","","","","","","","","","","",""
"","","","","","html-keyboard-response","63","283022","0.0-2.0-4.0-0.5","612517df29cd32c6632b4a44","C3","batch3","spm_show_trial_num","null","<p class=block-text>Trial 30 out of 60</p>","null","","","","","","","","","","","","","","","","","","","","","","","","","",""
"","","","","","image-button-response","64","292608","0.0-2.0-4.0-1.5","612517df29cd32c6632b4a44","C3","batch3","spm_respsonse","9581.29999999702","img/question_3_6.jpeg","3","mat_30","4","1","1","9581.29999999702","","","","","","","","","","","","","","","","","","","","",""
"","","","","","html-keyboard-response","65","293679","0.0-2.0-4.0-0.6","612517df29cd32c6632b4a44","C3","batch3","spm_show_trial_num","null","<p class=block-text>Trial 31 out of 60</p>","null","","","","","","","","","","","","","","","","","","","","","","","","","",""
"","","","","","image-button-response","66","304340","0.0-2.0-4.0-1.6","612517df29cd32c6632b4a44","C3","batch3","spm_respsonse","10656.09999999404","img/question_3_7.jpeg","4","mat_31","5","1","1","10656.09999999404","","","","","","","","","","","","","","","","","","","","",""
"","","","","","html-keyboard-response","67","305406","0.0-2.0-4.0-0.7","612517df29cd32c6632b4a44","C3","batch3","spm_show_trial_num","null","<p class=block-text>Trial 32 out of 60</p>","null","","","","","","","","","","","","","","","","","","","","","","","","","",""
"","","","","","image-button-response","68","318209","0.0-2.0-4.0-1.7","612517df29cd32c6632b4a44","C3","batch3","spm_respsonse","12797.90000000596","img/question_3_8.jpeg","0","mat_32","1","1","1","12797.90000000596","","","","","","","","","","","","","","","","","","","","",""
"","","","","","html-keyboard-response","69","319282","0.0-2.0-4.0-0.8","612517df29cd32c6632b4a44","C3","batch3","spm_show_trial_num","null","<p class=block-text>Trial 33 out of 60</p>","null","","","","","","","","","","","","","","","","","","","","","","","","","",""
"","","","","","image-button-response","70","325565","0.0-2.0-4.0-1.8","612517df29cd32c6632b4a44","C3","batch3","spm_respsonse","6279","img/question_3_9.jpeg","6","mat_33","7","1","1","6279","","","","","","","","","","","","","","","","","","","","",""
"","","","","","html-keyboard-response","71","326636","0.0-2.0-4.0-0.9","612517df29cd32c6632b4a44","C3","batch3","spm_show_trial_num","null","<p class=block-text>Trial 34 out of 60</p>","null","","","","","","","","","","","","","","","","","","","","","","","","","",""
"","","","","","image-button-response","72","374072","0.0-2.0-4.0-1.9","612517df29cd32c6632b4a44","C3","batch3","spm_respsonse","47430.69999998808","img/question_3_10.jpeg","5","mat_34","6","1","1","47430.69999998808","","","","","","","","","","","","","","","","","","","","",""
"","","","","","html-keyboard-response","73","375139","0.0-2.0-4.0-0.10","612517df29cd32c6632b4a44","C3","batch3","spm_show_trial_num","null","<p class=block-text>Trial 35 out of 60</p>","null","","","","","","","","","","","","","","","","","","","","","","","","","",""
"","","","","","image-button-response","74","421909","0.0-2.0-4.0-1.10","612517df29cd32c6632b4a44","C3","batch3","spm_respsonse","46765.10000000894","img/question_3_11.jpeg","0","mat_35","1","1","1","46765.10000000894","","","","","","","","","","","","","","","","","","","","",""
"","","","","","html-keyboard-response","75","422974","0.0-2.0-4.0-0.11","612517df29cd32c6632b4a44","C3","batch3","spm_show_trial_num","null","<p class=block-text>Trial 36 out of 60</p>","null","","","","","","","","","","","","","","","","","","","","","","","","","",""
"","","","","","image-button-response","76","451461","0.0-2.0-4.0-1.11","612517df29cd32c6632b4a44","C3","batch3","spm_respsonse","28482.10000000894","img/question_3_12.jpeg","1","mat_36","2","1","1","28482.10000000894","","","","","","","","","","","","","","","","","","","","",""
"","","","","","html-keyboard-response","77","452529","0.0-2.0-4.0-0.12","612517df29cd32c6632b4a44","C3","batch3","spm_show_trial_num","null","<p class=block-text>Trial 37 out of 60</p>","null","","","","","","","","","","","","","","","","","","","","","","","","","",""
"","","","","","image-button-response","78","455548","0.0-2.0-4.0-1.12","612517df29cd32c6632b4a44","C3","batch3","spm_respsonse","3013.7000000029802","img/question_4_1.jpeg","2","mat_37","3","1","1","3013.7000000029802","","","","","","","","","","","","","","","","","","","","",""
"","","","","","html-keyboard-response","79","456616","0.0-2.0-4.0-0.13","612517df29cd32c6632b4a44","C3","batch3","spm_show_trial_num","null","<p class=block-text>Trial 38 out of 60</p>","null","","","","","","","","","","","","","","","","","","","","","","","","","",""
"","","","","","image-button-response","80","466132","0.0-2.0-4.0-1.13","612517df29cd32c6632b4a44","C3","batch3","spm_respsonse","9511.09999999404","img/question_4_2.jpeg","3","mat_38","4","1","1","9511.09999999404","","","","","","","","","","","","","","","","","","","","",""
"","","","","","html-keyboard-response","81","467208","0.0-2.0-4.0-0.14","612517df29cd32c6632b4a44","C3","batch3","spm_show_trial_num","null","<p class=block-text>Trial 39 out of 60</p>","null","","","","","","","","","","","","","","","","","","","","","","","","","",""
"","","","","","image-button-response","82","476613","0.0-2.0-4.0-1.14","612517df29cd32c6632b4a44","C3","batch3","spm_respsonse","9400.800000011921","img/question_4_3.jpeg","2","mat_39","3","1","1","9400.800000011921","","","","","","","","","","","","","","","","","","","","",""
"","","","","","html-keyboard-response","83","477682","0.0-2.0-4.0-0.15","612517df29cd32c6632b4a44","C3","batch3","spm_show_trial_num","null","<p class=block-text>Trial 40 out of 60</p>","null","","","","","","","","","","","","","","","","","","","","","","","","","",""
"","","","","","image-button-response","84","484114","0.0-2.0-4.0-1.15","612517df29cd32c6632b4a44","C3","batch3","spm_respsonse","6427.100000008941","img/question_4_4.jpeg","6","mat_40","7","1","1","6427.100000008941","","","","","","","","","","","","","","","","","","","","",""
"","","","","","html-keyboard-response","85","485188","0.0-2.0-4.0-0.16","612517df29cd32c6632b4a44","C3","batch3","spm_show_trial_num","null","<p class=block-text>Trial 41 out of 60</p>","null","","","","","","","","","","","","","","","","","","","","","","","","","",""
"","","","","","image-button-response","86","495640","0.0-2.0-4.0-1.16","612517df29cd32c6632b4a44","C3","batch3","spm_respsonse","10450.09999999404","img/question_4_5.jpeg","7","mat_41","8","1","1","10450.09999999404","","","","","","","","","","","","","","","","","","","","",""
"","","","","","html-keyboard-response","87","496712","0.0-2.0-4.0-0.17","612517df29cd32c6632b4a44","C3","batch3","spm_show_trial_num","null","<p class=block-text>Trial 42 out of 60</p>","null","","","","","","","","","","","","","","","","","","","","","","","","","",""
"","","","","","image-button-response","88","505597","0.0-2.0-4.0-1.17","612517df29cd32c6632b4a44","C3","batch3","spm_respsonse","8879.79999999702","img/question_4_6.jpeg","5","mat_42","6","1","1","8879.79999999702","","","","","","","","","","","","","","","","","","","","",""
"","","","","","html-keyboard-response","89","506670","0.0-2.0-4.0-0.18","612517df29cd32c6632b4a44","C3","batch3","spm_show_trial_num","null","<p class=block-text>Trial 43 out of 60</p>","null","","","","","","","","","","","","","","","","","","","","","","","","","",""
"","","","","","image-button-response","90","515579","0.0-2.0-4.0-1.18","612517df29cd32c6632b4a44","C3","batch3","spm_respsonse","8904","img/question_4_7.jpeg","4","mat_43","5","1","1","8904","","","","","","","","","","","","","","","","","","","","",""
"","","","","","html-keyboard-response","91","516644","0.0-2.0-4.0-0.19","612517df29cd32c6632b4a44","C3","batch3","spm_show_trial_num","null","<p class=block-text>Trial 44 out of 60</p>","null","","","","","","","","","","","","","","","","","","","","","","","","","",""
"","","","","","image-button-response","92","539851","0.0-2.0-4.0-1.19","612517df29cd32c6632b4a44","C3","batch3","spm_respsonse","23202.70000000298","img/question_4_8.jpeg","3","mat_44","4","1","1","23202.70000000298","","","","","","","","","","","","","","","","","","","","",""
"","","","","","html-keyboard-response","93","540929","0.0-2.0-4.0-0.20","612517df29cd32c6632b4a44","C3","batch3","spm_show_trial_num","null","<p class=block-text>Trial 45 out of 60</p>","null","","","","","","","","","","","","","","","","","","","","","","","","","",""
"","","","","","image-button-response","94","566117","0.0-2.0-4.0-1.20","612517df29cd32c6632b4a44","C3","batch3","spm_respsonse","25182.20000000298","img/question_4_9.jpeg","0","mat_45","1","1","1","25182.20000000298","","","","","","","","","","","","","","","","","","","","",""
"","","","","","html-keyboard-response","95","567182","0.0-2.0-4.0-0.21","612517df29cd32c6632b4a44","C3","batch3","spm_show_trial_num","null","<p class=block-text>Trial 46 out of 60</p>","null","","","","","","","","","","","","","","","","","","","","","","","","","",""
"","","","","","image-button-response","96","601792","0.0-2.0-4.0-1.21","612517df29cd32c6632b4a44","C3","batch3","spm_respsonse","34605.29999999702","img/question_4_10.jpeg","1","mat_46","2","1","1","34605.29999999702","","","","","","","","","","","","","","","","","","","","",""
"","","","","","html-keyboard-response","97","602858","0.0-2.0-4.0-0.22","612517df29cd32c6632b4a44","C3","batch3","spm_show_trial_num","null","<p class=block-text>Trial 47 out of 60</p>","null","","","","","","","","","","","","","","","","","","","","","","","","","",""
"","","","","","image-button-response","98","660194","0.0-2.0-4.0-1.22","612517df29cd32c6632b4a44","C3","batch3","spm_respsonse","57331.5","img/question_4_11.jpeg","4","mat_47","5","1","1","57331.5","","","","","","","","","","","","","","","","","","","","",""
"","","","","","html-keyboard-response","99","661268","0.0-2.0-4.0-0.23","612517df29cd32c6632b4a44","C3","batch3","spm_show_trial_num","null","<p class=block-text>Trial 48 out of 60</p>","null","","","","","","","","","","","","","","","","","","","","","","","","","",""
"","","","","","image-button-response","100","714630","0.0-2.0-4.0-1.23","612517df29cd32c6632b4a44","C3","batch3","spm_respsonse","53328.90000000596","img/question_4_12.jpeg","5","mat_48","6","1","1","53328.90000000596","","","","","","","","","","","","","","","","","","","","",""
"","","","","","html-keyboard-response","101","715707","0.0-2.0-4.0-0.24","612517df29cd32c6632b4a44","C3","batch3","spm_show_trial_num","null","<p class=block-text>Trial 49 out of 60</p>","null","","","","","","","","","","","","","","","","","","","","","","","","","",""
"","","","","","image-button-response","102","724601","0.0-2.0-4.0-1.24","612517df29cd32c6632b4a44","C3","batch3","spm_respsonse","8890.20000000298","img/question_5_1.jpeg","6","mat_49","7","1","1","8890.20000000298","","","","","","","","","","","","","","","","","","","","",""
"","","","","","html-keyboard-response","103","725680","0.0-2.0-4.0-0.25","612517df29cd32c6632b4a44","C3","batch3","spm_show_trial_num","null","<p class=block-text>Trial 50 out of 60</p>","null","","","","","","","","","","","","","","","","","","","","","","","","","",""
"","","","","","image-button-response","104","739035","0.0-2.0-4.0-1.25","612517df29cd32c6632b4a44","C3","batch3","spm_respsonse","13350","img/question_5_2.jpeg","5","mat_50","6","1","1","13350","","","","","","","","","","","","","","","","","","","","",""
"","","","","","html-keyboard-response","105","740109","0.0-2.0-4.0-0.26","612517df29cd32c6632b4a44","C3","batch3","spm_show_trial_num","null","<p class=block-text>Trial 51 out of 60</p>","null","","","","","","","","","","","","","","","","","","","","","","","","","",""
"","","","","","image-button-response","106","748933","0.0-2.0-4.0-1.26","612517df29cd32c6632b4a44","C3","batch3","spm_respsonse","8818.79999999702","img/question_5_3.jpeg","7","mat_51","8","1","1","8818.79999999702","","","","","","","","","","","","","","","","","","","","",""
"","","","","","html-keyboard-response","107","749999","0.0-2.0-4.0-0.27","612517df29cd32c6632b4a44","C3","batch3","spm_show_trial_num","null","<p class=block-text>Trial 52 out of 60</p>","null","","","","","","","","","","","","","","","","","","","","","","","","","",""
"","","","","","image-button-response","108","759563","0.0-2.0-4.0-1.27","612517df29cd32c6632b4a44","C3","batch3","spm_respsonse","9559.89999999106","img/question_5_4.jpeg","1","mat_52","2","1","1","9559.89999999106","","","","","","","","","","","","","","","","","","","","",""
"","","","","","html-keyboard-response","109","760640","0.0-2.0-4.0-0.28","612517df29cd32c6632b4a44","C3","batch3","spm_show_trial_num","null","<p class=block-text>Trial 53 out of 60</p>","null","","","","","","","","","","","","","","","","","","","","","","","","","",""
"","","","","","image-button-response","110","771125","0.0-2.0-4.0-1.28","612517df29cd32c6632b4a44","C3","batch3","spm_respsonse","10480.60000000894","img/question_5_5.jpeg","0","mat_53","1","1","1","10480.60000000894","","","","","","","","","","","","","","","","","","","","",""
"","","","","","html-keyboard-response","111","772189","0.0-2.0-4.0-0.29","612517df29cd32c6632b4a44","C3","batch3","spm_show_trial_num","null","<p class=block-text>Trial 54 out of 60</p>","null","","","","","","","","","","","","","","","","","","","","","","","","","",""
"","","","","","image-button-response","112","788889","0.0-2.0-4.0-1.29","612517df29cd32c6632b4a44","C3","batch3","spm_respsonse","16694.30000001192","img/question_5_6.jpeg","4","mat_54","5","1","1","16694.30000001192","","","","","","","","","","","","","","","","","","","","",""
"","","","","","html-keyboard-response","113","789962","0.0-2.0-4.0-0.30","612517df29cd32c6632b4a44","C3","batch3","spm_show_trial_num","null","<p class=block-text>Trial 55 out of 60</p>","null","","","","","","","","","","","","","","","","","","","","","","","","","",""
"","","","","","image-button-response","114","804997","0.0-2.0-4.0-1.30","612517df29cd32c6632b4a44","C3","batch3","spm_respsonse","15030.79999999702","img/question_5_7.jpeg","0","mat_55","1","1","1","15030.79999999702","","","","","","","","","","","","","","","","","","","","",""
"","","","","","html-keyboard-response","115","806074","0.0-2.0-4.0-0.31","612517df29cd32c6632b4a44","C3","batch3","spm_show_trial_num","null","<p class=block-text>Trial 56 out of 60</p>","null","","","","","","","","","","","","","","","","","","","","","","","","","",""
"","","","","","image-button-response","116","820009","0.0-2.0-4.0-1.31","612517df29cd32c6632b4a44","C3","batch3","spm_respsonse","13929.90000000596","img/question_5_8.jpeg","5","mat_56","6","1","1","13929.90000000596","","","","","","","","","","","","","","","","","","","","",""
"","","","","","html-keyboard-response","117","821086","0.0-2.0-4.0-0.32","612517df29cd32c6632b4a44","C3","batch3","spm_show_trial_num","null","<p class=block-text>Trial 57 out of 60</p>","null","","","","","","","","","","","","","","","","","","","","","","","","","",""
"","","","","","image-button-response","118","846034","0.0-2.0-4.0-1.32","612517df29cd32c6632b4a44","C3","batch3","spm_respsonse","24944","img/question_5_9.jpeg","2","mat_57","3","1","1","24944","","","","","","","","","","","","","","","","","","","","",""
"","","","","","html-keyboard-response","119","847104","0.0-2.0-4.0-0.33","612517df29cd32c6632b4a44","C3","batch3","spm_show_trial_num","null","<p class=block-text>Trial 58 out of 60</p>","null","","","","","","","","","","","","","","","","","","","","","","","","","",""
"","","","","","image-button-response","120","985582","0.0-2.0-4.0-1.33","612517df29cd32c6632b4a44","C3","batch3","spm_respsonse","138472.79999999702","img/question_5_10.jpeg","3","mat_58","2","0","0","138472.79999999702","","","","","","","","","","","","","","","","","","","","",""
"","","","","","html-keyboard-response","121","986658","0.0-2.0-4.0-0.34","612517df29cd32c6632b4a44","C3","batch3","spm_show_trial_num","null","<p class=block-text>Trial 59 out of 60</p>","null","","","","","","","","","","","","","","","","","","","","","","","","","",""
"","","","","","image-button-response","122","1041674","0.0-2.0-4.0-1.34","612517df29cd32c6632b4a44","C3","batch3","spm_respsonse","55010.29999999702","img/question_5_11.jpeg","6","mat_59","4","0","0","55010.29999999702","","","","","","","","","","","","","","","","","","","","",""
"","","","","","html-keyboard-response","123","1042749","0.0-2.0-4.0-0.35","612517df29cd32c6632b4a44","C3","batch3","spm_show_trial_num","null","<p class=block-text>Trial 60 out of 60</p>","null","","","","","","","","","","","","","","","","","","","","","","","","","",""
"","","","","","image-button-response","124","1105649","0.0-2.0-4.0-1.35","612517df29cd32c6632b4a44","C3","batch3","spm_respsonse","62895.29999999702","img/question_5_12.jpeg","1","mat_60","5","0","0","62895.29999999702","","","","","","","","","","","","","","","","","","","","",""
"","","","","","html-button-response","125","1108226","0.0-2.0-5.0","612517df29cd32c6632b4a44","C3","batch3","spm_goodbye","2309.0999999940395","<p class= block-text>This concludes the Standard Progressive Matrix game. Thank you for your responses!<br> When you are ready, click the button continue</p>","0","","","","","","","","","","","","","","","","","","","","","","","","","",""
"true","","","","","fullscreen","126","1111469","0.0-3.0-0.0","612517df29cd32c6632b4a44","C3","batch3","","","","","","","","","","","","","","","","","","","","","","","","","","","","","",""
"","","","","","instructions","127","1153273","0.0-3.0-1.0-0.0","612517df29cd32c6632b4a44","C3","batch3","","41802.20000000298","","","","","","","","[{""page_index"":0,""viewing_time"":27249.70000000298},{""page_index"":1,""viewing_time"":14551.90000000596}]","","","","","","","","","","","","","","","","","","","",""
"","","","","","html-button-response","128","1154710","0.0-3.0-1.0-1.0-0.0","612517df29cd32c6632b4a44","C3","batch3","pattern_enter_quiz","1434.7000000029802","<p class=block-text> Let's answer a few questions <br>","0","","","","","","","","","","","","","","","","","","","","","","","","","",""
"","","","","","html-button-response","129","1158009","0.0-3.0-1.0-1.0-1.0","612517df29cd32c6632b4a44","C3","batch3","pattern_quiz","3297","<p class = block-text>True or False: You will have as much time as you want to make each choice. <br></p>","1","","","true","","","","","","","","","","","","","","","","","","","","","","",""
"","","","","","html-button-response","130","1159387","0.0-3.0-1.0-1.0-2.0","612517df29cd32c6632b4a44","C3","batch3","pattern_quiz_feedback","1374.5999999940395","<p class = block-text>Correct! You should make your choice <strong> as fast as you can</strong>.</p>","0","","","","","","","","","","","","","","","","","","","","","","","","","",""
"","","","","","html-button-response","131","1162508","0.0-3.0-1.0-1.0-3.0","612517df29cd32c6632b4a44","C3","batch3","pattern_quiz","3119.5","<p class = block-text>True or False: You will look for 4 pieces in black or white color connected in a row either horizontally, vertically or diagonally. <br></p>","0","","","true","","","","","","","","","","","","","","","","","","","","","","",""
"","","","","","html-button-response","132","1163279","0.0-3.0-1.0-1.0-4.0","612517df29cd32c6632b4a44","C3","batch3","pattern_quiz_feedback","768.7999999970198","<p class = block-text>Correct! </p>","0","","","","","","","","","","","","","","","","","","","","","","","","","",""
"","","","","","html-button-response","133","1164707","0.0-3.0-2.0","612517df29cd32c6632b4a44","C3","batch3","pattern_enter_practice","1422.6000000089407","<p class=block-text> Now that you've understood the game, let's do a few practice trials before we start!<br> <br>","0","","","","","","","","","","","","","","","","","","","","","","","","","",""
"","","","","","image-keyboard-response","134","1167407","0.0-3.0-3.0-0.0","612517df29cd32c6632b4a44","C3","batch3","pattern_practice","2695","stim/prac_no_16_1.png","j","","j","true","","","","","","","","","","","","","","","","","","","","","","",""
"","","","","","html-keyboard-response","135","1168429","0.0-3.0-3.0-1.0","612517df29cd32c6632b4a44","C3","batch3","pattern_feedback","null","<p style=""font-size:30px;color:green;"">Correct!</p>","null","","","","","","","","","","","","","","","","","","","","","","","","","",""
"","","","","","image-keyboard-response","136","1170962","0.0-3.0-3.0-0.1","612517df29cd32c6632b4a44","C3","batch3","pattern_practice","2530.5","stim/prac_yes_20_dia_b1.png","j","","f","false","","","","","","","","","","","","","","","","","","","","","","",""
"","","","","","html-keyboard-response","137","1171977","0.0-3.0-3.0-1.1","612517df29cd32c6632b4a44","C3","batch3","pattern_feedback","null","<p style=""font-size:30px;color:red;"">Wrong.</p>","null","","","","","","","","","","","","","","","","","","","","","","","","","",""
"","","","","","image-keyboard-response","138","1174965","0.0-3.0-3.0-0.2","612517df29cd32c6632b4a44","C3","batch3","pattern_practice","2985.5999999940395","stim/prac_no_18_1.png","j","","j","true","","","","","","","","","","","","","","","","","","","","","","",""
"","","","","","html-keyboard-response","139","1175984","0.0-3.0-3.0-1.2","612517df29cd32c6632b4a44","C3","batch3","pattern_feedback","null","<p style=""font-size:30px;color:green;"">Correct!</p>","null","","","","","","","","","","","","","","","","","","","","","","","","","",""
"","","","","","image-keyboard-response","140","1176874","0.0-3.0-3.0-0.3","612517df29cd32c6632b4a44","C3","batch3","pattern_practice","884.3999999910593","stim/prac_yes_16_ver_w1.png","f","","f","true","","","","","","","","","","","","","","","","","","","","","","",""
"","","","","","html-keyboard-response","141","1177887","0.0-3.0-3.0-1.3","612517df29cd32c6632b4a44","C3","batch3","pattern_feedback","null","<p style=""font-size:30px;color:green;"">Correct!</p>","null","","","","","","","","","","","","","","","","","","","","","","","","","",""
"","","","","","image-keyboard-response","142","1178862","0.0-3.0-3.0-0.4","612517df29cd32c6632b4a44","C3","batch3","pattern_practice","971.4000000059605","stim/prac_yes_18_hor_w1.png","f","","f","true","","","","","","","","","","","","","","","","","","","","","","",""
"","","","","","html-keyboard-response","143","1179887","0.0-3.0-3.0-1.4","612517df29cd32c6632b4a44","C3","batch3","pattern_feedback","null","<p style=""font-size:30px;color:green;"">Correct!</p>","null","","","","","","","","","","","","","","","","","","","","","","","","","",""
"","","","","","html-button-response","144","1189464","0.0-3.0-4.0","612517df29cd32c6632b4a44","C3","batch3","pattern_enter_official_trials","9572.89999999106","<p class=block-text> Good job! You are done with practice trials!<br>
        You responded correctly on 80% of the trials.<br>
        Press the button below to start official trials. Now you won't see any feedback about your response</p>","0","","","","","","","","","","","","","","","","","","","","","","","","","",""
"","","","","","html-keyboard-response","145","1190274","0.0-3.0-5.0-0.0","612517df29cd32c6632b4a44","C3","batch3","pattern_show_trial_num","null","<p class=block-text>Trial 1 out of 78</p>","null","","","","","","","","","","","","","","","","","","","","","","","","","",""
"","","","","","image-keyboard-response","146","1191634","0.0-3.0-5.0-1.0","612517df29cd32c6632b4a44","C3","batch3","pattern_response","1354.7000000029802","stim/yes_53_ver_b1_b.png","f","pattern_74","f","true","","","","1354.7000000029802","true","1","","","","","","","","","","","","","","","","",""
"","","","","","html-keyboard-response","147","1192959","0.0-3.0-5.0-0.1","612517df29cd32c6632b4a44","C3","batch3","pattern_show_trial_num","null","<p class=block-text>Trial 2 out of 78</p>","null","","","","","","","","","","","","","","","","","","","","","","","","","",""
"","","","","","image-keyboard-response","148","1193843","0.0-3.0-5.0-1.1","612517df29cd32c6632b4a44","C3","batch3","pattern_response","881.4000000059605","stim/no_15_1_w.png","j","pattern_03","j","true","","","","881.4000000059605","true","2","","","","","","","","","","","","","","","","",""
"","","","","","html-keyboard-response","149","1195161","0.0-3.0-5.0-0.2","612517df29cd32c6632b4a44","C3","batch3","pattern_show_trial_num","null","<p class=block-text>Trial 3 out of 78</p>","null","","","","","","","","","","","","","","","","","","","","","","","","","",""
"","","","","","image-keyboard-response","150","1196494","0.0-3.0-5.0-1.2","612517df29cd32c6632b4a44","C3","batch3","pattern_response","1329.7999999970198","stim/yes_51_dia_b1.png","f","pattern_72","f","true","","","","1329.7999999970198","true","3","","","","","","","","","","","","","","","","",""
"","","","","","html-keyboard-response","151","1197814","0.0-3.0-5.0-0.3","612517df29cd32c6632b4a44","C3","batch3","pattern_show_trial_num","null","<p class=block-text>Trial 4 out of 78</p>","null","","","","","","","","","","","","","","","","","","","","","","","","","",""
"","","","","","image-keyboard-response","152","1198573","0.0-3.0-5.0-1.3","612517df29cd32c6632b4a44","C3","batch3","pattern_response","755.3000000119209","stim/yes_30_ver_b1_b.png","f","pattern_54","f","true","","","","755.3000000119209","true","4","","","","","","","","","","","","","","","","",""
"","","","","","html-keyboard-response","153","1199898","0.0-3.0-5.0-0.4","612517df29cd32c6632b4a44","C3","batch3","pattern_show_trial_num","null","<p class=block-text>Trial 5 out of 78</p>","null","","","","","","","","","","","","","","","","","","","","","","","","","",""
"","","","","","image-keyboard-response","154","1202564","0.0-3.0-5.0-1.4","612517df29cd32c6632b4a44","C3","batch3","pattern_response","2663.2999999970198","stim/yes_44_ver_w1_w.png","f","pattern_66","f","true","","","","2663.2999999970198","true","5","","","","","","","","","","","","","","","","",""
"","","","","","html-keyboard-response","155","1203892","0.0-3.0-5.0-0.5","612517df29cd32c6632b4a44","C3","batch3","pattern_show_trial_num","null","<p class=block-text>Trial 6 out of 78</p>","null","","","","","","","","","","","","","","","","","","","","","","","","","",""
"","","","","","image-keyboard-response","156","1204673","0.0-3.0-5.0-1.5","612517df29cd32c6632b4a44","C3","batch3","pattern_response","775.9000000059605","stim/yes_29_hor_b1_b.png","f","pattern_52","f","true","","","","775.9000000059605","true","6","","","","","","","","","","","","","","","","",""
"","","","","","html-keyboard-response","157","1205993","0.0-3.0-5.0-0.6","612517df29cd32c6632b4a44","C3","batch3","pattern_show_trial_num","null","<p class=block-text>Trial 7 out of 78</p>","null","","","","","","","","","","","","","","","","","","","","","","","","","",""
"","","","","","image-keyboard-response","158","1207873","0.0-3.0-5.0-1.6","612517df29cd32c6632b4a44","C3","batch3","pattern_response","1877.2000000029802","stim/no_18_1_b.png","j","pattern_05","j","true","","","","1877.2000000029802","true","7","","","","","","","","","","","","","","","","",""
"","","","","","html-keyboard-response","159","1209188","0.0-3.0-5.0-0.7","612517df29cd32c6632b4a44","C3","batch3","pattern_show_trial_num","null","<p class=block-text>Trial 8 out of 78</p>","null","","","","","","","","","","","","","","","","","","","","","","","","","",""
"","","","","","image-keyboard-response","160","1210200","0.0-3.0-5.0-1.7","612517df29cd32c6632b4a44","C3","batch3","pattern_response","1010","stim/yes_33_dia_w1_w.png","f","pattern_56","f","true","","","","1010","true","8","","","","","","","","","","","","","","","","",""
"","","","","","html-keyboard-response","161","1211523","0.0-3.0-5.0-0.8","612517df29cd32c6632b4a44","C3","batch3","pattern_show_trial_num","null","<p class=block-text>Trial 9 out of 78</p>","null","","","","","","","","","","","","","","","","","","","","","","","","","",""
"","","","","","image-keyboard-response","162","1217243","0.0-3.0-5.0-1.8","612517df29cd32c6632b4a44","C3","batch3","pattern_response","5717.100000008941","stim/no_49_2_b.png","j","pattern_29","j","true","","","","5717.100000008941","true","9","","","","","","","","","","","","","","","","",""
"","","","","","html-keyboard-response","163","1218562","0.0-3.0-5.0-0.9","612517df29cd32c6632b4a44","C3","batch3","pattern_show_trial_num","null","<p class=block-text>Trial 10 out of 78</p>","null","","","","","","","","","","","","","","","","","","","","","","","","","",""
"","","","","","image-keyboard-response","164","1221132","0.0-3.0-5.0-1.9","612517df29cd32c6632b4a44","C3","batch3","pattern_response","2566","stim/no_43_2_b.png","j","pattern_23","j","true","","","","2566","true","10","","","","","","","","","","","","","","","","",""
"","","","","","html-keyboard-response","165","1222448","0.0-3.0-5.0-0.10","612517df29cd32c6632b4a44","C3","batch3","pattern_show_trial_num","null","<p class=block-text>Trial 11 out of 78</p>","null","","","","","","","","","","","","","","","","","","","","","","","","","",""
"","","","","","image-keyboard-response","166","1225452","0.0-3.0-5.0-1.10","612517df29cd32c6632b4a44","C3","batch3","pattern_response","3000.6000000089407","stim/no_28_2.png","j","pattern_11","j","true","","","","3000.6000000089407","true","11","","","","","","","","","","","","","","","","",""
"","","","","","html-keyboard-response","167","1226768","0.0-3.0-5.0-0.11","612517df29cd32c6632b4a44","C3","batch3","pattern_show_trial_num","null","<p class=block-text>Trial 12 out of 78</p>","null","","","","","","","","","","","","","","","","","","","","","","","","","",""
"","","","","","image-keyboard-response","168","1230211","0.0-3.0-5.0-1.11","612517df29cd32c6632b4a44","C3","batch3","pattern_response","3451.300000011921","stim/no_39_1_w.png","j","pattern_21","j","true","","","","3451.300000011921","true","12","","","","","","","","","","","","","","","","",""
"","","","","","html-keyboard-response","169","1231526","0.0-3.0-5.0-0.12","612517df29cd32c6632b4a44","C3","batch3","pattern_show_trial_num","null","<p class=block-text>Trial 13 out of 78</p>","null","","","","","","","","","","","","","","","","","","","","","","","","","",""
"","","","","","image-keyboard-response","170","1232520","0.0-3.0-5.0-1.12","612517df29cd32c6632b4a44","C3","batch3","pattern_response","990.2999999970198","stim/yes_37_hor_w1_w.png","f","pattern_60","f","true","","","","990.2999999970198","true","13","","","","","","","","","","","","","","","","",""
"","","","","","html-keyboard-response","171","1233844","0.0-3.0-5.0-0.13","612517df29cd32c6632b4a44","C3","batch3","pattern_show_trial_num","null","<p class=block-text>Trial 14 out of 78</p>","null","","","","","","","","","","","","","","","","","","","","","","","","","",""
"","","","","","image-keyboard-response","172","1240000","0.0-3.0-5.0-1.13","612517df29cd32c6632b4a44","C3","batch3","pattern_response","6151.79999999702","stim/no_67_1.png","j","pattern_39","j","true","","","","6151.79999999702","true","14","","","","","","","","","","","","","","","","",""
"","","","","","html-keyboard-response","173","1241316","0.0-3.0-5.0-0.14","612517df29cd32c6632b4a44","C3","batch3","pattern_show_trial_num","null","<p class=block-text>Trial 15 out of 78</p>","null","","","","","","","","","","","","","","","","","","","","","","","","","",""
"","","","","","image-keyboard-response","174","1245871","0.0-3.0-5.0-1.14","612517df29cd32c6632b4a44","C3","batch3","pattern_response","4550.4000000059605","stim/no_51_1.png","j","pattern_31","j","true","","","","4550.4000000059605","true","15","","","","","","","","","","","","","","","","",""
"","","","","","html-keyboard-response","175","1247187","0.0-3.0-5.0-0.15","612517df29cd32c6632b4a44","C3","batch3","pattern_show_trial_num","null","<p class=block-text>Trial 16 out of 78</p>","null","","","","","","","","","","","","","","","","","","","","","","","","","",""
"","","","","","image-keyboard-response","176","1251620","0.0-3.0-5.0-1.15","612517df29cd32c6632b4a44","C3","batch3","pattern_response","4428.5999999940395","stim/yes_63_dia_b1.png","f","pattern_78","f","true","","","","4428.5999999940395","true","16","","","","","","","","","","","","","","","","",""
"","","","","","html-keyboard-response","177","1252943","0.0-3.0-5.0-0.16","612517df29cd32c6632b4a44","C3","batch3","pattern_show_trial_num","null","<p class=block-text>Trial 17 out of 78</p>","null","","","","","","","","","","","","","","","","","","","","","","","","","",""
"","","","","","image-keyboard-response","178","1257241","0.0-3.0-5.0-1.16","612517df29cd32c6632b4a44","C3","batch3","pattern_response","4294.20000000298","stim/no_37_2_w.png","j","pattern_19","j","true","","","","4294.20000000298","true","17","","","","","","","","","","","","","","","","",""
"","","","","","html-keyboard-response","179","1258562","0.0-3.0-5.0-0.17","612517df29cd32c6632b4a44","C3","batch3","pattern_show_trial_num","null","<p class=block-text>Trial 18 out of 78</p>","null","","","","","","","","","","","","","","","","","","","","","","","","","",""
"","","","","","image-keyboard-response","180","1261710","0.0-3.0-5.0-1.17","612517df29cd32c6632b4a44","C3","batch3","pattern_response","3143.0999999940395","stim/yes_42_dia_w1_w.png","f","pattern_64","f","true","","","","3143.0999999940395","true","18","","","","","","","","","","","","","","","","",""
"","","","","","html-keyboard-response","181","1263033","0.0-3.0-5.0-0.18","612517df29cd32c6632b4a44","C3","batch3","pattern_show_trial_num","null","<p class=block-text>Trial 19 out of 78</p>","null","","","","","","","","","","","","","","","","","","","","","","","","","",""
"","","","","","image-keyboard-response","182","1263870","0.0-3.0-5.0-1.18","612517df29cd32c6632b4a44","C3","batch3","pattern_response","832.2000000029802","stim/yes_39_hor_w1_w.png","f","pattern_62","f","true","","","","832.2000000029802","true","19","","","","","","","","","","","","","","","","",""
"","","","","","html-keyboard-response","183","1265184","0.0-3.0-5.0-0.19","612517df29cd32c6632b4a44","C3","batch3","pattern_show_trial_num","null","<p class=block-text>Trial 20 out of 78</p>","null","","","","","","","","","","","","","","","","","","","","","","","","","",""
"","","","","","image-keyboard-response","184","1266040","0.0-3.0-5.0-1.19","612517df29cd32c6632b4a44","C3","batch3","pattern_response","852.7000000029802","stim/yes_23_ver_b1.png","f","pattern_48","f","true","","","","852.7000000029802","true","20","","","","","","","","","","","","","","","","",""
"","","","","","html-keyboard-response","185","1267369","0.0-3.0-5.0-0.20","612517df29cd32c6632b4a44","C3","batch3","pattern_show_trial_num","null","<p class=block-text>Trial 21 out of 78</p>","null","","","","","","","","","","","","","","","","","","","","","","","","","",""
"","","","","","image-keyboard-response","186","1272690","0.0-3.0-5.0-1.20","612517df29cd32c6632b4a44","C3","batch3","pattern_response","5319","stim/yes_58_dia_w1_w.png","f","pattern_76","f","true","","","","5319","true","21","","","","","","","","","","","","","","","","",""
"","","","","","html-keyboard-response","187","1274007","0.0-3.0-5.0-0.21","612517df29cd32c6632b4a44","C3","batch3","pattern_show_trial_num","null","<p class=block-text>Trial 22 out of 78</p>","null","","","","","","","","","","","","","","","","","","","","","","","","","",""
"","","","","","image-keyboard-response","188","1274789","0.0-3.0-5.0-1.21","612517df29cd32c6632b4a44","C3","batch3","pattern_response","778","stim/yes_36_ver_w1_w.png","f","pattern_58","f","true","","","","778","true","22","","","","","","","","","","","","","","","","",""
"","","","","","html-keyboard-response","189","1276109","0.0-3.0-5.0-0.22","612517df29cd32c6632b4a44","C3","batch3","pattern_show_trial_num","null","<p class=block-text>Trial 23 out of 78</p>","null","","","","","","","","","","","","","","","","","","","","","","","","","",""
"","","","","","image-keyboard-response","190","1276819","0.0-3.0-5.0-1.22","612517df29cd32c6632b4a44","C3","batch3","pattern_response","707.8000000119209","stim/yes_17_ver_b1_b.png","f","pattern_46","f","true","","","","707.8000000119209","true","23","","","","","","","","","","","","","","","","",""
"","","","","","html-keyboard-response","191","1278143","0.0-3.0-5.0-0.23","612517df29cd32c6632b4a44","C3","batch3","pattern_show_trial_num","null","<p class=block-text>Trial 24 out of 78</p>","null","","","","","","","","","","","","","","","","","","","","","","","","","",""
"","","","","","image-keyboard-response","192","1279129","0.0-3.0-5.0-1.23","612517df29cd32c6632b4a44","C3","batch3","pattern_response","982.7000000029802","stim/no_12_1.png","j","pattern_01","j","true","","","","982.7000000029802","true","24","","","","","","","","","","","","","","","","",""
"","","","","","html-keyboard-response","193","1280445","0.0-3.0-5.0-0.24","612517df29cd32c6632b4a44","C3","batch3","pattern_show_trial_num","null","<p class=block-text>Trial 25 out of 78</p>","null","","","","","","","","","","","","","","","","","","","","","","","","","",""
"","","","","","image-keyboard-response","194","1283240","0.0-3.0-5.0-1.24","612517df29cd32c6632b4a44","C3","batch3","pattern_response","2792.2000000029802","stim/no_25_1_b.png","j","pattern_09","j","true","","","","2792.2000000029802","true","25","","","","","","","","","","","","","","","","",""
"","","","","","html-keyboard-response","195","1284565","0.0-3.0-5.0-0.25","612517df29cd32c6632b4a44","C3","batch3","pattern_show_trial_num","null","<p class=block-text>Trial 26 out of 78</p>","null","","","","","","","","","","","","","","","","","","","","","","","","","",""
"","","","","","image-keyboard-response","196","1292240","0.0-3.0-5.0-1.25","612517df29cd32c6632b4a44","C3","batch3","pattern_response","7670.5","stim/no_58_1_w.png","j","pattern_35","j","true","","","","7670.5","true","26","","","","","","","","","","","","","","","","",""
"","","","","","html-keyboard-response","197","1293556","0.0-3.0-5.0-0.26","612517df29cd32c6632b4a44","C3","batch3","pattern_show_trial_num","null","<p class=block-text>Trial 27 out of 78</p>","null","","","","","","","","","","","","","","","","","","","","","","","","","",""
"","","","","","image-keyboard-response","198","1296452","0.0-3.0-5.0-1.26","612517df29cd32c6632b4a44","C3","batch3","pattern_response","2891","stim/no_33_1_b.png","j","pattern_15","j","true","","","","2891","true","27","","","","","","","","","","","","","","","","",""
"","","","","","html-keyboard-response","199","1297777","0.0-3.0-5.0-0.27","612517df29cd32c6632b4a44","C3","batch3","pattern_show_trial_num","null","<p class=block-text>Trial 28 out of 78</p>","null","","","","","","","","","","","","","","","","","","","","","","","","","",""
"","","","","","image-keyboard-response","200","1298749","0.0-3.0-5.0-1.27","612517df29cd32c6632b4a44","C3","batch3","pattern_response","968.5999999940395","stim/yes_46_ver_b1_b.png","f","pattern_68","f","true","","","","968.5999999940395","true","28","","","","","","","","","","","","","","","","",""
"","","","","","html-keyboard-response","201","1300079","0.0-3.0-5.0-0.28","612517df29cd32c6632b4a44","C3","batch3","pattern_show_trial_num","null","<p class=block-text>Trial 29 out of 78</p>","null","","","","","","","","","","","","","","","","","","","","","","","","","",""
"","","","","","image-keyboard-response","202","1305559","0.0-3.0-5.0-1.28","612517df29cd32c6632b4a44","C3","batch3","pattern_response","5476.5","stim/no_53_1_b.png","j","pattern_33","j","true","","","","5476.5","true","29","","","","","","","","","","","","","","","","",""
"","","","","","html-keyboard-response","203","1306883","0.0-3.0-5.0-0.29","612517df29cd32c6632b4a44","C3","batch3","pattern_show_trial_num","null","<p class=block-text>Trial 30 out of 78</p>","null","","","","","","","","","","","","","","","","","","","","","","","","","",""
"","","","","","image-keyboard-response","204","1307950","0.0-3.0-5.0-1.29","612517df29cd32c6632b4a44","C3","batch3","pattern_response","1061.5999999940395","stim/yes_26_dia_w2_w.png","f","pattern_50","f","true","","","","1061.5999999940395","true","30","","","","","","","","","","","","","","","","",""
"","","","","","html-keyboard-response","205","1309268","0.0-3.0-5.0-0.30","612517df29cd32c6632b4a44","C3","batch3","pattern_show_trial_num","null","<p class=block-text>Trial 31 out of 78</p>","null","","","","","","","","","","","","","","","","","","","","","","","","","",""
"","","","","","image-keyboard-response","206","1310339","0.0-3.0-5.0-1.30","612517df29cd32c6632b4a44","C3","batch3","pattern_response","1068.5","stim/yes_70_ver_b1.png","f","pattern_80","f","true","","","","1068.5","true","31","","","","","","","","","","","","","","","","",""
"","","","","","html-keyboard-response","207","1311654","0.0-3.0-5.0-0.31","612517df29cd32c6632b4a44","C3","batch3","pattern_show_trial_num","null","<p class=block-text>Trial 32 out of 78</p>","null","","","","","","","","","","","","","","","","","","","","","","","","","",""
"","","","","","image-keyboard-response","208","1317039","0.0-3.0-5.0-1.31","612517df29cd32c6632b4a44","C3","batch3","pattern_response","5354.20000000298","stim/no_45_1_w.png","j","pattern_25","j","true","","","","5354.20000000298","true","32","","","","","","","","","","","","","","","","",""
"","","","","","html-keyboard-response","209","1318359","0.0-3.0-5.0-0.32","612517df29cd32c6632b4a44","C3","batch3","pattern_show_trial_num","null","<p class=block-text>Trial 33 out of 78</p>","null","","","","","","","","","","","","","","","","","","","","","","","","","",""
"","","","","","image-keyboard-response","210","1319071","0.0-3.0-5.0-1.32","612517df29cd32c6632b4a44","C3","batch3","pattern_response","709.9000000059605","stim/yes_12_hor_w1_w.png","f","pattern_42","f","true","","","","709.9000000059605","true","33","","","","","","","","","","","","","","","","",""
"","","","","","html-keyboard-response","211","1320393","0.0-3.0-5.0-0.33","612517df29cd32c6632b4a44","C3","batch3","pattern_show_trial_num","null","<p class=block-text>Trial 34 out of 78</p>","null","","","","","","","","","","","","","","","","","","","","","","","","","",""
"","","","","","image-keyboard-response","212","1321329","0.0-3.0-5.0-1.33","612517df29cd32c6632b4a44","C3","batch3","pattern_response","934","stim/yes_15_dia_b1u_b.png","f","pattern_44","f","true","","","","934","true","34","","","","","","","","","","","","","","","","",""
"","","","","","html-keyboard-response","213","1322644","0.0-3.0-5.0-0.34","612517df29cd32c6632b4a44","C3","batch3","pattern_show_trial_num","null","<p class=block-text>Trial 35 out of 78</p>","null","","","","","","","","","","","","","","","","","","","","","","","","","",""
"","","","","","image-keyboard-response","214","1325079","0.0-3.0-5.0-1.34","612517df29cd32c6632b4a44","C3","batch3","pattern_response","2431.5","stim/no_22_1_b.png","j","pattern_07","j","true","","","","2431.5","true","35","","","","","","","","","","","","","","","","",""
"","","","","","html-keyboard-response","215","1326393","0.0-3.0-5.0-0.35","612517df29cd32c6632b4a44","C3","batch3","pattern_show_trial_num","null","<p class=block-text>Trial 36 out of 78</p>","null","","","","","","","","","","","","","","","","","","","","","","","","","",""
"","","","","","image-keyboard-response","216","1331180","0.0-3.0-5.0-1.35","612517df29cd32c6632b4a44","C3","batch3","pattern_response","4783.600000008941","stim/no_47_1_b.png","j","pattern_27","j","true","","","","4783.600000008941","true","36","","","","","","","","","","","","","","","","",""
"","","","","","html-keyboard-response","217","1332502","0.0-3.0-5.0-0.36","612517df29cd32c6632b4a44","C3","batch3","pattern_show_trial_num","null","<p class=block-text>Trial 37 out of 78</p>","null","","","","","","","","","","","","","","","","","","","","","","","","","",""
"","","","","","image-keyboard-response","218","1333319","0.0-3.0-5.0-1.36","612517df29cd32c6632b4a44","C3","batch3","pattern_response","813","stim/yes_49_hor_w1_b.png","f","pattern_70","f","true","","","","813","true","37","","","","","","","","","","","","","","","","",""
"","","","","","html-keyboard-response","219","1334637","0.0-3.0-5.0-0.37","612517df29cd32c6632b4a44","C3","batch3","pattern_show_trial_num","null","<p class=block-text>Trial 38 out of 78</p>","null","","","","","","","","","","","","","","","","","","","","","","","","","",""
"","","","","","image-keyboard-response","220","1337367","0.0-3.0-5.0-1.37","612517df29cd32c6632b4a44","C3","batch3","pattern_response","2727.7000000029802","stim/no_36_1_b.png","j","pattern_17","j","true","","","","2727.7000000029802","true","38","","","","","","","","","","","","","","","","",""
"","","","","","html-keyboard-response","221","1338690","0.0-3.0-5.0-0.38","612517df29cd32c6632b4a44","C3","batch3","pattern_show_trial_num","null","<p class=block-text>Trial 39 out of 78</p>","null","","","","","","","","","","","","","","","","","","","","","","","","","",""
"","","","","","image-keyboard-response","222","1341330","0.0-3.0-5.0-1.38","612517df29cd32c6632b4a44","C3","batch3","pattern_response","2638.4000000059605","stim/no_30_1_b.png","j","pattern_13","j","true","","","","2638.4000000059605","true","39","","","","","","","","","","","","","","","","",""
"","","","","","image-keyboard-response","223","1343599","0.0-3.0-6.0","612517df29cd32c6632b4a44","C3","batch3","attention_check","1765.2000000029802","stim/empty_board.png","j","","j","true","","","","","","","500","[""f"",""j""]","","","","","","","","","","","","","","",""
"","","","","","html-keyboard-response","224","1344411","0.0-3.0-7.0-0.0","612517df29cd32c6632b4a44","C3","batch3","pattern_show_trial_num","null","<p class=block-text>Trial 40 out of 78</p>","null","","","","","","","","","","","","","","","","","","","","","","","","","",""
"","","","","","image-keyboard-response","225","1345509","0.0-3.0-7.0-1.0","612517df29cd32c6632b4a44","C3","batch3","pattern_response","1093.8999999910593","stim/yes_22_ver_w1.png","f","pattern_47","f","true","","","","1093.8999999910593","true","40","","","","","","","","","","","","","","","","",""
"","","","","","html-keyboard-response","226","1346829","0.0-3.0-7.0-0.1","612517df29cd32c6632b4a44","C3","batch3","pattern_show_trial_num","null","<p class=block-text>Trial 41 out of 78</p>","null","","","","","","","","","","","","","","","","","","","","","","","","","",""
"","","","","","image-keyboard-response","227","1353223","0.0-3.0-7.0-1.1","612517df29cd32c6632b4a44","C3","batch3","pattern_response","6387.9000000059605","stim/no_52_1.png","j","pattern_32","j","true","","","","6387.9000000059605","true","41","","","","","","","","","","","","","","","","",""
"","","","","","html-keyboard-response","228","1354539","0.0-3.0-7.0-0.2","612517df29cd32c6632b4a44","C3","batch3","pattern_show_trial_num","null","<p class=block-text>Trial 42 out of 78</p>","null","","","","","","","","","","","","","","","","","","","","","","","","","",""
"","","","","","image-keyboard-response","229","1361911","0.0-3.0-7.0-1.2","612517df29cd32c6632b4a44","C3","batch3","pattern_response","7368.70000000298","stim/no_62_1_w.png","j","pattern_36","j","true","","","","7368.70000000298","true","42","","","","","","","","","","","","","","","","",""
"","","","","","html-keyboard-response","230","1363228","0.0-3.0-7.0-0.3","612517df29cd32c6632b4a44","C3","batch3","pattern_show_trial_num","null","<p class=block-text>Trial 43 out of 78</p>","null","","","","","","","","","","","","","","","","","","","","","","","","","",""
"","","","","","image-keyboard-response","231","1364753","0.0-3.0-7.0-1.3","612517df29cd32c6632b4a44","C3","batch3","pattern_response","1520","stim/no_20_1_w.png","j","pattern_06","j","true","","","","1520","true","43","","","","","","","","","","","","","","","","",""
"","","","","","html-keyboard-response","232","1366080","0.0-3.0-7.0-0.4","612517df29cd32c6632b4a44","C3","batch3","pattern_show_trial_num","null","<p class=block-text>Trial 44 out of 78</p>","null","","","","","","","","","","","","","","","","","","","","","","","","","",""
"","","","","","image-keyboard-response","233","1370802","0.0-3.0-7.0-1.4","612517df29cd32c6632b4a44","C3","batch3","pattern_response","4718","stim/no_36_2_w.png","j","pattern_18","j","true","","","","4718","true","44","","","","","","","","","","","","","","","","",""
"","","","","","html-keyboard-response","234","1372117","0.0-3.0-7.0-0.5","612517df29cd32c6632b4a44","C3","batch3","pattern_show_trial_num","null","<p class=block-text>Trial 45 out of 78</p>","null","","","","","","","","","","","","","","","","","","","","","","","","","",""
"","","","","","image-keyboard-response","235","1376682","0.0-3.0-7.0-1.5","612517df29cd32c6632b4a44","C3","batch3","pattern_response","4560.79999999702","stim/no_42_1_w.png","j","pattern_22","j","true","","","","4560.79999999702","true","45","","","","","","","","","","","","","","","","",""
"","","","","","html-keyboard-response","236","1378005","0.0-3.0-7.0-0.6","612517df29cd32c6632b4a44","C3","batch3","pattern_show_trial_num","null","<p class=block-text>Trial 46 out of 78</p>","null","","","","","","","","","","","","","","","","","","","","","","","","","",""
"","","","","","image-keyboard-response","237","1382981","0.0-3.0-7.0-1.6","612517df29cd32c6632b4a44","C3","batch3","pattern_response","4972.29999999702","stim/no_50_1.png","j","pattern_30","j","true","","","","4972.29999999702","true","46","","","","","","","","","","","","","","","","",""
"","","","","","html-keyboard-response","238","1384306","0.0-3.0-7.0-0.7","612517df29cd32c6632b4a44","C3","batch3","pattern_show_trial_num","null","<p class=block-text>Trial 47 out of 78</p>","null","","","","","","","","","","","","","","","","","","","","","","","","","",""
"","","","","","image-keyboard-response","239","1386641","0.0-3.0-7.0-1.7","612517df29cd32c6632b4a44","C3","batch3","pattern_response","2331.2999999970198","stim/no_23_1.png","j","pattern_08","j","true","","","","2331.2999999970198","true","47","","","","","","","","","","","","","","","","",""
"","","","","","html-keyboard-response","240","1387962","0.0-3.0-7.0-0.8","612517df29cd32c6632b4a44","C3","batch3","pattern_show_trial_num","null","<p class=block-text>Trial 48 out of 78</p>","null","","","","","","","","","","","","","","","","","","","","","","","","","",""
"","","","","","image-keyboard-response","241","1391719","0.0-3.0-7.0-1.8","612517df29cd32c6632b4a44","C3","batch3","pattern_response","3754.5999999940395","stim/no_44_1.png","j","pattern_24","j","true","","","","3754.5999999940395","true","48","","","","","","","","","","","","","","","","",""
"","","","","","html-keyboard-response","242","1393034","0.0-3.0-7.0-0.9","612517df29cd32c6632b4a44","C3","batch3","pattern_show_trial_num","null","<p class=block-text>Trial 49 out of 78</p>","null","","","","","","","","","","","","","","","","","","","","","","","","","",""
"","","","","","image-keyboard-response","243","1394040","0.0-3.0-7.0-1.9","612517df29cd32c6632b4a44","C3","batch3","pattern_response","1002.2999999970198","stim/yes_14_hor_b1_w.png","f","pattern_43","f","true","","","","1002.2999999970198","true","49","","","","","","","","","","","","","","","","",""
"","","","","","html-keyboard-response","244","1395369","0.0-3.0-7.0-0.10","612517df29cd32c6632b4a44","C3","batch3","pattern_show_trial_num","null","<p class=block-text>Trial 50 out of 78</p>","null","","","","","","","","","","","","","","","","","","","","","","","","","",""
"","","","","","image-keyboard-response","245","1396230","0.0-3.0-7.0-1.10","612517df29cd32c6632b4a44","C3","batch3","pattern_response","858.5999999940395","stim/yes_28_ver_b1.png","f","pattern_51","f","true","","","","858.5999999940395","true","50","","","","","","","","","","","","","","","","",""
"","","","","","html-keyboard-response","246","1397553","0.0-3.0-7.0-0.11","612517df29cd32c6632b4a44","C3","batch3","pattern_show_trial_num","null","<p class=block-text>Trial 51 out of 78</p>","null","","","","","","","","","","","","","","","","","","","","","","","","","",""
"","","","","","image-keyboard-response","247","1398400","0.0-3.0-7.0-1.11","612517df29cd32c6632b4a44","C3","batch3","pattern_response","844","stim/yes_17_dia_w1.png","f","pattern_45","f","true","","","","844","true","51","","","","","","","","","","","","","","","","",""
"","","","","","html-keyboard-response","248","1399721","0.0-3.0-7.0-0.12","612517df29cd32c6632b4a44","C3","batch3","pattern_show_trial_num","null","<p class=block-text>Trial 52 out of 78</p>","null","","","","","","","","","","","","","","","","","","","","","","","","","",""
"","","","","","image-keyboard-response","249","1402631","0.0-3.0-7.0-1.12","612517df29cd32c6632b4a44","C3","batch3","pattern_response","2906.9000000059605","stim/yes_50_dia_w1.png","f","pattern_71","f","true","","","","2906.9000000059605","true","52","","","","","","","","","","","","","","","","",""
"","","","","","html-keyboard-response","250","1403957","0.0-3.0-7.0-0.13","612517df29cd32c6632b4a44","C3","batch3","pattern_show_trial_num","null","<p class=block-text>Trial 53 out of 78</p>","null","","","","","","","","","","","","","","","","","","","","","","","","","",""
"","","","","","image-keyboard-response","251","1405300","0.0-3.0-7.0-1.13","612517df29cd32c6632b4a44","C3","batch3","pattern_response","1338.300000011921","stim/no_17_1_w.png","j","pattern_04","j","true","","","","1338.300000011921","true","53","","","","","","","","","","","","","","","","",""
"","","","","","html-keyboard-response","252","1406626","0.0-3.0-7.0-0.14","612517df29cd32c6632b4a44","C3","batch3","pattern_show_trial_num","null","<p class=block-text>Trial 54 out of 78</p>","null","","","","","","","","","","","","","","","","","","","","","","","","","",""
"","","","","","image-keyboard-response","253","1409110","0.0-3.0-7.0-1.14","612517df29cd32c6632b4a44","C3","batch3","pattern_response","2479.300000011921","stim/yes_48_dia_w1_w.png","f","pattern_69","f","true","","","","2479.300000011921","true","54","","","","","","","","","","","","","","","","",""
"","","","","","html-keyboard-response","254","1410429","0.0-3.0-7.0-0.15","612517df29cd32c6632b4a44","C3","batch3","pattern_show_trial_num","null","<p class=block-text>Trial 55 out of 78</p>","null","","","","","","","","","","","","","","","","","","","","","","","","","",""
"","","","","","image-keyboard-response","255","1412771","0.0-3.0-7.0-1.15","612517df29cd32c6632b4a44","C3","batch3","pattern_response","2338","stim/no_26_1_w.png","j","pattern_10","j","true","","","","2338","true","55","","","","","","","","","","","","","","","","",""
"","","","","","html-keyboard-response","256","1414106","0.0-3.0-7.0-0.16","612517df29cd32c6632b4a44","C3","batch3","pattern_show_trial_num","null","<p class=block-text>Trial 56 out of 78</p>","null","","","","","","","","","","","","","","","","","","","","","","","","","",""
"","","","","","image-keyboard-response","257","1425048","0.0-3.0-7.0-1.16","612517df29cd32c6632b4a44","C3","batch3","pattern_response","10929.89999999106","stim/no_70_2.png","j","pattern_40","j","true","","","","10929.89999999106","true","56","","","","","","","","","","","","","","","","",""
"","","","","","html-keyboard-response","258","1426365","0.0-3.0-7.0-0.17","612517df29cd32c6632b4a44","C3","batch3","pattern_show_trial_num","null","<p class=block-text>Trial 57 out of 78</p>","null","","","","","","","","","","","","","","","","","","","","","","","","","",""
"","","","","","image-keyboard-response","259","1427397","0.0-3.0-7.0-1.17","612517df29cd32c6632b4a44","C3","batch3","pattern_response","1027.5999999940395","stim/yes_40_dia_b1_b.png","f","pattern_63","f","true","","","","1027.5999999940395","true","57","","","","","","","","","","","","","","","","",""
"","","","","","html-keyboard-response","260","1428718","0.0-3.0-7.0-0.18","612517df29cd32c6632b4a44","C3","batch3","pattern_show_trial_num","null","<p class=block-text>Trial 58 out of 78</p>","null","","","","","","","","","","","","","","","","","","","","","","","","","",""
"","","","","","image-keyboard-response","261","1429737","0.0-3.0-7.0-1.18","612517df29cd32c6632b4a44","C3","batch3","pattern_response","1016.2000000029802","stim/yes_55_hor_w1_w.png","f","pattern_75","f","true","","","","1016.2000000029802","true","58","","","","","","","","","","","","","","","","",""
"","","","","","html-keyboard-response","262","1431053","0.0-3.0-7.0-0.19","612517df29cd32c6632b4a44","C3","batch3","pattern_show_trial_num","null","<p class=block-text>Trial 59 out of 78</p>","null","","","","","","","","","","","","","","","","","","","","","","","","","",""
"","","","","","image-keyboard-response","263","1432047","0.0-3.0-7.0-1.19","612517df29cd32c6632b4a44","C3","batch3","pattern_response","991.2000000029802","stim/yes_67_hor_b1.png","f","pattern_79","f","true","","","","991.2000000029802","true","59","","","","","","","","","","","","","","","","",""
"","","","","","html-keyboard-response","264","1433370","0.0-3.0-7.0-0.20","612517df29cd32c6632b4a44","C3","batch3","pattern_show_trial_num","null","<p class=block-text>Trial 60 out of 78</p>","null","","","","","","","","","","","","","","","","","","","","","","","","","",""
"","","","","","image-keyboard-response","265","1434527","0.0-3.0-7.0-1.20","612517df29cd32c6632b4a44","C3","batch3","pattern_response","1154","stim/yes_45_hor_b2_b.png","f","pattern_67","f","true","","","","1154","true","60","","","","","","","","","","","","","","","","",""
"","","","","","html-keyboard-response","266","1435856","0.0-3.0-7.0-0.21","612517df29cd32c6632b4a44","C3","batch3","pattern_show_trial_num","null","<p class=block-text>Trial 61 out of 78</p>","null","","","","","","","","","","","","","","","","","","","","","","","","","",""
"","","","","","image-keyboard-response","267","1436518","0.0-3.0-7.0-1.21","612517df29cd32c6632b4a44","C3","batch3","pattern_response","658.4000000059605","stim/yes_25_hor_b1_b.png","f","pattern_49","f","true","","","","658.4000000059605","true","61","","","","","","","","","","","","","","","","",""
"","","","","","html-keyboard-response","268","1437841","0.0-3.0-7.0-0.22","612517df29cd32c6632b4a44","C3","batch3","pattern_show_trial_num","null","<p class=block-text>Trial 62 out of 78</p>","null","","","","","","","","","","","","","","","","","","","","","","","","","",""
"","","","","","image-keyboard-response","269","1439235","0.0-3.0-7.0-1.22","612517df29cd32c6632b4a44","C3","batch3","pattern_response","1392.3999999910593","stim/yes_43_ver_w1_w.png","f","pattern_65","f","true","","","","1392.3999999910593","true","62","","","","","","","","","","","","","","","","",""
"","","","","","html-keyboard-response","270","1440560","0.0-3.0-7.0-0.23","612517df29cd32c6632b4a44","C3","batch3","pattern_show_trial_num","null","<p class=block-text>Trial 63 out of 78</p>","null","","","","","","","","","","","","","","","","","","","","","","","","","",""
"","","","","","image-keyboard-response","271","1447066","0.0-3.0-7.0-1.23","612517df29cd32c6632b4a44","C3","batch3","pattern_response","6503.79999999702","stim/no_48_1_w.png","j","pattern_28","j","true","","","","6503.79999999702","true","63","","","","","","","","","","","","","","","","",""
"","","","","","html-keyboard-response","272","1448382","0.0-3.0-7.0-0.24","612517df29cd32c6632b4a44","C3","batch3","pattern_show_trial_num","null","<p class=block-text>Trial 64 out of 78</p>","null","","","","","","","","","","","","","","","","","","","","","","","","","",""
"","","","","","image-keyboard-response","273","1450127","0.0-3.0-7.0-1.24","612517df29cd32c6632b4a44","C3","batch3","pattern_response","1741.2000000029802","stim/yes_29_ver_w1.png","f","pattern_53","f","true","","","","1741.2000000029802","true","64","","","","","","","","","","","","","","","","",""
"","","","","","html-keyboard-response","274","1451450","0.0-3.0-7.0-0.25","612517df29cd32c6632b4a44","C3","batch3","pattern_show_trial_num","null","<p class=block-text>Trial 65 out of 78</p>","null","","","","","","","","","","","","","","","","","","","","","","","","","",""
"","","","","","image-keyboard-response","275","1456077","0.0-3.0-7.0-1.25","612517df29cd32c6632b4a44","C3","batch3","pattern_response","4623.899999991059","stim/no_34_1_b.png","j","pattern_16","j","true","","","","4623.899999991059","true","65","","","","","","","","","","","","","","","","",""
"","","","","","html-keyboard-response","276","1457406","0.0-3.0-7.0-0.26","612517df29cd32c6632b4a44","C3","batch3","pattern_show_trial_num","null","<p class=block-text>Trial 66 out of 78</p>","null","","","","","","","","","","","","","","","","","","","","","","","","","",""
"","","","","","image-keyboard-response","277","1459645","0.0-3.0-7.0-1.26","612517df29cd32c6632b4a44","C3","batch3","pattern_response","2235.8999999910593","stim/no_29_1_b.png","j","pattern_12","j","true","","","","2235.8999999910593","true","66","","","","","","","","","","","","","","","","",""
"","","","","","html-keyboard-response","278","1460975","0.0-3.0-7.0-0.27","612517df29cd32c6632b4a44","C3","batch3","pattern_show_trial_num","null","<p class=block-text>Trial 67 out of 78</p>","null","","","","","","","","","","","","","","","","","","","","","","","","","",""
"","","","","","image-keyboard-response","279","1461817","0.0-3.0-7.0-1.27","612517df29cd32c6632b4a44","C3","batch3","pattern_response","837.9000000059605","stim/yes_52_ver_w1.png","f","pattern_73","f","true","","","","837.9000000059605","true","67","","","","","","","","","","","","","","","","",""
"","","","","","html-keyboard-response","280","1463143","0.0-3.0-7.0-0.28","612517df29cd32c6632b4a44","C3","batch3","pattern_show_trial_num","null","<p class=block-text>Trial 68 out of 78</p>","null","","","","","","","","","","","","","","","","","","","","","","","","","",""
"","","","","","image-keyboard-response","281","1466007","0.0-3.0-7.0-1.28","612517df29cd32c6632b4a44","C3","batch3","pattern_response","2860.5","stim/yes_37_dia_w1.png","f","pattern_59","f","true","","","","2860.5","true","68","","","","","","","","","","","","","","","","",""
"","","","","","html-keyboard-response","282","1467328","0.0-3.0-7.0-0.29","612517df29cd32c6632b4a44","C3","batch3","pattern_show_trial_num","null","<p class=block-text>Trial 69 out of 78</p>","null","","","","","","","","","","","","","","","","","","","","","","","","","",""
"","","","","","image-keyboard-response","283","1468287","0.0-3.0-7.0-1.29","612517df29cd32c6632b4a44","C3","batch3","pattern_response","954","stim/no_13_2_b.png","j","pattern_02","j","true","","","","954","true","69","","","","","","","","","","","","","","","","",""
"","","","","","html-keyboard-response","284","1469613","0.0-3.0-7.0-0.30","612517df29cd32c6632b4a44","C3","batch3","pattern_show_trial_num","null","<p class=block-text>Trial 70 out of 78</p>","null","","","","","","","","","","","","","","","","","","","","","","","","","",""
"","","","","","image-keyboard-response","285","1475646","0.0-3.0-7.0-1.30","612517df29cd32c6632b4a44","C3","batch3","pattern_response","6031.20000000298","stim/no_46_1_b.png","j","pattern_26","j","true","","","","6031.20000000298","true","70","","","","","","","","","","","","","","","","",""
"","","","","","html-keyboard-response","286","1476969","0.0-3.0-7.0-0.31","612517df29cd32c6632b4a44","C3","batch3","pattern_show_trial_num","null","<p class=block-text>Trial 71 out of 78</p>","null","","","","","","","","","","","","","","","","","","","","","","","","","",""
"","","","","","image-keyboard-response","287","1480345","0.0-3.0-7.0-1.31","612517df29cd32c6632b4a44","C3","batch3","pattern_response","3372.0999999940395","stim/no_55_1_w.png","j","pattern_34","j","true","","","","3372.0999999940395","true","71","","","","","","","","","","","","","","","","",""
"","","","","","html-keyboard-response","288","1481671","0.0-3.0-7.0-0.32","612517df29cd32c6632b4a44","C3","batch3","pattern_show_trial_num","null","<p class=block-text>Trial 72 out of 78</p>","null","","","","","","","","","","","","","","","","","","","","","","","","","",""
"","","","","","image-keyboard-response","289","1482594","0.0-3.0-7.0-1.32","612517df29cd32c6632b4a44","C3","batch3","pattern_response","918.6999999880791","stim/yes_38_hor_b1_b.png","f","pattern_61","f","true","","","","918.6999999880791","true","72","","","","","","","","","","","","","","","","",""
"","","","","","html-keyboard-response","290","1483923","0.0-3.0-7.0-0.33","612517df29cd32c6632b4a44","C3","batch3","pattern_show_trial_num","null","<p class=block-text>Trial 73 out of 78</p>","null","","","","","","","","","","","","","","","","","","","","","","","","","",""
"","","","","","image-keyboard-response","291","1493045","0.0-3.0-7.0-1.33","612517df29cd32c6632b4a44","C3","batch3","pattern_response","9118","stim/no_65_1_b.png","j","pattern_38","j","true","","","","9118","true","73","","","","","","","","","","","","","","","","",""
"","","","","","html-keyboard-response","292","1494364","0.0-3.0-7.0-0.34","612517df29cd32c6632b4a44","C3","batch3","pattern_show_trial_num","null","<p class=block-text>Trial 74 out of 78</p>","null","","","","","","","","","","","","","","","","","","","","","","","","","",""
"","","","","","image-keyboard-response","293","1496272","0.0-3.0-7.0-1.34","612517df29cd32c6632b4a44","C3","batch3","pattern_response","1904.1000000089407","stim/no_38_1_b.png","j","pattern_20","j","true","","","","1904.1000000089407","true","74","","","","","","","","","","","","","","","","",""
"","","","","","html-keyboard-response","294","1497601","0.0-3.0-7.0-0.35","612517df29cd32c6632b4a44","C3","batch3","pattern_show_trial_num","null","<p class=block-text>Trial 75 out of 78</p>","null","","","","","","","","","","","","","","","","","","","","","","","","","",""
"","","","","","image-keyboard-response","295","1498434","0.0-3.0-7.0-1.35","612517df29cd32c6632b4a44","C3","batch3","pattern_response","830.2000000029802","stim/yes_35_dia_b1.png","f","pattern_57","f","true","","","","830.2000000029802","true","75","","","","","","","","","","","","","","","","",""
"","","","","","html-keyboard-response","296","1499751","0.0-3.0-7.0-0.36","612517df29cd32c6632b4a44","C3","batch3","pattern_show_trial_num","null","<p class=block-text>Trial 76 out of 78</p>","null","","","","","","","","","","","","","","","","","","","","","","","","","",""
"","","","","","image-keyboard-response","297","1502434","0.0-3.0-7.0-1.36","612517df29cd32c6632b4a44","C3","batch3","pattern_response","2679.4000000059605","stim/yes_31_hor_b1.png","f","pattern_55","f","true","","","","2679.4000000059605","true","76","","","","","","","","","","","","","","","","",""
"","","","","","html-keyboard-response","298","1503754","0.0-3.0-7.0-0.37","612517df29cd32c6632b4a44","C3","batch3","pattern_show_trial_num","null","<p class=block-text>Trial 77 out of 78</p>","null","","","","","","","","","","","","","","","","","","","","","","","","","",""
"","","","","","image-keyboard-response","299","1508686","0.0-3.0-7.0-1.37","612517df29cd32c6632b4a44","C3","batch3","pattern_response","4927.600000008941","stim/yes_60_ver_b1_b.png","f","pattern_77","f","true","","","","4927.600000008941","true","77","","","","","","","","","","","","","","","","",""
"","","","","","html-keyboard-response","300","1510009","0.0-3.0-7.0-0.38","612517df29cd32c6632b4a44","C3","batch3","pattern_show_trial_num","null","<p class=block-text>Trial 78 out of 78</p>","null","","","","","","","","","","","","","","","","","","","","","","","","","",""
"","","","","","image-keyboard-response","301","1515444","0.0-3.0-7.0-1.38","612517df29cd32c6632b4a44","C3","batch3","pattern_response","5430.5","stim/no_32_1_w.png","j","pattern_14","j","true","","","","5430.5","true","78","","","","","","","","","","","","","","","","",""
"","","","","","html-button-response","302","1523134","0.0-3.0-8.0","612517df29cd32c6632b4a44","C3","batch3","","7180.0999999940395","<p class = block-text>This concludes the 4-in-a-row detection game.Thank you for your responses!<br>
            You responded correctly on 100% of the trials.<br>
            When you are ready, press ""Continue"" button to continue </p>","0","","","","","","","","","","","","","","","","","","","","","","","","","",""
"true","","","","","fullscreen","303","1526745","0.0-4.0-0.0","612517df29cd32c6632b4a44","C3","batch3","","","","","","","","","","","","","","","","","","","","","","","","","","","","","",""
"","","","","","instructions","304","1597998","0.0-4.0-1.0-0.0-0.0","612517df29cd32c6632b4a44","C3","batch3","tol-instructions","71250.70000000298","","","","","","","","[{""page_index"":0,""viewing_time"":25631.90000000596},{""page_index"":1,""viewing_time"":6180.0999999940395},{""page_index"":2,""viewing_time"":5879.79999999702},{""page_index"":3,""viewing_time"":5589.800000011921},{""page_index"":4,""viewing_time"":11500},{""page_index"":5,""viewing_time"":13598.59999999404},{""page_index"":6,""viewing_time"":2870.2000000029802}]","","","","","","","","","","","","","","","","","","","",""
"","","","","","html-button-response","305","1599117","0.0-4.0-1.0-1.0-0.0","612517df29cd32c6632b4a44","C3","batch3","tol_enter_quiz","1117.2999999970198","<p class=block-text> Let's answer a few questions <br>","0","","","","","","","","","","","","","","","","","","","","","","","","","",""
"","","","","","html-button-response","306","1604393","0.0-4.0-1.0-1.0-1.0","612517df29cd32c6632b4a44","C3","batch3","tol_quiz","5274.79999999702","<p class = block-text>True or False: You can only move the ball on top of a peg. <br></p>","0","","","true","","","","","","","","","","","","","","","","","","","","","","",""
"","","","","","html-button-response","307","1606113","0.0-4.0-1.0-1.0-2.0","612517df29cd32c6632b4a44","C3","batch3","tol_quiz_feedback","1717.4000000059605","<p class = block-text>Correct! You can only move the ball on top of a peg.</p>","0","","","","","","","","","","","","","","","","","","","","","","","","","",""
"","","","","","html-button-response","308","1608948","0.0-4.0-1.0-1.0-3.0","612517df29cd32c6632b4a44","C3","batch3","tol_quiz","2833","<p class = block-text>True or False: You should try to match your board with the target board with fewest moves possible. <br></p>","0","","","true","","","","","","","","","","","","","","","","","","","","","","",""
"","","","","","html-button-response","309","1609778","0.0-4.0-1.0-1.0-4.0","612517df29cd32c6632b4a44","C3","batch3","tol_quiz_feedback","828","<p class = block-text>Correct! </p>","0","","","","","","","","","","","","","","","","","","","","","","","","","",""
"","","","","","html-button-response","310","1612108","0.0-4.0-2.0","612517df29cd32c6632b4a44","C3","batch3","","2327.0999999940395","<p class=block-text> Now that you've understood the game, let's practice a few easier examples before we start!<br> <br>","0","","","","","","","","","","","","","","","","","","","","","","","","","",""
"","","","","","single-stim-button","311","1617019","0.0-4.0-3.0-0.0","612517df29cd32c6632b4a44","C3","batch3","tol_practice","4907","","","","","","","","","","","","","","tol_peg_2","4907","4907","0","[[1,2,0],[0,0],[0]]","1","[[1,2,0],[0,0],[3]]","practice","4907","","","","","",""
"","","","","","single-stim-button","312","1617947","0.0-4.0-3.0-1.0","612517df29cd32c6632b4a44","C3","batch3","tol_practice","926","","","","","","","","","","","","","","tol_peg_3","926","926","0","[[1,2,0],[0,0],[3]]","1","[[1,2,0],[0,0],[3]]","practice","926","","","","","",""
"","","","","","poldrack-single-stim","313","1618961","0.0-4.0-4.0","612517df29cd32c6632b4a44","C3","batch3","tol_feedback","-1","","","","","true","","","","","","","","","","1000","1000","500","","","","","","-1","none","true","","0",""
"","","","","","single-stim-button","314","1625126","0.0-4.0-5.0-0.0","612517df29cd32c6632b4a44","C3","batch3","tol_practice","6164","","","","","","","","","","","","","","tol_peg_1","6164","6164","0","[[1,0,0],[3,0],[0]]","2","[[0,0,0],[3,1],[2]]","practice","6164","","","","","",""
"","","","","","single-stim-button","315","1626048","0.0-4.0-5.0-1.0","612517df29cd32c6632b4a44","C3","batch3","tol_practice","920","","","","","","","","","","","","","","tol_peg_3","920","920","0","[[1,0,0],[3,0],[2]]","2","[[0,0,0],[3,1],[2]]","practice","920","","","","","",""
"","","","","","single-stim-button","316","1626929","0.0-4.0-5.1-0.1","612517df29cd32c6632b4a44","C3","batch3","tol_practice","880","","","","","","","","","","","","","","tol_peg_1","880","880","0","[[0,0,0],[3,0],[2]]","3","[[0,0,0],[3,1],[2]]","practice","880","","","","","",""
"","","","","","single-stim-button","317","1627415","0.0-4.0-5.1-1.1","612517df29cd32c6632b4a44","C3","batch3","tol_practice","484","","","","","","","","","","","","","","tol_peg_2","484","484","0","[[0,0,0],[3,1],[2]]","3","[[0,0,0],[3,1],[2]]","practice","484","","","","","",""
"","","","","","poldrack-single-stim","318","1628421","0.0-4.0-6.0","612517df29cd32c6632b4a44","C3","batch3","tol_feedback","-1","","","","","true","","","","","","","","","","1000","1000","500","","","","","","-1","none","true","","0",""
"","","","","","single-stim-button","319","1632724","0.0-4.0-7.0-0.0","612517df29cd32c6632b4a44","C3","batch3","tol_practice","4302","","","","","","","","","","","","","","tol_peg_2","4302","4302","0","[[1,2,0],[0,0],[0]]","4","[[1,0,0],[2,0],[3]]","practice","4302","","","","","",""
"","","","","","single-stim-button","320","1633289","0.0-4.0-7.0-1.0","612517df29cd32c6632b4a44","C3","batch3","tol_practice","563","","","","","","","","","","","","","","tol_peg_3","563","563","0","[[1,2,0],[0,0],[3]]","4","[[1,0,0],[2,0],[3]]","practice","563","","","","","",""
"","","","","","single-stim-button","321","1634459","0.0-4.0-7.1-0.1","612517df29cd32c6632b4a44","C3","batch3","tol_practice","1167","","","","","","","","","","","","","","tol_peg_1","1167","1167","0","[[1,0,0],[0,0],[3]]","5","[[1,0,0],[2,0],[3]]","practice","1167","","","","","",""
"","","","","","single-stim-button","322","1634910","0.0-4.0-7.1-1.1","612517df29cd32c6632b4a44","C3","batch3","tol_practice","450","","","","","","","","","","","","","","tol_peg_2","450","450","0","[[1,0,0],[2,0],[3]]","5","[[1,0,0],[2,0],[3]]","practice","450","","","","","",""
"","","","","","poldrack-single-stim","323","1635924","0.0-4.0-8.0","612517df29cd32c6632b4a44","C3","batch3","tol_feedback","-1","","","","","true","","","","","","","","","","1000","1000","500","","","","","","-1","none","true","","0",""
"","","","","","html-button-response","324","1638401","0.0-4.0-9.0","612517df29cd32c6632b4a44","C3","batch3","tol_instruction","2475.5999999940395","<div class = centerbox><p class = center-block-text>Great job! You are done with practice trials<br>You are about to start official trials.<br> <br> Problem <strong>1</strong> out of 25 problems</p></div>","0","","","","","","","","","","","","","","","","","","","","","","","","","",""
"","","","","","single-stim-button","325","1647585","0.0-4.0-10.0-0.0","612517df29cd32c6632b4a44","C3","batch3","tol_tohand","8174","","","","","","","","","","","","","","tol_peg_1","8174","8174","0","[[1,0,0],[3,0],[0]]","1","[[1,3,0],[2,0],[0]]","0","0","","","","","","3"
"","","","","","single-stim-button","326","1648179","0.0-4.0-10.0-1.0","612517df29cd32c6632b4a44","C3","batch3","tol_toboard","593","","","","","","","","","","","","","","tol_peg_3","593","593","0","[[1,0,0],[3,0],[2]]","1","[[1,3,0],[2,0],[0]]","0","0","","","","","","3"
"","","","","","single-stim-button","327","1648764","0.0-4.0-10.1-0.1","612517df29cd32c6632b4a44","C3","batch3","tol_tohand","583","","","","","","","","","","","","","","tol_peg_2","583","583","0","[[1,0,0],[0,0],[2]]","2","[[1,3,0],[2,0],[0]]","0","0","","","","","","3"
"","","","","","single-stim-button","328","1649229","0.0-4.0-10.1-1.1","612517df29cd32c6632b4a44","C3","batch3","tol_toboard","463","","","","","","","","","","","","","","tol_peg_1","463","463","0","[[1,3,0],[0,0],[2]]","2","[[1,3,0],[2,0],[0]]","0","0","","","","","","3"
"","","","","","single-stim-button","329","1650191","0.0-4.0-10.2-0.2","612517df29cd32c6632b4a44","C3","batch3","tol_tohand","959","","","","","","","","","","","","","","tol_peg_3","959","959","0","[[1,3,0],[0,0],[0]]","3","[[1,3,0],[2,0],[0]]","0","0","","","","","","3"
"","","","","","single-stim-button","330","1650547","0.0-4.0-10.2-1.2","612517df29cd32c6632b4a44","C3","batch3","tol_toboard","354","","","","","","","","","","","","","","tol_peg_2","354","354","0","[[1,3,0],[2,0],[0]]","3","[[1,3,0],[2,0],[0]]","0","0","","","","","","3"
"","","","","","poldrack-single-stim","331","1651554","0.0-4.0-11.0","612517df29cd32c6632b4a44","C3","batch3","tol_feedback","-1","","","","","true","","","","","","","","","","1000","1000","500","","","","","","-1","none","true","8174","9716",""
"","","","","","html-button-response","332","1652548","0.0-4.0-12.0","612517df29cd32c6632b4a44","C3","batch3","tol_trial_num","993","<div class = centerbox><p class = center-block-text>problem <strong>2</strong> out of 25 problems</p></div>","0","","","","","","","","","","","","","","","","","","","","","","","","","",""
"","","","","","single-stim-button","333","1663129","0.0-4.0-13.0-0.0","612517df29cd32c6632b4a44","C3","batch3","tol_tohand","10579","","","","","","","","","","","","","","tol_peg_2","10579","10579","0","[[1,2,0],[0,0],[0]]","1","[[2,1,3],[0,0],[0]]","1","0","","","","","","5"
"","","","","","single-stim-button","334","1663501","0.0-4.0-13.0-1.0","612517df29cd32c6632b4a44","C3","batch3","tol_toboard","370","","","","","","","","","","","","","","tol_peg_3","370","370","0","[[1,2,0],[0,0],[3]]","1","[[2,1,3],[0,0],[0]]","1","0","","","","","","5"
"","","","","","single-stim-button","335","1664814","0.0-4.0-13.1-0.1","612517df29cd32c6632b4a44","C3","batch3","tol_tohand","1311","","","","","","","","","","","","","","tol_peg_1","1311","1311","0","[[1,0,0],[0,0],[3]]","2","[[2,1,3],[0,0],[0]]","1","0","","","","","","5"
"","","","","","single-stim-button","336","1665249","0.0-4.0-13.1-1.1","612517df29cd32c6632b4a44","C3","batch3","tol_toboard","433","","","","","","","","","","","","","","tol_peg_2","433","433","0","[[1,0,0],[2,0],[3]]","2","[[2,1,3],[0,0],[0]]","1","0","","","","","","5"
"","","","","","single-stim-button","337","1672569","0.0-4.0-13.2-0.2","612517df29cd32c6632b4a44","C3","batch3","tol_tohand","7319","","","","","","","","","","","","","","tol_peg_3","7319","7319","0","[[1,0,0],[2,0],[0]]","3","[[2,1,3],[0,0],[0]]","1","0","","","","","","5"
"","","","","","single-stim-button","338","1673025","0.0-4.0-13.2-1.2","612517df29cd32c6632b4a44","C3","batch3","tol_toboard","455","","","","","","","","","","","","","","tol_peg_2","455","455","0","[[1,0,0],[2,3],[0]]","3","[[2,1,3],[0,0],[0]]","1","0","","","","","","5"
"","","","","","single-stim-button","339","1673570","0.0-4.0-13.3-0.3","612517df29cd32c6632b4a44","C3","batch3","tol_tohand","544","","","","","","","","","","","","","","tol_peg_1","544","544","0","[[0,0,0],[2,3],[0]]","4","[[2,1,3],[0,0],[0]]","1","0","","","","","","5"
"","","","","","single-stim-button","340","1674026","0.0-4.0-13.3-1.3","612517df29cd32c6632b4a44","C3","batch3","tol_toboard","454","","","","","","","","","","","","","","tol_peg_3","454","454","0","[[0,0,0],[2,3],[1]]","4","[[2,1,3],[0,0],[0]]","1","0","","","","","","5"
"","","","","","single-stim-button","341","1681566","0.0-4.0-13.4-0.4","612517df29cd32c6632b4a44","C3","batch3","tol_tohand","7539","","","","","","","","","","","","","","tol_peg_3","7539","7539","0","[[0,0,0],[2,3],[0]]","5","[[2,1,3],[0,0],[0]]","1","0","","","","","","5"
"","","","","","single-stim-button","342","1682002","0.0-4.0-13.4-1.4","612517df29cd32c6632b4a44","C3","batch3","tol_toboard","435","","","","","","","","","","","","","","tol_peg_1","435","435","0","[[1,0,0],[2,3],[0]]","5","[[2,1,3],[0,0],[0]]","1","0","","","","","","5"
"","","","","","single-stim-button","343","1685687","0.0-4.0-13.5-0.5","612517df29cd32c6632b4a44","C3","batch3","tol_tohand","3684","","","","","","","","","","","","","","tol_peg_2","3684","3684","0","[[1,0,0],[2,0],[0]]","6","[[2,1,3],[0,0],[0]]","1","0","","","","","","5"
"","","","","","single-stim-button","344","1686416","0.0-4.0-13.5-1.5","612517df29cd32c6632b4a44","C3","batch3","tol_toboard","728","","","","","","","","","","","","","","tol_peg_3","728","728","0","[[1,0,0],[2,0],[3]]","6","[[2,1,3],[0,0],[0]]","1","0","","","","","","5"
"","","","","","single-stim-button","345","1690017","0.0-4.0-13.6-0.6","612517df29cd32c6632b4a44","C3","batch3","tol_tohand","3599","","","","","","","","","","","","","","tol_peg_2","3599","3599","0","[[1,0,0],[0,0],[3]]","7","[[2,1,3],[0,0],[0]]","1","0","","","","","","5"
"","","","","","single-stim-button","346","1694940","0.0-4.0-13.6-1.6","612517df29cd32c6632b4a44","C3","batch3","tol_toboard","4922","","","","","","","","","","","","","","tol_peg_2","4922","4922","0","[[1,0,0],[2,0],[3]]","7","[[2,1,3],[0,0],[0]]","1","0","","","","","","5"
"","","","","","single-stim-button","347","1706898","0.0-4.0-13.7-0.7","612517df29cd32c6632b4a44","C3","batch3","tol_tohand","11955","","","","","","","","","","","","","","tol_peg_1","11955","11955","0","[[0,0,0],[2,0],[3]]","8","[[2,1,3],[0,0],[0]]","1","0","","","","","","5"
