"success","timeout","failed_images","failed_audio","failed_video","trial_type","trial_index","time_elapsed","internal_node_id","subject_id","study_id","session_id","task","rt","stimulus","response","item","answer","correct","spm_correct","spm_rt","view_history","mouse_click","stim_duration","block_duration","timing_post_trial","current_position","tol_num_moves_made","tol_target","tol_problem_id","tol_rt","key_press","possible_responses","tol_correct","preplanning","tol_rt_per_trial","tol_min_moves","fiar_detect_rt","fiar_detect_correct","total_correct_fiar_detect","post_trial_gap","choices"
"true","false","[]","[]","[]","preload","0","1112","0.0-0.0","6125a71575ce1cc4f554b8b0","D2","batch4","","","","","","","","","","","","","","","","","","","","","","","","","","","","","",""
"true","","","","","fullscreen","1","8811","0.0-1.0-0.0","6125a71575ce1cc4f554b8b0","D2","batch4","","","","","","","","","","","","","","","","","","","","","","","","","","","","","",""
"true","","","","","fullscreen","2","12583","0.0-2.0-0.0","6125a71575ce1cc4f554b8b0","D2","batch4","spm_fullscreen","","","","","","","","","","","","","","","","","","","","","","","","","","","","",""
"","","","","","html-button-response","3","23455","0.0-2.0-1.0","6125a71575ce1cc4f554b8b0","D2","batch4","","10869.89999999106","<p class = block-text><b>Instructions</b> <br>This is a widely used intelligence test in research. <br>In this test, a figure with a missing piece will be presented.<br>Below the figure are alternative pieces to complete the figure, only one of which is correct.<br> Different figures might involve different principles for obtaining the missing piece<br>Your job is to select the most logical piece to complete the figure.</p>","0","","","","","","","","","","","","","","","","","","","","","","","","","",""
"","","","","","html-keyboard-response","4","24264","0.0-2.0-2.0-0.0","6125a71575ce1cc4f554b8b0","D2","batch4","spm_show_trial_num","null","<p class=block-text>Trial 1 out of 60</p>","null","","","","","","","","","","","","","","","","","","","","","","","","","",""
"","","","","","image-button-response","5","31665","0.0-2.0-2.0-1.0","6125a71575ce1cc4f554b8b0","D2","batch4","spm_respsonse","7395.0999999940395","img/question_1_1.jpeg","3","mat_01","4","1","1","7395.0999999940395","","","","","","","","","","","","","","","","","","","","",""
"","","","","","html-keyboard-response","6","32725","0.0-2.0-2.0-0.1","6125a71575ce1cc4f554b8b0","D2","batch4","spm_show_trial_num","null","<p class=block-text>Trial 2 out of 60</p>","null","","","","","","","","","","","","","","","","","","","","","","","","","",""
"","","","","","image-button-response","7","34946","0.0-2.0-2.0-1.1","6125a71575ce1cc4f554b8b0","D2","batch4","spm_respsonse","2219.199999988079","img/question_1_2.jpeg","4","mat_02","5","1","1","2219.199999988079","","","","","","","","","","","","","","","","","","","","",""
"","","","","","html-keyboard-response","8","36014","0.0-2.0-2.0-0.2","6125a71575ce1cc4f554b8b0","D2","batch4","spm_show_trial_num","null","<p class=block-text>Trial 3 out of 60</p>","null","","","","","","","","","","","","","","","","","","","","","","","","","",""
"","","","","","image-button-response","9","38190","0.0-2.0-2.0-1.2","6125a71575ce1cc4f554b8b0","D2","batch4","spm_respsonse","2174.300000011921","img/question_1_3.jpeg","0","mat_03","1","1","1","2174.300000011921","","","","","","","","","","","","","","","","","","","","",""
"","","","","","html-keyboard-response","10","39256","0.0-2.0-2.0-0.3","6125a71575ce1cc4f554b8b0","D2","batch4","spm_show_trial_num","null","<p class=block-text>Trial 4 out of 60</p>","null","","","","","","","","","","","","","","","","","","","","","","","","","",""
"","","","","","image-button-response","11","41612","0.0-2.0-2.0-1.3","6125a71575ce1cc4f554b8b0","D2","batch4","spm_respsonse","2354","img/question_1_4.jpeg","1","mat_04","2","1","1","2354","","","","","","","","","","","","","","","","","","","","",""
"","","","","","html-keyboard-response","12","42677","0.0-2.0-2.0-0.4","6125a71575ce1cc4f554b8b0","D2","batch4","spm_show_trial_num","null","<p class=block-text>Trial 5 out of 60</p>","null","","","","","","","","","","","","","","","","","","","","","","","","","",""
"","","","","","image-button-response","13","46236","0.0-2.0-2.0-1.4","6125a71575ce1cc4f554b8b0","D2","batch4","spm_respsonse","3556.6000000089407","img/question_1_5.jpeg","5","mat_05","6","1","1","3556.6000000089407","","","","","","","","","","","","","","","","","","","","",""
"","","","","","html-keyboard-response","14","47296","0.0-2.0-2.0-0.5","6125a71575ce1cc4f554b8b0","D2","batch4","spm_show_trial_num","null","<p class=block-text>Trial 6 out of 60</p>","null","","","","","","","","","","","","","","","","","","","","","","","","","",""
"","","","","","image-button-response","15","50291","0.0-2.0-2.0-1.5","6125a71575ce1cc4f554b8b0","D2","batch4","spm_respsonse","2991.8999999910593","img/question_1_6.jpeg","2","mat_06","3","1","1","2991.8999999910593","","","","","","","","","","","","","","","","","","","","",""
"","","","","","html-keyboard-response","16","51360","0.0-2.0-2.0-0.6","6125a71575ce1cc4f554b8b0","D2","batch4","spm_show_trial_num","null","<p class=block-text>Trial 7 out of 60</p>","null","","","","","","","","","","","","","","","","","","","","","","","","","",""
"","","","","","image-button-response","17","54469","0.0-2.0-2.0-1.6","6125a71575ce1cc4f554b8b0","D2","batch4","spm_respsonse","3105.8999999910593","img/question_1_7.jpeg","5","mat_07","6","1","1","3105.8999999910593","","","","","","","","","","","","","","","","","","","","",""
"","","","","","html-keyboard-response","18","55531","0.0-2.0-2.0-0.7","6125a71575ce1cc4f554b8b0","D2","batch4","spm_show_trial_num","null","<p class=block-text>Trial 8 out of 60</p>","null","","","","","","","","","","","","","","","","","","","","","","","","","",""
"","","","","","image-button-response","19","59497","0.0-2.0-2.0-1.7","6125a71575ce1cc4f554b8b0","D2","batch4","spm_respsonse","3964.6000000089407","img/question_1_8.jpeg","1","mat_08","2","1","1","3964.6000000089407","","","","","","","","","","","","","","","","","","","","",""
"","","","","","html-keyboard-response","20","60575","0.0-2.0-2.0-0.8","6125a71575ce1cc4f554b8b0","D2","batch4","spm_show_trial_num","null","<p class=block-text>Trial 9 out of 60</p>","null","","","","","","","","","","","","","","","","","","","","","","","","","",""
"","","","","","image-button-response","21","63628","0.0-2.0-2.0-1.8","6125a71575ce1cc4f554b8b0","D2","batch4","spm_respsonse","3050.2999999970198","img/question_1_9.jpeg","0","mat_09","1","1","1","3050.2999999970198","","","","","","","","","","","","","","","","","","","","",""
"","","","","","html-keyboard-response","22","64681","0.0-2.0-2.0-0.9","6125a71575ce1cc4f554b8b0","D2","batch4","spm_show_trial_num","null","<p class=block-text>Trial 10 out of 60</p>","null","","","","","","","","","","","","","","","","","","","","","","","","","",""
"","","","","","image-button-response","23","69521","0.0-2.0-2.0-1.9","6125a71575ce1cc4f554b8b0","D2","batch4","spm_respsonse","4836.70000000298","img/question_1_10.jpeg","2","mat_10","3","1","1","4836.70000000298","","","","","","","","","","","","","","","","","","","","",""
"","","","","","html-keyboard-response","24","70595","0.0-2.0-2.0-0.10","6125a71575ce1cc4f554b8b0","D2","batch4","spm_show_trial_num","null","<p class=block-text>Trial 11 out of 60</p>","null","","","","","","","","","","","","","","","","","","","","","","","","","",""
"","","","","","image-button-response","25","77443","0.0-2.0-2.0-1.10","6125a71575ce1cc4f554b8b0","D2","batch4","spm_respsonse","6845.20000000298","img/question_1_11.jpeg","3","mat_11","4","1","1","6845.20000000298","","","","","","","","","","","","","","","","","","","","",""
"","","","","","html-keyboard-response","26","78517","0.0-2.0-2.0-0.11","6125a71575ce1cc4f554b8b0","D2","batch4","spm_show_trial_num","null","<p class=block-text>Trial 12 out of 60</p>","null","","","","","","","","","","","","","","","","","","","","","","","","","",""
"","","","","","image-button-response","27","84146","0.0-2.0-2.0-1.11","6125a71575ce1cc4f554b8b0","D2","batch4","spm_respsonse","5625.9000000059605","img/question_1_12.jpeg","0","mat_12","5","0","0","5625.9000000059605","","","","","","","","","","","","","","","","","","","","",""
"","","","","","html-keyboard-response","28","85215","0.0-2.0-2.0-0.12","6125a71575ce1cc4f554b8b0","D2","batch4","spm_show_trial_num","null","<p class=block-text>Trial 13 out of 60</p>","null","","","","","","","","","","","","","","","","","","","","","","","","","",""
"","","","","","image-button-response","29","87195","0.0-2.0-2.0-1.12","6125a71575ce1cc4f554b8b0","D2","batch4","spm_respsonse","1977.9000000059605","img/question_2_1.jpeg","1","mat_13","2","1","1","1977.9000000059605","","","","","","","","","","","","","","","","","","","","",""
"","","","","","html-keyboard-response","30","88259","0.0-2.0-2.0-0.13","6125a71575ce1cc4f554b8b0","D2","batch4","spm_show_trial_num","null","<p class=block-text>Trial 14 out of 60</p>","null","","","","","","","","","","","","","","","","","","","","","","","","","",""
"","","","","","image-button-response","31","91560","0.0-2.0-2.0-1.13","6125a71575ce1cc4f554b8b0","D2","batch4","spm_respsonse","3299","img/question_2_2.jpeg","5","mat_14","6","1","1","3299","","","","","","","","","","","","","","","","","","","","",""
"","","","","","html-keyboard-response","32","92620","0.0-2.0-2.0-0.14","6125a71575ce1cc4f554b8b0","D2","batch4","spm_show_trial_num","null","<p class=block-text>Trial 15 out of 60</p>","null","","","","","","","","","","","","","","","","","","","","","","","","","",""
"","","","","","image-button-response","33","95514","0.0-2.0-2.0-1.14","6125a71575ce1cc4f554b8b0","D2","batch4","spm_respsonse","2892.699999988079","img/question_2_3.jpeg","0","mat_15","1","1","1","2892.699999988079","","","","","","","","","","","","","","","","","","","","",""
"","","","","","html-keyboard-response","34","96577","0.0-2.0-2.0-0.15","6125a71575ce1cc4f554b8b0","D2","batch4","spm_show_trial_num","null","<p class=block-text>Trial 16 out of 60</p>","null","","","","","","","","","","","","","","","","","","","","","","","","","",""
"","","","","","image-button-response","35","99406","0.0-2.0-2.0-1.15","6125a71575ce1cc4f554b8b0","D2","batch4","spm_respsonse","2826.7999999970198","img/question_2_4.jpeg","1","mat_16","2","1","1","2826.7999999970198","","","","","","","","","","","","","","","","","","","","",""
"","","","","","html-keyboard-response","36","100486","0.0-2.0-2.0-0.16","6125a71575ce1cc4f554b8b0","D2","batch4","spm_show_trial_num","null","<p class=block-text>Trial 17 out of 60</p>","null","","","","","","","","","","","","","","","","","","","","","","","","","",""
"","","","","","image-button-response","37","103393","0.0-2.0-2.0-1.16","6125a71575ce1cc4f554b8b0","D2","batch4","spm_respsonse","2904.8999999910593","img/question_2_5.jpeg","0","mat_17","1","1","1","2904.8999999910593","","","","","","","","","","","","","","","","","","","","",""
"","","","","","html-keyboard-response","38","104469","0.0-2.0-2.0-0.17","6125a71575ce1cc4f554b8b0","D2","batch4","spm_show_trial_num","null","<p class=block-text>Trial 18 out of 60</p>","null","","","","","","","","","","","","","","","","","","","","","","","","","",""
"","","","","","image-button-response","39","109076","0.0-2.0-2.0-1.17","6125a71575ce1cc4f554b8b0","D2","batch4","spm_respsonse","4604.5","img/question_2_6.jpeg","2","mat_18","3","1","1","4604.5","","","","","","","","","","","","","","","","","","","","",""
"","","","","","html-keyboard-response","40","110147","0.0-2.0-2.0-0.18","6125a71575ce1cc4f554b8b0","D2","batch4","spm_show_trial_num","null","<p class=block-text>Trial 19 out of 60</p>","null","","","","","","","","","","","","","","","","","","","","","","","","","",""
"","","","","","image-button-response","41","113680","0.0-2.0-2.0-1.18","6125a71575ce1cc4f554b8b0","D2","batch4","spm_respsonse","3530.7999999970198","img/question_2_7.jpeg","4","mat_19","5","1","1","3530.7999999970198","","","","","","","","","","","","","","","","","","","","",""
"","","","","","html-keyboard-response","42","114750","0.0-2.0-2.0-0.19","6125a71575ce1cc4f554b8b0","D2","batch4","spm_show_trial_num","null","<p class=block-text>Trial 20 out of 60</p>","null","","","","","","","","","","","","","","","","","","","","","","","","","",""
"","","","","","image-button-response","43","118815","0.0-2.0-2.0-1.19","6125a71575ce1cc4f554b8b0","D2","batch4","spm_respsonse","4061.2000000029802","img/question_2_8.jpeg","5","mat_20","6","1","1","4061.2000000029802","","","","","","","","","","","","","","","","","","","","",""
"","","","","","html-keyboard-response","44","119878","0.0-2.0-2.0-0.20","6125a71575ce1cc4f554b8b0","D2","batch4","spm_show_trial_num","null","<p class=block-text>Trial 21 out of 60</p>","null","","","","","","","","","","","","","","","","","","","","","","","","","",""
"","","","","","image-button-response","45","123851","0.0-2.0-2.0-1.20","6125a71575ce1cc4f554b8b0","D2","batch4","spm_respsonse","3969.7000000029802","img/question_2_9.jpeg","3","mat_21","4","1","1","3969.7000000029802","","","","","","","","","","","","","","","","","","","","",""
"","","","","","html-keyboard-response","46","124909","0.0-2.0-2.0-0.21","6125a71575ce1cc4f554b8b0","D2","batch4","spm_show_trial_num","null","<p class=block-text>Trial 22 out of 60</p>","null","","","","","","","","","","","","","","","","","","","","","","","","","",""
"","","","","","image-button-response","47","128463","0.0-2.0-2.0-1.21","6125a71575ce1cc4f554b8b0","D2","batch4","spm_respsonse","3551.2999999970198","img/question_2_10.jpeg","2","mat_22","3","1","1","3551.2999999970198","","","","","","","","","","","","","","","","","","","","",""
"","","","","","html-keyboard-response","48","129524","0.0-2.0-2.0-0.22","6125a71575ce1cc4f554b8b0","D2","batch4","spm_show_trial_num","null","<p class=block-text>Trial 23 out of 60</p>","null","","","","","","","","","","","","","","","","","","","","","","","","","",""
"","","","","","image-button-response","49","134384","0.0-2.0-2.0-1.22","6125a71575ce1cc4f554b8b0","D2","batch4","spm_respsonse","4857.79999999702","img/question_2_11.jpeg","3","mat_23","4","1","1","4857.79999999702","","","","","","","","","","","","","","","","","","","","",""
"","","","","","html-keyboard-response","50","135438","0.0-2.0-2.0-0.23","6125a71575ce1cc4f554b8b0","D2","batch4","spm_show_trial_num","null","<p class=block-text>Trial 24 out of 60</p>","null","","","","","","","","","","","","","","","","","","","","","","","","","",""
"","","","","","image-button-response","51","157274","0.0-2.0-2.0-1.23","6125a71575ce1cc4f554b8b0","D2","batch4","spm_respsonse","21834.29999999702","img/question_2_12.jpeg","4","mat_24","5","1","1","21834.29999999702","","","","","","","","","","","","","","","","","","","","",""
"","","","","","html-button-response","52","159446","0.0-2.0-3.0","6125a71575ce1cc4f554b8b0","D2","batch4","attention_check","1913.2999999970198","<p class = block-text>Attention check: Please choose 1<br></p>","0","","","true","","","","","","","","","","","","","","","","","","","","","","",""
"","","","","","html-keyboard-response","53","160253","0.0-2.0-4.0-0.0","6125a71575ce1cc4f554b8b0","D2","batch4","spm_show_trial_num","null","<p class=block-text>Trial 25 out of 60</p>","null","","","","","","","","","","","","","","","","","","","","","","","","","",""
"","","","","","image-button-response","54","166745","0.0-2.0-4.0-1.0","6125a71575ce1cc4f554b8b0","D2","batch4","spm_respsonse","6488.20000000298","img/question_3_1.jpeg","7","mat_25","8","1","1","6488.20000000298","","","","","","","","","","","","","","","","","","","","",""
"","","","","","html-keyboard-response","55","167804","0.0-2.0-4.0-0.1","6125a71575ce1cc4f554b8b0","D2","batch4","spm_show_trial_num","null","<p class=block-text>Trial 26 out of 60</p>","null","","","","","","","","","","","","","","","","","","","","","","","","","",""
"","","","","","image-button-response","56","174126","0.0-2.0-4.0-1.1","6125a71575ce1cc4f554b8b0","D2","batch4","spm_respsonse","6318.9000000059605","img/question_3_2.jpeg","1","mat_26","2","1","1","6318.9000000059605","","","","","","","","","","","","","","","","","","","","",""
"","","","","","html-keyboard-response","57","175188","0.0-2.0-4.0-0.2","6125a71575ce1cc4f554b8b0","D2","batch4","spm_show_trial_num","null","<p class=block-text>Trial 27 out of 60</p>","null","","","","","","","","","","","","","","","","","","","","","","","","","",""
"","","","","","image-button-response","58","180682","0.0-2.0-4.0-1.2","6125a71575ce1cc4f554b8b0","D2","batch4","spm_respsonse","5491.100000008941","img/question_3_3.jpeg","2","mat_27","3","1","1","5491.100000008941","","","","","","","","","","","","","","","","","","","","",""
"","","","","","html-keyboard-response","59","181743","0.0-2.0-4.0-0.3","6125a71575ce1cc4f554b8b0","D2","batch4","spm_show_trial_num","null","<p class=block-text>Trial 28 out of 60</p>","null","","","","","","","","","","","","","","","","","","","","","","","","","",""
"","","","","","image-button-response","60","191606","0.0-2.0-4.0-1.3","6125a71575ce1cc4f554b8b0","D2","batch4","spm_respsonse","9860.09999999404","img/question_3_4.jpeg","7","mat_28","8","1","1","9860.09999999404","","","","","","","","","","","","","","","","","","","","",""
"","","","","","html-keyboard-response","61","192675","0.0-2.0-4.0-0.4","6125a71575ce1cc4f554b8b0","D2","batch4","spm_show_trial_num","null","<p class=block-text>Trial 29 out of 60</p>","null","","","","","","","","","","","","","","","","","","","","","","","","","",""
"","","","","","image-button-response","62","200882","0.0-2.0-4.0-1.4","6125a71575ce1cc4f554b8b0","D2","batch4","spm_respsonse","8204.09999999404","img/question_3_5.jpeg","6","mat_29","7","1","1","8204.09999999404","","","","","","","","","","","","","","","","","","","","",""
"","","","","","html-keyboard-response","63","201951","0.0-2.0-4.0-0.5","6125a71575ce1cc4f554b8b0","D2","batch4","spm_show_trial_num","null","<p class=block-text>Trial 30 out of 60</p>","null","","","","","","","","","","","","","","","","","","","","","","","","","",""
"","","","","","image-button-response","64","208527","0.0-2.0-4.0-1.5","6125a71575ce1cc4f554b8b0","D2","batch4","spm_respsonse","6572.79999999702","img/question_3_6.jpeg","3","mat_30","4","1","1","6572.79999999702","","","","","","","","","","","","","","","","","","","","",""
"","","","","","html-keyboard-response","65","209596","0.0-2.0-4.0-0.6","6125a71575ce1cc4f554b8b0","D2","batch4","spm_show_trial_num","null","<p class=block-text>Trial 31 out of 60</p>","null","","","","","","","","","","","","","","","","","","","","","","","","","",""
"","","","","","image-button-response","66","216906","0.0-2.0-4.0-1.6","6125a71575ce1cc4f554b8b0","D2","batch4","spm_respsonse","7307.0999999940395","img/question_3_7.jpeg","4","mat_31","5","1","1","7307.0999999940395","","","","","","","","","","","","","","","","","","","","",""
"","","","","","html-keyboard-response","67","217974","0.0-2.0-4.0-0.7","6125a71575ce1cc4f554b8b0","D2","batch4","spm_show_trial_num","null","<p class=block-text>Trial 32 out of 60</p>","null","","","","","","","","","","","","","","","","","","","","","","","","","",""
"","","","","","image-button-response","68","238628","0.0-2.0-4.0-1.7","6125a71575ce1cc4f554b8b0","D2","batch4","spm_respsonse","20650.89999999106","img/question_3_8.jpeg","0","mat_32","1","1","1","20650.89999999106","","","","","","","","","","","","","","","","","","","","",""
"","","","","","html-keyboard-response","69","239690","0.0-2.0-4.0-0.8","6125a71575ce1cc4f554b8b0","D2","batch4","spm_show_trial_num","null","<p class=block-text>Trial 33 out of 60</p>","null","","","","","","","","","","","","","","","","","","","","","","","","","",""
"","","","","","image-button-response","70","247942","0.0-2.0-4.0-1.8","6125a71575ce1cc4f554b8b0","D2","batch4","spm_respsonse","8249","img/question_3_9.jpeg","6","mat_33","7","1","1","8249","","","","","","","","","","","","","","","","","","","","",""
"","","","","","html-keyboard-response","71","249004","0.0-2.0-4.0-0.9","6125a71575ce1cc4f554b8b0","D2","batch4","spm_show_trial_num","null","<p class=block-text>Trial 34 out of 60</p>","null","","","","","","","","","","","","","","","","","","","","","","","","","",""
"","","","","","image-button-response","72","268886","0.0-2.0-4.0-1.9","6125a71575ce1cc4f554b8b0","D2","batch4","spm_respsonse","19879.30000001192","img/question_3_10.jpeg","5","mat_34","6","1","1","19879.30000001192","","","","","","","","","","","","","","","","","","","","",""
"","","","","","html-keyboard-response","73","269937","0.0-2.0-4.0-0.10","6125a71575ce1cc4f554b8b0","D2","batch4","spm_show_trial_num","null","<p class=block-text>Trial 35 out of 60</p>","null","","","","","","","","","","","","","","","","","","","","","","","","","",""
"","","","","","image-button-response","74","297288","0.0-2.0-4.0-1.10","6125a71575ce1cc4f554b8b0","D2","batch4","spm_respsonse","27349.29999999702","img/question_3_11.jpeg","0","mat_35","1","1","1","27349.29999999702","","","","","","","","","","","","","","","","","","","","",""
"","","","","","html-keyboard-response","75","298343","0.0-2.0-4.0-0.11","6125a71575ce1cc4f554b8b0","D2","batch4","spm_show_trial_num","null","<p class=block-text>Trial 36 out of 60</p>","null","","","","","","","","","","","","","","","","","","","","","","","","","",""
"","","","","","image-button-response","76","309969","0.0-2.0-4.0-1.11","6125a71575ce1cc4f554b8b0","D2","batch4","spm_respsonse","11622.29999999702","img/question_3_12.jpeg","4","mat_36","2","0","0","11622.29999999702","","","","","","","","","","","","","","","","","","","","",""
"","","","","","html-keyboard-response","77","311030","0.0-2.0-4.0-0.12","6125a71575ce1cc4f554b8b0","D2","batch4","spm_show_trial_num","null","<p class=block-text>Trial 37 out of 60</p>","null","","","","","","","","","","","","","","","","","","","","","","","","","",""
"","","","","","image-button-response","78","313831","0.0-2.0-4.0-1.12","6125a71575ce1cc4f554b8b0","D2","batch4","spm_respsonse","2797.5","img/question_4_1.jpeg","2","mat_37","3","1","1","2797.5","","","","","","","","","","","","","","","","","","","","",""
"","","","","","html-keyboard-response","79","314885","0.0-2.0-4.0-0.13","6125a71575ce1cc4f554b8b0","D2","batch4","spm_show_trial_num","null","<p class=block-text>Trial 38 out of 60</p>","null","","","","","","","","","","","","","","","","","","","","","","","","","",""
"","","","","","image-button-response","80","319431","0.0-2.0-4.0-1.13","6125a71575ce1cc4f554b8b0","D2","batch4","spm_respsonse","4542.9000000059605","img/question_4_2.jpeg","3","mat_38","4","1","1","4542.9000000059605","","","","","","","","","","","","","","","","","","","","",""
"","","","","","html-keyboard-response","81","320485","0.0-2.0-4.0-0.14","6125a71575ce1cc4f554b8b0","D2","batch4","spm_show_trial_num","null","<p class=block-text>Trial 39 out of 60</p>","null","","","","","","","","","","","","","","","","","","","","","","","","","",""
"","","","","","image-button-response","82","324210","0.0-2.0-4.0-1.14","6125a71575ce1cc4f554b8b0","D2","batch4","spm_respsonse","3722.4000000059605","img/question_4_3.jpeg","2","mat_39","3","1","1","3722.4000000059605","","","","","","","","","","","","","","","","","","","","",""
"","","","","","html-keyboard-response","83","325271","0.0-2.0-4.0-0.15","6125a71575ce1cc4f554b8b0","D2","batch4","spm_show_trial_num","null","<p class=block-text>Trial 40 out of 60</p>","null","","","","","","","","","","","","","","","","","","","","","","","","","",""
"","","","","","image-button-response","84","332404","0.0-2.0-4.0-1.15","6125a71575ce1cc4f554b8b0","D2","batch4","spm_respsonse","7130.0999999940395","img/question_4_4.jpeg","6","mat_40","7","1","1","7130.0999999940395","","","","","","","","","","","","","","","","","","","","",""
"","","","","","html-keyboard-response","85","333472","0.0-2.0-4.0-0.16","6125a71575ce1cc4f554b8b0","D2","batch4","spm_show_trial_num","null","<p class=block-text>Trial 41 out of 60</p>","null","","","","","","","","","","","","","","","","","","","","","","","","","",""
"","","","","","image-button-response","86","341680","0.0-2.0-4.0-1.16","6125a71575ce1cc4f554b8b0","D2","batch4","spm_respsonse","8205.699999988079","img/question_4_5.jpeg","7","mat_41","8","1","1","8205.699999988079","","","","","","","","","","","","","","","","","","","","",""
"","","","","","html-keyboard-response","87","342760","0.0-2.0-4.0-0.17","6125a71575ce1cc4f554b8b0","D2","batch4","spm_show_trial_num","null","<p class=block-text>Trial 42 out of 60</p>","null","","","","","","","","","","","","","","","","","","","","","","","","","",""
"","","","","","image-button-response","88","350433","0.0-2.0-4.0-1.17","6125a71575ce1cc4f554b8b0","D2","batch4","spm_respsonse","7669.5","img/question_4_6.jpeg","5","mat_42","6","1","1","7669.5","","","","","","","","","","","","","","","","","","","","",""
"","","","","","html-keyboard-response","89","351493","0.0-2.0-4.0-0.18","6125a71575ce1cc4f554b8b0","D2","batch4","spm_show_trial_num","null","<p class=block-text>Trial 43 out of 60</p>","null","","","","","","","","","","","","","","","","","","","","","","","","","",""
"","","","","","image-button-response","90","366898","0.0-2.0-4.0-1.18","6125a71575ce1cc4f554b8b0","D2","batch4","spm_respsonse","15402.20000000298","img/question_4_7.jpeg","4","mat_43","5","1","1","15402.20000000298","","","","","","","","","","","","","","","","","","","","",""
"","","","","","html-keyboard-response","91","367951","0.0-2.0-4.0-0.19","6125a71575ce1cc4f554b8b0","D2","batch4","spm_show_trial_num","null","<p class=block-text>Trial 44 out of 60</p>","null","","","","","","","","","","","","","","","","","","","","","","","","","",""
"","","","","","image-button-response","92","374477","0.0-2.0-4.0-1.19","6125a71575ce1cc4f554b8b0","D2","batch4","spm_respsonse","6523.29999999702","img/question_4_8.jpeg","3","mat_44","4","1","1","6523.29999999702","","","","","","","","","","","","","","","","","","","","",""
"","","","","","html-keyboard-response","93","375542","0.0-2.0-4.0-0.20","6125a71575ce1cc4f554b8b0","D2","batch4","spm_show_trial_num","null","<p class=block-text>Trial 45 out of 60</p>","null","","","","","","","","","","","","","","","","","","","","","","","","","",""
"","","","","","image-button-response","94","383714","0.0-2.0-4.0-1.20","6125a71575ce1cc4f554b8b0","D2","batch4","spm_respsonse","8169.29999999702","img/question_4_9.jpeg","0","mat_45","1","1","1","8169.29999999702","","","","","","","","","","","","","","","","","","","","",""
"","","","","","html-keyboard-response","95","384767","0.0-2.0-4.0-0.21","6125a71575ce1cc4f554b8b0","D2","batch4","spm_show_trial_num","null","<p class=block-text>Trial 46 out of 60</p>","null","","","","","","","","","","","","","","","","","","","","","","","","","",""
"","","","","","image-button-response","96","397876","0.0-2.0-4.0-1.21","6125a71575ce1cc4f554b8b0","D2","batch4","spm_respsonse","13105.800000011921","img/question_4_10.jpeg","1","mat_46","2","1","1","13105.800000011921","","","","","","","","","","","","","","","","","","","","",""
"","","","","","html-keyboard-response","97","398930","0.0-2.0-4.0-0.22","6125a71575ce1cc4f554b8b0","D2","batch4","spm_show_trial_num","null","<p class=block-text>Trial 47 out of 60</p>","null","","","","","","","","","","","","","","","","","","","","","","","","","",""
"","","","","","image-button-response","98","433546","0.0-2.0-4.0-1.22","6125a71575ce1cc4f554b8b0","D2","batch4","spm_respsonse","34613.40000000596","img/question_4_11.jpeg","1","mat_47","5","0","0","34613.40000000596","","","","","","","","","","","","","","","","","","","","",""
"","","","","","html-keyboard-response","99","434610","0.0-2.0-4.0-0.23","6125a71575ce1cc4f554b8b0","D2","batch4","spm_show_trial_num","null","<p class=block-text>Trial 48 out of 60</p>","null","","","","","","","","","","","","","","","","","","","","","","","","","",""
"","","","","","image-button-response","100","454411","0.0-2.0-4.0-1.23","6125a71575ce1cc4f554b8b0","D2","batch4","spm_respsonse","19798.20000000298","img/question_4_12.jpeg","4","mat_48","6","0","0","19798.20000000298","","","","","","","","","","","","","","","","","","","","",""
"","","","","","html-keyboard-response","101","455465","0.0-2.0-4.0-0.24","6125a71575ce1cc4f554b8b0","D2","batch4","spm_show_trial_num","null","<p class=block-text>Trial 49 out of 60</p>","null","","","","","","","","","","","","","","","","","","","","","","","","","",""
"","","","","","image-button-response","102","461496","0.0-2.0-4.0-1.24","6125a71575ce1cc4f554b8b0","D2","batch4","spm_respsonse","6027.5","img/question_5_1.jpeg","6","mat_49","7","1","1","6027.5","","","","","","","","","","","","","","","","","","","","",""
"","","","","","html-keyboard-response","103","462571","0.0-2.0-4.0-0.25","6125a71575ce1cc4f554b8b0","D2","batch4","spm_show_trial_num","null","<p class=block-text>Trial 50 out of 60</p>","null","","","","","","","","","","","","","","","","","","","","","","","","","",""
"","","","","","image-button-response","104","479492","0.0-2.0-4.0-1.25","6125a71575ce1cc4f554b8b0","D2","batch4","spm_respsonse","16919.29999999702","img/question_5_2.jpeg","5","mat_50","6","1","1","16919.29999999702","","","","","","","","","","","","","","","","","","","","",""
"","","","","","html-keyboard-response","105","480557","0.0-2.0-4.0-0.26","6125a71575ce1cc4f554b8b0","D2","batch4","spm_show_trial_num","null","<p class=block-text>Trial 51 out of 60</p>","null","","","","","","","","","","","","","","","","","","","","","","","","","",""
"","","","","","image-button-response","106","490382","0.0-2.0-4.0-1.26","6125a71575ce1cc4f554b8b0","D2","batch4","spm_respsonse","9822.39999999106","img/question_5_3.jpeg","7","mat_51","8","1","1","9822.39999999106","","","","","","","","","","","","","","","","","","","","",""
"","","","","","html-keyboard-response","107","491440","0.0-2.0-4.0-0.27","6125a71575ce1cc4f554b8b0","D2","batch4","spm_show_trial_num","null","<p class=block-text>Trial 52 out of 60</p>","null","","","","","","","","","","","","","","","","","","","","","","","","","",""
"","","","","","image-button-response","108","500012","0.0-2.0-4.0-1.27","6125a71575ce1cc4f554b8b0","D2","batch4","spm_respsonse","8567.90000000596","img/question_5_4.jpeg","1","mat_52","2","1","1","8567.90000000596","","","","","","","","","","","","","","","","","","","","",""
"","","","","","html-keyboard-response","109","501080","0.0-2.0-4.0-0.28","6125a71575ce1cc4f554b8b0","D2","batch4","spm_show_trial_num","null","<p class=block-text>Trial 53 out of 60</p>","null","","","","","","","","","","","","","","","","","","","","","","","","","",""
"","","","","","image-button-response","110","507420","0.0-2.0-4.0-1.28","6125a71575ce1cc4f554b8b0","D2","batch4","spm_respsonse","6337.29999999702","img/question_5_5.jpeg","0","mat_53","1","1","1","6337.29999999702","","","","","","","","","","","","","","","","","","","","",""
"","","","","","html-keyboard-response","111","508483","0.0-2.0-4.0-0.29","6125a71575ce1cc4f554b8b0","D2","batch4","spm_show_trial_num","null","<p class=block-text>Trial 54 out of 60</p>","null","","","","","","","","","","","","","","","","","","","","","","","","","",""
"","","","","","image-button-response","112","523546","0.0-2.0-4.0-1.29","6125a71575ce1cc4f554b8b0","D2","batch4","spm_respsonse","15059.90000000596","img/question_5_6.jpeg","4","mat_54","5","1","1","15059.90000000596","","","","","","","","","","","","","","","","","","","","",""
"","","","","","html-keyboard-response","113","524607","0.0-2.0-4.0-0.30","6125a71575ce1cc4f554b8b0","D2","batch4","spm_show_trial_num","null","<p class=block-text>Trial 55 out of 60</p>","null","","","","","","","","","","","","","","","","","","","","","","","","","",""
"","","","","","image-button-response","114","542614","0.0-2.0-4.0-1.30","6125a71575ce1cc4f554b8b0","D2","batch4","spm_respsonse","18003.70000000298","img/question_5_7.jpeg","0","mat_55","1","1","1","18003.70000000298","","","","","","","","","","","","","","","","","","","","",""
"","","","","","html-keyboard-response","115","543679","0.0-2.0-4.0-0.31","6125a71575ce1cc4f554b8b0","D2","batch4","spm_show_trial_num","null","<p class=block-text>Trial 56 out of 60</p>","null","","","","","","","","","","","","","","","","","","","","","","","","","",""
"","","","","","image-button-response","116","553370","0.0-2.0-4.0-1.31","6125a71575ce1cc4f554b8b0","D2","batch4","spm_respsonse","9688.20000000298","img/question_5_8.jpeg","5","mat_56","6","1","1","9688.20000000298","","","","","","","","","","","","","","","","","","","","",""
"","","","","","html-keyboard-response","117","554427","0.0-2.0-4.0-0.32","6125a71575ce1cc4f554b8b0","D2","batch4","spm_show_trial_num","null","<p class=block-text>Trial 57 out of 60</p>","null","","","","","","","","","","","","","","","","","","","","","","","","","",""
"","","","","","image-button-response","118","568174","0.0-2.0-4.0-1.32","6125a71575ce1cc4f554b8b0","D2","batch4","spm_respsonse","13744","img/question_5_9.jpeg","4","mat_57","3","0","0","13744","","","","","","","","","","","","","","","","","","","","",""
"","","","","","html-keyboard-response","119","569239","0.0-2.0-4.0-0.33","6125a71575ce1cc4f554b8b0","D2","batch4","spm_show_trial_num","null","<p class=block-text>Trial 58 out of 60</p>","null","","","","","","","","","","","","","","","","","","","","","","","","","",""
"","","","","","image-button-response","120","619852","0.0-2.0-4.0-1.33","6125a71575ce1cc4f554b8b0","D2","batch4","spm_respsonse","50610.10000000894","img/question_5_10.jpeg","6","mat_58","2","0","0","50610.10000000894","","","","","","","","","","","","","","","","","","","","",""
"","","","","","html-keyboard-response","121","620918","0.0-2.0-4.0-0.34","6125a71575ce1cc4f554b8b0","D2","batch4","spm_show_trial_num","null","<p class=block-text>Trial 59 out of 60</p>","null","","","","","","","","","","","","","","","","","","","","","","","","","",""
"","","","","","image-button-response","122","637522","0.0-2.0-4.0-1.34","6125a71575ce1cc4f554b8b0","D2","batch4","spm_respsonse","16601.5","img/question_5_11.jpeg","4","mat_59","4","0","0","16601.5","","","","","","","","","","","","","","","","","","","","",""
"","","","","","html-keyboard-response","123","638577","0.0-2.0-4.0-0.35","6125a71575ce1cc4f554b8b0","D2","batch4","spm_show_trial_num","null","<p class=block-text>Trial 60 out of 60</p>","null","","","","","","","","","","","","","","","","","","","","","","","","","",""
"","","","","","image-button-response","124","655134","0.0-2.0-4.0-1.35","6125a71575ce1cc4f554b8b0","D2","batch4","spm_respsonse","16554.79999999702","img/question_5_12.jpeg","7","mat_60","5","0","0","16554.79999999702","","","","","","","","","","","","","","","","","","","","",""
"","","","","","html-button-response","125","657580","0.0-2.0-5.0","6125a71575ce1cc4f554b8b0","D2","batch4","spm_goodbye","2193.800000011921","<p class= block-text>This concludes the Standard Progressive Matrix game. Thank you for your responses!<br> When you are ready, click the button continue</p>","0","","","","","","","","","","","","","","","","","","","","","","","","","",""
"true","","","","","fullscreen","126","660756","0.0-3.0-0.0","6125a71575ce1cc4f554b8b0","D2","batch4","","","","","","","","","","","","","","","","","","","","","","","","","","","","","",""
"","","","","","instructions","127","708516","0.0-3.0-1.0-0.0-0.0","6125a71575ce1cc4f554b8b0","D2","batch4","tol-instructions","47759","","","","","","","","[{""page_index"":0,""viewing_time"":9666.20000000298},{""page_index"":1,""viewing_time"":4340.199999988079},{""page_index"":2,""viewing_time"":2626.300000011921},{""page_index"":3,""viewing_time"":9963.59999999404},{""page_index"":4,""viewing_time"":5344.4000000059605},{""page_index"":5,""viewing_time"":12635.89999999106},{""page_index"":6,""viewing_time"":3182.1000000089407}]","","","","","","","","","","","","","","","","","","","",""
"","","","","","html-button-response","128","709466","0.0-3.0-1.0-1.0-0.0","6125a71575ce1cc4f554b8b0","D2","batch4","tol_enter_quiz","949.1000000089407","<p class=block-text> Let's answer a few questions <br>","0","","","","","","","","","","","","","","","","","","","","","","","","","",""
"","","","","","html-button-response","129","713822","0.0-3.0-1.0-1.0-1.0","6125a71575ce1cc4f554b8b0","D2","batch4","tol_quiz","4354.79999999702","<p class = block-text>True or False: You can only move the ball on top of a peg. <br></p>","0","","","true","","","","","","","","","","","","","","","","","","","","","","",""
"","","","","","html-button-response","130","714656","0.0-3.0-1.0-1.0-2.0","6125a71575ce1cc4f554b8b0","D2","batch4","tol_quiz_feedback","832.1999999880791","<p class = block-text>Correct! You can only move the ball on top of a peg.</p>","0","","","","","","","","","","","","","","","","","","","","","","","","","",""
"","","","","","html-button-response","131","716904","0.0-3.0-1.0-1.0-3.0","6125a71575ce1cc4f554b8b0","D2","batch4","tol_quiz","2247","<p class = block-text>True or False: You should try to match your board with the target board with fewest moves possible. <br></p>","0","","","true","","","","","","","","","","","","","","","","","","","","","","",""
"","","","","","html-button-response","132","717506","0.0-3.0-1.0-1.0-4.0","6125a71575ce1cc4f554b8b0","D2","batch4","tol_quiz_feedback","601.1000000089407","<p class = block-text>Correct! </p>","0","","","","","","","","","","","","","","","","","","","","","","","","","",""
"","","","","","html-button-response","133","718688","0.0-3.0-2.0","6125a71575ce1cc4f554b8b0","D2","batch4","","1180.2000000029802","<p class=block-text> Now that you've understood the game, let's practice a few easier examples before we start!<br> <br>","0","","","","","","","","","","","","","","","","","","","","","","","","","",""
"","","","","","single-stim-button","134","720997","0.0-3.0-3.0-0.0","6125a71575ce1cc4f554b8b0","D2","batch4","tol_practice","2307","","","","","","","","","tol_peg_2","2307","2307","0","[[1,2,0],[0,0],[0]]","1","[[1,2,0],[0,0],[3]]","practice","2307","","","","","","","","","","",""
"","","","","","single-stim-button","135","721954","0.0-3.0-3.0-1.0","6125a71575ce1cc4f554b8b0","D2","batch4","tol_practice","957","","","","","","","","","tol_peg_3","957","957","0","[[1,2,0],[0,0],[3]]","1","[[1,2,0],[0,0],[3]]","practice","957","","","","","","","","","","",""
"","","","","","poldrack-single-stim","136","722956","0.0-3.0-4.0","6125a71575ce1cc4f554b8b0","D2","batch4","tol_feedback","-1","","","","","true","","","","","1000","1000","500","","","","","","-1","none","true","","0","","","","","",""
"","","","","","single-stim-button","137","727986","0.0-3.0-5.0-0.0","6125a71575ce1cc4f554b8b0","D2","batch4","tol_practice","5029","","","","","","","","","tol_peg_1","5029","5029","0","[[1,0,0],[3,0],[0]]","2","[[0,0,0],[3,1],[2]]","practice","5029","","","","","","","","","","",""
"","","","","","single-stim-button","138","729900","0.0-3.0-5.0-1.0","6125a71575ce1cc4f554b8b0","D2","batch4","tol_practice","1913","","","","","","","","","tol_peg_3","1913","1913","0","[[1,0,0],[3,0],[2]]","2","[[0,0,0],[3,1],[2]]","practice","1913","","","","","","","","","","",""
"","","","","","single-stim-button","139","735686","0.0-3.0-5.1-0.1","6125a71575ce1cc4f554b8b0","D2","batch4","tol_practice","5786","","","","","","","","","tol_peg_2","5786","5786","0","[[1,0,0],[0,0],[2]]","3","[[0,0,0],[3,1],[2]]","practice","5786","","","","","","","","","","",""
"","","","","","single-stim-button","140","738506","0.0-3.0-5.1-1.1","6125a71575ce1cc4f554b8b0","D2","batch4","tol_practice","2819","","","","","","","","","tol_peg_1","2819","2819","0","[[1,3,0],[0,0],[2]]","3","[[0,0,0],[3,1],[2]]","practice","2819","","","","","","","","","","",""
"","","","","","single-stim-button","141","739286","0.0-3.0-5.2-0.2","6125a71575ce1cc4f554b8b0","D2","batch4","tol_practice","779","","","","","","","","","tol_peg_3","779","779","0","[[1,3,0],[0,0],[0]]","4","[[0,0,0],[3,1],[2]]","practice","779","","","","","","","","","","",""
"","","","","","single-stim-button","142","740536","0.0-3.0-5.2-1.2","6125a71575ce1cc4f554b8b0","D2","batch4","tol_practice","1250","","","","","","","","","tol_peg_2","1250","1250","0","[[1,3,0],[2,0],[0]]","4","[[0,0,0],[3,1],[2]]","practice","1250","","","","","","","","","","",""
"","","","","","single-stim-button","143","741378","0.0-3.0-5.3-0.3","6125a71575ce1cc4f554b8b0","D2","batch4","tol_practice","841","","","","","","","","","tol_peg_1","841","841","0","[[1,0,0],[2,0],[0]]","5","[[0,0,0],[3,1],[2]]","practice","841","","","","","","","","","","",""
"","","","","","single-stim-button","144","742552","0.0-3.0-5.3-1.3","6125a71575ce1cc4f554b8b0","D2","batch4","tol_practice","1174","","","","","","","","","tol_peg_3","1174","1174","0","[[1,0,0],[2,0],[3]]","5","[[0,0,0],[3,1],[2]]","practice","1174","","","","","","","","","","",""
"","","","","","single-stim-button","145","743332","0.0-3.0-5.4-0.4","6125a71575ce1cc4f554b8b0","D2","batch4","tol_practice","780","","","","","","","","","tol_peg_1","780","780","0","[[0,0,0],[2,0],[3]]","6","[[0,0,0],[3,1],[2]]","practice","780","","","","","","","","","","",""
"","","","","","single-stim-button","146","743972","0.0-3.0-5.4-1.4","6125a71575ce1cc4f554b8b0","D2","batch4","tol_practice","640","","","","","","","","","tol_peg_2","640","640","0","[[0,0,0],[2,1],[3]]","6","[[0,0,0],[3,1],[2]]","practice","640","","","","","","","","","","",""
"","","","","","single-stim-button","147","745000","0.0-3.0-5.5-0.5","6125a71575ce1cc4f554b8b0","D2","batch4","tol_practice","1028","","","","","","","","","tol_peg_3","1028","1028","0","[[0,0,0],[2,1],[0]]","7","[[0,0,0],[3,1],[2]]","practice","1028","","","","","","","","","","",""
"","","","","","single-stim-button","148","745694","0.0-3.0-5.5-1.5","6125a71575ce1cc4f554b8b0","D2","batch4","tol_practice","693","","","","","","","","","tol_peg_1","693","693","0","[[3,0,0],[2,1],[0]]","7","[[0,0,0],[3,1],[2]]","practice","693","","","","","","","","","","",""
"","","","","","single-stim-button","149","746738","0.0-3.0-5.6-0.6","6125a71575ce1cc4f554b8b0","D2","batch4","tol_practice","1043","","","","","","","","","tol_peg_2","1043","1043","0","[[3,0,0],[2,0],[0]]","8","[[0,0,0],[3,1],[2]]","practice","1043","","","","","","","","","","",""
"","","","","","single-stim-button","150","747138","0.0-3.0-5.6-1.6","6125a71575ce1cc4f554b8b0","D2","batch4","tol_practice","400","","","","","","","","","tol_peg_1","400","400","0","[[3,1,0],[2,0],[0]]","8","[[0,0,0],[3,1],[2]]","practice","400","","","","","","","","","","",""
"","","","","","single-stim-button","151","747788","0.0-3.0-5.7-0.7","6125a71575ce1cc4f554b8b0","D2","batch4","tol_practice","649","","","","","","","","","tol_peg_2","649","649","0","[[3,1,0],[0,0],[0]]","9","[[0,0,0],[3,1],[2]]","practice","649","","","","","","","","","","",""
"","","","","","single-stim-button","152","748174","0.0-3.0-5.7-1.7","6125a71575ce1cc4f554b8b0","D2","batch4","tol_practice","386","","","","","","","","","tol_peg_3","386","386","0","[[3,1,0],[0,0],[2]]","9","[[0,0,0],[3,1],[2]]","practice","386","","","","","","","","","","",""
"","","","","","single-stim-button","153","750754","0.0-3.0-5.8-0.8","6125a71575ce1cc4f554b8b0","D2","batch4","tol_practice","2580","","","","","","","","","tol_peg_1","2580","2580","0","[[3,0,0],[0,0],[2]]","10","[[0,0,0],[3,1],[2]]","practice","2580","","","","","","","","","","",""
"","","","","","single-stim-button","154","751518","0.0-3.0-5.8-1.8","6125a71575ce1cc4f554b8b0","D2","batch4","tol_practice","764","","","","","","","","","tol_peg_1","764","764","0","[[3,1,0],[0,0],[2]]","10","[[0,0,0],[3,1],[2]]","practice","764","","","","","","","","","","",""
"","","","","","single-stim-button","155","752306","0.0-3.0-5.9-0.9","6125a71575ce1cc4f554b8b0","D2","batch4","tol_practice","787","","","","","","","","","tol_peg_1","787","787","0","[[3,0,0],[0,0],[2]]","11","[[0,0,0],[3,1],[2]]","practice","787","","","","","","","","","","",""
"","","","","","single-stim-button","156","752613","0.0-3.0-5.9-1.9","6125a71575ce1cc4f554b8b0","D2","batch4","tol_practice","307","","","","","","","","","tol_peg_2","307","307","0","[[3,0,0],[1,0],[2]]","11","[[0,0,0],[3,1],[2]]","practice","307","","","","","","","","","","",""
"","","","","","single-stim-button","157","753672","0.0-3.0-5.10-0.10","6125a71575ce1cc4f554b8b0","D2","batch4","tol_practice","1058","","","","","","","","","tol_peg_3","1058","1058","0","[[3,0,0],[1,0],[0]]","12","[[0,0,0],[3,1],[2]]","practice","1058","","","","","","","","","","",""
"","","","","","single-stim-button","158","755418","0.0-3.0-5.10-1.10","6125a71575ce1cc4f554b8b0","D2","batch4","tol_practice","1745","","","","","","","","","tol_peg_1","1745","1745","0","[[3,2,0],[1,0],[0]]","12","[[0,0,0],[3,1],[2]]","practice","1745","","","","","","","","","","",""
"","","","","","single-stim-button","159","757156","0.0-3.0-5.11-0.11","6125a71575ce1cc4f554b8b0","D2","batch4","tol_practice","1738","","","","","","","","","tol_peg_2","1738","1738","0","[[3,2,0],[0,0],[0]]","13","[[0,0,0],[3,1],[2]]","practice","1738","","","","","","","","","","",""
"","","","","","single-stim-button","160","757664","0.0-3.0-5.11-1.11","6125a71575ce1cc4f554b8b0","D2","batch4","tol_practice","508","","","","","","","","","tol_peg_3","508","508","0","[[3,2,0],[0,0],[1]]","13","[[0,0,0],[3,1],[2]]","practice","508","","","","","","","","","","",""
"","","","","","single-stim-button","161","759046","0.0-3.0-5.12-0.12","6125a71575ce1cc4f554b8b0","D2","batch4","tol_practice","1382","","","","","","","","","tol_peg_1","1382","1382","0","[[3,0,0],[0,0],[1]]","14","[[0,0,0],[3,1],[2]]","practice","1382","","","","","","","","","","",""
"","","","","","single-stim-button","162","762252","0.0-3.0-5.12-1.12","6125a71575ce1cc4f554b8b0","D2","batch4","tol_practice","3206","","","","","","","","","tol_peg_1","3206","3206","0","[[3,2,0],[0,0],[1]]","14","[[0,0,0],[3,1],[2]]","practice","3206","","","","","","","","","","",""
"","","","","","single-stim-button","163","765164","0.0-3.0-5.13-0.13","6125a71575ce1cc4f554b8b0","D2","batch4","tol_practice","2911","","","","","","","","","tol_peg_1","2911","2911","0","[[3,0,0],[0,0],[1]]","15","[[0,0,0],[3,1],[2]]","practice","2911","","","","","","","","","","",""
"","","","","","single-stim-button","164","765796","0.0-3.0-5.13-1.13","6125a71575ce1cc4f554b8b0","D2","batch4","tol_practice","632","","","","","","","","","tol_peg_2","632","632","0","[[3,0,0],[2,0],[1]]","15","[[0,0,0],[3,1],[2]]","practice","632","","","","","","","","","","",""
"","","","","","single-stim-button","165","767836","0.0-3.0-5.14-0.14","6125a71575ce1cc4f554b8b0","D2","batch4","tol_practice","2040","","","","","","","","","tol_peg_3","2040","2040","0","[[3,0,0],[2,0],[0]]","16","[[0,0,0],[3,1],[2]]","practice","2040","","","","","","","","","","",""
"","","","","","single-stim-button","166","768676","0.0-3.0-5.14-1.14","6125a71575ce1cc4f554b8b0","D2","batch4","tol_practice","839","","","","","","","","","tol_peg_1","839","839","0","[[3,1,0],[2,0],[0]]","16","[[0,0,0],[3,1],[2]]","practice","839","","","","","","","","","","",""
"","","","","","single-stim-button","167","769110","0.0-3.0-5.15-0.15","6125a71575ce1cc4f554b8b0","D2","batch4","tol_practice","434","","","","","","","","","tol_peg_2","434","434","0","[[3,1,0],[0,0],[0]]","17","[[0,0,0],[3,1],[2]]","practice","434","","","","","","","","","","",""
"","","","","","single-stim-button","168","769611","0.0-3.0-5.15-1.15","6125a71575ce1cc4f554b8b0","D2","batch4","tol_practice","501","","","","","","","","","tol_peg_3","501","501","0","[[3,1,0],[0,0],[2]]","17","[[0,0,0],[3,1],[2]]","practice","501","","","","","","","","","","",""
"","","","","","single-stim-button","169","772862","0.0-3.0-5.16-0.16","6125a71575ce1cc4f554b8b0","D2","batch4","tol_practice","3250","","","","","","","","","tol_peg_3","3250","3250","0","[[3,1,0],[0,0],[0]]","18","[[0,0,0],[3,1],[2]]","practice","3250","","","","","","","","","","",""
"","","","","","single-stim-button","170","774886","0.0-3.0-5.16-1.16","6125a71575ce1cc4f554b8b0","D2","batch4","tol_practice","2024","","","","","","","","","tol_peg_2","2024","2024","0","[[3,1,0],[2,0],[0]]","18","[[0,0,0],[3,1],[2]]","practice","2024","","","","","","","","","","",""
"","","","","","single-stim-button","171","775803","0.0-3.0-5.17-0.17","6125a71575ce1cc4f554b8b0","D2","batch4","tol_practice","917","","","","","","","","","tol_peg_1","917","917","0","[[3,0,0],[2,0],[0]]","19","[[0,0,0],[3,1],[2]]","practice","917","","","","","","","","","","",""
"","","","","","single-stim-button","172","776492","0.0-3.0-5.17-1.17","6125a71575ce1cc4f554b8b0","D2","batch4","tol_practice","688","","","","","","","","","tol_peg_3","688","688","0","[[3,0,0],[2,0],[1]]","19","[[0,0,0],[3,1],[2]]","practice","688","","","","","","","","","","",""
"","","","","","single-stim-button","173","780583","0.0-3.0-5.18-0.18","6125a71575ce1cc4f554b8b0","D2","batch4","tol_practice","4091","","","","","","","","","tol_peg_2","4091","4091","0","[[3,0,0],[0,0],[1]]","20","[[0,0,0],[3,1],[2]]","practice","4091","","","","","","","","","","",""
"","","","","","single-stim-button","174","781395","0.0-3.0-5.18-1.18","6125a71575ce1cc4f554b8b0","D2","batch4","tol_practice","810","","","","","","","","","tol_peg_1","810","810","0","[[3,2,0],[0,0],[1]]","20","[[0,0,0],[3,1],[2]]","practice","810","","","","","","","","","","",""
"","","","","","single-stim-button","175","788786","0.0-3.0-5.19-0.19","6125a71575ce1cc4f554b8b0","D2","batch4","tol_practice","7391","","","","","","","","","tol_peg_1","7391","7391","0","[[3,0,0],[0,0],[1]]","21","[[0,0,0],[3,1],[2]]","practice","7391","","","","","","","","","","",""
"","","","","","single-stim-button","176","789434","0.0-3.0-5.19-1.19","6125a71575ce1cc4f554b8b0","D2","batch4","tol_practice","647","","","","","","","","","tol_peg_2","647","647","0","[[3,0,0],[2,0],[1]]","21","[[0,0,0],[3,1],[2]]","practice","647","","","","","","","","","","",""
"","","","","","single-stim-button","177","795110","0.0-3.0-5.20-0.20","6125a71575ce1cc4f554b8b0","D2","batch4","tol_practice","5675","","","","","","","","","tol_peg_1","5675","5675","0","[[0,0,0],[2,0],[1]]","22","[[0,0,0],[3,1],[2]]","practice","5675","","","","","","","","","","",""
"","","","","","single-stim-button","178","795611","0.0-3.0-5.20-1.20","6125a71575ce1cc4f554b8b0","D2","batch4","tol_practice","501","","","","","","","","","tol_peg_2","501","501","0","[[0,0,0],[2,3],[1]]","22","[[0,0,0],[3,1],[2]]","practice","501","","","","","","","","","","",""
"","","","","","single-stim-button","179","796101","0.0-3.0-5.21-0.21","6125a71575ce1cc4f554b8b0","D2","batch4","tol_practice","489","","","","","","","","","tol_peg_3","489","489","0","[[0,0,0],[2,3],[0]]","23","[[0,0,0],[3,1],[2]]","practice","489","","","","","","","","","","",""
"","","","","","single-stim-button","180","796910","0.0-3.0-5.21-1.21","6125a71575ce1cc4f554b8b0","D2","batch4","tol_practice","809","","","","","","","","","tol_peg_1","809","809","0","[[1,0,0],[2,3],[0]]","23","[[0,0,0],[3,1],[2]]","practice","809","","","","","","","","","","",""
"","","","","","single-stim-button","181","799220","0.0-3.0-5.22-0.22","6125a71575ce1cc4f554b8b0","D2","batch4","tol_practice","2310","","","","","","","","","tol_peg_2","2310","2310","0","[[1,0,0],[2,0],[0]]","24","[[0,0,0],[3,1],[2]]","practice","2310","","","","","","","","","","",""
"","","","","","single-stim-button","182","800184","0.0-3.0-5.22-1.22","6125a71575ce1cc4f554b8b0","D2","batch4","tol_practice","963","","","","","","","","","tol_peg_1","963","963","0","[[1,3,0],[2,0],[0]]","24","[[0,0,0],[3,1],[2]]","practice","963","","","","","","","","","","",""
"","","","","","single-stim-button","183","800656","0.0-3.0-5.23-0.23","6125a71575ce1cc4f554b8b0","D2","batch4","tol_practice","472","","","","","","","","","tol_peg_2","472","472","0","[[1,3,0],[0,0],[0]]","25","[[0,0,0],[3,1],[2]]","practice","472","","","","","","","","","","",""
"","","","","","single-stim-button","184","801087","0.0-3.0-5.23-1.23","6125a71575ce1cc4f554b8b0","D2","batch4","tol_practice","431","","","","","","","","","tol_peg_3","431","431","0","[[1,3,0],[0,0],[2]]","25","[[0,0,0],[3,1],[2]]","practice","431","","","","","","","","","","",""
"","","","","","single-stim-button","185","801775","0.0-3.0-5.24-0.24","6125a71575ce1cc4f554b8b0","D2","batch4","tol_practice","688","","","","","","","","","tol_peg_1","688","688","0","[[1,0,0],[0,0],[2]]","26","[[0,0,0],[3,1],[2]]","practice","688","","","","","","","","","","",""
"","","","","","single-stim-button","186","802108","0.0-3.0-5.24-1.24","6125a71575ce1cc4f554b8b0","D2","batch4","tol_practice","333","","","","","","","","","tol_peg_2","333","333","0","[[1,0,0],[3,0],[2]]","26","[[0,0,0],[3,1],[2]]","practice","333","","","","","","","","","","",""
"","","","","","single-stim-button","187","815206","0.0-3.0-5.25-0.25","6125a71575ce1cc4f554b8b0","D2","batch4","tol_practice","13098","","","","","","","","","tol_peg_1","13098","13098","0","[[0,0,0],[3,0],[2]]","27","[[0,0,0],[3,1],[2]]","practice","13098","","","","","","","","","","",""
"","","","","","single-stim-button","188","815732","0.0-3.0-5.25-1.25","6125a71575ce1cc4f554b8b0","D2","batch4","tol_practice","525","","","","","","","","","tol_peg_2","525","525","0","[[0,0,0],[3,1],[2]]","27","[[0,0,0],[3,1],[2]]","practice","525","","","","","","","","","","",""
"","","","","","poldrack-single-stim","189","816747","0.0-3.0-6.0","6125a71575ce1cc4f554b8b0","D2","batch4","tol_feedback","-1","","","","","true","","","","","1000","1000","500","","","","","","-1","none","true","","0","","","","","",""
"","","","","","single-stim-button","190","822204","0.0-3.0-7.0-0.0","6125a71575ce1cc4f554b8b0","D2","batch4","tol_practice","5456","","","","","","","","","tol_peg_2","5456","5456","0","[[1,2,0],[0,0],[0]]","28","[[1,0,0],[2,0],[3]]","practice","5456","","","","","","","","","","",""
"","","","","","single-stim-button","191","823036","0.0-3.0-7.0-1.0","6125a71575ce1cc4f554b8b0","D2","batch4","tol_practice","831","","","","","","","","","tol_peg_3","831","831","0","[[1,2,0],[0,0],[3]]","28","[[1,0,0],[2,0],[3]]","practice","831","","","","","","","","","","",""
"","","","","","single-stim-button","192","823532","0.0-3.0-7.1-0.1","6125a71575ce1cc4f554b8b0","D2","batch4","tol_practice","496","","","","","","","","","tol_peg_1","496","496","0","[[1,0,0],[0,0],[3]]","29","[[1,0,0],[2,0],[3]]","practice","496","","","","","","","","","","",""
"","","","","","single-stim-button","193","823980","0.0-3.0-7.1-1.1","6125a71575ce1cc4f554b8b0","D2","batch4","tol_practice","447","","","","","","","","","tol_peg_2","447","447","0","[[1,0,0],[2,0],[3]]","29","[[1,0,0],[2,0],[3]]","practice","447","","","","","","","","","","",""
"","","","","","poldrack-single-stim","194","824992","0.0-3.0-8.0","6125a71575ce1cc4f554b8b0","D2","batch4","tol_feedback","-1","","","","","true","","","","","1000","1000","500","","","","","","-1","none","true","","0","","","","","",""
"","","","","","html-button-response","195","826828","0.0-3.0-9.0","6125a71575ce1cc4f554b8b0","D2","batch4","tol_instruction","1834.5","<div class = centerbox><p class = center-block-text>Great job! You are done with practice trials<br>You are about to start official trials.<br> <br> Problem <strong>1</strong> out of 25 problems</p></div>","0","","","","","","","","","","","","","","","","","","","","","","","","","",""
"","","","","","single-stim-button","196","834250","0.0-3.0-10.0-0.0","6125a71575ce1cc4f554b8b0","D2","batch4","tol_tohand","6420","","","","","","","","","tol_peg_1","6420","6420","0","[[1,0,0],[3,0],[0]]","1","[[1,3,0],[2,0],[0]]","0","0","","","","","","3","","","","",""
"","","","","","single-stim-button","197","835230","0.0-3.0-10.0-1.0","6125a71575ce1cc4f554b8b0","D2","batch4","tol_toboard","979","","","","","","","","","tol_peg_3","979","979","0","[[1,0,0],[3,0],[2]]","1","[[1,3,0],[2,0],[0]]","0","0","","","","","","3","","","","",""
"","","","","","single-stim-button","198","835964","0.0-3.0-10.1-0.1","6125a71575ce1cc4f554b8b0","D2","batch4","tol_tohand","733","","","","","","","","","tol_peg_2","733","733","0","[[1,0,0],[0,0],[2]]","2","[[1,3,0],[2,0],[0]]","0","0","","","","","","3","","","","",""
"","","","","","single-stim-button","199","836428","0.0-3.0-10.1-1.1","6125a71575ce1cc4f554b8b0","D2","batch4","tol_toboard","463","","","","","","","","","tol_peg_1","463","463","0","[[1,3,0],[0,0],[2]]","2","[[1,3,0],[2,0],[0]]","0","0","","","","","","3","","","","",""
"","","","","","single-stim-button","200","837230","0.0-3.0-10.2-0.2","6125a71575ce1cc4f554b8b0","D2","batch4","tol_tohand","802","","","","","","","","","tol_peg_3","802","802","0","[[1,3,0],[0,0],[0]]","3","[[1,3,0],[2,0],[0]]","0","0","","","","","","3","","","","",""
"","","","","","single-stim-button","201","837824","0.0-3.0-10.2-1.2","6125a71575ce1cc4f554b8b0","D2","batch4","tol_toboard","594","","","","","","","","","tol_peg_2","594","594","0","[[1,3,0],[2,0],[0]]","3","[[1,3,0],[2,0],[0]]","0","0","","","","","","3","","","","",""
"","","","","","poldrack-single-stim","202","838830","0.0-3.0-11.0","6125a71575ce1cc4f554b8b0","D2","batch4","tol_feedback","-1","","","","","true","","","","","1000","1000","500","","","","","","-1","none","true","6420","7955","","","","","",""
"","","","","","html-button-response","203","839678","0.0-3.0-12.0","6125a71575ce1cc4f554b8b0","D2","batch4","tol_trial_num","846.4000000059605","<div class = centerbox><p class = center-block-text>problem <strong>2</strong> out of 25 problems</p></div>","0","","","","","","","","","","","","","","","","","","","","","","","","","",""
"","","","","","single-stim-button","204","850311","0.0-3.0-13.0-0.0","6125a71575ce1cc4f554b8b0","D2","batch4","tol_tohand","10633","","","","","","","","","tol_peg_1","10633","10633","0","[[1,0,0],[3,0],[0]]","1","[[2,1,3],[0,0],[0]]","1","0","","","","","","5","","","","",""
"","","","","","single-stim-button","205","851076","0.0-3.0-13.0-1.0","6125a71575ce1cc4f554b8b0","D2","batch4","tol_toboard","764","","","","","","","","","tol_peg_2","764","764","0","[[1,0,0],[3,2],[0]]","1","[[2,1,3],[0,0],[0]]","1","0","","","","","","5","","","","",""
"","","","","","single-stim-button","206","851594","0.0-3.0-13.1-0.1","6125a71575ce1cc4f554b8b0","D2","batch4","tol_tohand","518","","","","","","","","","tol_peg_1","518","518","0","[[0,0,0],[3,2],[0]]","2","[[2,1,3],[0,0],[0]]","1","0","","","","","","5","","","","",""
"","","","","","single-stim-button","207","852126","0.0-3.0-13.1-1.1","6125a71575ce1cc4f554b8b0","D2","batch4","tol_toboard","532","","","","","","","","","tol_peg_3","532","532","0","[[0,0,0],[3,2],[1]]","2","[[2,1,3],[0,0],[0]]","1","0","","","","","","5","","","","",""
"","","","","","single-stim-button","208","852836","0.0-3.0-13.2-0.2","6125a71575ce1cc4f554b8b0","D2","batch4","tol_tohand","710","","","","","","","","","tol_peg_2","710","710","0","[[0,0,0],[3,0],[1]]","3","[[2,1,3],[0,0],[0]]","1","0","","","","","","5","","","","",""
"","","","","","single-stim-button","209","853453","0.0-3.0-13.2-1.2","6125a71575ce1cc4f554b8b0","D2","batch4","tol_toboard","617","","","","","","","","","tol_peg_1","617","617","0","[[2,0,0],[3,0],[1]]","3","[[2,1,3],[0,0],[0]]","1","0","","","","","","5","","","","",""
"","","","","","single-stim-button","210","853981","0.0-3.0-13.3-0.3","6125a71575ce1cc4f554b8b0","D2","batch4","tol_tohand","527","","","","","","","","","tol_peg_3","527","527","0","[[2,0,0],[3,0],[0]]","4","[[2,1,3],[0,0],[0]]","1","0","","","","","","5","","","","",""
"","","","","","single-stim-button","211","854606","0.0-3.0-13.3-1.3","6125a71575ce1cc4f554b8b0","D2","batch4","tol_toboard","625","","","","","","","","","tol_peg_1","625","625","0","[[2,1,0],[3,0],[0]]","4","[[2,1,3],[0,0],[0]]","1","0","","","","","","5","","","","",""
"","","","","","single-stim-button","212","855602","0.0-3.0-13.4-0.4","6125a71575ce1cc4f554b8b0","D2","batch4","tol_tohand","995","","","","","","","","","tol_peg_2","995","995","0","[[2,1,0],[0,0],[0]]","5","[[2,1,3],[0,0],[0]]","1","0","","","","","","5","","","","",""
"","","","","","single-stim-button","213","856158","0.0-3.0-13.4-1.4","6125a71575ce1cc4f554b8b0","D2","batch4","tol_toboard","555","","","","","","","","","tol_peg_1","555","555","0","[[2,1,3],[0,0],[0]]","5","[[2,1,3],[0,0],[0]]","1","0","","","","","","5","","","","",""
"","","","","","poldrack-single-stim","214","857161","0.0-3.0-14.0","6125a71575ce1cc4f554b8b0","D2","batch4","tol_feedback","-1","","","","","true","","","","","1000","1000","500","","","","","","-1","none","true","10633","13383","","","","","",""
"","","","","","html-button-response","215","857810","0.0-3.0-15.0","6125a71575ce1cc4f554b8b0","D2","batch4","tol_trial_num","647.1000000089407","<div class = centerbox><p class = center-block-text>problem <strong>3</strong> out of 25 problems</p></div>","0","","","","","","","","","","","","","","","","","","","","","","","","","",""
"","","","","","single-stim-button","216","865318","0.0-3.0-16.0-0.0","6125a71575ce1cc4f554b8b0","D2","batch4","tol_tohand","7508","","","","","","","","","tol_peg_1","7508","7508","0","[[2,0,0],[0,0],[1]]","1","[[1,2,0],[3,0],[0]]","2","0","","","","","","4","","","","",""
"","","","","","single-stim-button","217","866228","0.0-3.0-16.0-1.0","6125a71575ce1cc4f554b8b0","D2","batch4","tol_toboard","910","","","","","","","","","tol_peg_2","910","910","0","[[2,0,0],[3,0],[1]]","1","[[1,2,0],[3,0],[0]]","2","0","","","","","","4","","","","",""
"","","","","","single-stim-button","218","866824","0.0-3.0-16.1-0.1","6125a71575ce1cc4f554b8b0","D2","batch4","tol_tohand","596","","","","","","","","","tol_peg_1","596","596","0","[[0,0,0],[3,0],[1]]","2","[[1,2,0],[3,0],[0]]","2","0","","","","","","4","","","","",""
"","","","","","single-stim-button","219","867434","0.0-3.0-16.1-1.1","6125a71575ce1cc4f554b8b0","D2","batch4","tol_toboard","610","","","","","","","","","tol_peg_2","610","610","0","[[0,0,0],[3,2],[1]]","2","[[1,2,0],[3,0],[0]]","2","0","","","","","","4","","","","",""
"","","","","","single-stim-button","220","867813","0.0-3.0-16.2-0.2","6125a71575ce1cc4f554b8b0","D2","batch4","tol_tohand","378","","","","","","","","","tol_peg_3","378","378","0","[[0,0,0],[3,2],[0]]","3","[[1,2,0],[3,0],[0]]","2","0","","","","","","4","","","","",""
"","","","","","single-stim-button","221","868399","0.0-3.0-16.2-1.2","6125a71575ce1cc4f554b8b0","D2","batch4","tol_toboard","585","","","","","","","","","tol_peg_1","585","585","0","[[1,0,0],[3,2],[0]]","3","[[1,2,0],[3,0],[0]]","2","0","","","","","","4","","","","",""
"","","","","","single-stim-button","222","868994","0.0-3.0-16.3-0.3","6125a71575ce1cc4f554b8b0","D2","batch4","tol_tohand","595","","","","","","","","","tol_peg_2","595","595","0","[[1,0,0],[3,0],[0]]","4","[[1,2,0],[3,0],[0]]","2","0","","","","","","4","","","","",""
"","","","","","single-stim-button","223","869456","0.0-3.0-16.3-1.3","6125a71575ce1cc4f554b8b0","D2","batch4","tol_toboard","462","","","","","","","","","tol_peg_1","462","462","0","[[1,2,0],[3,0],[0]]","4","[[1,2,0],[3,0],[0]]","2","0","","","","","","4","","","","",""
"","","","","","poldrack-single-stim","224","870468","0.0-3.0-17.0","6125a71575ce1cc4f554b8b0","D2","batch4","tol_feedback","-1","","","","","true","","","","","1000","1000","500","","","","","","-1","none","true","7508","9077","","","","","",""
"","","","","","html-button-response","225","871294","0.0-3.0-18.0","6125a71575ce1cc4f554b8b0","D2","batch4","tol_trial_num","825","<div class = centerbox><p class = center-block-text>problem <strong>4</strong> out of 25 problems</p></div>","0","","","","","","","","","","","","","","","","","","","","","","","","","",""
"","","","","","single-stim-button","226","876222","0.0-3.0-19.0-0.0","6125a71575ce1cc4f554b8b0","D2","batch4","tol_tohand","4928","","","","","","","","","tol_peg_2","4928","4928","0","[[3,0,0],[2,0],[0]]","1","[[3,0,0],[1,0],[2]]","3","0","","","","","","3","","","","",""
"","","","","","single-stim-button","227","876971","0.0-3.0-19.0-1.0","6125a71575ce1cc4f554b8b0","D2","batch4","tol_toboard","747","","","","","","","","","tol_peg_1","747","747","0","[[3,1,0],[2,0],[0]]","1","[[3,0,0],[1,0],[2]]","3","0","","","","","","3","","","","",""
"","","","","","single-stim-button","228","877388","0.0-3.0-19.1-0.1","6125a71575ce1cc4f554b8b0","D2","batch4","tol_tohand","417","","","","","","","","","tol_peg_2","417","417","0","[[3,1,0],[0,0],[0]]","2","[[3,0,0],[1,0],[2]]","3","0","","","","","","3","","","","",""
"","","","","","single-stim-button","229","877742","0.0-3.0-19.1-1.1","6125a71575ce1cc4f554b8b0","D2","batch4","tol_toboard","353","","","","","","","","","tol_peg_3","353","353","0","[[3,1,0],[0,0],[2]]","2","[[3,0,0],[1,0],[2]]","3","0","","","","","","3","","","","",""
"","","","","","single-stim-button","230","878127","0.0-3.0-19.2-0.2","6125a71575ce1cc4f554b8b0","D2","batch4","tol_tohand","385","","","","","","","","","tol_peg_1","385","385","0","[[3,0,0],[0,0],[2]]","3","[[3,0,0],[1,0],[2]]","3","0","","","","","","3","","","","",""
"","","","","","single-stim-button","231","879010","0.0-3.0-19.2-1.2","6125a71575ce1cc4f554b8b0","D2","batch4","tol_toboard","883","","","","","","","","","tol_peg_2","883","883","0","[[3,0,0],[1,0],[2]]","3","[[3,0,0],[1,0],[2]]","3","0","","","","","","3","","","","",""
"","","","","","poldrack-single-stim","232","880013","0.0-3.0-20.0","6125a71575ce1cc4f554b8b0","D2","batch4","tol_feedback","-1","","","","","true","","","","","1000","1000","500","","","","","","-1","none","true","4928","5730","","","","","",""
"","","","","","html-button-response","233","880924","0.0-3.0-21.0","6125a71575ce1cc4f554b8b0","D2","batch4","tol_trial_num","909.7000000029802","<div class = centerbox><p class = center-block-text>problem <strong>5</strong> out of 25 problems</p></div>","0","","","","","","","","","","","","","","","","","","","","","","","","","",""
"","","","","","single-stim-button","234","887728","0.0-3.0-22.0-0.0","6125a71575ce1cc4f554b8b0","D2","batch4","tol_tohand","6804","","","","","","","","","tol_peg_1","6804","6804","0","[[0,0,0],[2,0],[3]]","1","[[0,0,0],[1,2],[3]]","4","0","","","","","","7","","","","",""
"","","","","","single-stim-button","235","888346","0.0-3.0-22.0-1.0","6125a71575ce1cc4f554b8b0","D2","batch4","tol_toboard","618","","","","","","","","","tol_peg_2","618","618","0","[[0,0,0],[2,1],[3]]","1","[[0,0,0],[1,2],[3]]","4","0","","","","","","7","","","","",""
"","","","","","single-stim-button","236","894912","0.0-3.0-22.1-0.1","6125a71575ce1cc4f554b8b0","D2","batch4","tol_tohand","6566","","","","","","","","","tol_peg_3","6566","6566","0","[[0,0,0],[2,1],[0]]","2","[[0,0,0],[1,2],[3]]","4","0","","","","","","7","","","","",""
"","","","","","single-stim-button","237","895646","0.0-3.0-22.1-1.1","6125a71575ce1cc4f554b8b0","D2","batch4","tol_toboard","733","","","","","","","","","tol_peg_1","733","733","0","[[3,0,0],[2,1],[0]]","2","[[0,0,0],[1,2],[3]]","4","0","","","","","","7","","","","",""
"","","","","","single-stim-button","238","896054","0.0-3.0-22.2-0.2","6125a71575ce1cc4f554b8b0","D2","batch4","tol_tohand","408","","","","","","","","","tol_peg_2","408","408","0","[[3,0,0],[2,0],[0]]","3","[[0,0,0],[1,2],[3]]","4","0","","","","","","7","","","","",""
"","","","","","single-stim-button","239","896726","0.0-3.0-22.2-1.2","6125a71575ce1cc4f554b8b0","D2","batch4","tol_toboard","672","","","","","","","","","tol_peg_3","672","672","0","[[3,0,0],[2,0],[1]]","3","[[0,0,0],[1,2],[3]]","4","0","","","","","","7","","","","",""
"","","","","","single-stim-button","240","902048","0.0-3.0-22.3-0.3","6125a71575ce1cc4f554b8b0","D2","batch4","tol_tohand","5322","","","","","","","","","tol_peg_2","5322","5322","0","[[3,0,0],[0,0],[1]]","4","[[0,0,0],[1,2],[3]]","4","0","","","","","","7","","","","",""
"","","","","","single-stim-button","241","902480","0.0-3.0-22.3-1.3","6125a71575ce1cc4f554b8b0","D2","batch4","tol_toboard","432","","","","","","","","","tol_peg_1","432","432","0","[[3,2,0],[0,0],[1]]","4","[[0,0,0],[1,2],[3]]","4","0","","","","","","7","","","","",""
"","","","","","single-stim-button","242","902906","0.0-3.0-22.4-0.4","6125a71575ce1cc4f554b8b0","D2","batch4","tol_tohand","426","","","","","","","","","tol_peg_3","426","426","0","[[3,2,0],[0,0],[0]]","5","[[0,0,0],[1,2],[3]]","4","0","","","","","","7","","","","",""
"","","","","","single-stim-button","243","903454","0.0-3.0-22.4-1.4","6125a71575ce1cc4f554b8b0","D2","batch4","tol_toboard","546","","","","","","","","","tol_peg_2","546","546","0","[[3,2,0],[1,0],[0]]","5","[[0,0,0],[1,2],[3]]","4","0","","","","","","7","","","","",""
"","","","","","single-stim-button","244","904612","0.0-3.0-22.5-0.5","6125a71575ce1cc4f554b8b0","D2","batch4","tol_tohand","1158","","","","","","","","","tol_peg_1","1158","1158","0","[[3,0,0],[1,0],[0]]","6","[[0,0,0],[1,2],[3]]","4","0","","","","","","7","","","","",""
"","","","","","single-stim-button","245","905090","0.0-3.0-22.5-1.5","6125a71575ce1cc4f554b8b0","D2","batch4","tol_toboard","477","","","","","","","","","tol_peg_2","477","477","0","[[3,0,0],[1,2],[0]]","6","[[0,0,0],[1,2],[3]]","4","0","","","","","","7","","","","",""
"","","","","","single-stim-button","246","905475","0.0-3.0-22.6-0.6","6125a71575ce1cc4f554b8b0","D2","batch4","tol_tohand","385","","","","","","","","","tol_peg_1","385","385","0","[[0,0,0],[1,2],[0]]","7","[[0,0,0],[1,2],[3]]","4","0","","","","","","7","","","","",""
"","","","","","single-stim-button","247","906150","0.0-3.0-22.6-1.6","6125a71575ce1cc4f554b8b0","D2","batch4","tol_toboard","674","","","","","","","","","tol_peg_3","674","674","0","[[0,0,0],[1,2],[3]]","7","[[0,0,0],[1,2],[3]]","4","0","","","","","","7","","","","",""
"","","","","","poldrack-single-stim","248","907151","0.0-3.0-23.0","6125a71575ce1cc4f554b8b0","D2","batch4","tol_feedback","-1","","","","","true","","","","","1000","1000","500","","","","","","-1","none","true","6804","21069","","","","","",""
"","","","","","html-button-response","249","907810","0.0-3.0-24.0","6125a71575ce1cc4f554b8b0","D2","batch4","tol_trial_num","657.5999999940395","<div class = centerbox><p class = center-block-text>problem <strong>6</strong> out of 25 problems</p></div>","0","","","","","","","","","","","","","","","","","","","","","","","","","",""
"","","","","","single-stim-button","250","951959","0.0-3.0-25.0-0.0","6125a71575ce1cc4f554b8b0","D2","batch4","tol_tohand","44149","","","","","","","","","tol_peg_2","44149","44149","0","[[0,0,0],[1,0],[3]]","1","[[1,0,0],[2,3],[0]]","5","0","","","","","","6","","","","",""
"","","","","","single-stim-button","251","952608","0.0-3.0-25.0-1.0","6125a71575ce1cc4f554b8b0","D2","batch4","tol_toboard","647","","","","","","","","","tol_peg_1","647","647","0","[[2,0,0],[1,0],[3]]","1","[[1,0,0],[2,3],[0]]","5","0","","","","","","6","","","","",""
"","","","","","single-stim-button","252","955736","0.0-3.0-25.1-0.1","6125a71575ce1cc4f554b8b0","D2","batch4","tol_tohand","3128","","","","","","","","","tol_peg_3","3128","3128","0","[[2,0,0],[1,0],[0]]","2","[[1,0,0],[2,3],[0]]","5","0","","","","","","6","","","","",""
"","","","","","single-stim-button","253","956508","0.0-3.0-25.1-1.1","6125a71575ce1cc4f554b8b0","D2","batch4","tol_toboard","771","","","","","","","","","tol_peg_1","771","771","0","[[2,3,0],[1,0],[0]]","2","[[1,0,0],[2,3],[0]]","5","0","","","","","","6","","","","",""
"","","","","","single-stim-button","254","957072","0.0-3.0-25.2-0.2","6125a71575ce1cc4f554b8b0","D2","batch4","tol_tohand","563","","","","","","","","","tol_peg_2","563","563","0","[[2,3,0],[0,0],[0]]","3","[[1,0,0],[2,3],[0]]","5","0","","","","","","6","","","","",""
"","","","","","single-stim-button","255","957784","0.0-3.0-25.2-1.2","6125a71575ce1cc4f554b8b0","D2","batch4","tol_toboard","712","","","","","","","","","tol_peg_3","712","712","0","[[2,3,0],[0,0],[1]]","3","[[1,0,0],[2,3],[0]]","5","0","","","","","","6","","","","",""
"","","","","","single-stim-button","256","958593","0.0-3.0-25.3-0.3","6125a71575ce1cc4f554b8b0","D2","batch4","tol_tohand","809","","","","","","","","","tol_peg_1","809","809","0","[[2,0,0],[0,0],[1]]","4","[[1,0,0],[2,3],[0]]","5","0","","","","","","6","","","","",""
"","","","","","single-stim-button","257","959004","0.0-3.0-25.3-1.3","6125a71575ce1cc4f554b8b0","D2","batch4","tol_toboard","410","","","","","","","","","tol_peg_2","410","410","0","[[2,0,0],[3,0],[1]]","4","[[1,0,0],[2,3],[0]]","5","0","","","","","","6","","","","",""
"","","","","","single-stim-button","258","960132","0.0-3.0-25.4-0.4","6125a71575ce1cc4f554b8b0","D2","batch4","tol_tohand","1128","","","","","","","","","tol_peg_1","1128","1128","0","[[0,0,0],[3,0],[1]]","5","[[1,0,0],[2,3],[0]]","5","0","","","","","","6","","","","",""
"","","","","","single-stim-button","259","960718","0.0-3.0-25.4-1.4","6125a71575ce1cc4f554b8b0","D2","batch4","tol_toboard","585","","","","","","","","","tol_peg_2","585","585","0","[[0,0,0],[3,2],[1]]","5","[[1,0,0],[2,3],[0]]","5","0","","","","","","6","","","","",""
"","","","","","single-stim-button","260","961112","0.0-3.0-25.5-0.5","6125a71575ce1cc4f554b8b0","D2","batch4","tol_tohand","393","","","","","","","","","tol_peg_3","393","393","0","[[0,0,0],[3,2],[0]]","6","[[1,0,0],[2,3],[0]]","5","0","","","","","","6","","","","",""
"","","","","","single-stim-button","261","961622","0.0-3.0-25.5-1.5","6125a71575ce1cc4f554b8b0","D2","batch4","tol_toboard","509","","","","","","","","","tol_peg_1","509","509","0","[[1,0,0],[3,2],[0]]","6","[[1,0,0],[2,3],[0]]","5","0","","","","","","6","","","","",""
"","","","","","single-stim-button","262","962656","0.0-3.0-25.6-0.6","6125a71575ce1cc4f554b8b0","D2","batch4","tol_tohand","1033","","","","","","","","","tol_peg_2","1033","1033","0","[[1,0,0],[3,0],[0]]","7","[[1,0,0],[2,3],[0]]","5","0","","","","","","6","","","","",""
"","","","","","single-stim-button","263","962965","0.0-3.0-25.6-1.6","6125a71575ce1cc4f554b8b0","D2","batch4","tol_toboard","309","","","","","","","","","tol_peg_1","309","309","0","[[1,2,0],[3,0],[0]]","7","[[1,0,0],[2,3],[0]]","5","0","","","","","","6","","","","",""
"","","","","","single-stim-button","264","963598","0.0-3.0-25.7-0.7","6125a71575ce1cc4f554b8b0","D2","batch4","tol_tohand","631","","","","","","","","","tol_peg_2","631","631","0","[[1,2,0],[0,0],[0]]","8","[[1,0,0],[2,3],[0]]","5","0","","","","","","6","","","","",""
"","","","","","single-stim-button","265","964332","0.0-3.0-25.7-1.7","6125a71575ce1cc4f554b8b0","D2","batch4","tol_toboard","734","","","","","","","","","tol_peg_3","734","734","0","[[1,2,0],[0,0],[3]]","8","[[1,0,0],[2,3],[0]]","5","0","","","","","","6","","","","",""
"","","","","","single-stim-button","266","964825","0.0-3.0-25.8-0.8","6125a71575ce1cc4f554b8b0","D2","batch4","tol_tohand","492","","","","","","","","","tol_peg_1","492","492","0","[[1,0,0],[0,0],[3]]","9","[[1,0,0],[2,3],[0]]","5","0","","","","","","6","","","","",""
"","","","","","single-stim-button","267","965282","0.0-3.0-25.8-1.8","6125a71575ce1cc4f554b8b0","D2","batch4","tol_toboard","455","","","","","","","","","tol_peg_2","455","455","0","[[1,0,0],[2,0],[3]]","9","[[1,0,0],[2,3],[0]]","5","0","","","","","","6","","","","",""
"","","","","","single-stim-button","268","966533","0.0-3.0-25.9-0.9","6125a71575ce1cc4f554b8b0","D2","batch4","tol_tohand","1251","","","","","","","","","tol_peg_3","1251","1251","0","[[1,0,0],[2,0],[0]]","10","[[1,0,0],[2,3],[0]]","5","0","","","","","","6","","","","",""
"","","","","","single-stim-button","269","966888","0.0-3.0-25.9-1.9","6125a71575ce1cc4f554b8b0","D2","batch4","tol_toboard","354","","","","","","","","","tol_peg_2","354","354","0","[[1,0,0],[2,3],[0]]","10","[[1,0,0],[2,3],[0]]","5","0","","","","","","6","","","","",""
"","","","","","poldrack-single-stim","270","967889","0.0-3.0-26.0","6125a71575ce1cc4f554b8b0","D2","batch4","tol_feedback","-1","","","","","true","","","","","1000","1000","500","","","","","","-1","none","true","44149","53577","","","","","",""
"","","","","","html-button-response","271","968580","0.0-3.0-27.0","6125a71575ce1cc4f554b8b0","D2","batch4","tol_trial_num","689.6000000089407","<div class = centerbox><p class = center-block-text>problem <strong>7</strong> out of 25 problems</p></div>","0","","","","","","","","","","","","","","","","","","","","","","","","","",""
"","","","","","single-stim-button","272","970657","0.0-3.0-28.0-0.0","6125a71575ce1cc4f554b8b0","D2","batch4","tol_tohand","2077","","","","","","","","","tol_peg_3","2077","2077","0","[[2,1,0],[0,0],[0]]","1","[[1,2,0],[3,0],[0]]","6","0","","","","","","5","","","","",""
"","","","","","single-stim-button","273","971238","0.0-3.0-28.0-1.0","6125a71575ce1cc4f554b8b0","D2","batch4","tol_toboard","580","","","","","","","","","tol_peg_2","580","580","0","[[2,1,0],[3,0],[0]]","1","[[1,2,0],[3,0],[0]]","6","0","","","","","","5","","","","",""
"","","","","","single-stim-button","274","973214","0.0-3.0-28.1-0.1","6125a71575ce1cc4f554b8b0","D2","batch4","tol_tohand","1975","","","","","","","","","tol_peg_1","1975","1975","0","[[2,0,0],[3,0],[0]]","2","[[1,2,0],[3,0],[0]]","6","0","","","","","","5","","","","",""
"","","","","","single-stim-button","275","974287","0.0-3.0-28.1-1.1","6125a71575ce1cc4f554b8b0","D2","batch4","tol_toboard","1072","","","","","","","","","tol_peg_3","1072","1072","0","[[2,0,0],[3,0],[1]]","2","[[1,2,0],[3,0],[0]]","6","0","","","","","","5","","","","",""
"","","","","","single-stim-button","276","974906","0.0-3.0-28.2-0.2","6125a71575ce1cc4f554b8b0","D2","batch4","tol_tohand","618","","","","","","","","","tol_peg_1","618","618","0","[[0,0,0],[3,0],[1]]","3","[[1,2,0],[3,0],[0]]","6","0","","","","","","5","","","","",""
"","","","","","single-stim-button","277","975260","0.0-3.0-28.2-1.2","6125a71575ce1cc4f554b8b0","D2","batch4","tol_toboard","353","","","","","","","","","tol_peg_2","353","353","0","[[0,0,0],[3,2],[1]]","3","[[1,2,0],[3,0],[0]]","6","0","","","","","","5","","","","",""
"","","","","","single-stim-button","278","975607","0.0-3.0-28.3-0.3","6125a71575ce1cc4f554b8b0","D2","batch4","tol_tohand","347","","","","","","","","","tol_peg_3","347","347","0","[[0,0,0],[3,2],[0]]","4","[[1,2,0],[3,0],[0]]","6","0","","","","","","5","","","","",""
"","","","","","single-stim-button","279","975977","0.0-3.0-28.3-1.3","6125a71575ce1cc4f554b8b0","D2","batch4","tol_toboard","369","","","","","","","","","tol_peg_1","369","369","0","[[1,0,0],[3,2],[0]]","4","[[1,2,0],[3,0],[0]]","6","0","","","","","","5","","","","",""
"","","","","","single-stim-button","280","976342","0.0-3.0-28.4-0.4","6125a71575ce1cc4f554b8b0","D2","batch4","tol_tohand","365","","","","","","","","","tol_peg_2","365","365","0","[[1,0,0],[3,0],[0]]","5","[[1,2,0],[3,0],[0]]","6","0","","","","","","5","","","","",""
"","","","","","single-stim-button","281","976673","0.0-3.0-28.4-1.4","6125a71575ce1cc4f554b8b0","D2","batch4","tol_toboard","330","","","","","","","","","tol_peg_1","330","330","0","[[1,2,0],[3,0],[0]]","5","[[1,2,0],[3,0],[0]]","6","0","","","","","","5","","","","",""
"","","","","","poldrack-single-stim","282","977687","0.0-3.0-29.0","6125a71575ce1cc4f554b8b0","D2","batch4","tol_feedback","-1","","","","","true","","","","","1000","1000","500","","","","","","-1","none","true","2077","5382","","","","","",""
"","","","","","html-button-response","283","978743","0.0-3.0-30.0","6125a71575ce1cc4f554b8b0","D2","batch4","tol_trial_num","1055.4000000059605","<div class = centerbox><p class = center-block-text>problem <strong>8</strong> out of 25 problems</p></div>","0","","","","","","","","","","","","","","","","","","","","","","","","","",""
"","","","","","single-stim-button","284","982150","0.0-3.0-31.0-0.0","6125a71575ce1cc4f554b8b0","D2","batch4","tol_tohand","3406","","","","","","","","","tol_peg_3","3406","3406","0","[[0,0,0],[2,3],[0]]","1","[[1,2,0],[3,0],[0]]","7","0","","","","","","4","","","","",""
"","","","","","single-stim-button","285","983215","0.0-3.0-31.0-1.0","6125a71575ce1cc4f554b8b0","D2","batch4","tol_toboard","1065","","","","","","","","","tol_peg_1","1065","1065","0","[[1,0,0],[2,3],[0]]","1","[[1,2,0],[3,0],[0]]","7","0","","","","","","4","","","","",""
"","","","","","single-stim-button","286","983663","0.0-3.0-31.1-0.1","6125a71575ce1cc4f554b8b0","D2","batch4","tol_tohand","448","","","","","","","","","tol_peg_2","448","448","0","[[1,0,0],[2,0],[0]]","2","[[1,2,0],[3,0],[0]]","7","0","","","","","","4","","","","",""
"","","","","","single-stim-button","287","983979","0.0-3.0-31.1-1.1","6125a71575ce1cc4f554b8b0","D2","batch4","tol_toboard","315","","","","","","","","","tol_peg_3","315","315","0","[[1,0,0],[2,0],[3]]","2","[[1,2,0],[3,0],[0]]","7","0","","","","","","4","","","","",""
"","","","","","single-stim-button","288","984320","0.0-3.0-31.2-0.2","6125a71575ce1cc4f554b8b0","D2","batch4","tol_tohand","340","","","","","","","","","tol_peg_2","340","340","0","[[1,0,0],[0,0],[3]]","3","[[1,2,0],[3,0],[0]]","7","0","","","","","","4","","","","",""
"","","","","","single-stim-button","289","985478","0.0-3.0-31.2-1.2","6125a71575ce1cc4f554b8b0","D2","batch4","tol_toboard","1157","","","","","","","","","tol_peg_1","1157","1157","0","[[1,2,0],[0,0],[3]]","3","[[1,2,0],[3,0],[0]]","7","0","","","","","","4","","","","",""
"","","","","","single-stim-button","290","985888","0.0-3.0-31.3-0.3","6125a71575ce1cc4f554b8b0","D2","batch4","tol_tohand","410","","","","","","","","","tol_peg_3","410","410","0","[[1,2,0],[0,0],[0]]","4","[[1,2,0],[3,0],[0]]","7","0","","","","","","4","","","","",""
"","","","","","single-stim-button","291","986443","0.0-3.0-31.3-1.3","6125a71575ce1cc4f554b8b0","D2","batch4","tol_toboard","555","","","","","","","","","tol_peg_2","555","555","0","[[1,2,0],[3,0],[0]]","4","[[1,2,0],[3,0],[0]]","7","0","","","","","","4","","","","",""
"","","","","","poldrack-single-stim","292","987456","0.0-3.0-32.0","6125a71575ce1cc4f554b8b0","D2","batch4","tol_feedback","-1","","","","","true","","","","","1000","1000","500","","","","","","-1","none","true","3406","4604","","","","","",""
"","","","","","html-button-response","293","988111","0.0-3.0-33.0","6125a71575ce1cc4f554b8b0","D2","batch4","tol_trial_num","654.1000000089407","<div class = centerbox><p class = center-block-text>problem <strong>9</strong> out of 25 problems</p></div>","0","","","","","","","","","","","","","","","","","","","","","","","","","",""
"","","","","","single-stim-button","294","1015521","0.0-3.0-34.0-0.0","6125a71575ce1cc4f554b8b0","D2","batch4","tol_tohand","27409","","","","","","","","","tol_peg_1","27409","27409","0","[[3,0,0],[0,0],[1]]","1","[[2,1,0],[3,0],[0]]","8","0","","","","","","6","","","","",""
"","","","","","single-stim-button","295","1016170","0.0-3.0-34.0-1.0","6125a71575ce1cc4f554b8b0","D2","batch4","tol_toboard","648","","","","","","","","","tol_peg_2","648","648","0","[[3,0,0],[2,0],[1]]","1","[[2,1,0],[3,0],[0]]","8","0","","","","","","6","","","","",""
"","","","","","single-stim-button","296","1016618","0.0-3.0-34.1-0.1","6125a71575ce1cc4f554b8b0","D2","batch4","tol_tohand","447","","","","","","","","","tol_peg_3","447","447","0","[[3,0,0],[2,0],[0]]","2","[[2,1,0],[3,0],[0]]","8","0","","","","","","6","","","","",""
"","","","","","single-stim-button","297","1016989","0.0-3.0-34.1-1.1","6125a71575ce1cc4f554b8b0","D2","batch4","tol_toboard","369","","","","","","","","","tol_peg_2","369","369","0","[[3,0,0],[2,1],[0]]","2","[[2,1,0],[3,0],[0]]","8","0","","","","","","6","","","","",""
"","","","","","single-stim-button","298","1017328","0.0-3.0-34.2-0.2","6125a71575ce1cc4f554b8b0","D2","batch4","tol_tohand","339","","","","","","","","","tol_peg_1","339","339","0","[[0,0,0],[2,1],[0]]","3","[[2,1,0],[3,0],[0]]","8","0","","","","","","6","","","","",""
"","","","","","single-stim-button","299","1017830","0.0-3.0-34.2-1.2","6125a71575ce1cc4f554b8b0","D2","batch4","tol_toboard","502","","","","","","","","","tol_peg_3","502","502","0","[[0,0,0],[2,1],[3]]","3","[[2,1,0],[3,0],[0]]","8","0","","","","","","6","","","","",""
"","","","","","single-stim-button","300","1019816","0.0-3.0-34.3-0.3","6125a71575ce1cc4f554b8b0","D2","batch4","tol_tohand","1985","","","","","","","","","tol_peg_2","1985","1985","0","[[0,0,0],[2,0],[3]]","4","[[2,1,0],[3,0],[0]]","8","0","","","","","","6","","","","",""
"","","","","","single-stim-button","301","1020286","0.0-3.0-34.3-1.3","6125a71575ce1cc4f554b8b0","D2","batch4","tol_toboard","469","","","","","","","","","tol_peg_1","469","469","0","[[1,0,0],[2,0],[3]]","4","[[2,1,0],[3,0],[0]]","8","0","","","","","","6","","","","",""
"","","","","","single-stim-button","302","1022401","0.0-3.0-34.4-0.4","6125a71575ce1cc4f554b8b0","D2","batch4","tol_tohand","2115","","","","","","","","","tol_peg_3","2115","2115","0","[[1,0,0],[2,0],[0]]","5","[[2,1,0],[3,0],[0]]","8","0","","","","","","6","","","","",""
"","","","","","single-stim-button","303","1022774","0.0-3.0-34.4-1.4","6125a71575ce1cc4f554b8b0","D2","batch4","tol_toboard","372","","","","","","","","","tol_peg_2","372","372","0","[[1,0,0],[2,3],[0]]","5","[[2,1,0],[3,0],[0]]","8","0","","","","","","6","","","","",""
"","","","","","single-stim-button","304","1024348","0.0-3.0-34.5-0.5","6125a71575ce1cc4f554b8b0","D2","batch4","tol_tohand","1574","","","","","","","","","tol_peg_1","1574","1574","0","[[0,0,0],[2,3],[0]]","6","[[2,1,0],[3,0],[0]]","8","0","","","","","","6","","","","",""
"","","","","","single-stim-button","305","1024944","0.0-3.0-34.5-1.5","6125a71575ce1cc4f554b8b0","D2","batch4","tol_toboard","595","","","","","","","","","tol_peg_3","595","595","0","[[0,0,0],[2,3],[1]]","6","[[2,1,0],[3,0],[0]]","8","0","","","","","","6","","","","",""
"","","","","","single-stim-button","306","1025554","0.0-3.0-34.6-0.6","6125a71575ce1cc4f554b8b0","D2","batch4","tol_tohand","610","","","","","","","","","tol_peg_2","610","610","0","[[0,0,0],[2,0],[1]]","7","[[2,1,0],[3,0],[0]]","8","0","","","","","","6","","","","",""
"","","","","","single-stim-button","307","1025886","0.0-3.0-34.6-1.6","6125a71575ce1cc4f554b8b0","D2","batch4","tol_toboard","331","","","","","","","","","tol_peg_1","331","331","0","[[3,0,0],[2,0],[1]]","7","[[2,1,0],[3,0],[0]]","8","0","","","","","","6","","","","",""
"","","","","","single-stim-button","308","1027878","0.0-3.0-34.7-0.7","6125a71575ce1cc4f554b8b0","D2","batch4","tol_tohand","1992","","","","","","","","","tol_peg_2","1992","1992","0","[[3,0,0],[0,0],[1]]","8","[[2,1,0],[3,0],[0]]","8","0","","","","","","6","","","","",""
"","","","","","single-stim-button","309","1028364","0.0-3.0-34.7-1.7","6125a71575ce1cc4f554b8b0","D2","batch4","tol_toboard","486","","","","","","","","","tol_peg_1","486","486","0","[[3,2,0],[0,0],[1]]","8","[[2,1,0],[3,0],[0]]","8","0","","","","","","6","","","","",""
"","","","","","single-stim-button","310","1031182","0.0-3.0-34.8-0.8","6125a71575ce1cc4f554b8b0","D2","batch4","tol_tohand","2817","","","","","","","","","tol_peg_3","2817","2817","0","[[3,2,0],[0,0],[0]]","9","[[2,1,0],[3,0],[0]]","8","0","","","","","","6","","","","",""
"","","","","","single-stim-button","311","1031646","0.0-3.0-34.8-1.8","6125a71575ce1cc4f554b8b0","D2","batch4","tol_toboard","464","","","","","","","","","tol_peg_2","464","464","0","[[3,2,0],[1,0],[0]]","9","[[2,1,0],[3,0],[0]]","8","0","","","","","","6","","","","",""
"","","","","","single-stim-button","312","1033182","0.0-3.0-34.9-0.9","6125a71575ce1cc4f554b8b0","D2","batch4","tol_tohand","1535","","","","","","","","","tol_peg_1","1535","1535","0","[[3,0,0],[1,0],[0]]","10","[[2,1,0],[3,0],[0]]","8","0","","","","","","6","","","","",""
"","","","","","single-stim-button","313","1033777","0.0-3.0-34.9-1.9","6125a71575ce1cc4f554b8b0","D2","batch4","tol_toboard","595","","","","","","","","","tol_peg_3","595","595","0","[[3,0,0],[1,0],[2]]","10","[[2,1,0],[3,0],[0]]","8","0","","","","","","6","","","","",""
"","","","","","single-stim-button","314","1034318","0.0-3.0-34.10-0.10","6125a71575ce1cc4f554b8b0","D2","batch4","tol_tohand","539","","","","","","","","","tol_peg_1","539","539","0","[[0,0,0],[1,0],[2]]","11","[[2,1,0],[3,0],[0]]","8","0","","","","","","6","","","","",""
"","","","","","single-stim-button","315","1034796","0.0-3.0-34.10-1.10","6125a71575ce1cc4f554b8b0","D2","batch4","tol_toboard","478","","","","","","","","","tol_peg_2","478","478","0","[[0,0,0],[1,3],[2]]","11","[[2,1,0],[3,0],[0]]","8","0","","","","","","6","","","","",""
"","","","","","single-stim-button","316","1035189","0.0-3.0-34.11-0.11","6125a71575ce1cc4f554b8b0","D2","batch4","tol_tohand","392","","","","","","","","","tol_peg_3","392","392","0","[[0,0,0],[1,3],[0]]","12","[[2,1,0],[3,0],[0]]","8","0","","","","","","6","","","","",""
"","","","","","single-stim-button","317","1035723","0.0-3.0-34.11-1.11","6125a71575ce1cc4f554b8b0","D2","batch4","tol_toboard","534","","","","","","","","","tol_peg_1","534","534","0","[[2,0,0],[1,3],[0]]","12","[[2,1,0],[3,0],[0]]","8","0","","","","","","6","","","","",""
"","","","","","single-stim-button","318","1036109","0.0-3.0-34.12-0.12","6125a71575ce1cc4f554b8b0","D2","batch4","tol_tohand","385","","","","","","","","","tol_peg_2","385","385","0","[[2,0,0],[1,0],[0]]","13","[[2,1,0],[3,0],[0]]","8","0","","","","","","6","","","","",""
"","","","","","single-stim-button","319","1036679","0.0-3.0-34.12-1.12","6125a71575ce1cc4f554b8b0","D2","batch4","tol_toboard","570","","","","","","","","","tol_peg_3","570","570","0","[[2,0,0],[1,0],[3]]","13","[[2,1,0],[3,0],[0]]","8","0","","","","","","6","","","","",""
"","","","","","single-stim-button","320","1037083","0.0-3.0-34.13-0.13","6125a71575ce1cc4f554b8b0","D2","batch4","tol_tohand","403","","","","","","","","","tol_peg_2","403","403","0","[[2,0,0],[0,0],[3]]","14","[[2,1,0],[3,0],[0]]","8","0","","","","","","6","","","","",""
"","","","","","single-stim-button","321","1037831","0.0-3.0-34.13-1.13","6125a71575ce1cc4f554b8b0","D2","batch4","tol_toboard","748","","","","","","","","","tol_peg_1","748","748","0","[[2,1,0],[0,0],[3]]","14","[[2,1,0],[3,0],[0]]","8","0","","","","","","6","","","","",""
"","","","","","single-stim-button","322","1038456","0.0-3.0-34.14-0.14","6125a71575ce1cc4f554b8b0","D2","batch4","tol_tohand","623","","","","","","","","","tol_peg_3","623","623","0","[[2,1,0],[0,0],[0]]","15","[[2,1,0],[3,0],[0]]","8","0","","","","","","6","","","","",""
"","","","","","single-stim-button","323","1038912","0.0-3.0-34.14-1.14","6125a71575ce1cc4f554b8b0","D2","batch4","tol_toboard","456","","","","","","","","","tol_peg_2","456","456","0","[[2,1,0],[3,0],[0]]","15","[[2,1,0],[3,0],[0]]","8","0","","","","","","6","","","","",""
"","","","","","poldrack-single-stim","324","1039928","0.0-3.0-35.0","6125a71575ce1cc4f554b8b0","D2","batch4","tol_feedback","-1","","","","","true","","","","","1000","1000","500","","","","","","-1","none","true","27409","43165","","","","","",""
"","","","","","html-button-response","325","1040565","0.0-3.0-36.0","6125a71575ce1cc4f554b8b0","D2","batch4","tol_trial_num","635.0999999940395","<div class = centerbox><p class = center-block-text>problem <strong>10</strong> out of 25 problems</p></div>","0","","","","","","","","","","","","","","","","","","","","","","","","","",""
"","","","","","single-stim-button","326","1045346","0.0-3.0-37.0-0.0","6125a71575ce1cc4f554b8b0","D2","batch4","tol_tohand","4781","","","","","","","","","tol_peg_2","4781","4781","0","[[3,0,0],[0,0],[2]]","1","[[3,0,0],[2,1],[0]]","9","0","","","","","","3","","","","",""
"","","","","","single-stim-button","327","1045675","0.0-3.0-37.0-1.0","6125a71575ce1cc4f554b8b0","D2","batch4","tol_toboard","328","","","","","","","","","tol_peg_1","328","328","0","[[3,1,0],[0,0],[2]]","1","[[3,0,0],[2,1],[0]]","9","0","","","","","","3","","","","",""
"","","","","","single-stim-button","328","1046218","0.0-3.0-37.1-0.1","6125a71575ce1cc4f554b8b0","D2","batch4","tol_tohand","542","","","","","","","","","tol_peg_3","542","542","0","[[3,1,0],[0,0],[0]]","2","[[3,0,0],[2,1],[0]]","9","0","","","","","","3","","","","",""
"","","","","","single-stim-button","329","1046580","0.0-3.0-37.1-1.1","6125a71575ce1cc4f554b8b0","D2","batch4","tol_toboard","362","","","","","","","","","tol_peg_2","362","362","0","[[3,1,0],[2,0],[0]]","2","[[3,0,0],[2,1],[0]]","9","0","","","","","","3","","","","",""
"","","","","","single-stim-button","330","1047028","0.0-3.0-37.2-0.2","6125a71575ce1cc4f554b8b0","D2","batch4","tol_tohand","447","","","","","","","","","tol_peg_1","447","447","0","[[3,0,0],[2,0],[0]]","3","[[3,0,0],[2,1],[0]]","9","0","","","","","","3","","","","",""
"","","","","","single-stim-button","331","1047368","0.0-3.0-37.2-1.2","6125a71575ce1cc4f554b8b0","D2","batch4","tol_toboard","340","","","","","","","","","tol_peg_2","340","340","0","[[3,0,0],[2,1],[0]]","3","[[3,0,0],[2,1],[0]]","9","0","","","","","","3","","","","",""
"","","","","","poldrack-single-stim","332","1048369","0.0-3.0-38.0","6125a71575ce1cc4f554b8b0","D2","batch4","tol_feedback","-1","","","","","true","","","","","1000","1000","500","","","","","","-1","none","true","4781","5770","","","","","",""
"","","","","","html-button-response","333","1048943","0.0-3.0-39.0","6125a71575ce1cc4f554b8b0","D2","batch4","tol_trial_num","573.5","<div class = centerbox><p class = center-block-text>problem <strong>11</strong> out of 25 problems</p></div>","0","","","","","","","","","","","","","","","","","","","","","","","","","",""
"","","","","","single-stim-button","334","1054665","0.0-3.0-40.0-0.0","6125a71575ce1cc4f554b8b0","D2","batch4","tol_tohand","5721","","","","","","","","","tol_peg_1","5721","5721","0","[[1,0,0],[3,0],[0]]","1","[[2,0,0],[1,3],[0]]","10","0","","","","","","6","","","","",""
"","","","","","single-stim-button","335","1055020","0.0-3.0-40.0-1.0","6125a71575ce1cc4f554b8b0","D2","batch4","tol_toboard","353","","","","","","","","","tol_peg_2","353","353","0","[[1,0,0],[3,2],[0]]","1","[[2,0,0],[1,3],[0]]","10","0","","","","","","6","","","","",""
"","","","","","single-stim-button","336","1055330","0.0-3.0-40.1-0.1","6125a71575ce1cc4f554b8b0","D2","batch4","tol_tohand","310","","","","","","","","","tol_peg_1","310","310","0","[[0,0,0],[3,2],[0]]","2","[[2,0,0],[1,3],[0]]","10","0","","","","","","6","","","","",""
"","","","","","single-stim-button","337","1055653","0.0-3.0-40.1-1.1","6125a71575ce1cc4f554b8b0","D2","batch4","tol_toboard","323","","","","","","","","","tol_peg_3","323","323","0","[[0,0,0],[3,2],[1]]","2","[[2,0,0],[1,3],[0]]","10","0","","","","","","6","","","","",""
"","","","","","single-stim-button","338","1056008","0.0-3.0-40.2-0.2","6125a71575ce1cc4f554b8b0","D2","batch4","tol_tohand","354","","","","","","","","","tol_peg_2","354","354","0","[[0,0,0],[3,0],[1]]","3","[[2,0,0],[1,3],[0]]","10","0","","","","","","6","","","","",""
"","","","","","single-stim-button","339","1056342","0.0-3.0-40.2-1.2","6125a71575ce1cc4f554b8b0","D2","batch4","tol_toboard","333","","","","","","","","","tol_peg_1","333","333","0","[[2,0,0],[3,0],[1]]","3","[[2,0,0],[1,3],[0]]","10","0","","","","","","6","","","","",""
"","","","","","single-stim-button","340","1057106","0.0-3.0-40.3-0.3","6125a71575ce1cc4f554b8b0","D2","batch4","tol_tohand","764","","","","","","","","","tol_peg_2","764","764","0","[[2,0,0],[0,0],[1]]","4","[[2,0,0],[1,3],[0]]","10","0","","","","","","6","","","","",""
"","","","","","single-stim-button","341","1057399","0.0-3.0-40.3-1.3","6125a71575ce1cc4f554b8b0","D2","batch4","tol_toboard","292","","","","","","","","","tol_peg_1","292","292","0","[[2,3,0],[0,0],[1]]","4","[[2,0,0],[1,3],[0]]","10","0","","","","","","6","","","","",""
"","","","","","single-stim-button","342","1057769","0.0-3.0-40.4-0.4","6125a71575ce1cc4f554b8b0","D2","batch4","tol_tohand","370","","","","","","","","","tol_peg_3","370","370","0","[[2,3,0],[0,0],[0]]","5","[[2,0,0],[1,3],[0]]","10","0","","","","","","6","","","","",""
"","","","","","single-stim-button","343","1058062","0.0-3.0-40.4-1.4","6125a71575ce1cc4f554b8b0","D2","batch4","tol_toboard","292","","","","","","","","","tol_peg_2","292","292","0","[[2,3,0],[1,0],[0]]","5","[[2,0,0],[1,3],[0]]","10","0","","","","","","6","","","","",""
"","","","","","single-stim-button","344","1058556","0.0-3.0-40.5-0.5","6125a71575ce1cc4f554b8b0","D2","batch4","tol_tohand","494","","","","","","","","","tol_peg_1","494","494","0","[[2,0,0],[1,0],[0]]","6","[[2,0,0],[1,3],[0]]","10","0","","","","","","6","","","","",""
"","","","","","single-stim-button","345","1058858","0.0-3.0-40.5-1.5","6125a71575ce1cc4f554b8b0","D2","batch4","tol_toboard","301","","","","","","","","","tol_peg_2","301","301","0","[[2,0,0],[1,3],[0]]","6","[[2,0,0],[1,3],[0]]","10","0","","","","","","6","","","","",""
"","","","","","poldrack-single-stim","346","1059872","0.0-3.0-41.0","6125a71575ce1cc4f554b8b0","D2","batch4","tol_feedback","-1","","","","","true","","","","","1000","1000","500","","","","","","-1","none","true","5721","8013","","","","","",""
"","","","","","html-button-response","347","1060788","0.0-3.0-42.0","6125a71575ce1cc4f554b8b0","D2","batch4","tol_trial_num","914.7000000029802","<div class = centerbox><p class = center-block-text>problem <strong>12</strong> out of 25 problems</p></div>","0","","","","","","","","","","","","","","","","","","","","","","","","","",""
"","","","","","single-stim-button","348","1064837","0.0-3.0-43.0-0.0","6125a71575ce1cc4f554b8b0","D2","batch4","tol_tohand","4048","","","","","","","","","tol_peg_1","4048","4048","0","[[1,0,0],[3,0],[0]]","1","[[2,3,0],[0,0],[1]]","11","0","","","","","","4","","","","",""
"","","","","","single-stim-button","349","1065112","0.0-3.0-43.0-1.0","6125a71575ce1cc4f554b8b0","D2","batch4","tol_toboard","274","","","","","","","","","tol_peg_2","274","274","0","[[1,0,0],[3,2],[0]]","1","[[2,3,0],[0,0],[1]]","11","0","","","","","","4","","","","",""
"","","","","","single-stim-button","350","1065446","0.0-3.0-43.1-0.1","6125a71575ce1cc4f554b8b0","D2","batch4","tol_tohand","334","","","","","","","","","tol_peg_1","334","334","0","[[0,0,0],[3,2],[0]]","2","[[2,3,0],[0,0],[1]]","11","0","","","","","","4","","","","",""
"","","","","","single-stim-button","351","1065791","0.0-3.0-43.1-1.1","6125a71575ce1cc4f554b8b0","D2","batch4","tol_toboard","345","","","","","","","","","tol_peg_3","345","345","0","[[0,0,0],[3,2],[1]]","2","[[2,3,0],[0,0],[1]]","11","0","","","","","","4","","","","",""
"","","","","","single-stim-button","352","1066572","0.0-3.0-43.2-0.2","6125a71575ce1cc4f554b8b0","D2","batch4","tol_tohand","780","","","","","","","","","tol_peg_2","780","780","0","[[0,0,0],[3,0],[1]]","3","[[2,3,0],[0,0],[1]]","11","0","","","","","","4","","","","",""
"","","","","","single-stim-button","353","1066890","0.0-3.0-43.2-1.2","6125a71575ce1cc4f554b8b0","D2","batch4","tol_toboard","317","","","","","","","","","tol_peg_1","317","317","0","[[2,0,0],[3,0],[1]]","3","[[2,3,0],[0,0],[1]]","11","0","","","","","","4","","","","",""
