"success","timeout","failed_images","failed_audio","failed_video","trial_type","trial_index","time_elapsed","internal_node_id","subject_id","study_id","session_id","view_history","rt","task","stimulus","response","correct","mouse_click","stim_duration","block_duration","timing_post_trial","current_position","tol_num_moves_made","tol_target","tol_problem_id","tol_rt","key_press","possible_responses","tol_correct","preplanning","tol_rt_per_trial","tol_min_moves","item","answer","spm_correct","spm_rt","fiar_detect_rt","fiar_detect_correct","total_correct_fiar_detect","post_trial_gap","choices"
"true","false","[]","[]","[]","preload","0","1344","0.0-0.0","612b88aae22fbc7810cff174","C3","batch3","","","","","","","","","","","","","","","","","","","","","","","","","","","","","",""
"true","","","","","fullscreen","1","15904","0.0-1.0-0.0","612b88aae22fbc7810cff174","C3","batch3","","","","","","","","","","","","","","","","","","","","","","","","","","","","","",""
"true","","","","","fullscreen","2","18753","0.0-2.0-0.0","612b88aae22fbc7810cff174","C3","batch3","","","","","","","","","","","","","","","","","","","","","","","","","","","","","",""
"","","","","","instructions","3","75357","0.0-2.0-1.0-0.0-0.0","612b88aae22fbc7810cff174","C3","batch3","[{""page_index"":0,""viewing_time"":7349.199999999255},{""page_index"":1,""viewing_time"":6165.300000000745},{""page_index"":2,""viewing_time"":2846.800000000745},{""page_index"":3,""viewing_time"":6659.699999999255},{""page_index"":4,""viewing_time"":13354.300000000745},{""page_index"":5,""viewing_time"":17910.89999999851},{""page_index"":6,""viewing_time"":2316.5}]","56603.40000000037","tol-instructions","","","","","","","","","","","","","","","","","","","","","","","","","","",""
"","","","","","html-button-response","4","76313","0.0-2.0-1.0-1.0-0.0","612b88aae22fbc7810cff174","C3","batch3","","953.7000000011176","tol_enter_quiz","<p class=block-text> Let's answer a few questions <br>","0","","","","","","","","","","","","","","","","","","","","","","","","",""
"","","","","","html-button-response","5","79520","0.0-2.0-1.0-1.0-1.0","612b88aae22fbc7810cff174","C3","batch3","","3204.2000000011176","tol_quiz","<p class = block-text>True or False: You can only move the ball on top of a peg. <br></p>","0","true","","","","","","","","","","","","","","","","","","","","","","","",""
"","","","","","html-button-response","6","80668","0.0-2.0-1.0-1.0-2.0","612b88aae22fbc7810cff174","C3","batch3","","1145.5999999996275","tol_quiz_feedback","<p class = block-text>Correct! You can only move the ball on top of a peg.</p>","0","","","","","","","","","","","","","","","","","","","","","","","","",""
"","","","","","html-button-response","7","83333","0.0-2.0-1.0-1.0-3.0","612b88aae22fbc7810cff174","C3","batch3","","2662.7000000011176","tol_quiz","<p class = block-text>True or False: You should try to match your board with the target board with fewest moves possible. <br></p>","0","true","","","","","","","","","","","","","","","","","","","","","","","",""
"","","","","","html-button-response","8","83985","0.0-2.0-1.0-1.0-4.0","612b88aae22fbc7810cff174","C3","batch3","","649.9000000003725","tol_quiz_feedback","<p class = block-text>Correct! </p>","0","","","","","","","","","","","","","","","","","","","","","","","","",""
"","","","","","html-button-response","9","85446","0.0-2.0-2.0","612b88aae22fbc7810cff174","C3","batch3","","1458.9000000003725","","<p class=block-text> Now that you've understood the game, let's practice a few easier examples before we start!<br> <br>","0","","","","","","","","","","","","","","","","","","","","","","","","",""
"","","","","","single-stim-button","10","88050","0.0-2.0-3.0-0.0","612b88aae22fbc7810cff174","C3","batch3","","2600","tol_practice","","","","tol_peg_2","2600","2600","0","[[1,2,0],[0,0],[0]]","1","[[1,2,0],[0,0],[3]]","practice","2600","","","","","","","","","","","","","","",""
"","","","","","single-stim-button","11","89859","0.0-2.0-3.0-1.0","612b88aae22fbc7810cff174","C3","batch3","","1806","tol_practice","","","","tol_peg_3","1806","1806","0","[[1,2,0],[0,0],[3]]","1","[[1,2,0],[0,0],[3]]","practice","1806","","","","","","","","","","","","","","",""
"","","","","","poldrack-single-stim","12","90870","0.0-2.0-4.0","612b88aae22fbc7810cff174","C3","batch3","","-1","tol_feedback","","","true","","1000","1000","500","","","","","","-1","none","true","","0","","","","","","","","","",""
"","","","","","single-stim-button","13","94337","0.0-2.0-5.0-0.0","612b88aae22fbc7810cff174","C3","batch3","","3465","tol_practice","","","","tol_peg_1","3465","3465","0","[[1,0,0],[3,0],[0]]","2","[[0,0,0],[3,1],[2]]","practice","3465","","","","","","","","","","","","","","",""
"","","","","","single-stim-button","14","95270","0.0-2.0-5.0-1.0","612b88aae22fbc7810cff174","C3","batch3","","933","tol_practice","","","","tol_peg_3","933","933","0","[[1,0,0],[3,0],[2]]","2","[[0,0,0],[3,1],[2]]","practice","933","","","","","","","","","","","","","","",""
"","","","","","single-stim-button","15","96080","0.0-2.0-5.1-0.1","612b88aae22fbc7810cff174","C3","batch3","","807","tol_practice","","","","tol_peg_1","807","807","0","[[0,0,0],[3,0],[2]]","3","[[0,0,0],[3,1],[2]]","practice","807","","","","","","","","","","","","","","",""
"","","","","","single-stim-button","16","97193","0.0-2.0-5.1-1.1","612b88aae22fbc7810cff174","C3","batch3","","1112","tol_practice","","","","tol_peg_2","1112","1112","0","[[0,0,0],[3,1],[2]]","3","[[0,0,0],[3,1],[2]]","practice","1112","","","","","","","","","","","","","","",""
"","","","","","poldrack-single-stim","17","98208","0.0-2.0-6.0","612b88aae22fbc7810cff174","C3","batch3","","-1","tol_feedback","","","true","","1000","1000","500","","","","","","-1","none","true","","0","","","","","","","","","",""
"","","","","","single-stim-button","18","100490","0.0-2.0-7.0-0.0","612b88aae22fbc7810cff174","C3","batch3","","2280","tol_practice","","","","tol_peg_2","2280","2280","0","[[1,2,0],[0,0],[0]]","4","[[1,0,0],[2,0],[3]]","practice","2280","","","","","","","","","","","","","","",""
"","","","","","single-stim-button","19","101244","0.0-2.0-7.0-1.0","612b88aae22fbc7810cff174","C3","batch3","","751","tol_practice","","","","tol_peg_3","751","751","0","[[1,2,0],[0,0],[3]]","4","[[1,0,0],[2,0],[3]]","practice","751","","","","","","","","","","","","","","",""
"","","","","","single-stim-button","20","102008","0.0-2.0-7.1-0.1","612b88aae22fbc7810cff174","C3","batch3","","762","tol_practice","","","","tol_peg_1","762","762","0","[[1,0,0],[0,0],[3]]","5","[[1,0,0],[2,0],[3]]","practice","762","","","","","","","","","","","","","","",""
"","","","","","single-stim-button","21","103067","0.0-2.0-7.1-1.1","612b88aae22fbc7810cff174","C3","batch3","","1057","tol_practice","","","","tol_peg_2","1057","1057","0","[[1,0,0],[2,0],[3]]","5","[[1,0,0],[2,0],[3]]","practice","1057","","","","","","","","","","","","","","",""
"","","","","","poldrack-single-stim","22","104080","0.0-2.0-8.0","612b88aae22fbc7810cff174","C3","batch3","","-1","tol_feedback","","","true","","1000","1000","500","","","","","","-1","none","true","","0","","","","","","","","","",""
"","","","","","html-button-response","23","106959","0.0-2.0-9.0","612b88aae22fbc7810cff174","C3","batch3","","2877.9000000003725","tol_instruction","<div class = centerbox><p class = center-block-text>Great job! You are done with practice trials<br>You are about to start official trials.<br> <br> Problem <strong>1</strong> out of 25 problems</p></div>","0","","","","","","","","","","","","","","","","","","","","","","","","",""
"","","","","","single-stim-button","24","111358","0.0-2.0-10.0-0.0","612b88aae22fbc7810cff174","C3","batch3","","3394","tol_tohand","","","","tol_peg_1","3394","3394","0","[[1,0,0],[3,0],[0]]","1","[[1,3,0],[2,0],[0]]","0","0","","","","","","3","","","","","","","","",""
"","","","","","single-stim-button","25","112437","0.0-2.0-10.0-1.0","612b88aae22fbc7810cff174","C3","batch3","","1077","tol_toboard","","","","tol_peg_3","1077","1077","0","[[1,0,0],[3,0],[2]]","1","[[1,3,0],[2,0],[0]]","0","0","","","","","","3","","","","","","","","",""
"","","","","","single-stim-button","26","113158","0.0-2.0-10.1-0.1","612b88aae22fbc7810cff174","C3","batch3","","718","tol_tohand","","","","tol_peg_2","718","718","0","[[1,0,0],[0,0],[2]]","2","[[1,3,0],[2,0],[0]]","0","0","","","","","","3","","","","","","","","",""
"","","","","","single-stim-button","27","113832","0.0-2.0-10.1-1.1","612b88aae22fbc7810cff174","C3","batch3","","673","tol_toboard","","","","tol_peg_1","673","673","0","[[1,3,0],[0,0],[2]]","2","[[1,3,0],[2,0],[0]]","0","0","","","","","","3","","","","","","","","",""
"","","","","","single-stim-button","28","114755","0.0-2.0-10.2-0.2","612b88aae22fbc7810cff174","C3","batch3","","922","tol_tohand","","","","tol_peg_3","922","922","0","[[1,3,0],[0,0],[0]]","3","[[1,3,0],[2,0],[0]]","0","0","","","","","","3","","","","","","","","",""
"","","","","","single-stim-button","29","115531","0.0-2.0-10.2-1.2","612b88aae22fbc7810cff174","C3","batch3","","774","tol_toboard","","","","tol_peg_2","774","774","0","[[1,3,0],[2,0],[0]]","3","[[1,3,0],[2,0],[0]]","0","0","","","","","","3","","","","","","","","",""
"","","","","","poldrack-single-stim","30","116540","0.0-2.0-11.0","612b88aae22fbc7810cff174","C3","batch3","","-1","tol_feedback","","","true","","1000","1000","500","","","","","","-1","none","true","3394","5034","","","","","","","","","",""
"","","","","","html-button-response","31","117477","0.0-2.0-12.0","612b88aae22fbc7810cff174","C3","batch3","","934.6999999992549","tol_trial_num","<div class = centerbox><p class = center-block-text>problem <strong>2</strong> out of 25 problems</p></div>","0","","","","","","","","","","","","","","","","","","","","","","","","",""
"","","","","","single-stim-button","32","124745","0.0-2.0-13.0-0.0","612b88aae22fbc7810cff174","C3","batch3","","7266","tol_tohand","","","","tol_peg_1","7266","7266","0","[[1,0,0],[3,0],[0]]","1","[[2,1,3],[0,0],[0]]","1","0","","","","","","5","","","","","","","","",""
"","","","","","single-stim-button","33","125914","0.0-2.0-13.0-1.0","612b88aae22fbc7810cff174","C3","batch3","","1168","tol_toboard","","","","tol_peg_3","1168","1168","0","[[1,0,0],[3,0],[2]]","1","[[2,1,3],[0,0],[0]]","1","0","","","","","","5","","","","","","","","",""
"","","","","","single-stim-button","34","126949","0.0-2.0-13.1-0.1","612b88aae22fbc7810cff174","C3","batch3","","1033","tol_tohand","","","","tol_peg_1","1033","1033","0","[[0,0,0],[3,0],[2]]","2","[[2,1,3],[0,0],[0]]","1","0","","","","","","5","","","","","","","","",""
"","","","","","single-stim-button","35","127895","0.0-2.0-13.1-1.1","612b88aae22fbc7810cff174","C3","batch3","","944","tol_toboard","","","","tol_peg_2","944","944","0","[[0,0,0],[3,1],[2]]","2","[[2,1,3],[0,0],[0]]","1","0","","","","","","5","","","","","","","","",""
"","","","","","single-stim-button","36","128581","0.0-2.0-13.2-0.2","612b88aae22fbc7810cff174","C3","batch3","","684","tol_tohand","","","","tol_peg_3","684","684","0","[[0,0,0],[3,1],[0]]","3","[[2,1,3],[0,0],[0]]","1","0","","","","","","5","","","","","","","","",""
"","","","","","single-stim-button","37","129447","0.0-2.0-13.2-1.2","612b88aae22fbc7810cff174","C3","batch3","","864","tol_toboard","","","","tol_peg_1","864","864","0","[[2,0,0],[3,1],[0]]","3","[[2,1,3],[0,0],[0]]","1","0","","","","","","5","","","","","","","","",""
"","","","","","single-stim-button","38","130055","0.0-2.0-13.3-0.3","612b88aae22fbc7810cff174","C3","batch3","","607","tol_tohand","","","","tol_peg_2","607","607","0","[[2,0,0],[3,0],[0]]","4","[[2,1,3],[0,0],[0]]","1","0","","","","","","5","","","","","","","","",""
"","","","","","single-stim-button","39","130696","0.0-2.0-13.3-1.3","612b88aae22fbc7810cff174","C3","batch3","","639","tol_toboard","","","","tol_peg_1","639","639","0","[[2,1,0],[3,0],[0]]","4","[[2,1,3],[0,0],[0]]","1","0","","","","","","5","","","","","","","","",""
"","","","","","single-stim-button","40","131359","0.0-2.0-13.4-0.4","612b88aae22fbc7810cff174","C3","batch3","","661","tol_tohand","","","","tol_peg_2","661","661","0","[[2,1,0],[0,0],[0]]","5","[[2,1,3],[0,0],[0]]","1","0","","","","","","5","","","","","","","","",""
"","","","","","single-stim-button","41","132191","0.0-2.0-13.4-1.4","612b88aae22fbc7810cff174","C3","batch3","","830","tol_toboard","","","","tol_peg_1","830","830","0","[[2,1,3],[0,0],[0]]","5","[[2,1,3],[0,0],[0]]","1","0","","","","","","5","","","","","","","","",""
"","","","","","poldrack-single-stim","42","133196","0.0-2.0-14.0","612b88aae22fbc7810cff174","C3","batch3","","-1","tol_feedback","","","true","","1000","1000","500","","","","","","-1","none","true","7266","10251","","","","","","","","","",""
"","","","","","html-button-response","43","134261","0.0-2.0-15.0","612b88aae22fbc7810cff174","C3","batch3","","1062.5","tol_trial_num","<div class = centerbox><p class = center-block-text>problem <strong>3</strong> out of 25 problems</p></div>","0","","","","","","","","","","","","","","","","","","","","","","","","",""
"","","","","","single-stim-button","44","138999","0.0-2.0-16.0-0.0","612b88aae22fbc7810cff174","C3","batch3","","4736","tol_tohand","","","","tol_peg_1","4736","4736","0","[[2,0,0],[0,0],[1]]","1","[[1,2,0],[3,0],[0]]","2","0","","","","","","4","","","","","","","","",""
"","","","","","single-stim-button","45","139763","0.0-2.0-16.0-1.0","612b88aae22fbc7810cff174","C3","batch3","","762","tol_toboard","","","","tol_peg_2","762","762","0","[[2,0,0],[3,0],[1]]","1","[[1,2,0],[3,0],[0]]","2","0","","","","","","4","","","","","","","","",""
"","","","","","single-stim-button","46","141014","0.0-2.0-16.1-0.1","612b88aae22fbc7810cff174","C3","batch3","","1249","tol_tohand","","","","tol_peg_3","1249","1249","0","[[2,0,0],[3,0],[0]]","2","[[1,2,0],[3,0],[0]]","2","0","","","","","","4","","","","","","","","",""
"","","","","","single-stim-button","47","142655","0.0-2.0-16.1-1.1","612b88aae22fbc7810cff174","C3","batch3","","1641","tol_toboard","","","","tol_peg_2","1641","1641","0","[[2,0,0],[3,1],[0]]","2","[[1,2,0],[3,0],[0]]","2","0","","","","","","4","","","","","","","","",""
"","","","","","single-stim-button","48","143242","0.0-2.0-16.2-0.2","612b88aae22fbc7810cff174","C3","batch3","","586","tol_tohand","","","","tol_peg_1","586","586","0","[[0,0,0],[3,1],[0]]","3","[[1,2,0],[3,0],[0]]","2","0","","","","","","4","","","","","","","","",""
"","","","","","single-stim-button","49","143869","0.0-2.0-16.2-1.2","612b88aae22fbc7810cff174","C3","batch3","","625","tol_toboard","","","","tol_peg_3","625","625","0","[[0,0,0],[3,1],[2]]","3","[[1,2,0],[3,0],[0]]","2","0","","","","","","4","","","","","","","","",""
"","","","","","single-stim-button","50","144409","0.0-2.0-16.3-0.3","612b88aae22fbc7810cff174","C3","batch3","","538","tol_tohand","","","","tol_peg_2","538","538","0","[[0,0,0],[3,0],[2]]","4","[[1,2,0],[3,0],[0]]","2","0","","","","","","4","","","","","","","","",""
"","","","","","single-stim-button","51","145299","0.0-2.0-16.3-1.3","612b88aae22fbc7810cff174","C3","batch3","","888","tol_toboard","","","","tol_peg_1","888","888","0","[[1,0,0],[3,0],[2]]","4","[[1,2,0],[3,0],[0]]","2","0","","","","","","4","","","","","","","","",""
"","","","","","single-stim-button","52","146367","0.0-2.0-16.4-0.4","612b88aae22fbc7810cff174","C3","batch3","","1067","tol_tohand","","","","tol_peg_3","1067","1067","0","[[1,0,0],[3,0],[0]]","5","[[1,2,0],[3,0],[0]]","2","0","","","","","","4","","","","","","","","",""
"","","","","","single-stim-button","53","147312","0.0-2.0-16.4-1.4","612b88aae22fbc7810cff174","C3","batch3","","944","tol_toboard","","","","tol_peg_1","944","944","0","[[1,2,0],[3,0],[0]]","5","[[1,2,0],[3,0],[0]]","2","0","","","","","","4","","","","","","","","",""
"","","","","","poldrack-single-stim","54","148327","0.0-2.0-17.0","612b88aae22fbc7810cff174","C3","batch3","","-1","tol_feedback","","","true","","1000","1000","500","","","","","","-1","none","true","4736","8176","","","","","","","","","",""
"","","","","","html-button-response","55","149361","0.0-2.0-18.0","612b88aae22fbc7810cff174","C3","batch3","","1031.800000000745","tol_trial_num","<div class = centerbox><p class = center-block-text>problem <strong>4</strong> out of 25 problems</p></div>","0","","","","","","","","","","","","","","","","","","","","","","","","",""
"","","","","","single-stim-button","56","152285","0.0-2.0-19.0-0.0","612b88aae22fbc7810cff174","C3","batch3","","2922","tol_tohand","","","","tol_peg_2","2922","2922","0","[[3,0,0],[2,0],[0]]","1","[[3,0,0],[1,0],[2]]","3","0","","","","","","3","","","","","","","","",""
"","","","","","single-stim-button","57","152960","0.0-2.0-19.0-1.0","612b88aae22fbc7810cff174","C3","batch3","","673","tol_toboard","","","","tol_peg_1","673","673","0","[[3,1,0],[2,0],[0]]","1","[[3,0,0],[1,0],[2]]","3","0","","","","","","3","","","","","","","","",""
"","","","","","single-stim-button","58","153500","0.0-2.0-19.1-0.1","612b88aae22fbc7810cff174","C3","batch3","","538","tol_tohand","","","","tol_peg_2","538","538","0","[[3,1,0],[0,0],[0]]","2","[[3,0,0],[1,0],[2]]","3","0","","","","","","3","","","","","","","","",""
"","","","","","single-stim-button","59","154075","0.0-2.0-19.1-1.1","612b88aae22fbc7810cff174","C3","batch3","","573","tol_toboard","","","","tol_peg_3","573","573","0","[[3,1,0],[0,0],[2]]","2","[[3,0,0],[1,0],[2]]","3","0","","","","","","3","","","","","","","","",""
"","","","","","single-stim-button","60","154704","0.0-2.0-19.2-0.2","612b88aae22fbc7810cff174","C3","batch3","","627","tol_tohand","","","","tol_peg_1","627","627","0","[[3,0,0],[0,0],[2]]","3","[[3,0,0],[1,0],[2]]","3","0","","","","","","3","","","","","","","","",""
"","","","","","single-stim-button","61","155447","0.0-2.0-19.2-1.2","612b88aae22fbc7810cff174","C3","batch3","","741","tol_toboard","","","","tol_peg_2","741","741","0","[[3,0,0],[1,0],[2]]","3","[[3,0,0],[1,0],[2]]","3","0","","","","","","3","","","","","","","","",""
"","","","","","poldrack-single-stim","62","156455","0.0-2.0-20.0","612b88aae22fbc7810cff174","C3","batch3","","-1","tol_feedback","","","true","","1000","1000","500","","","","","","-1","none","true","2922","4087","","","","","","","","","",""
"","","","","","html-button-response","63","157146","0.0-2.0-21.0","612b88aae22fbc7810cff174","C3","batch3","","688.8999999985099","tol_trial_num","<div class = centerbox><p class = center-block-text>problem <strong>5</strong> out of 25 problems</p></div>","0","","","","","","","","","","","","","","","","","","","","","","","","",""
"","","","","","single-stim-button","64","160498","0.0-2.0-22.0-0.0","612b88aae22fbc7810cff174","C3","batch3","","3350","tol_tohand","","","","tol_peg_2","3350","3350","0","[[1,0,0],[0,0],[3]]","1","[[0,0,0],[1,2],[3]]","4","0","","","","","","7","","","","","","","","",""
"","","","","","single-stim-button","65","181388","0.0-2.0-22.0-1.0","612b88aae22fbc7810cff174","C3","batch3","","20888","tol_toboard","","","","tol_peg_2","20888","20888","0","[[1,0,0],[2,0],[3]]","1","[[0,0,0],[1,2],[3]]","4","0","","","","","","7","","","","","","","","",""
"","","","","","single-stim-button","66","188410","0.0-2.0-22.1-0.1","612b88aae22fbc7810cff174","C3","batch3","","7020","tol_tohand","","","","tol_peg_1","7020","7020","0","[[0,0,0],[2,0],[3]]","2","[[0,0,0],[1,2],[3]]","4","0","","","","","","7","","","","","","","","",""
"","","","","","single-stim-button","67","189548","0.0-2.0-22.1-1.1","612b88aae22fbc7810cff174","C3","batch3","","1136","tol_toboard","","","","tol_peg_2","1136","1136","0","[[0,0,0],[2,1],[3]]","2","[[0,0,0],[1,2],[3]]","4","0","","","","","","7","","","","","","","","",""
"","","","","","single-stim-button","68","190142","0.0-2.0-22.2-0.2","612b88aae22fbc7810cff174","C3","batch3","","592","tol_tohand","","","","tol_peg_3","592","592","0","[[0,0,0],[2,1],[0]]","3","[[0,0,0],[1,2],[3]]","4","0","","","","","","7","","","","","","","","",""
"","","","","","single-stim-button","69","190840","0.0-2.0-22.2-1.2","612b88aae22fbc7810cff174","C3","batch3","","696","tol_toboard","","","","tol_peg_1","696","696","0","[[3,0,0],[2,1],[0]]","3","[[0,0,0],[1,2],[3]]","4","0","","","","","","7","","","","","","","","",""
"","","","","","single-stim-button","70","194192","0.0-2.0-22.3-0.3","612b88aae22fbc7810cff174","C3","batch3","","3350","tol_tohand","","","","tol_peg_2","3350","3350","0","[[3,0,0],[2,0],[0]]","4","[[0,0,0],[1,2],[3]]","4","0","","","","","","7","","","","","","","","",""
"","","","","","single-stim-button","71","194978","0.0-2.0-22.3-1.3","612b88aae22fbc7810cff174","C3","batch3","","784","tol_toboard","","","","tol_peg_3","784","784","0","[[3,0,0],[2,0],[1]]","4","[[0,0,0],[1,2],[3]]","4","0","","","","","","7","","","","","","","","",""
"","","","","","single-stim-button","72","195509","0.0-2.0-22.4-0.4","612b88aae22fbc7810cff174","C3","batch3","","529","tol_tohand","","","","tol_peg_2","529","529","0","[[3,0,0],[0,0],[1]]","5","[[0,0,0],[1,2],[3]]","4","0","","","","","","7","","","","","","","","",""
"","","","","","single-stim-button","73","196060","0.0-2.0-22.4-1.4","612b88aae22fbc7810cff174","C3","batch3","","551","tol_toboard","","","","tol_peg_1","551","551","0","[[3,2,0],[0,0],[1]]","5","[[0,0,0],[1,2],[3]]","4","0","","","","","","7","","","","","","","","",""
"","","","","","single-stim-button","74","196881","0.0-2.0-22.5-0.5","612b88aae22fbc7810cff174","C3","batch3","","820","tol_tohand","","","","tol_peg_3","820","820","0","[[3,2,0],[0,0],[0]]","6","[[0,0,0],[1,2],[3]]","4","0","","","","","","7","","","","","","","","",""
"","","","","","single-stim-button","75","197960","0.0-2.0-22.5-1.5","612b88aae22fbc7810cff174","C3","batch3","","1077","tol_toboard","","","","tol_peg_2","1077","1077","0","[[3,2,0],[1,0],[0]]","6","[[0,0,0],[1,2],[3]]","4","0","","","","","","7","","","","","","","","",""
"","","","","","single-stim-button","76","198410","0.0-2.0-22.6-0.6","612b88aae22fbc7810cff174","C3","batch3","","449","tol_tohand","","","","tol_peg_1","449","449","0","[[3,0,0],[1,0],[0]]","7","[[0,0,0],[1,2],[3]]","4","0","","","","","","7","","","","","","","","",""
"","","","","","single-stim-button","77","199100","0.0-2.0-22.6-1.6","612b88aae22fbc7810cff174","C3","batch3","","688","tol_toboard","","","","tol_peg_2","688","688","0","[[3,0,0],[1,2],[0]]","7","[[0,0,0],[1,2],[3]]","4","0","","","","","","7","","","","","","","","",""
"","","","","","single-stim-button","78","199614","0.0-2.0-22.7-0.7","612b88aae22fbc7810cff174","C3","batch3","","513","tol_tohand","","","","tol_peg_1","513","513","0","[[0,0,0],[1,2],[0]]","8","[[0,0,0],[1,2],[3]]","4","0","","","","","","7","","","","","","","","",""
"","","","","","single-stim-button","79","200368","0.0-2.0-22.7-1.7","612b88aae22fbc7810cff174","C3","batch3","","752","tol_toboard","","","","tol_peg_3","752","752","0","[[0,0,0],[1,2],[3]]","8","[[0,0,0],[1,2],[3]]","4","0","","","","","","7","","","","","","","","",""
"","","","","","poldrack-single-stim","80","201380","0.0-2.0-23.0","612b88aae22fbc7810cff174","C3","batch3","","-1","tol_feedback","","","true","","1000","1000","500","","","","","","-1","none","true","3350","16623","","","","","","","","","",""
"","","","","","html-button-response","81","202044","0.0-2.0-24.0","612b88aae22fbc7810cff174","C3","batch3","","661.6000000014901","tol_trial_num","<div class = centerbox><p class = center-block-text>problem <strong>6</strong> out of 25 problems</p></div>","0","","","","","","","","","","","","","","","","","","","","","","","","",""
"","","","","","single-stim-button","82","210402","0.0-2.0-25.0-0.0","612b88aae22fbc7810cff174","C3","batch3","","8356","tol_tohand","","","","tol_peg_3","8356","8356","0","[[0,0,0],[1,2],[0]]","1","[[1,0,0],[2,3],[0]]","5","0","","","","","","6","","","","","","","","",""
"","","","","","single-stim-button","83","211282","0.0-2.0-25.0-1.0","612b88aae22fbc7810cff174","C3","batch3","","878","tol_toboard","","","","tol_peg_1","878","878","0","[[3,0,0],[1,2],[0]]","1","[[1,0,0],[2,3],[0]]","5","0","","","","","","6","","","","","","","","",""
"","","","","","single-stim-button","84","211946","0.0-2.0-25.1-0.1","612b88aae22fbc7810cff174","C3","batch3","","662","tol_tohand","","","","tol_peg_2","662","662","0","[[3,0,0],[1,0],[0]]","2","[[1,0,0],[2,3],[0]]","5","0","","","","","","6","","","","","","","","",""
"","","","","","single-stim-button","85","212848","0.0-2.0-25.1-1.1","612b88aae22fbc7810cff174","C3","batch3","","901","tol_toboard","","","","tol_peg_1","901","901","0","[[3,2,0],[1,0],[0]]","2","[[1,0,0],[2,3],[0]]","5","0","","","","","","6","","","","","","","","",""
"","","","","","single-stim-button","86","213375","0.0-2.0-25.2-0.2","612b88aae22fbc7810cff174","C3","batch3","","525","tol_tohand","","","","tol_peg_2","525","525","0","[[3,2,0],[0,0],[0]]","3","[[1,0,0],[2,3],[0]]","5","0","","","","","","6","","","","","","","","",""
"","","","","","single-stim-button","87","213980","0.0-2.0-25.2-1.2","612b88aae22fbc7810cff174","C3","batch3","","603","tol_toboard","","","","tol_peg_3","603","603","0","[[3,2,0],[0,0],[1]]","3","[[1,0,0],[2,3],[0]]","5","0","","","","","","6","","","","","","","","",""
"","","","","","single-stim-button","88","214700","0.0-2.0-25.3-0.3","612b88aae22fbc7810cff174","C3","batch3","","718","tol_tohand","","","","tol_peg_1","718","718","0","[[3,0,0],[0,0],[1]]","4","[[1,0,0],[2,3],[0]]","5","0","","","","","","6","","","","","","","","",""
"","","","","","single-stim-button","89","215611","0.0-2.0-25.3-1.3","612b88aae22fbc7810cff174","C3","batch3","","909","tol_toboard","","","","tol_peg_2","909","909","0","[[3,0,0],[2,0],[1]]","4","[[1,0,0],[2,3],[0]]","5","0","","","","","","6","","","","","","","","",""
"","","","","","single-stim-button","90","216051","0.0-2.0-25.4-0.4","612b88aae22fbc7810cff174","C3","batch3","","438","tol_tohand","","","","tol_peg_1","438","438","0","[[0,0,0],[2,0],[1]]","5","[[1,0,0],[2,3],[0]]","5","0","","","","","","6","","","","","","","","",""
"","","","","","single-stim-button","91","216580","0.0-2.0-25.4-1.4","612b88aae22fbc7810cff174","C3","batch3","","527","tol_toboard","","","","tol_peg_2","527","527","0","[[0,0,0],[2,3],[1]]","5","[[1,0,0],[2,3],[0]]","5","0","","","","","","6","","","","","","","","",""
"","","","","","single-stim-button","92","217043","0.0-2.0-25.5-0.5","612b88aae22fbc7810cff174","C3","batch3","","461","tol_tohand","","","","tol_peg_3","461","461","0","[[0,0,0],[2,3],[0]]","6","[[1,0,0],[2,3],[0]]","5","0","","","","","","6","","","","","","","","",""
"","","","","","single-stim-button","93","217884","0.0-2.0-25.5-1.5","612b88aae22fbc7810cff174","C3","batch3","","839","tol_toboard","","","","tol_peg_1","839","839","0","[[1,0,0],[2,3],[0]]","6","[[1,0,0],[2,3],[0]]","5","0","","","","","","6","","","","","","","","",""
"","","","","","poldrack-single-stim","94","218889","0.0-2.0-26.0","612b88aae22fbc7810cff174","C3","batch3","","-1","tol_feedback","","","true","","1000","1000","500","","","","","","-1","none","true","8356","11160","","","","","","","","","",""
"","","","","","html-button-response","95","220089","0.0-2.0-27.0","612b88aae22fbc7810cff174","C3","batch3","","1199","tol_trial_num","<div class = centerbox><p class = center-block-text>problem <strong>7</strong> out of 25 problems</p></div>","0","","","","","","","","","","","","","","","","","","","","","","","","",""
"","","","","","single-stim-button","96","227717","0.0-2.0-28.0-0.0","612b88aae22fbc7810cff174","C3","batch3","","7626","tol_tohand","","","","tol_peg_3","7626","7626","0","[[2,1,0],[0,0],[0]]","1","[[1,2,0],[3,0],[0]]","6","0","","","","","","5","","","","","","","","",""
"","","","","","single-stim-button","97","228191","0.0-2.0-28.0-1.0","612b88aae22fbc7810cff174","C3","batch3","","472","tol_toboard","","","","tol_peg_2","472","472","0","[[2,1,0],[3,0],[0]]","1","[[1,2,0],[3,0],[0]]","6","0","","","","","","5","","","","","","","","",""
"","","","","","single-stim-button","98","231036","0.0-2.0-28.1-0.1","612b88aae22fbc7810cff174","C3","batch3","","2844","tol_tohand","","","","tol_peg_1","2844","2844","0","[[2,0,0],[3,0],[0]]","2","[[1,2,0],[3,0],[0]]","6","0","","","","","","5","","","","","","","","",""
"","","","","","single-stim-button","99","231890","0.0-2.0-28.1-1.1","612b88aae22fbc7810cff174","C3","batch3","","852","tol_toboard","","","","tol_peg_3","852","852","0","[[2,0,0],[3,0],[1]]","2","[[1,2,0],[3,0],[0]]","6","0","","","","","","5","","","","","","","","",""
"","","","","","single-stim-button","100","232587","0.0-2.0-28.2-0.2","612b88aae22fbc7810cff174","C3","batch3","","697","tol_tohand","","","","tol_peg_1","697","697","0","[[0,0,0],[3,0],[1]]","3","[[1,2,0],[3,0],[0]]","6","0","","","","","","5","","","","","","","","",""
"","","","","","single-stim-button","101","233060","0.0-2.0-28.2-1.2","612b88aae22fbc7810cff174","C3","batch3","","471","tol_toboard","","","","tol_peg_2","471","471","0","[[0,0,0],[3,2],[1]]","3","[[1,2,0],[3,0],[0]]","6","0","","","","","","5","","","","","","","","",""
"","","","","","single-stim-button","102","233635","0.0-2.0-28.3-0.3","612b88aae22fbc7810cff174","C3","batch3","","573","tol_tohand","","","","tol_peg_3","573","573","0","[[0,0,0],[3,2],[0]]","4","[[1,2,0],[3,0],[0]]","6","0","","","","","","5","","","","","","","","",""
"","","","","","single-stim-button","103","234457","0.0-2.0-28.3-1.3","612b88aae22fbc7810cff174","C3","batch3","","820","tol_toboard","","","","tol_peg_1","820","820","0","[[1,0,0],[3,2],[0]]","4","[[1,2,0],[3,0],[0]]","6","0","","","","","","5","","","","","","","","",""
"","","","","","single-stim-button","104","234961","0.0-2.0-28.4-0.4","612b88aae22fbc7810cff174","C3","batch3","","503","tol_tohand","","","","tol_peg_2","503","503","0","[[1,0,0],[3,0],[0]]","5","[[1,2,0],[3,0],[0]]","6","0","","","","","","5","","","","","","","","",""
"","","","","","single-stim-button","105","235468","0.0-2.0-28.4-1.4","612b88aae22fbc7810cff174","C3","batch3","","507","tol_toboard","","","","tol_peg_1","507","507","0","[[1,2,0],[3,0],[0]]","5","[[1,2,0],[3,0],[0]]","6","0","","","","","","5","","","","","","","","",""
"","","","","","poldrack-single-stim","106","236474","0.0-2.0-29.0","612b88aae22fbc7810cff174","C3","batch3","","-1","tol_feedback","","","true","","1000","1000","500","","","","","","-1","none","true","7626","12243","","","","","","","","","",""
"","","","","","html-button-response","107","237346","0.0-2.0-30.0","612b88aae22fbc7810cff174","C3","batch3","","869.9000000003725","tol_trial_num","<div class = centerbox><p class = center-block-text>problem <strong>8</strong> out of 25 problems</p></div>","0","","","","","","","","","","","","","","","","","","","","","","","","",""
"","","","","","single-stim-button","108","242612","0.0-2.0-31.0-0.0","612b88aae22fbc7810cff174","C3","batch3","","5264","tol_tohand","","","","tol_peg_3","5264","5264","0","[[0,0,0],[2,3],[0]]","1","[[1,2,0],[3,0],[0]]","7","0","","","","","","4","","","","","","","","",""
"","","","","","single-stim-button","109","243177","0.0-2.0-31.0-1.0","612b88aae22fbc7810cff174","C3","batch3","","563","tol_toboard","","","","tol_peg_1","563","563","0","[[1,0,0],[2,3],[0]]","1","[[1,2,0],[3,0],[0]]","7","0","","","","","","4","","","","","","","","",""
"","","","","","single-stim-button","110","243739","0.0-2.0-31.1-0.1","612b88aae22fbc7810cff174","C3","batch3","","560","tol_tohand","","","","tol_peg_2","560","560","0","[[1,0,0],[2,0],[0]]","2","[[1,2,0],[3,0],[0]]","7","0","","","","","","4","","","","","","","","",""
"","","","","","single-stim-button","111","244400","0.0-2.0-31.1-1.1","612b88aae22fbc7810cff174","C3","batch3","","660","tol_toboard","","","","tol_peg_3","660","660","0","[[1,0,0],[2,0],[3]]","2","[[1,2,0],[3,0],[0]]","7","0","","","","","","4","","","","","","","","",""
"","","","","","single-stim-button","112","245030","0.0-2.0-31.2-0.2","612b88aae22fbc7810cff174","C3","batch3","","629","tol_tohand","","","","tol_peg_2","629","629","0","[[1,0,0],[0,0],[3]]","3","[[1,2,0],[3,0],[0]]","7","0","","","","","","4","","","","","","","","",""
"","","","","","single-stim-button","113","245549","0.0-2.0-31.2-1.2","612b88aae22fbc7810cff174","C3","batch3","","517","tol_toboard","","","","tol_peg_1","517","517","0","[[1,2,0],[0,0],[3]]","3","[[1,2,0],[3,0],[0]]","7","0","","","","","","4","","","","","","","","",""
"","","","","","single-stim-button","114","246146","0.0-2.0-31.3-0.3","612b88aae22fbc7810cff174","C3","batch3","","596","tol_tohand","","","","tol_peg_3","596","596","0","[[1,2,0],[0,0],[0]]","4","[[1,2,0],[3,0],[0]]","7","0","","","","","","4","","","","","","","","",""
"","","","","","single-stim-button","115","246639","0.0-2.0-31.3-1.3","612b88aae22fbc7810cff174","C3","batch3","","491","tol_toboard","","","","tol_peg_2","491","491","0","[[1,2,0],[3,0],[0]]","4","[[1,2,0],[3,0],[0]]","7","0","","","","","","4","","","","","","","","",""
"","","","","","poldrack-single-stim","116","247649","0.0-2.0-32.0","612b88aae22fbc7810cff174","C3","batch3","","-1","tol_feedback","","","true","","1000","1000","500","","","","","","-1","none","true","5264","7049","","","","","","","","","",""
"","","","","","html-button-response","117","248338","0.0-2.0-33.0","612b88aae22fbc7810cff174","C3","batch3","","686.5999999996275","tol_trial_num","<div class = centerbox><p class = center-block-text>problem <strong>9</strong> out of 25 problems</p></div>","0","","","","","","","","","","","","","","","","","","","","","","","","",""
"","","","","","single-stim-button","118","257327","0.0-2.0-34.0-0.0","612b88aae22fbc7810cff174","C3","batch3","","8987","tol_tohand","","","","tol_peg_3","8987","8987","0","[[3,2,0],[0,0],[0]]","1","[[2,1,0],[3,0],[0]]","8","0","","","","","","6","","","","","","","","",""
"","","","","","single-stim-button","119","257801","0.0-2.0-34.0-1.0","612b88aae22fbc7810cff174","C3","batch3","","472","tol_toboard","","","","tol_peg_2","472","472","0","[[3,2,0],[1,0],[0]]","1","[[2,1,0],[3,0],[0]]","8","0","","","","","","6","","","","","","","","",""
"","","","","","single-stim-button","120","258396","0.0-2.0-34.1-0.1","612b88aae22fbc7810cff174","C3","batch3","","593","tol_tohand","","","","tol_peg_1","593","593","0","[[3,0,0],[1,0],[0]]","2","[[2,1,0],[3,0],[0]]","8","0","","","","","","6","","","","","","","","",""
"","","","","","single-stim-button","121","258856","0.0-2.0-34.1-1.1","612b88aae22fbc7810cff174","C3","batch3","","458","tol_toboard","","","","tol_peg_2","458","458","0","[[3,0,0],[1,2],[0]]","2","[[2,1,0],[3,0],[0]]","8","0","","","","","","6","","","","","","","","",""
"","","","","","single-stim-button","122","259938","0.0-2.0-34.2-0.2","612b88aae22fbc7810cff174","C3","batch3","","1080","tol_tohand","","","","tol_peg_1","1080","1080","0","[[0,0,0],[1,2],[0]]","3","[[2,1,0],[3,0],[0]]","8","0","","","","","","6","","","","","","","","",""
"","","","","","single-stim-button","123","260669","0.0-2.0-34.2-1.2","612b88aae22fbc7810cff174","C3","batch3","","729","tol_toboard","","","","tol_peg_3","729","729","0","[[0,0,0],[1,2],[3]]","3","[[2,1,0],[3,0],[0]]","8","0","","","","","","6","","","","","","","","",""
"","","","","","single-stim-button","124","261411","0.0-2.0-34.3-0.3","612b88aae22fbc7810cff174","C3","batch3","","740","tol_tohand","","","","tol_peg_2","740","740","0","[[0,0,0],[1,0],[3]]","4","[[2,1,0],[3,0],[0]]","8","0","","","","","","6","","","","","","","","",""
"","","","","","single-stim-button","125","262052","0.0-2.0-34.3-1.3","612b88aae22fbc7810cff174","C3","batch3","","639","tol_toboard","","","","tol_peg_1","639","639","0","[[2,0,0],[1,0],[3]]","4","[[2,1,0],[3,0],[0]]","8","0","","","","","","6","","","","","","","","",""
"","","","","","single-stim-button","126","262492","0.0-2.0-34.4-0.4","612b88aae22fbc7810cff174","C3","batch3","","439","tol_tohand","","","","tol_peg_2","439","439","0","[[2,0,0],[0,0],[3]]","5","[[2,1,0],[3,0],[0]]","8","0","","","","","","6","","","","","","","","",""
"","","","","","single-stim-button","127","262873","0.0-2.0-34.4-1.4","612b88aae22fbc7810cff174","C3","batch3","","379","tol_toboard","","","","tol_peg_1","379","379","0","[[2,1,0],[0,0],[3]]","5","[[2,1,0],[3,0],[0]]","8","0","","","","","","6","","","","","","","","",""
"","","","","","single-stim-button","128","263379","0.0-2.0-34.5-0.5","612b88aae22fbc7810cff174","C3","batch3","","504","tol_tohand","","","","tol_peg_3","504","504","0","[[2,1,0],[0,0],[0]]","6","[[2,1,0],[3,0],[0]]","8","0","","","","","","6","","","","","","","","",""
"","","","","","single-stim-button","129","263796","0.0-2.0-34.5-1.5","612b88aae22fbc7810cff174","C3","batch3","","415","tol_toboard","","","","tol_peg_2","415","415","0","[[2,1,0],[3,0],[0]]","6","[[2,1,0],[3,0],[0]]","8","0","","","","","","6","","","","","","","","",""
"","","","","","poldrack-single-stim","130","264805","0.0-2.0-35.0","612b88aae22fbc7810cff174","C3","batch3","","-1","tol_feedback","","","true","","1000","1000","500","","","","","","-1","none","true","8987","12343","","","","","","","","","",""
"","","","","","html-button-response","131","265314","0.0-2.0-36.0","612b88aae22fbc7810cff174","C3","batch3","","507.59999999962747","tol_trial_num","<div class = centerbox><p class = center-block-text>problem <strong>10</strong> out of 25 problems</p></div>","0","","","","","","","","","","","","","","","","","","","","","","","","",""
"","","","","","single-stim-button","132","270039","0.0-2.0-37.0-0.0","612b88aae22fbc7810cff174","C3","batch3","","4723","tol_tohand","","","","tol_peg_2","4723","4723","0","[[3,0,0],[0,0],[2]]","1","[[3,0,0],[2,1],[0]]","9","0","","","","","","3","","","","","","","","",""
"","","","","","single-stim-button","133","270557","0.0-2.0-37.0-1.0","612b88aae22fbc7810cff174","C3","batch3","","516","tol_toboard","","","","tol_peg_1","516","516","0","[[3,1,0],[0,0],[2]]","1","[[3,0,0],[2,1],[0]]","9","0","","","","","","3","","","","","","","","",""
"","","","","","single-stim-button","134","271222","0.0-2.0-37.1-0.1","612b88aae22fbc7810cff174","C3","batch3","","664","tol_tohand","","","","tol_peg_3","664","664","0","[[3,1,0],[0,0],[0]]","2","[[3,0,0],[2,1],[0]]","9","0","","","","","","3","","","","","","","","",""
"","","","","","single-stim-button","135","271794","0.0-2.0-37.1-1.1","612b88aae22fbc7810cff174","C3","batch3","","571","tol_toboard","","","","tol_peg_2","571","571","0","[[3,1,0],[2,0],[0]]","2","[[3,0,0],[2,1],[0]]","9","0","","","","","","3","","","","","","","","",""
"","","","","","single-stim-button","136","272257","0.0-2.0-37.2-0.2","612b88aae22fbc7810cff174","C3","batch3","","461","tol_tohand","","","","tol_peg_1","461","461","0","[[3,0,0],[2,0],[0]]","3","[[3,0,0],[2,1],[0]]","9","0","","","","","","3","","","","","","","","",""
"","","","","","single-stim-button","137","272639","0.0-2.0-37.2-1.2","612b88aae22fbc7810cff174","C3","batch3","","380","tol_toboard","","","","tol_peg_2","380","380","0","[[3,0,0],[2,1],[0]]","3","[[3,0,0],[2,1],[0]]","9","0","","","","","","3","","","","","","","","",""
"","","","","","poldrack-single-stim","138","273641","0.0-2.0-38.0","612b88aae22fbc7810cff174","C3","batch3","","-1","tol_feedback","","","true","","1000","1000","500","","","","","","-1","none","true","4723","5848","","","","","","","","","",""
"","","","","","html-button-response","139","274292","0.0-2.0-39.0","612b88aae22fbc7810cff174","C3","batch3","","648.5999999996275","tol_trial_num","<div class = centerbox><p class = center-block-text>problem <strong>11</strong> out of 25 problems</p></div>","0","","","","","","","","","","","","","","","","","","","","","","","","",""
"","","","","","single-stim-button","140","299165","0.0-2.0-40.0-0.0","612b88aae22fbc7810cff174","C3","batch3","","24871","tol_tohand","","","","tol_peg_1","24871","24871","0","[[1,0,0],[3,0],[0]]","1","[[2,0,0],[1,3],[0]]","10","0","","","","","","6","","","","","","","","",""
"","","","","","single-stim-button","141","299806","0.0-2.0-40.0-1.0","612b88aae22fbc7810cff174","C3","batch3","","640","tol_toboard","","","","tol_peg_2","640","640","0","[[1,0,0],[3,2],[0]]","1","[[2,0,0],[1,3],[0]]","10","0","","","","","","6","","","","","","","","",""
"","","","","","single-stim-button","142","300347","0.0-2.0-40.1-0.1","612b88aae22fbc7810cff174","C3","batch3","","539","tol_tohand","","","","tol_peg_1","539","539","0","[[0,0,0],[3,2],[0]]","2","[[2,0,0],[1,3],[0]]","10","0","","","","","","6","","","","","","","","",""
"","","","","","single-stim-button","143","300966","0.0-2.0-40.1-1.1","612b88aae22fbc7810cff174","C3","batch3","","617","tol_toboard","","","","tol_peg_3","617","617","0","[[0,0,0],[3,2],[1]]","2","[[2,0,0],[1,3],[0]]","10","0","","","","","","6","","","","","","","","",""
"","","","","","single-stim-button","144","301540","0.0-2.0-40.2-0.2","612b88aae22fbc7810cff174","C3","batch3","","573","tol_tohand","","","","tol_peg_2","573","573","0","[[0,0,0],[3,0],[1]]","3","[[2,0,0],[1,3],[0]]","10","0","","","","","","6","","","","","","","","",""
"","","","","","single-stim-button","145","302406","0.0-2.0-40.2-1.2","612b88aae22fbc7810cff174","C3","batch3","","864","tol_toboard","","","","tol_peg_1","864","864","0","[[2,0,0],[3,0],[1]]","3","[[2,0,0],[1,3],[0]]","10","0","","","","","","6","","","","","","","","",""
"","","","","","single-stim-button","146","303272","0.0-2.0-40.3-0.3","612b88aae22fbc7810cff174","C3","batch3","","864","tol_tohand","","","","tol_peg_2","864","864","0","[[2,0,0],[0,0],[1]]","4","[[2,0,0],[1,3],[0]]","10","0","","","","","","6","","","","","","","","",""
"","","","","","single-stim-button","147","303578","0.0-2.0-40.3-1.3","612b88aae22fbc7810cff174","C3","batch3","","304","tol_toboard","","","","tol_peg_1","304","304","0","[[2,3,0],[0,0],[1]]","4","[[2,0,0],[1,3],[0]]","10","0","","","","","","6","","","","","","","","",""
"","","","","","single-stim-button","148","304140","0.0-2.0-40.4-0.4","612b88aae22fbc7810cff174","C3","batch3","","560","tol_tohand","","","","tol_peg_3","560","560","0","[[2,3,0],[0,0],[0]]","5","[[2,0,0],[1,3],[0]]","10","0","","","","","","6","","","","","","","","",""
"","","","","","single-stim-button","149","304510","0.0-2.0-40.4-1.4","612b88aae22fbc7810cff174","C3","batch3","","370","tol_toboard","","","","tol_peg_2","370","370","0","[[2,3,0],[1,0],[0]]","5","[[2,0,0],[1,3],[0]]","10","0","","","","","","6","","","","","","","","",""
"","","","","","single-stim-button","150","305841","0.0-2.0-40.5-0.5","612b88aae22fbc7810cff174","C3","batch3","","1329","tol_tohand","","","","tol_peg_1","1329","1329","0","[[2,0,0],[1,0],[0]]","6","[[2,0,0],[1,3],[0]]","10","0","","","","","","6","","","","","","","","",""
"","","","","","single-stim-button","151","306401","0.0-2.0-40.5-1.5","612b88aae22fbc7810cff174","C3","batch3","","558","tol_toboard","","","","tol_peg_2","558","558","0","[[2,0,0],[1,3],[0]]","6","[[2,0,0],[1,3],[0]]","10","0","","","","","","6","","","","","","","","",""
"","","","","","poldrack-single-stim","152","307410","0.0-2.0-41.0","612b88aae22fbc7810cff174","C3","batch3","","-1","tol_feedback","","","true","","1000","1000","500","","","","","","-1","none","true","24871","28736","","","","","","","","","",""
"","","","","","html-button-response","153","308121","0.0-2.0-42.0","612b88aae22fbc7810cff174","C3","batch3","","709.0999999996275","tol_trial_num","<div class = centerbox><p class = center-block-text>problem <strong>12</strong> out of 25 problems</p></div>","0","","","","","","","","","","","","","","","","","","","","","","","","",""
"","","","","","single-stim-button","154","313918","0.0-2.0-43.0-0.0","612b88aae22fbc7810cff174","C3","batch3","","5795","tol_tohand","","","","tol_peg_1","5795","5795","0","[[1,0,0],[3,0],[0]]","1","[[2,3,0],[0,0],[1]]","11","0","","","","","","4","","","","","","","","",""
"","","","","","single-stim-button","155","314670","0.0-2.0-43.0-1.0","612b88aae22fbc7810cff174","C3","batch3","","750","tol_toboard","","","","tol_peg_2","750","750","0","[[1,0,0],[3,2],[0]]","1","[[2,3,0],[0,0],[1]]","11","0","","","","","","4","","","","","","","","",""
"","","","","","single-stim-button","156","315242","0.0-2.0-43.1-0.1","612b88aae22fbc7810cff174","C3","batch3","","570","tol_tohand","","","","tol_peg_1","570","570","0","[[0,0,0],[3,2],[0]]","2","[[2,3,0],[0,0],[1]]","11","0","","","","","","4","","","","","","","","",""
"","","","","","single-stim-button","157","315975","0.0-2.0-43.1-1.1","612b88aae22fbc7810cff174","C3","batch3","","731","tol_toboard","","","","tol_peg_3","731","731","0","[[0,0,0],[3,2],[1]]","2","[[2,3,0],[0,0],[1]]","11","0","","","","","","4","","","","","","","","",""
"","","","","","single-stim-button","158","316414","0.0-2.0-43.2-0.2","612b88aae22fbc7810cff174","C3","batch3","","437","tol_tohand","","","","tol_peg_2","437","437","0","[[0,0,0],[3,0],[1]]","3","[[2,3,0],[0,0],[1]]","11","0","","","","","","4","","","","","","","","",""
"","","","","","single-stim-button","159","316817","0.0-2.0-43.2-1.2","612b88aae22fbc7810cff174","C3","batch3","","402","tol_toboard","","","","tol_peg_1","402","402","0","[[2,0,0],[3,0],[1]]","3","[[2,3,0],[0,0],[1]]","11","0","","","","","","4","","","","","","","","",""
"","","","","","single-stim-button","160","317258","0.0-2.0-43.3-0.3","612b88aae22fbc7810cff174","C3","batch3","","439","tol_tohand","","","","tol_peg_2","439","439","0","[[2,0,0],[0,0],[1]]","4","[[2,3,0],[0,0],[1]]","11","0","","","","","","4","","","","","","","","",""
"","","","","","single-stim-button","161","317740","0.0-2.0-43.3-1.3","612b88aae22fbc7810cff174","C3","batch3","","480","tol_toboard","","","","tol_peg_1","480","480","0","[[2,3,0],[0,0],[1]]","4","[[2,3,0],[0,0],[1]]","11","0","","","","","","4","","","","","","","","",""
"","","","","","poldrack-single-stim","162","318743","0.0-2.0-44.0","612b88aae22fbc7810cff174","C3","batch3","","-1","tol_feedback","","","true","","1000","1000","500","","","","","","-1","none","true","5795","7241","","","","","","","","","",""
"","","","","","html-button-response","163","319428","0.0-2.0-45.0","612b88aae22fbc7810cff174","C3","batch3","","683.9000000003725","tol_trial_num","<div class = centerbox><p class = center-block-text>problem <strong>13</strong> out of 25 problems</p></div>","0","","","","","","","","","","","","","","","","","","","","","","","","",""
"","","","","","single-stim-button","164","325143","0.0-2.0-46.0-0.0","612b88aae22fbc7810cff174","C3","batch3","","5713","tol_tohand","","","","tol_peg_2","5713","5713","0","[[1,2,0],[0,0],[0]]","1","[[0,0,0],[2,3],[1]]","12","0","","","","","","4","","","","","","","","",""
"","","","","","single-stim-button","165","326009","0.0-2.0-46.0-1.0","612b88aae22fbc7810cff174","C3","batch3","","864","tol_toboard","","","","tol_peg_3","864","864","0","[[1,2,0],[0,0],[3]]","1","[[0,0,0],[2,3],[1]]","12","0","","","","","","4","","","","","","","","",""
"","","","","","single-stim-button","166","326662","0.0-2.0-46.1-0.1","612b88aae22fbc7810cff174","C3","batch3","","651","tol_tohand","","","","tol_peg_1","651","651","0","[[1,0,0],[0,0],[3]]","2","[[0,0,0],[2,3],[1]]","12","0","","","","","","4","","","","","","","","",""
"","","","","","single-stim-button","167","327169","0.0-2.0-46.1-1.1","612b88aae22fbc7810cff174","C3","batch3","","506","tol_toboard","","","","tol_peg_2","506","506","0","[[1,0,0],[2,0],[3]]","2","[[0,0,0],[2,3],[1]]","12","0","","","","","","4","","","","","","","","",""
"","","","","","single-stim-button","168","327730","0.0-2.0-46.2-0.2","612b88aae22fbc7810cff174","C3","batch3","","560","tol_tohand","","","","tol_peg_3","560","560","0","[[1,0,0],[2,0],[0]]","3","[[0,0,0],[2,3],[1]]","12","0","","","","","","4","","","","","","","","",""
"","","","","","single-stim-button","169","328169","0.0-2.0-46.2-1.2","612b88aae22fbc7810cff174","C3","batch3","","437","tol_toboard","","","","tol_peg_2","437","437","0","[[1,0,0],[2,3],[0]]","3","[[0,0,0],[2,3],[1]]","12","0","","","","","","4","","","","","","","","",""
"","","","","","single-stim-button","170","328710","0.0-2.0-46.3-0.3","612b88aae22fbc7810cff174","C3","batch3","","539","tol_tohand","","","","tol_peg_1","539","539","0","[[0,0,0],[2,3],[0]]","4","[[0,0,0],[2,3],[1]]","12","0","","","","","","4","","","","","","","","",""
"","","","","","single-stim-button","171","329497","0.0-2.0-46.3-1.3","612b88aae22fbc7810cff174","C3","batch3","","785","tol_toboard","","","","tol_peg_3","785","785","0","[[0,0,0],[2,3],[1]]","4","[[0,0,0],[2,3],[1]]","12","0","","","","","","4","","","","","","","","",""
"","","","","","poldrack-single-stim","172","330506","0.0-2.0-47.0","612b88aae22fbc7810cff174","C3","batch3","","-1","tol_feedback","","","true","","1000","1000","500","","","","","","-1","none","true","5713","7463","","","","","","","","","",""
"","","","","","html-button-response","173","335426","0.0-2.0-48.0","612b88aae22fbc7810cff174","C3","batch3","","4918.5","attention_check","<p class = block-text>How many balls are in your board<br></p>","1","true","","","","","","","","","","","","","","","","","","","","","","","",""
"","","","","","html-button-response","174","336518","0.0-2.0-49.0","612b88aae22fbc7810cff174","C3","batch3","","1089.199999999255","tol_trial_num","<div class = centerbox><p class = center-block-text>problem <strong>14</strong> out of 25 problems</p></div>","0","","","","","","","","","","","","","","","","","","","","","","","","",""
"","","","","","single-stim-button","175","341400","0.0-2.0-50.0-0.0","612b88aae22fbc7810cff174","C3","batch3","","4881","tol_tohand","","","","tol_peg_1","4881","4881","0","[[2,0,0],[3,0],[0]]","1","[[1,2,0],[3,0],[0]]","13","0","","","","","","4","","","","","","","","",""
"","","","","","single-stim-button","176","342029","0.0-2.0-50.0-1.0","612b88aae22fbc7810cff174","C3","batch3","","627","tol_toboard","","","","tol_peg_3","627","627","0","[[2,0,0],[3,0],[1]]","1","[[1,2,0],[3,0],[0]]","13","0","","","","","","4","","","","","","","","",""
"","","","","","single-stim-button","177","342829","0.0-2.0-50.1-0.1","612b88aae22fbc7810cff174","C3","batch3","","798","tol_tohand","","","","tol_peg_1","798","798","0","[[0,0,0],[3,0],[1]]","2","[[1,2,0],[3,0],[0]]","13","0","","","","","","4","","","","","","","","",""
"","","","","","single-stim-button","178","343392","0.0-2.0-50.1-1.1","612b88aae22fbc7810cff174","C3","batch3","","561","tol_toboard","","","","tol_peg_2","561","561","0","[[0,0,0],[3,2],[1]]","2","[[1,2,0],[3,0],[0]]","13","0","","","","","","4","","","","","","","","",""
"","","","","","single-stim-button","179","343843","0.0-2.0-50.2-0.2","612b88aae22fbc7810cff174","C3","batch3","","449","tol_tohand","","","","tol_peg_3","449","449","0","[[0,0,0],[3,2],[0]]","3","[[1,2,0],[3,0],[0]]","13","0","","","","","","4","","","","","","","","",""
"","","","","","single-stim-button","180","344426","0.0-2.0-50.2-1.2","612b88aae22fbc7810cff174","C3","batch3","","581","tol_toboard","","","","tol_peg_1","581","581","0","[[1,0,0],[3,2],[0]]","3","[[1,2,0],[3,0],[0]]","13","0","","","","","","4","","","","","","","","",""
"","","","","","single-stim-button","181","344922","0.0-2.0-50.3-0.3","612b88aae22fbc7810cff174","C3","batch3","","495","tol_tohand","","","","tol_peg_2","495","495","0","[[1,0,0],[3,0],[0]]","4","[[1,2,0],[3,0],[0]]","13","0","","","","","","4","","","","","","","","",""
"","","","","","single-stim-button","182","345641","0.0-2.0-50.3-1.3","612b88aae22fbc7810cff174","C3","batch3","","717","tol_toboard","","","","tol_peg_1","717","717","0","[[1,2,0],[3,0],[0]]","4","[[1,2,0],[3,0],[0]]","13","0","","","","","","4","","","","","","","","",""
"","","","","","poldrack-single-stim","183","346648","0.0-2.0-51.0","612b88aae22fbc7810cff174","C3","batch3","","-1","tol_feedback","","","true","","1000","1000","500","","","","","","-1","none","true","4881","6623","","","","","","","","","",""
"","","","","","html-button-response","184","347609","0.0-2.0-52.0","612b88aae22fbc7810cff174","C3","batch3","","959.4000000003725","tol_trial_num","<div class = centerbox><p class = center-block-text>problem <strong>15</strong> out of 25 problems</p></div>","0","","","","","","","","","","","","","","","","","","","","","","","","",""
"","","","","","single-stim-button","185","351468","0.0-2.0-53.0-0.0","612b88aae22fbc7810cff174","C3","batch3","","3857","tol_tohand","","","","tol_peg_1","3857","3857","0","[[1,0,0],[3,0],[0]]","1","[[2,0,0],[3,0],[1]]","14","0","","","","","","3","","","","","","","","",""
"","","","","","single-stim-button","186","352200","0.0-2.0-53.0-1.0","612b88aae22fbc7810cff174","C3","batch3","","730","tol_toboard","","","","tol_peg_2","730","730","0","[[1,0,0],[3,2],[0]]","1","[[2,0,0],[3,0],[1]]","14","0","","","","","","3","","","","","","","","",""
"","","","","","single-stim-button","187","352773","0.0-2.0-53.1-0.1","612b88aae22fbc7810cff174","C3","batch3","","572","tol_tohand","","","","tol_peg_1","572","572","0","[[0,0,0],[3,2],[0]]","2","[[2,0,0],[3,0],[1]]","14","0","","","","","","3","","","","","","","","",""
"","","","","","single-stim-button","188","353473","0.0-2.0-53.1-1.1","612b88aae22fbc7810cff174","C3","batch3","","698","tol_toboard","","","","tol_peg_3","698","698","0","[[0,0,0],[3,2],[1]]","2","[[2,0,0],[3,0],[1]]","14","0","","","","","","3","","","","","","","","",""
"","","","","","single-stim-button","189","354035","0.0-2.0-53.2-0.2","612b88aae22fbc7810cff174","C3","batch3","","560","tol_tohand","","","","tol_peg_2","560","560","0","[[0,0,0],[3,0],[1]]","3","[[2,0,0],[3,0],[1]]","14","0","","","","","","3","","","","","","","","",""
"","","","","","single-stim-button","190","354516","0.0-2.0-53.2-1.2","612b88aae22fbc7810cff174","C3","batch3","","479","tol_toboard","","","","tol_peg_1","479","479","0","[[2,0,0],[3,0],[1]]","3","[[2,0,0],[3,0],[1]]","14","0","","","","","","3","","","","","","","","",""
"","","","","","poldrack-single-stim","191","355526","0.0-2.0-54.0","612b88aae22fbc7810cff174","C3","batch3","","-1","tol_feedback","","","true","","1000","1000","500","","","","","","-1","none","true","3857","4989","","","","","","","","","",""
"","","","","","html-button-response","192","356159","0.0-2.0-55.0","612b88aae22fbc7810cff174","C3","batch3","","630.9000000003725","tol_trial_num","<div class = centerbox><p class = center-block-text>problem <strong>16</strong> out of 25 problems</p></div>","0","","","","","","","","","","","","","","","","","","","","","","","","",""
"","","","","","single-stim-button","193","402566","0.0-2.0-56.0-0.0","612b88aae22fbc7810cff174","C3","batch3","","46406","tol_tohand","","","","tol_peg_2","46406","46406","0","[[0,0,0],[2,0],[1]]","1","[[2,3,0],[1,0],[0]]","15","0","","","","","","7","","","","","","","","",""
"","","","","","single-stim-button","194","404300","0.0-2.0-56.0-1.0","612b88aae22fbc7810cff174","C3","batch3","","1732","tol_toboard","","","","tol_peg_1","1732","1732","0","[[3,0,0],[2,0],[1]]","1","[[2,3,0],[1,0],[0]]","15","0","","","","","","7","","","","","","","","",""
"","","","","","single-stim-button","195","405254","0.0-2.0-56.1-0.1","612b88aae22fbc7810cff174","C3","batch3","","953","tol_tohand","","","","tol_peg_2","953","953","0","[[3,0,0],[0,0],[1]]","2","[[2,3,0],[1,0],[0]]","15","0","","","","","","7","","","","","","","","",""
"","","","","","single-stim-button","196","405839","0.0-2.0-56.1-1.1","612b88aae22fbc7810cff174","C3","batch3","","583","tol_toboard","","","","tol_peg_1","583","583","0","[[3,2,0],[0,0],[1]]","2","[[2,3,0],[1,0],[0]]","15","0","","","","","","7","","","","","","","","",""
"","","","","","single-stim-button","197","406852","0.0-2.0-56.2-0.2","612b88aae22fbc7810cff174","C3","batch3","","1012","tol_tohand","","","","tol_peg_3","1012","1012","0","[[3,2,0],[0,0],[0]]","3","[[2,3,0],[1,0],[0]]","15","0","","","","","","7","","","","","","","","",""
"","","","","","single-stim-button","198","407550","0.0-2.0-56.2-1.2","612b88aae22fbc7810cff174","C3","batch3","","696","tol_toboard","","","","tol_peg_2","696","696","0","[[3,2,0],[1,0],[0]]","3","[[2,3,0],[1,0],[0]]","15","0","","","","","","7","","","","","","","","",""
"","","","","","single-stim-button","199","408866","0.0-2.0-56.3-0.3","612b88aae22fbc7810cff174","C3","batch3","","1315","tol_tohand","","","","tol_peg_1","1315","1315","0","[[3,0,0],[1,0],[0]]","4","[[2,3,0],[1,0],[0]]","15","0","","","","","","7","","","","","","","","",""
"","","","","","single-stim-button","200","409518","0.0-2.0-56.3-1.3","612b88aae22fbc7810cff174","C3","batch3","","650","tol_toboard","","","","tol_peg_3","650","650","0","[[3,0,0],[1,0],[2]]","4","[[2,3,0],[1,0],[0]]","15","0","","","","","","7","","","","","","","","",""
"","","","","","single-stim-button","201","410084","0.0-2.0-56.4-0.4","612b88aae22fbc7810cff174","C3","batch3","","564","tol_tohand","","","","tol_peg_1","564","564","0","[[0,0,0],[1,0],[2]]","5","[[2,3,0],[1,0],[0]]","15","0","","","","","","7","","","","","","","","",""
"","","","","","single-stim-button","202","410622","0.0-2.0-56.4-1.4","612b88aae22fbc7810cff174","C3","batch3","","537","tol_toboard","","","","tol_peg_2","537","537","0","[[0,0,0],[1,3],[2]]","5","[[2,3,0],[1,0],[0]]","15","0","","","","","","7","","","","","","","","",""
"","","","","","single-stim-button","203","411161","0.0-2.0-56.5-0.5","612b88aae22fbc7810cff174","C3","batch3","","537","tol_tohand","","","","tol_peg_3","537","537","0","[[0,0,0],[1,3],[0]]","6","[[2,3,0],[1,0],[0]]","15","0","","","","","","7","","","","","","","","",""
"","","","","","single-stim-button","204","411803","0.0-2.0-56.5-1.5","612b88aae22fbc7810cff174","C3","batch3","","640","tol_toboard","","","","tol_peg_1","640","640","0","[[2,0,0],[1,3],[0]]","6","[[2,3,0],[1,0],[0]]","15","0","","","","","","7","","","","","","","","",""
"","","","","","single-stim-button","205","412309","0.0-2.0-56.6-0.6","612b88aae22fbc7810cff174","C3","batch3","","505","tol_tohand","","","","tol_peg_2","505","505","0","[[2,0,0],[1,0],[0]]","7","[[2,3,0],[1,0],[0]]","15","0","","","","","","7","","","","","","","","",""
"","","","","","single-stim-button","206","413095","0.0-2.0-56.6-1.6","612b88aae22fbc7810cff174","C3","batch3","","784","tol_toboard","","","","tol_peg_1","784","784","0","[[2,3,0],[1,0],[0]]","7","[[2,3,0],[1,0],[0]]","15","0","","","","","","7","","","","","","","","",""
"","","","","","poldrack-single-stim","207","414101","0.0-2.0-57.0","612b88aae22fbc7810cff174","C3","batch3","","-1","tol_feedback","","","true","","1000","1000","500","","","","","","-1","none","true","46406","51292","","","","","","","","","",""
"","","","","","html-button-response","208","414726","0.0-2.0-58.0","612b88aae22fbc7810cff174","C3","batch3","","623.4000000003725","tol_trial_num","<div class = centerbox><p class = center-block-text>problem <strong>17</strong> out of 25 problems</p></div>","0","","","","","","","","","","","","","","","","","","","","","","","","",""
"","","","","","single-stim-button","209","424638","0.0-2.0-59.0-0.0","612b88aae22fbc7810cff174","C3","batch3","","9910","tol_tohand","","","","tol_peg_2","9910","9910","0","[[1,2,0],[0,0],[0]]","1","[[3,1,0],[2,0],[0]]","16","0","","","","","","5","","","","","","","","",""
"","","","","","single-stim-button","210","425720","0.0-2.0-59.0-1.0","612b88aae22fbc7810cff174","C3","batch3","","1080","tol_toboard","","","","tol_peg_3","1080","1080","0","[[1,2,0],[0,0],[3]]","1","[[3,1,0],[2,0],[0]]","16","0","","","","","","5","","","","","","","","",""
"","","","","","single-stim-button","211","426326","0.0-2.0-59.1-0.1","612b88aae22fbc7810cff174","C3","batch3","","604","tol_tohand","","","","tol_peg_1","604","604","0","[[1,0,0],[0,0],[3]]","2","[[3,1,0],[2,0],[0]]","16","0","","","","","","5","","","","","","","","",""
"","","","","","single-stim-button","212","426912","0.0-2.0-59.1-1.1","612b88aae22fbc7810cff174","C3","batch3","","584","tol_toboard","","","","tol_peg_2","584","584","0","[[1,0,0],[2,0],[3]]","2","[[3,1,0],[2,0],[0]]","16","0","","","","","","5","","","","","","","","",""
"","","","","","single-stim-button","213","427418","0.0-2.0-59.2-0.2","612b88aae22fbc7810cff174","C3","batch3","","505","tol_tohand","","","","tol_peg_1","505","505","0","[[0,0,0],[2,0],[3]]","3","[[3,1,0],[2,0],[0]]","16","0","","","","","","5","","","","","","","","",""
"","","","","","single-stim-button","214","427923","0.0-2.0-59.2-1.2","612b88aae22fbc7810cff174","C3","batch3","","503","tol_toboard","","","","tol_peg_2","503","503","0","[[0,0,0],[2,1],[3]]","3","[[3,1,0],[2,0],[0]]","16","0","","","","","","5","","","","","","","","",""
"","","","","","single-stim-button","215","428599","0.0-2.0-59.3-0.3","612b88aae22fbc7810cff174","C3","batch3","","674","tol_tohand","","","","tol_peg_3","674","674","0","[[0,0,0],[2,1],[0]]","4","[[3,1,0],[2,0],[0]]","16","0","","","","","","5","","","","","","","","",""
"","","","","","single-stim-button","216","429208","0.0-2.0-59.3-1.3","612b88aae22fbc7810cff174","C3","batch3","","607","tol_toboard","","","","tol_peg_1","607","607","0","[[3,0,0],[2,1],[0]]","4","[[3,1,0],[2,0],[0]]","16","0","","","","","","5","","","","","","","","",""
"","","","","","single-stim-button","217","429870","0.0-2.0-59.4-0.4","612b88aae22fbc7810cff174","C3","batch3","","660","tol_tohand","","","","tol_peg_2","660","660","0","[[3,0,0],[2,0],[0]]","5","[[3,1,0],[2,0],[0]]","16","0","","","","","","5","","","","","","","","",""
"","","","","","single-stim-button","218","430433","0.0-2.0-59.4-1.4","612b88aae22fbc7810cff174","C3","batch3","","561","tol_toboard","","","","tol_peg_1","561","561","0","[[3,1,0],[2,0],[0]]","5","[[3,1,0],[2,0],[0]]","16","0","","","","","","5","","","","","","","","",""
"","","","","","poldrack-single-stim","219","431440","0.0-2.0-60.0","612b88aae22fbc7810cff174","C3","batch3","","-1","tol_feedback","","","true","","1000","1000","500","","","","","","-1","none","true","9910","12353","","","","","","","","","",""
"","","","","","html-button-response","220","432017","0.0-2.0-61.0","612b88aae22fbc7810cff174","C3","batch3","","576.0999999996275","tol_trial_num","<div class = centerbox><p class = center-block-text>problem <strong>18</strong> out of 25 problems</p></div>","0","","","","","","","","","","","","","","","","","","","","","","","","",""
"","","","","","single-stim-button","221","436407","0.0-2.0-62.0-0.0","612b88aae22fbc7810cff174","C3","batch3","","4387","tol_tohand","","","","tol_peg_2","4387","4387","0","[[1,2,0],[0,0],[0]]","1","[[3,0,0],[2,0],[1]]","17","0","","","","","","5","","","","","","","","",""
"","","","","","single-stim-button","222","437273","0.0-2.0-62.0-1.0","612b88aae22fbc7810cff174","C3","batch3","","864","tol_toboard","","","","tol_peg_3","864","864","0","[[1,2,0],[0,0],[3]]","1","[[3,0,0],[2,0],[1]]","17","0","","","","","","5","","","","","","","","",""
"","","","","","single-stim-button","223","438194","0.0-2.0-62.1-0.1","612b88aae22fbc7810cff174","C3","batch3","","920","tol_tohand","","","","tol_peg_1","920","920","0","[[1,0,0],[0,0],[3]]","2","[[3,0,0],[2,0],[1]]","17","0","","","","","","5","","","","","","","","",""
"","","","","","single-stim-button","224","438678","0.0-2.0-62.1-1.1","612b88aae22fbc7810cff174","C3","batch3","","482","tol_toboard","","","","tol_peg_2","482","482","0","[[1,0,0],[2,0],[3]]","2","[[3,0,0],[2,0],[1]]","17","0","","","","","","5","","","","","","","","",""
"","","","","","single-stim-button","225","439399","0.0-2.0-62.2-0.2","612b88aae22fbc7810cff174","C3","batch3","","719","tol_tohand","","","","tol_peg_1","719","719","0","[[0,0,0],[2,0],[3]]","3","[[3,0,0],[2,0],[1]]","17","0","","","","","","5","","","","","","","","",""
"","","","","","single-stim-button","226","441030","0.0-2.0-62.2-1.2","612b88aae22fbc7810cff174","C3","batch3","","1629","tol_toboard","","","","tol_peg_2","1629","1629","0","[[0,0,0],[2,1],[3]]","3","[[3,0,0],[2,0],[1]]","17","0","","","","","","5","","","","","","","","",""
"","","","","","single-stim-button","227","441450","0.0-2.0-62.3-0.3","612b88aae22fbc7810cff174","C3","batch3","","418","tol_tohand","","","","tol_peg_3","418","418","0","[[0,0,0],[2,1],[0]]","4","[[3,0,0],[2,0],[1]]","17","0","","","","","","5","","","","","","","","",""
"","","","","","single-stim-button","228","442155","0.0-2.0-62.3-1.3","612b88aae22fbc7810cff174","C3","batch3","","704","tol_toboard","","","","tol_peg_1","704","704","0","[[3,0,0],[2,1],[0]]","4","[[3,0,0],[2,0],[1]]","17","0","","","","","","5","","","","","","","","",""
"","","","","","single-stim-button","229","442583","0.0-2.0-62.4-0.4","612b88aae22fbc7810cff174","C3","batch3","","427","tol_tohand","","","","tol_peg_2","427","427","0","[[3,0,0],[2,0],[0]]","5","[[3,0,0],[2,0],[1]]","17","0","","","","","","5","","","","","","","","",""
"","","","","","single-stim-button","230","443088","0.0-2.0-62.4-1.4","612b88aae22fbc7810cff174","C3","batch3","","503","tol_toboard","","","","tol_peg_3","503","503","0","[[3,0,0],[2,0],[1]]","5","[[3,0,0],[2,0],[1]]","17","0","","","","","","5","","","","","","","","",""
"","","","","","poldrack-single-stim","231","444091","0.0-2.0-63.0","612b88aae22fbc7810cff174","C3","batch3","","-1","tol_feedback","","","true","","1000","1000","500","","","","","","-1","none","true","4387","6871","","","","","","","","","",""
"","","","","","html-button-response","232","444922","0.0-2.0-64.0","612b88aae22fbc7810cff174","C3","batch3","","828.9000000003725","tol_trial_num","<div class = centerbox><p class = center-block-text>problem <strong>19</strong> out of 25 problems</p></div>","0","","","","","","","","","","","","","","","","","","","","","","","","",""
"","","","","","single-stim-button","233","449850","0.0-2.0-65.0-0.0","612b88aae22fbc7810cff174","C3","batch3","","4926","tol_tohand","","","","tol_peg_2","4926","4926","0","[[1,2,0],[0,0],[0]]","1","[[0,0,0],[1,2],[3]]","18","0","","","","","","7","","","","","","","","",""
"","","","","","single-stim-button","234","463406","0.0-2.0-65.0-1.0","612b88aae22fbc7810cff174","C3","batch3","","13554","tol_toboard","","","","tol_peg_3","13554","13554","0","[[1,2,0],[0,0],[3]]","1","[[0,0,0],[1,2],[3]]","18","0","","","","","","7","","","","","","","","",""
"","","","","","single-stim-button","235","466084","0.0-2.0-65.1-0.1","612b88aae22fbc7810cff174","C3","batch3","","2677","tol_tohand","","","","tol_peg_1","2677","2677","0","[[1,0,0],[0,0],[3]]","2","[[0,0,0],[1,2],[3]]","18","0","","","","","","7","","","","","","","","",""
"","","","","","single-stim-button","236","466670","0.0-2.0-65.1-1.1","612b88aae22fbc7810cff174","C3","batch3","","584","tol_toboard","","","","tol_peg_2","584","584","0","[[1,0,0],[2,0],[3]]","2","[[0,0,0],[1,2],[3]]","18","0","","","","","","7","","","","","","","","",""
"","","","","","single-stim-button","237","473419","0.0-2.0-65.2-0.2","612b88aae22fbc7810cff174","C3","batch3","","6747","tol_tohand","","","","tol_peg_1","6747","6747","0","[[0,0,0],[2,0],[3]]","3","[[0,0,0],[1,2],[3]]","18","0","","","","","","7","","","","","","","","",""
"","","","","","single-stim-button","238","474445","0.0-2.0-65.2-1.2","612b88aae22fbc7810cff174","C3","batch3","","1025","tol_toboard","","","","tol_peg_2","1025","1025","0","[[0,0,0],[2,1],[3]]","3","[[0,0,0],[1,2],[3]]","18","0","","","","","","7","","","","","","","","",""
"","","","","","single-stim-button","239","475028","0.0-2.0-65.3-0.3","612b88aae22fbc7810cff174","C3","batch3","","581","tol_tohand","","","","tol_peg_3","581","581","0","[[0,0,0],[2,1],[0]]","4","[[0,0,0],[1,2],[3]]","18","0","","","","","","7","","","","","","","","",""
"","","","","","single-stim-button","240","475781","0.0-2.0-65.3-1.3","612b88aae22fbc7810cff174","C3","batch3","","751","tol_toboard","","","","tol_peg_1","751","751","0","[[3,0,0],[2,1],[0]]","4","[[0,0,0],[1,2],[3]]","18","0","","","","","","7","","","","","","","","",""
"","","","","","single-stim-button","241","476199","0.0-2.0-65.4-0.4","612b88aae22fbc7810cff174","C3","batch3","","416","tol_tohand","","","","tol_peg_2","416","416","0","[[3,0,0],[2,0],[0]]","5","[[0,0,0],[1,2],[3]]","18","0","","","","","","7","","","","","","","","",""
"","","","","","single-stim-button","242","476794","0.0-2.0-65.4-1.4","612b88aae22fbc7810cff174","C3","batch3","","593","tol_toboard","","","","tol_peg_3","593","593","0","[[3,0,0],[2,0],[1]]","5","[[0,0,0],[1,2],[3]]","18","0","","","","","","7","","","","","","","","",""
"","","","","","single-stim-button","243","480372","0.0-2.0-65.5-0.5","612b88aae22fbc7810cff174","C3","batch3","","3576","tol_tohand","","","","tol_peg_2","3576","3576","0","[[3,0,0],[0,0],[1]]","6","[[0,0,0],[1,2],[3]]","18","0","","","","","","7","","","","","","","","",""
"","","","","","single-stim-button","244","480833","0.0-2.0-65.5-1.5","612b88aae22fbc7810cff174","C3","batch3","","459","tol_toboard","","","","tol_peg_1","459","459","0","[[3,2,0],[0,0],[1]]","6","[[0,0,0],[1,2],[3]]","18","0","","","","","","7","","","","","","","","",""
"","","","","","single-stim-button","245","481442","0.0-2.0-65.6-0.6","612b88aae22fbc7810cff174","C3","batch3","","607","tol_tohand","","","","tol_peg_3","607","607","0","[[3,2,0],[0,0],[0]]","7","[[0,0,0],[1,2],[3]]","18","0","","","","","","7","","","","","","","","",""
"","","","","","single-stim-button","246","481914","0.0-2.0-65.6-1.6","612b88aae22fbc7810cff174","C3","batch3","","470","tol_toboard","","","","tol_peg_2","470","470","0","[[3,2,0],[1,0],[0]]","7","[[0,0,0],[1,2],[3]]","18","0","","","","","","7","","","","","","","","",""
"","","","","","single-stim-button","247","482396","0.0-2.0-65.7-0.7","612b88aae22fbc7810cff174","C3","batch3","","481","tol_tohand","","","","tol_peg_1","481","481","0","[[3,0,0],[1,0],[0]]","8","[[0,0,0],[1,2],[3]]","18","0","","","","","","7","","","","","","","","",""
"","","","","","single-stim-button","248","482792","0.0-2.0-65.7-1.7","612b88aae22fbc7810cff174","C3","batch3","","394","tol_toboard","","","","tol_peg_2","394","394","0","[[3,0,0],[1,2],[0]]","8","[[0,0,0],[1,2],[3]]","18","0","","","","","","7","","","","","","","","",""
"","","","","","single-stim-button","249","483242","0.0-2.0-65.8-0.8","612b88aae22fbc7810cff174","C3","batch3","","448","tol_tohand","","","","tol_peg_1","448","448","0","[[0,0,0],[1,2],[0]]","9","[[0,0,0],[1,2],[3]]","18","0","","","","","","7","","","","","","","","",""
"","","","","","single-stim-button","250","483837","0.0-2.0-65.8-1.8","612b88aae22fbc7810cff174","C3","batch3","","593","tol_toboard","","","","tol_peg_3","593","593","0","[[0,0,0],[1,2],[3]]","9","[[0,0,0],[1,2],[3]]","18","0","","","","","","7","","","","","","","","",""
"","","","","","poldrack-single-stim","251","484845","0.0-2.0-66.0","612b88aae22fbc7810cff174","C3","batch3","","-1","tol_feedback","","","true","","1000","1000","500","","","","","","-1","none","true","4926","20459","","","","","","","","","",""
"","","","","","html-button-response","252","485525","0.0-2.0-67.0","612b88aae22fbc7810cff174","C3","batch3","","678.5999999996275","tol_trial_num","<div class = centerbox><p class = center-block-text>problem <strong>20</strong> out of 25 problems</p></div>","0","","","","","","","","","","","","","","","","","","","","","","","","",""
"","","","","","single-stim-button","253","492400","0.0-2.0-68.0-0.0","612b88aae22fbc7810cff174","C3","batch3","","6873","tol_tohand","","","","tol_peg_1","6873","6873","0","[[1,0,0],[3,0],[0]]","1","[[2,1,0],[0,0],[3]]","19","0","","","","","","5","","","","","","","","",""
"","","","","","single-stim-button","254","493118","0.0-2.0-68.0-1.0","612b88aae22fbc7810cff174","C3","batch3","","716","tol_toboard","","","","tol_peg_3","716","716","0","[[1,0,0],[3,0],[2]]","1","[[2,1,0],[0,0],[3]]","19","0","","","","","","5","","","","","","","","",""
"","","","","","single-stim-button","255","493951","0.0-2.0-68.1-0.1","612b88aae22fbc7810cff174","C3","batch3","","831","tol_tohand","","","","tol_peg_1","831","831","0","[[0,0,0],[3,0],[2]]","2","[[2,1,0],[0,0],[3]]","19","0","","","","","","5","","","","","","","","",""
"","","","","","single-stim-button","256","494604","0.0-2.0-68.1-1.1","612b88aae22fbc7810cff174","C3","batch3","","651","tol_toboard","","","","tol_peg_2","651","651","0","[[0,0,0],[3,1],[2]]","2","[[2,1,0],[0,0],[3]]","19","0","","","","","","5","","","","","","","","",""
"","","","","","single-stim-button","257","495086","0.0-2.0-68.2-0.2","612b88aae22fbc7810cff174","C3","batch3","","481","tol_tohand","","","","tol_peg_3","481","481","0","[[0,0,0],[3,1],[0]]","3","[[2,1,0],[0,0],[3]]","19","0","","","","","","5","","","","","","","","",""
"","","","","","single-stim-button","258","495831","0.0-2.0-68.2-1.2","612b88aae22fbc7810cff174","C3","batch3","","743","tol_toboard","","","","tol_peg_1","743","743","0","[[2,0,0],[3,1],[0]]","3","[[2,1,0],[0,0],[3]]","19","0","","","","","","5","","","","","","","","",""
"","","","","","single-stim-button","259","496317","0.0-2.0-68.3-0.3","612b88aae22fbc7810cff174","C3","batch3","","484","tol_tohand","","","","tol_peg_2","484","484","0","[[2,0,0],[3,0],[0]]","4","[[2,1,0],[0,0],[3]]","19","0","","","","","","5","","","","","","","","",""
"","","","","","single-stim-button","260","496763","0.0-2.0-68.3-1.3","612b88aae22fbc7810cff174","C3","batch3","","444","tol_toboard","","","","tol_peg_1","444","444","0","[[2,1,0],[3,0],[0]]","4","[[2,1,0],[0,0],[3]]","19","0","","","","","","5","","","","","","","","",""
"","","","","","single-stim-button","261","497236","0.0-2.0-68.4-0.4","612b88aae22fbc7810cff174","C3","batch3","","471","tol_tohand","","","","tol_peg_2","471","471","0","[[2,1,0],[0,0],[0]]","5","[[2,1,0],[0,0],[3]]","19","0","","","","","","5","","","","","","","","",""
"","","","","","single-stim-button","262","497844","0.0-2.0-68.4-1.4","612b88aae22fbc7810cff174","C3","batch3","","606","tol_toboard","","","","tol_peg_3","606","606","0","[[2,1,0],[0,0],[3]]","5","[[2,1,0],[0,0],[3]]","19","0","","","","","","5","","","","","","","","",""
"","","","","","poldrack-single-stim","263","498851","0.0-2.0-69.0","612b88aae22fbc7810cff174","C3","batch3","","-1","tol_feedback","","","true","","1000","1000","500","","","","","","-1","none","true","6873","9140","","","","","","","","","",""
"","","","","","html-button-response","264","499530","0.0-2.0-70.0","612b88aae22fbc7810cff174","C3","batch3","","678.1000000014901","tol_trial_num","<div class = centerbox><p class = center-block-text>problem <strong>21</strong> out of 25 problems</p></div>","0","","","","","","","","","","","","","","","","","","","","","","","","",""
"","","","","","single-stim-button","265","538354","0.0-2.0-71.0-0.0","612b88aae22fbc7810cff174","C3","batch3","","38822","tol_tohand","","","","tol_peg_2","38822","38822","0","[[1,2,0],[0,0],[0]]","1","[[3,2,0],[0,0],[1]]","20","0","","","","","","6","","","","","","","","",""
"","","","","","single-stim-button","266","538985","0.0-2.0-71.0-1.0","612b88aae22fbc7810cff174","C3","batch3","","630","tol_toboard","","","","tol_peg_3","630","630","0","[[1,2,0],[0,0],[3]]","1","[[3,2,0],[0,0],[1]]","20","0","","","","","","6","","","","","","","","",""
"","","","","","single-stim-button","267","539750","0.0-2.0-71.1-0.1","612b88aae22fbc7810cff174","C3","batch3","","763","tol_tohand","","","","tol_peg_1","763","763","0","[[1,0,0],[0,0],[3]]","2","[[3,2,0],[0,0],[1]]","20","0","","","","","","6","","","","","","","","",""
"","","","","","single-stim-button","268","541629","0.0-2.0-71.1-1.1","612b88aae22fbc7810cff174","C3","batch3","","1877","tol_toboard","","","","tol_peg_2","1877","1877","0","[[1,0,0],[2,0],[3]]","2","[[3,2,0],[0,0],[1]]","20","0","","","","","","6","","","","","","","","",""
"","","","","","single-stim-button","269","542643","0.0-2.0-71.2-0.2","612b88aae22fbc7810cff174","C3","batch3","","1012","tol_tohand","","","","tol_peg_1","1012","1012","0","[[0,0,0],[2,0],[3]]","3","[[3,2,0],[0,0],[1]]","20","0","","","","","","6","","","","","","","","",""
"","","","","","single-stim-button","270","543147","0.0-2.0-71.2-1.2","612b88aae22fbc7810cff174","C3","batch3","","503","tol_toboard","","","","tol_peg_2","503","503","0","[[0,0,0],[2,1],[3]]","3","[[3,2,0],[0,0],[1]]","20","0","","","","","","6","","","","","","","","",""
"","","","","","single-stim-button","271","543664","0.0-2.0-71.3-0.3","612b88aae22fbc7810cff174","C3","batch3","","515","tol_tohand","","","","tol_peg_3","515","515","0","[[0,0,0],[2,1],[0]]","4","[[3,2,0],[0,0],[1]]","20","0","","","","","","6","","","","","","","","",""
"","","","","","single-stim-button","272","544230","0.0-2.0-71.3-1.3","612b88aae22fbc7810cff174","C3","batch3","","564","tol_toboard","","","","tol_peg_1","564","564","0","[[3,0,0],[2,1],[0]]","4","[[3,2,0],[0,0],[1]]","20","0","","","","","","6","","","","","","","","",""
"","","","","","single-stim-button","273","544702","0.0-2.0-71.4-0.4","612b88aae22fbc7810cff174","C3","batch3","","470","tol_tohand","","","","tol_peg_2","470","470","0","[[3,0,0],[2,0],[0]]","5","[[3,2,0],[0,0],[1]]","20","0","","","","","","6","","","","","","","","",""
"","","","","","single-stim-button","274","545218","0.0-2.0-71.4-1.4","612b88aae22fbc7810cff174","C3","batch3","","514","tol_toboard","","","","tol_peg_3","514","514","0","[[3,0,0],[2,0],[1]]","5","[[3,2,0],[0,0],[1]]","20","0","","","","","","6","","","","","","","","",""
"","","","","","single-stim-button","275","545668","0.0-2.0-71.5-0.5","612b88aae22fbc7810cff174","C3","batch3","","449","tol_tohand","","","","tol_peg_2","449","449","0","[[3,0,0],[0,0],[1]]","6","[[3,2,0],[0,0],[1]]","20","0","","","","","","6","","","","","","","","",""
"","","","","","single-stim-button","276","546162","0.0-2.0-71.5-1.5","612b88aae22fbc7810cff174","C3","batch3","","492","tol_toboard","","","","tol_peg_1","492","492","0","[[3,2,0],[0,0],[1]]","6","[[3,2,0],[0,0],[1]]","20","0","","","","","","6","","","","","","","","",""
"","","","","","poldrack-single-stim","277","547175","0.0-2.0-72.0","612b88aae22fbc7810cff174","C3","batch3","","-1","tol_feedback","","","true","","1000","1000","500","","","","","","-1","none","true","38822","42031","","","","","","","","","",""
"","","","","","html-button-response","278","547996","0.0-2.0-73.0","612b88aae22fbc7810cff174","C3","batch3","","819.4000000003725","tol_trial_num","<div class = centerbox><p class = center-block-text>problem <strong>22</strong> out of 25 problems</p></div>","0","","","","","","","","","","","","","","","","","","","","","","","","",""
"","","","","","single-stim-button","279","566345","0.0-2.0-74.0-0.0","612b88aae22fbc7810cff174","C3","batch3","","18347","tol_tohand","","","","tol_peg_2","18347","18347","0","[[1,0,0],[2,0],[0]]","1","[[0,0,0],[1,2],[3]]","21","0","","","","","","6","","","","","","","","",""
"","","","","","single-stim-button","280","575403","0.0-2.0-74.0-1.0","612b88aae22fbc7810cff174","C3","batch3","","9055","tol_toboard","","","","tol_peg_2","9055","9055","0","[[1,0,0],[2,3],[0]]","1","[[0,0,0],[1,2],[3]]","21","0","","","","","","6","","","","","","","","",""
"","","","","","single-stim-button","281","576335","0.0-2.0-74.1-0.1","612b88aae22fbc7810cff174","C3","batch3","","930","tol_tohand","","","","tol_peg_1","930","930","0","[[0,0,0],[2,3],[0]]","2","[[0,0,0],[1,2],[3]]","21","0","","","","","","6","","","","","","","","",""
"","","","","","single-stim-button","282","577101","0.0-2.0-74.1-1.1","612b88aae22fbc7810cff174","C3","batch3","","766","tol_toboard","","","","tol_peg_3","766","766","0","[[0,0,0],[2,3],[1]]","2","[[0,0,0],[1,2],[3]]","21","0","","","","","","6","","","","","","","","",""
"","","","","","single-stim-button","283","578934","0.0-2.0-74.2-0.2","612b88aae22fbc7810cff174","C3","batch3","","1832","tol_tohand","","","","tol_peg_2","1832","1832","0","[[0,0,0],[2,0],[1]]","3","[[0,0,0],[1,2],[3]]","21","0","","","","","","6","","","","","","","","",""
"","","","","","single-stim-button","284","579328","0.0-2.0-74.2-1.2","612b88aae22fbc7810cff174","C3","batch3","","392","tol_toboard","","","","tol_peg_1","392","392","0","[[3,0,0],[2,0],[1]]","3","[[0,0,0],[1,2],[3]]","21","0","","","","","","6","","","","","","","","",""
"","","","","","single-stim-button","285","579678","0.0-2.0-74.3-0.3","612b88aae22fbc7810cff174","C3","batch3","","348","tol_tohand","","","","tol_peg_2","348","348","0","[[3,0,0],[0,0],[1]]","4","[[0,0,0],[1,2],[3]]","21","0","","","","","","6","","","","","","","","",""
"","","","","","single-stim-button","286","579947","0.0-2.0-74.3-1.3","612b88aae22fbc7810cff174","C3","batch3","","267","tol_toboard","","","","tol_peg_1","267","267","0","[[3,2,0],[0,0],[1]]","4","[[0,0,0],[1,2],[3]]","21","0","","","","","","6","","","","","","","","",""
"","","","","","single-stim-button","287","580420","0.0-2.0-74.4-0.4","612b88aae22fbc7810cff174","C3","batch3","","471","tol_tohand","","","","tol_peg_3","471","471","0","[[3,2,0],[0,0],[0]]","5","[[0,0,0],[1,2],[3]]","21","0","","","","","","6","","","","","","","","",""
"","","","","","single-stim-button","288","580812","0.0-2.0-74.4-1.4","612b88aae22fbc7810cff174","C3","batch3","","390","tol_toboard","","","","tol_peg_2","390","390","0","[[3,2,0],[1,0],[0]]","5","[[0,0,0],[1,2],[3]]","21","0","","","","","","6","","","","","","","","",""
"","","","","","single-stim-button","289","581443","0.0-2.0-74.5-0.5","612b88aae22fbc7810cff174","C3","batch3","","629","tol_tohand","","","","tol_peg_1","629","629","0","[[3,0,0],[1,0],[0]]","6","[[0,0,0],[1,2],[3]]","21","0","","","","","","6","","","","","","","","",""
"","","","","","single-stim-button","290","582455","0.0-2.0-74.5-1.5","612b88aae22fbc7810cff174","C3","batch3","","1012","tol_toboard","","","","tol_peg_2","1012","1012","0","[[3,0,0],[1,2],[0]]","6","[[0,0,0],[1,2],[3]]","21","0","","","","","","6","","","","","","","","",""
"","","","","","single-stim-button","291","582894","0.0-2.0-74.6-0.6","612b88aae22fbc7810cff174","C3","batch3","","438","tol_tohand","","","","tol_peg_1","438","438","0","[[0,0,0],[1,2],[0]]","7","[[0,0,0],[1,2],[3]]","21","0","","","","","","6","","","","","","","","",""
"","","","","","single-stim-button","292","583624","0.0-2.0-74.6-1.6","612b88aae22fbc7810cff174","C3","batch3","","729","tol_toboard","","","","tol_peg_3","729","729","0","[[0,0,0],[1,2],[3]]","7","[[0,0,0],[1,2],[3]]","21","0","","","","","","6","","","","","","","","",""
"","","","","","poldrack-single-stim","293","584634","0.0-2.0-75.0","612b88aae22fbc7810cff174","C3","batch3","","-1","tol_feedback","","","true","","1000","1000","500","","","","","","-1","none","true","18347","22995","","","","","","","","","",""
"","","","","","html-button-response","294","585211","0.0-2.0-76.0","612b88aae22fbc7810cff174","C3","batch3","","574.7000000011176","tol_trial_num","<div class = centerbox><p class = center-block-text>problem <strong>23</strong> out of 25 problems</p></div>","0","","","","","","","","","","","","","","","","","","","","","","","","",""
"","","","","","single-stim-button","295","589534","0.0-2.0-77.0-0.0","612b88aae22fbc7810cff174","C3","batch3","","4321","tol_tohand","","","","tol_peg_1","4321","4321","0","[[1,0,0],[3,0],[0]]","1","[[1,3,2],[0,0],[0]]","22","0","","","","","","3","","","","","","","","",""
"","","","","","single-stim-button","296","590295","0.0-2.0-77.0-1.0","612b88aae22fbc7810cff174","C3","batch3","","759","tol_toboard","","","","tol_peg_3","759","759","0","[[1,0,0],[3,0],[2]]","1","[[1,3,2],[0,0],[0]]","22","0","","","","","","3","","","","","","","","",""
"","","","","","single-stim-button","297","590972","0.0-2.0-77.1-0.1","612b88aae22fbc7810cff174","C3","batch3","","675","tol_tohand","","","","tol_peg_2","675","675","0","[[1,0,0],[0,0],[2]]","2","[[1,3,2],[0,0],[0]]","22","0","","","","","","3","","","","","","","","",""
"","","","","","single-stim-button","298","591467","0.0-2.0-77.1-1.1","612b88aae22fbc7810cff174","C3","batch3","","493","tol_toboard","","","","tol_peg_1","493","493","0","[[1,3,0],[0,0],[2]]","2","[[1,3,2],[0,0],[0]]","22","0","","","","","","3","","","","","","","","",""
"","","","","","single-stim-button","299","592211","0.0-2.0-77.2-0.2","612b88aae22fbc7810cff174","C3","batch3","","742","tol_tohand","","","","tol_peg_3","742","742","0","[[1,3,0],[0,0],[0]]","3","[[1,3,2],[0,0],[0]]","22","0","","","","","","3","","","","","","","","",""
"","","","","","single-stim-button","300","592692","0.0-2.0-77.2-1.2","612b88aae22fbc7810cff174","C3","batch3","","479","tol_toboard","","","","tol_peg_1","479","479","0","[[1,3,2],[0,0],[0]]","3","[[1,3,2],[0,0],[0]]","22","0","","","","","","3","","","","","","","","",""
"","","","","","poldrack-single-stim","301","593698","0.0-2.0-78.0","612b88aae22fbc7810cff174","C3","batch3","","-1","tol_feedback","","","true","","1000","1000","500","","","","","","-1","none","true","4321","5738","","","","","","","","","",""
"","","","","","html-button-response","302","594549","0.0-2.0-79.0","612b88aae22fbc7810cff174","C3","batch3","","848.8000000007451","tol_trial_num","<div class = centerbox><p class = center-block-text>problem <strong>24</strong> out of 25 problems</p></div>","0","","","","","","","","","","","","","","","","","","","","","","","","",""
"","","","","","single-stim-button","303","598722","0.0-2.0-80.0-0.0","612b88aae22fbc7810cff174","C3","batch3","","4171","tol_tohand","","","","tol_peg_3","4171","4171","0","[[0,0,0],[2,3],[0]]","1","[[2,0,0],[3,0],[1]]","23","0","","","","","","7","","","","","","","","",""
"","","","","","single-stim-button","304","599274","0.0-2.0-80.0-1.0","612b88aae22fbc7810cff174","C3","batch3","","551","tol_toboard","","","","tol_peg_1","551","551","0","[[1,0,0],[2,3],[0]]","1","[[2,0,0],[3,0],[1]]","23","0","","","","","","7","","","","","","","","",""
"","","","","","single-stim-button","305","601424","0.0-2.0-80.1-0.1","612b88aae22fbc7810cff174","C3","batch3","","2147","tol_tohand","","","","tol_peg_2","2147","2147","0","[[1,0,0],[2,0],[0]]","2","[[2,0,0],[3,0],[1]]","23","0","","","","","","7","","","","","","","","",""
"","","","","","single-stim-button","306","602065","0.0-2.0-80.1-1.1","612b88aae22fbc7810cff174","C3","batch3","","640","tol_toboard","","","","tol_peg_3","640","640","0","[[1,0,0],[2,0],[3]]","2","[[2,0,0],[3,0],[1]]","23","0","","","","","","7","","","","","","","","",""
"","","","","","single-stim-button","307","605439","0.0-2.0-80.2-0.2","612b88aae22fbc7810cff174","C3","batch3","","3372","tol_tohand","","","","tol_peg_2","3372","3372","0","[[1,0,0],[0,0],[3]]","3","[[2,0,0],[3,0],[1]]","23","0","","","","","","7","","","","","","","","",""
"","","","","","single-stim-button","308","605923","0.0-2.0-80.2-1.2","612b88aae22fbc7810cff174","C3","batch3","","482","tol_toboard","","","","tol_peg_1","482","482","0","[[1,2,0],[0,0],[3]]","3","[[2,0,0],[3,0],[1]]","23","0","","","","","","7","","","","","","","","",""
"","","","","","single-stim-button","309","606691","0.0-2.0-80.3-0.3","612b88aae22fbc7810cff174","C3","batch3","","766","tol_tohand","","","","tol_peg_3","766","766","0","[[1,2,0],[0,0],[0]]","4","[[2,0,0],[3,0],[1]]","23","0","","","","","","7","","","","","","","","",""
"","","","","","single-stim-button","310","607206","0.0-2.0-80.3-1.3","612b88aae22fbc7810cff174","C3","batch3","","513","tol_toboard","","","","tol_peg_2","513","513","0","[[1,2,0],[3,0],[0]]","4","[[2,0,0],[3,0],[1]]","23","0","","","","","","7","","","","","","","","",""
"","","","","","single-stim-button","311","609030","0.0-2.0-80.4-0.4","612b88aae22fbc7810cff174","C3","batch3","","1822","tol_tohand","","","","tol_peg_1","1822","1822","0","[[1,0,0],[3,0],[0]]","5","[[2,0,0],[3,0],[1]]","23","0","","","","","","7","","","","","","","","",""
"","","","","","single-stim-button","312","609556","0.0-2.0-80.4-1.4","612b88aae22fbc7810cff174","C3","batch3","","524","tol_toboard","","","","tol_peg_2","524","524","0","[[1,0,0],[3,2],[0]]","5","[[2,0,0],[3,0],[1]]","23","0","","","","","","7","","","","","","","","",""
"","","","","","single-stim-button","313","610087","0.0-2.0-80.5-0.5","612b88aae22fbc7810cff174","C3","batch3","","529","tol_tohand","","","","tol_peg_1","529","529","0","[[0,0,0],[3,2],[0]]","6","[[2,0,0],[3,0],[1]]","23","0","","","","","","7","","","","","","","","",""
"","","","","","single-stim-button","314","610548","0.0-2.0-80.5-1.5","612b88aae22fbc7810cff174","C3","batch3","","460","tol_toboard","","","","tol_peg_3","460","460","0","[[0,0,0],[3,2],[1]]","6","[[2,0,0],[3,0],[1]]","23","0","","","","","","7","","","","","","","","",""
"","","","","","single-stim-button","315","610986","0.0-2.0-80.6-0.6","612b88aae22fbc7810cff174","C3","batch3","","436","tol_tohand","","","","tol_peg_2","436","436","0","[[0,0,0],[3,0],[1]]","7","[[2,0,0],[3,0],[1]]","23","0","","","","","","7","","","","","","","","",""
"","","","","","single-stim-button","316","611469","0.0-2.0-80.6-1.6","612b88aae22fbc7810cff174","C3","batch3","","482","tol_toboard","","","","tol_peg_1","482","482","0","[[2,0,0],[3,0],[1]]","7","[[2,0,0],[3,0],[1]]","23","0","","","","","","7","","","","","","","","",""
"","","","","","poldrack-single-stim","317","612474","0.0-2.0-81.0","612b88aae22fbc7810cff174","C3","batch3","","-1","tol_feedback","","","true","","1000","1000","500","","","","","","-1","none","true","4171","13243","","","","","","","","","",""
"","","","","","html-button-response","318","613111","0.0-2.0-82.0","612b88aae22fbc7810cff174","C3","batch3","","635.1999999992549","tol_trial_num","<div class = centerbox><p class = center-block-text>problem <strong>25</strong> out of 25 problems</p></div>","0","","","","","","","","","","","","","","","","","","","","","","","","",""
"","","","","","single-stim-button","319","631427","0.0-2.0-83.0-0.0","612b88aae22fbc7810cff174","C3","batch3","","18315","tol_tohand","","","","tol_peg_1","18315","18315","0","[[1,0,0],[3,0],[0]]","1","[[3,0,0],[1,0],[2]]","24","0","","","","","","7","","","","","","","","",""
"","","","","","single-stim-button","320","645053","0.0-2.0-83.0-1.0","612b88aae22fbc7810cff174","C3","batch3","","13624","tol_toboard","","","","tol_peg_2","13624","13624","0","[[1,0,0],[3,2],[0]]","1","[[3,0,0],[1,0],[2]]","24","0","","","","","","7","","","","","","","","",""
"","","","","","single-stim-button","321","645727","0.0-2.0-83.1-0.1","612b88aae22fbc7810cff174","C3","batch3","","672","tol_tohand","","","","tol_peg_1","672","672","0","[[0,0,0],[3,2],[0]]","2","[[3,0,0],[1,0],[2]]","24","0","","","","","","7","","","","","","","","",""
"","","","","","single-stim-button","322","646592","0.0-2.0-83.1-1.1","612b88aae22fbc7810cff174","C3","batch3","","865","tol_toboard","","","","tol_peg_3","865","865","0","[[0,0,0],[3,2],[1]]","2","[[3,0,0],[1,0],[2]]","24","0","","","","","","7","","","","","","","","",""
"","","","","","single-stim-button","323","648268","0.0-2.0-83.2-0.2","612b88aae22fbc7810cff174","C3","batch3","","1674","tol_tohand","","","","tol_peg_2","1674","1674","0","[[0,0,0],[3,0],[1]]","3","[[3,0,0],[1,0],[2]]","24","0","","","","","","7","","","","","","","","",""
"","","","","","single-stim-button","324","648798","0.0-2.0-83.2-1.2","612b88aae22fbc7810cff174","C3","batch3","","528","tol_toboard","","","","tol_peg_1","528","528","0","[[2,0,0],[3,0],[1]]","3","[[3,0,0],[1,0],[2]]","24","0","","","","","","7","","","","","","","","",""
"","","","","","single-stim-button","325","649777","0.0-2.0-83.3-0.3","612b88aae22fbc7810cff174","C3","batch3","","977","tol_tohand","","","","tol_peg_2","977","977","0","[[2,0,0],[0,0],[1]]","4","[[3,0,0],[1,0],[2]]","24","0","","","","","","7","","","","","","","","",""
"","","","","","single-stim-button","326","650225","0.0-2.0-83.3-1.3","612b88aae22fbc7810cff174","C3","batch3","","446","tol_toboard","","","","tol_peg_1","446","446","0","[[2,3,0],[0,0],[1]]","4","[[3,0,0],[1,0],[2]]","24","0","","","","","","7","","","","","","","","",""
"","","","","","single-stim-button","327","650981","0.0-2.0-83.4-0.4","612b88aae22fbc7810cff174","C3","batch3","","754","tol_tohand","","","","tol_peg_3","754","754","0","[[2,3,0],[0,0],[0]]","5","[[3,0,0],[1,0],[2]]","24","0","","","","","","7","","","","","","","","",""
"","","","","","single-stim-button","328","651418","0.0-2.0-83.4-1.4","612b88aae22fbc7810cff174","C3","batch3","","435","tol_toboard","","","","tol_peg_2","435","435","0","[[2,3,0],[1,0],[0]]","5","[[3,0,0],[1,0],[2]]","24","0","","","","","","7","","","","","","","","",""
"","","","","","single-stim-button","329","654546","0.0-2.0-83.5-0.5","612b88aae22fbc7810cff174","C3","batch3","","3126","tol_tohand","","","","tol_peg_1","3126","3126","0","[[2,0,0],[1,0],[0]]","6","[[3,0,0],[1,0],[2]]","24","0","","","","","","7","","","","","","","","",""
"","","","","","single-stim-button","330","655390","0.0-2.0-83.5-1.5","612b88aae22fbc7810cff174","C3","batch3","","842","tol_toboard","","","","tol_peg_2","842","842","0","[[2,0,0],[1,3],[0]]","6","[[3,0,0],[1,0],[2]]","24","0","","","","","","7","","","","","","","","",""
"","","","","","single-stim-button","331","655929","0.0-2.0-83.6-0.6","612b88aae22fbc7810cff174","C3","batch3","","537","tol_tohand","","","","tol_peg_1","537","537","0","[[0,0,0],[1,3],[0]]","7","[[3,0,0],[1,0],[2]]","24","0","","","","","","7","","","","","","","","",""
"","","","","","single-stim-button","332","656402","0.0-2.0-83.6-1.6","612b88aae22fbc7810cff174","C3","batch3","","471","tol_toboard","","","","tol_peg_3","471","471","0","[[0,0,0],[1,3],[2]]","7","[[3,0,0],[1,0],[2]]","24","0","","","","","","7","","","","","","","","",""
"","","","","","single-stim-button","333","656973","0.0-2.0-83.7-0.7","612b88aae22fbc7810cff174","C3","batch3","","570","tol_tohand","","","","tol_peg_2","570","570","0","[[0,0,0],[1,0],[2]]","8","[[3,0,0],[1,0],[2]]","24","0","","","","","","7","","","","","","","","",""
"","","","","","single-stim-button","334","657437","0.0-2.0-83.7-1.7","612b88aae22fbc7810cff174","C3","batch3","","462","tol_toboard","","","","tol_peg_1","462","462","0","[[3,0,0],[1,0],[2]]","8","[[3,0,0],[1,0],[2]]","24","0","","","","","","7","","","","","","","","",""
"","","","","","poldrack-single-stim","335","658449","0.0-2.0-84.0","612b88aae22fbc7810cff174","C3","batch3","","-1","tol_feedback","","","true","","1000","1000","500","","","","","","-1","none","true","18315","26625","","","","","","","","","",""
"","","","","","html-button-response","336","660025","0.0-2.0-85.0","612b88aae22fbc7810cff174","C3","batch3","","1573.7000000011176","tol-goodbye","<p class= block-text>This concludes the Tower of London Task. Thank you for your responses!<br> Click the button below to continue</p>","0","","","","","","","","","","","","","","","","","","","","","","","","",""
"true","","","","","fullscreen","337","663148","0.0-3.0-0.0","612b88aae22fbc7810cff174","C3","batch3","","","spm_fullscreen","","","","","","","","","","","","","","","","","","","","","","","","","","",""
"","","","","","html-button-response","338","672389","0.0-3.0-1.0","612b88aae22fbc7810cff174","C3","batch3","","9238.799999998882","","<p class = block-text><b>Instructions</b> <br>This is a widely used intelligence test in research. <br>In this test, a figure with a missing piece will be presented.<br>Below the figure are alternative pieces to complete the figure, only one of which is correct.<br> Different figures might involve different principles for obtaining the missing piece<br>Your job is to select the most logical piece to complete the figure.</p>","0","","","","","","","","","","","","","","","","","","","","","","","","",""
"","","","","","html-keyboard-response","339","673193","0.0-3.0-2.0-0.0","612b88aae22fbc7810cff174","C3","batch3","","null","spm_show_trial_num","<p class=block-text>Trial 1 out of 60</p>","null","","","","","","","","","","","","","","","","","","","","","","","","",""
"","","","","","image-button-response","340","686609","0.0-3.0-2.0-1.0","612b88aae22fbc7810cff174","C3","batch3","","13407.799999998882","spm_respsonse","img/question_1_1.jpeg","3","1","","","","","","","","","","","","","","","","mat_01","4","1","13407.799999998882","","","","",""
"","","","","","html-keyboard-response","341","687671","0.0-3.0-2.0-0.1","612b88aae22fbc7810cff174","C3","batch3","","null","spm_show_trial_num","<p class=block-text>Trial 2 out of 60</p>","null","","","","","","","","","","","","","","","","","","","","","","","","",""
"","","","","","image-button-response","342","690534","0.0-3.0-2.0-1.1","612b88aae22fbc7810cff174","C3","batch3","","2859","spm_respsonse","img/question_1_2.jpeg","4","1","","","","","","","","","","","","","","","","mat_02","5","1","2859","","","","",""
"","","","","","html-keyboard-response","343","691600","0.0-3.0-2.0-0.2","612b88aae22fbc7810cff174","C3","batch3","","null","spm_show_trial_num","<p class=block-text>Trial 3 out of 60</p>","null","","","","","","","","","","","","","","","","","","","","","","","","",""
"","","","","","image-button-response","344","696306","0.0-3.0-2.0-1.2","612b88aae22fbc7810cff174","C3","batch3","","4701.5999999996275","spm_respsonse","img/question_1_3.jpeg","0","1","","","","","","","","","","","","","","","","mat_03","1","1","4701.5999999996275","","","","",""
"","","","","","html-keyboard-response","345","697364","0.0-3.0-2.0-0.3","612b88aae22fbc7810cff174","C3","batch3","","null","spm_show_trial_num","<p class=block-text>Trial 4 out of 60</p>","null","","","","","","","","","","","","","","","","","","","","","","","","",""
"","","","","","image-button-response","346","705104","0.0-3.0-2.0-1.3","612b88aae22fbc7810cff174","C3","batch3","","7735.799999998882","spm_respsonse","img/question_1_4.jpeg","1","1","","","","","","","","","","","","","","","","mat_04","2","1","7735.799999998882","","","","",""
"","","","","","html-keyboard-response","347","706169","0.0-3.0-2.0-0.4","612b88aae22fbc7810cff174","C3","batch3","","null","spm_show_trial_num","<p class=block-text>Trial 5 out of 60</p>","null","","","","","","","","","","","","","","","","","","","","","","","","",""
"","","","","","image-button-response","348","712541","0.0-3.0-2.0-1.4","612b88aae22fbc7810cff174","C3","batch3","","6368.10000000149","spm_respsonse","img/question_1_5.jpeg","5","1","","","","","","","","","","","","","","","","mat_05","6","1","6368.10000000149","","","","",""
"","","","","","html-keyboard-response","349","713607","0.0-3.0-2.0-0.5","612b88aae22fbc7810cff174","C3","batch3","","null","spm_show_trial_num","<p class=block-text>Trial 6 out of 60</p>","null","","","","","","","","","","","","","","","","","","","","","","","","",""
"","","","","","image-button-response","350","718637","0.0-3.0-2.0-1.5","612b88aae22fbc7810cff174","C3","batch3","","5026","spm_respsonse","img/question_1_6.jpeg","2","1","","","","","","","","","","","","","","","","mat_06","3","1","5026","","","","",""
"","","","","","html-keyboard-response","351","719707","0.0-3.0-2.0-0.6","612b88aae22fbc7810cff174","C3","batch3","","null","spm_show_trial_num","<p class=block-text>Trial 7 out of 60</p>","null","","","","","","","","","","","","","","","","","","","","","","","","",""
"","","","","","image-button-response","352","726909","0.0-3.0-2.0-1.6","612b88aae22fbc7810cff174","C3","batch3","","7197.699999999255","spm_respsonse","img/question_1_7.jpeg","5","1","","","","","","","","","","","","","","","","mat_07","6","1","7197.699999999255","","","","",""
"","","","","","html-keyboard-response","353","727978","0.0-3.0-2.0-0.7","612b88aae22fbc7810cff174","C3","batch3","","null","spm_show_trial_num","<p class=block-text>Trial 8 out of 60</p>","null","","","","","","","","","","","","","","","","","","","","","","","","",""
"","","","","","image-button-response","354","734219","0.0-3.0-2.0-1.7","612b88aae22fbc7810cff174","C3","batch3","","6237","spm_respsonse","img/question_1_8.jpeg","1","1","","","","","","","","","","","","","","","","mat_08","2","1","6237","","","","",""
