"success","timeout","failed_images","failed_audio","failed_video","trial_type","trial_index","time_elapsed","internal_node_id","subject_id","study_id","session_id","view_history","rt","stimulus","response","task","correct","answer","item","fiar_detect_rt","fiar_detect_correct","total_correct_fiar_detect","post_trial_gap","choices","mouse_click","stim_duration","block_duration","timing_post_trial","current_position","tol_num_moves_made","tol_target","tol_problem_id","tol_rt","key_press","possible_responses","tol_correct","preplanning","tol_rt_per_trial","tol_min_moves","spm_correct","spm_rt"
"true","false","[]","[]","[]","preload","0","3399","0.0-0.0","6135dd3307f6e86bcbc33a0d","D2","batch4","","","","","","","","","","","","","","","","","","","","","","","","","","","","","",""
"true","","","","","fullscreen","1","18221","0.0-1.0-0.0","6135dd3307f6e86bcbc33a0d","D2","batch4","","","","","","","","","","","","","","","","","","","","","","","","","","","","","",""
"true","","","","","fullscreen","2","22186","0.0-2.0-0.0","6135dd3307f6e86bcbc33a0d","D2","batch4","","","","","","","","","","","","","","","","","","","","","","","","","","","","","",""
"","","","","","instructions","3","48689","0.0-2.0-1.0-0.0","6135dd3307f6e86bcbc33a0d","D2","batch4","[{""page_index"":0,""viewing_time"":16517.89999999851},{""page_index"":1,""viewing_time"":9982.20000000298}]","26500.39999999851","","","","","","","","","","","","","","","","","","","","","","","","","","","",""
"","","","","","html-button-response","4","50769","0.0-2.0-1.0-1.0-0.0","6135dd3307f6e86bcbc33a0d","D2","batch4","","2079","<p class=block-text> Let's answer a few questions <br>","0","pattern_enter_quiz","","","","","","","","","","","","","","","","","","","","","","","","",""
"","","","","","html-button-response","5","54864","0.0-2.0-1.0-1.0-1.0","6135dd3307f6e86bcbc33a0d","D2","batch4","","4093.89999999851","<p class = block-text>True or False: You will have as much time as you want to make each choice. <br></p>","1","pattern_quiz","true","","","","","","","","","","","","","","","","","","","","","","","",""
"","","","","","html-button-response","6","56784","0.0-2.0-1.0-1.0-2.0","6135dd3307f6e86bcbc33a0d","D2","batch4","","1918.7999999970198","<p class = block-text>Correct! You should make your choice <strong> as fast as you can</strong>.</p>","0","pattern_quiz_feedback","","","","","","","","","","","","","","","","","","","","","","","","",""
"","","","","","html-button-response","7","60960","0.0-2.0-1.0-1.0-3.0","6135dd3307f6e86bcbc33a0d","D2","batch4","","4175.10000000149","<p class = block-text>True or False: You will look for 4 pieces in black or white color connected in a row either horizontally, vertically or diagonally. <br></p>","0","pattern_quiz","true","","","","","","","","","","","","","","","","","","","","","","","",""
"","","","","","html-button-response","8","63520","0.0-2.0-1.0-1.0-4.0","6135dd3307f6e86bcbc33a0d","D2","batch4","","2558.89999999851","<p class = block-text>Correct! </p>","0","pattern_quiz_feedback","","","","","","","","","","","","","","","","","","","","","","","","",""
"","","","","","html-button-response","9","65785","0.0-2.0-2.0","6135dd3307f6e86bcbc33a0d","D2","batch4","","2263.39999999851","<p class=block-text> Now that you've understood the game, let's do a few practice trials before we start!<br> <br>","0","pattern_enter_practice","","","","","","","","","","","","","","","","","","","","","","","","",""
"","","","","","image-keyboard-response","10","68890","0.0-2.0-3.0-0.0","6135dd3307f6e86bcbc33a0d","D2","batch4","","3101.2999999970198","stim/prac_yes_16_ver_w1.png","f","pattern_practice","true","f","","","","","","","","","","","","","","","","","","","","","","",""
"","","","","","html-keyboard-response","11","69922","0.0-2.0-3.0-1.0","6135dd3307f6e86bcbc33a0d","D2","batch4","","null","<p style=""font-size:30px;color:green;"">Correct!</p>","null","pattern_feedback","","","","","","","","","","","","","","","","","","","","","","","","",""
"","","","","","image-keyboard-response","12","72047","0.0-2.0-3.0-0.1","6135dd3307f6e86bcbc33a0d","D2","batch4","","2121.5","stim/prac_yes_18_hor_w1.png","f","pattern_practice","true","f","","","","","","","","","","","","","","","","","","","","","","",""
"","","","","","html-keyboard-response","13","73070","0.0-2.0-3.0-1.1","6135dd3307f6e86bcbc33a0d","D2","batch4","","null","<p style=""font-size:30px;color:green;"">Correct!</p>","null","pattern_feedback","","","","","","","","","","","","","","","","","","","","","","","","",""
"","","","","","image-keyboard-response","14","76775","0.0-2.0-3.0-0.2","6135dd3307f6e86bcbc33a0d","D2","batch4","","3701.60000000149","stim/prac_no_16_1.png","j","pattern_practice","true","j","","","","","","","","","","","","","","","","","","","","","","",""
"","","","","","html-keyboard-response","15","77803","0.0-2.0-3.0-1.2","6135dd3307f6e86bcbc33a0d","D2","batch4","","null","<p style=""font-size:30px;color:green;"">Correct!</p>","null","pattern_feedback","","","","","","","","","","","","","","","","","","","","","","","","",""
"","","","","","image-keyboard-response","16","80366","0.0-2.0-3.0-0.3","6135dd3307f6e86bcbc33a0d","D2","batch4","","2559.2000000029802","stim/prac_yes_20_dia_b1.png","j","pattern_practice","false","f","","","","","","","","","","","","","","","","","","","","","","",""
"","","","","","html-keyboard-response","17","81385","0.0-2.0-3.0-1.3","6135dd3307f6e86bcbc33a0d","D2","batch4","","null","<p style=""font-size:30px;color:red;"">Wrong.</p>","null","pattern_feedback","","","","","","","","","","","","","","","","","","","","","","","","",""
"","","","","","image-keyboard-response","18","85186","0.0-2.0-3.0-0.4","6135dd3307f6e86bcbc33a0d","D2","batch4","","3797.7000000029802","stim/prac_no_18_1.png","j","pattern_practice","true","j","","","","","","","","","","","","","","","","","","","","","","",""
"","","","","","html-keyboard-response","19","86206","0.0-2.0-3.0-1.4","6135dd3307f6e86bcbc33a0d","D2","batch4","","null","<p style=""font-size:30px;color:green;"">Correct!</p>","null","pattern_feedback","","","","","","","","","","","","","","","","","","","","","","","","",""
"","","","","","html-button-response","20","90297","0.0-2.0-4.0","6135dd3307f6e86bcbc33a0d","D2","batch4","","4086.7000000029802","<p class=block-text> Good job! You are done with practice trials!<br>
        You responded correctly on 80% of the trials.<br>
        Press the button below to start official trials. Now you won't see any feedback about your response</p>","0","pattern_enter_official_trials","","","","","","","","","","","","","","","","","","","","","","","","",""
"","","","","","html-keyboard-response","21","91111","0.0-2.0-5.0-0.0","6135dd3307f6e86bcbc33a0d","D2","batch4","","null","<p class=block-text>Trial 1 out of 78</p>","null","pattern_show_trial_num","","","","","","","","","","","","","","","","","","","","","","","","",""
"","","","","","image-keyboard-response","22","95551","0.0-2.0-5.0-1.0","6135dd3307f6e86bcbc33a0d","D2","batch4","","4434.4000000059605","stim/yes_46_ver_b1_b.png","f","pattern_response","true","f","pattern_68","4434.4000000059605","true","1","","","","","","","","","","","","","","","","","","",""
"","","","","","html-keyboard-response","23","96881","0.0-2.0-5.0-0.1","6135dd3307f6e86bcbc33a0d","D2","batch4","","null","<p class=block-text>Trial 2 out of 78</p>","null","pattern_show_trial_num","","","","","","","","","","","","","","","","","","","","","","","","",""
"","","","","","image-keyboard-response","24","98471","0.0-2.0-5.0-1.1","6135dd3307f6e86bcbc33a0d","D2","batch4","","1587.5","stim/yes_49_hor_w1_b.png","f","pattern_response","true","f","pattern_70","1587.5","true","2","","","","","","","","","","","","","","","","","","",""
"","","","","","html-keyboard-response","25","99797","0.0-2.0-5.0-0.2","6135dd3307f6e86bcbc33a0d","D2","batch4","","null","<p class=block-text>Trial 3 out of 78</p>","null","pattern_show_trial_num","","","","","","","","","","","","","","","","","","","","","","","","",""
"","","","","","image-keyboard-response","26","103936","0.0-2.0-5.0-1.2","6135dd3307f6e86bcbc33a0d","D2","batch4","","4136","stim/no_53_1_b.png","j","pattern_response","true","j","pattern_33","4136","true","3","","","","","","","","","","","","","","","","","","",""
"","","","","","html-keyboard-response","27","105251","0.0-2.0-5.0-0.3","6135dd3307f6e86bcbc33a0d","D2","batch4","","null","<p class=block-text>Trial 4 out of 78</p>","null","pattern_show_trial_num","","","","","","","","","","","","","","","","","","","","","","","","",""
"","","","","","image-keyboard-response","28","106847","0.0-2.0-5.0-1.3","6135dd3307f6e86bcbc33a0d","D2","batch4","","1592.1000000014901","stim/yes_39_hor_w1_w.png","f","pattern_response","true","f","pattern_62","1592.1000000014901","true","4","","","","","","","","","","","","","","","","","","",""
"","","","","","html-keyboard-response","29","108162","0.0-2.0-5.0-0.4","6135dd3307f6e86bcbc33a0d","D2","batch4","","null","<p class=block-text>Trial 5 out of 78</p>","null","pattern_show_trial_num","","","","","","","","","","","","","","","","","","","","","","","","",""
"","","","","","image-keyboard-response","30","109729","0.0-2.0-5.0-1.4","6135dd3307f6e86bcbc33a0d","D2","batch4","","1564.7999999970198","stim/yes_23_ver_b1.png","f","pattern_response","true","f","pattern_48","1564.7999999970198","true","5","","","","","","","","","","","","","","","","","","",""
"","","","","","html-keyboard-response","31","111046","0.0-2.0-5.0-0.5","6135dd3307f6e86bcbc33a0d","D2","batch4","","null","<p class=block-text>Trial 6 out of 78</p>","null","pattern_show_trial_num","","","","","","","","","","","","","","","","","","","","","","","","",""
"","","","","","image-keyboard-response","32","116058","0.0-2.0-5.0-1.5","6135dd3307f6e86bcbc33a0d","D2","batch4","","5008.0999999940395","stim/yes_63_dia_b1.png","j","pattern_response","false","f","pattern_78","5008.0999999940395","false","5","","","","","","","","","","","","","","","","","","",""
"","","","","","html-keyboard-response","33","117379","0.0-2.0-5.0-0.6","6135dd3307f6e86bcbc33a0d","D2","batch4","","null","<p class=block-text>Trial 7 out of 78</p>","null","pattern_show_trial_num","","","","","","","","","","","","","","","","","","","","","","","","",""
"","","","","","image-keyboard-response","34","121803","0.0-2.0-5.0-1.6","6135dd3307f6e86bcbc33a0d","D2","batch4","","4419.69999999553","stim/no_28_2.png","j","pattern_response","true","j","pattern_11","4419.69999999553","true","6","","","","","","","","","","","","","","","","","","",""
"","","","","","html-keyboard-response","35","123127","0.0-2.0-5.0-0.7","6135dd3307f6e86bcbc33a0d","D2","batch4","","null","<p class=block-text>Trial 8 out of 78</p>","null","pattern_show_trial_num","","","","","","","","","","","","","","","","","","","","","","","","",""
"","","","","","image-keyboard-response","36","126010","0.0-2.0-5.0-1.7","6135dd3307f6e86bcbc33a0d","D2","batch4","","2879.3000000044703","stim/no_30_1_b.png","j","pattern_response","true","j","pattern_13","2879.3000000044703","true","7","","","","","","","","","","","","","","","","","","",""
"","","","","","html-keyboard-response","37","127327","0.0-2.0-5.0-0.8","6135dd3307f6e86bcbc33a0d","D2","batch4","","null","<p class=block-text>Trial 9 out of 78</p>","null","pattern_show_trial_num","","","","","","","","","","","","","","","","","","","","","","","","",""
"","","","","","image-keyboard-response","38","130700","0.0-2.0-5.0-1.8","6135dd3307f6e86bcbc33a0d","D2","batch4","","3370.89999999851","stim/no_36_1_b.png","j","pattern_response","true","j","pattern_17","3370.89999999851","true","8","","","","","","","","","","","","","","","","","","",""
"","","","","","html-keyboard-response","39","132026","0.0-2.0-5.0-0.9","6135dd3307f6e86bcbc33a0d","D2","batch4","","null","<p class=block-text>Trial 10 out of 78</p>","null","pattern_show_trial_num","","","","","","","","","","","","","","","","","","","","","","","","",""
"","","","","","image-keyboard-response","40","135551","0.0-2.0-5.0-1.9","6135dd3307f6e86bcbc33a0d","D2","batch4","","3523.39999999851","stim/no_47_1_b.png","j","pattern_response","true","j","pattern_27","3523.39999999851","true","9","","","","","","","","","","","","","","","","","","",""
"","","","","","html-keyboard-response","41","136879","0.0-2.0-5.0-0.10","6135dd3307f6e86bcbc33a0d","D2","batch4","","null","<p class=block-text>Trial 11 out of 78</p>","null","pattern_show_trial_num","","","","","","","","","","","","","","","","","","","","","","","","",""
"","","","","","image-keyboard-response","42","141214","0.0-2.0-5.0-1.10","6135dd3307f6e86bcbc33a0d","D2","batch4","","4330","stim/no_45_1_w.png","j","pattern_response","true","j","pattern_25","4330","true","10","","","","","","","","","","","","","","","","","","",""
"","","","","","html-keyboard-response","43","142527","0.0-2.0-5.0-0.11","6135dd3307f6e86bcbc33a0d","D2","batch4","","null","<p class=block-text>Trial 12 out of 78</p>","null","pattern_show_trial_num","","","","","","","","","","","","","","","","","","","","","","","","",""
"","","","","","image-keyboard-response","44","144575","0.0-2.0-5.0-1.11","6135dd3307f6e86bcbc33a0d","D2","batch4","","2042.7999999970198","stim/no_22_1_b.png","j","pattern_response","true","j","pattern_07","2042.7999999970198","true","11","","","","","","","","","","","","","","","","","","",""
"","","","","","html-keyboard-response","45","145884","0.0-2.0-5.0-0.12","6135dd3307f6e86bcbc33a0d","D2","batch4","","null","<p class=block-text>Trial 13 out of 78</p>","null","pattern_show_trial_num","","","","","","","","","","","","","","","","","","","","","","","","",""
"","","","","","image-keyboard-response","46","153719","0.0-2.0-5.0-1.12","6135dd3307f6e86bcbc33a0d","D2","batch4","","7830.89999999851","stim/no_67_1.png","j","pattern_response","true","j","pattern_39","7830.89999999851","true","12","","","","","","","","","","","","","","","","","","",""
"","","","","","html-keyboard-response","47","155041","0.0-2.0-5.0-0.13","6135dd3307f6e86bcbc33a0d","D2","batch4","","null","<p class=block-text>Trial 14 out of 78</p>","null","pattern_show_trial_num","","","","","","","","","","","","","","","","","","","","","","","","",""
"","","","","","image-keyboard-response","48","160281","0.0-2.0-5.0-1.13","6135dd3307f6e86bcbc33a0d","D2","batch4","","5235","stim/no_37_2_w.png","j","pattern_response","true","j","pattern_19","5235","true","13","","","","","","","","","","","","","","","","","","",""
"","","","","","html-keyboard-response","49","161606","0.0-2.0-5.0-0.14","6135dd3307f6e86bcbc33a0d","D2","batch4","","null","<p class=block-text>Trial 15 out of 78</p>","null","pattern_show_trial_num","","","","","","","","","","","","","","","","","","","","","","","","",""
"","","","","","image-keyboard-response","50","162874","0.0-2.0-5.0-1.14","6135dd3307f6e86bcbc33a0d","D2","batch4","","1263.3999999985099","stim/yes_12_hor_w1_w.png","f","pattern_response","true","f","pattern_42","1263.3999999985099","true","14","","","","","","","","","","","","","","","","","","",""
"","","","","","html-keyboard-response","51","164189","0.0-2.0-5.0-0.15","6135dd3307f6e86bcbc33a0d","D2","batch4","","null","<p class=block-text>Trial 16 out of 78</p>","null","pattern_show_trial_num","","","","","","","","","","","","","","","","","","","","","","","","",""
"","","","","","image-keyboard-response","52","165345","0.0-2.0-5.0-1.15","6135dd3307f6e86bcbc33a0d","D2","batch4","","1153.1999999955297","stim/yes_26_dia_w2_w.png","f","pattern_response","true","f","pattern_50","1153.1999999955297","true","15","","","","","","","","","","","","","","","","","","",""
"","","","","","html-keyboard-response","53","166673","0.0-2.0-5.0-0.16","6135dd3307f6e86bcbc33a0d","D2","batch4","","null","<p class=block-text>Trial 17 out of 78</p>","null","pattern_show_trial_num","","","","","","","","","","","","","","","","","","","","","","","","",""
"","","","","","image-keyboard-response","54","168662","0.0-2.0-5.0-1.16","6135dd3307f6e86bcbc33a0d","D2","batch4","","1985.4000000059605","stim/no_18_1_b.png","j","pattern_response","true","j","pattern_05","1985.4000000059605","true","16","","","","","","","","","","","","","","","","","","",""
"","","","","","html-keyboard-response","55","169988","0.0-2.0-5.0-0.17","6135dd3307f6e86bcbc33a0d","D2","batch4","","null","<p class=block-text>Trial 18 out of 78</p>","null","pattern_show_trial_num","","","","","","","","","","","","","","","","","","","","","","","","",""
"","","","","","image-keyboard-response","56","171091","0.0-2.0-5.0-1.17","6135dd3307f6e86bcbc33a0d","D2","batch4","","1100.6000000014901","stim/yes_37_hor_w1_w.png","f","pattern_response","true","f","pattern_60","1100.6000000014901","true","17","","","","","","","","","","","","","","","","","","",""
"","","","","","html-keyboard-response","57","172405","0.0-2.0-5.0-0.18","6135dd3307f6e86bcbc33a0d","D2","batch4","","null","<p class=block-text>Trial 19 out of 78</p>","null","pattern_show_trial_num","","","","","","","","","","","","","","","","","","","","","","","","",""
"","","","","","image-keyboard-response","58","178191","0.0-2.0-5.0-1.18","6135dd3307f6e86bcbc33a0d","D2","batch4","","5782.80000000447","stim/no_51_1.png","j","pattern_response","true","j","pattern_31","5782.80000000447","true","18","","","","","","","","","","","","","","","","","","",""
"","","","","","html-keyboard-response","59","179505","0.0-2.0-5.0-0.19","6135dd3307f6e86bcbc33a0d","D2","batch4","","null","<p class=block-text>Trial 20 out of 78</p>","null","pattern_show_trial_num","","","","","","","","","","","","","","","","","","","","","","","","",""
"","","","","","image-keyboard-response","60","180578","0.0-2.0-5.0-1.19","6135dd3307f6e86bcbc33a0d","D2","batch4","","1069.6000000014901","stim/yes_17_ver_b1_b.png","f","pattern_response","true","f","pattern_46","1069.6000000014901","true","19","","","","","","","","","","","","","","","","","","",""
"","","","","","html-keyboard-response","61","181904","0.0-2.0-5.0-0.20","6135dd3307f6e86bcbc33a0d","D2","batch4","","null","<p class=block-text>Trial 21 out of 78</p>","null","pattern_show_trial_num","","","","","","","","","","","","","","","","","","","","","","","","",""
"","","","","","image-keyboard-response","62","182928","0.0-2.0-5.0-1.20","6135dd3307f6e86bcbc33a0d","D2","batch4","","1014.7999999970198","stim/yes_15_dia_b1u_b.png","f","pattern_response","true","f","pattern_44","1014.7999999970198","true","20","","","","","","","","","","","","","","","","","","",""
"","","","","","html-keyboard-response","63","184253","0.0-2.0-5.0-0.21","6135dd3307f6e86bcbc33a0d","D2","batch4","","null","<p class=block-text>Trial 22 out of 78</p>","null","pattern_show_trial_num","","","","","","","","","","","","","","","","","","","","","","","","",""
"","","","","","image-keyboard-response","64","185341","0.0-2.0-5.0-1.21","6135dd3307f6e86bcbc33a0d","D2","batch4","","1085.1000000014901","stim/yes_30_ver_b1_b.png","f","pattern_response","true","f","pattern_54","1085.1000000014901","true","21","","","","","","","","","","","","","","","","","","",""
"","","","","","html-keyboard-response","65","186670","0.0-2.0-5.0-0.22","6135dd3307f6e86bcbc33a0d","D2","batch4","","null","<p class=block-text>Trial 23 out of 78</p>","null","pattern_show_trial_num","","","","","","","","","","","","","","","","","","","","","","","","",""
"","","","","","image-keyboard-response","66","191850","0.0-2.0-5.0-1.22","6135dd3307f6e86bcbc33a0d","D2","batch4","","5176.89999999851","stim/yes_44_ver_w1_w.png","j","pattern_response","false","f","pattern_66","5176.89999999851","false","21","","","","","","","","","","","","","","","","","","",""
"","","","","","html-keyboard-response","67","193169","0.0-2.0-5.0-0.23","6135dd3307f6e86bcbc33a0d","D2","batch4","","null","<p class=block-text>Trial 24 out of 78</p>","null","pattern_show_trial_num","","","","","","","","","","","","","","","","","","","","","","","","",""
"","","","","","image-keyboard-response","68","196687","0.0-2.0-5.0-1.23","6135dd3307f6e86bcbc33a0d","D2","batch4","","3514.9000000059605","stim/yes_42_dia_w1_w.png","f","pattern_response","true","f","pattern_64","3514.9000000059605","true","22","","","","","","","","","","","","","","","","","","",""
"","","","","","html-keyboard-response","69","198002","0.0-2.0-5.0-0.24","6135dd3307f6e86bcbc33a0d","D2","batch4","","null","<p class=block-text>Trial 25 out of 78</p>","null","pattern_show_trial_num","","","","","","","","","","","","","","","","","","","","","","","","",""
"","","","","","image-keyboard-response","70","199640","0.0-2.0-5.0-1.24","6135dd3307f6e86bcbc33a0d","D2","batch4","","1634.6000000014901","stim/no_15_1_w.png","j","pattern_response","true","j","pattern_03","1634.6000000014901","true","23","","","","","","","","","","","","","","","","","","",""
"","","","","","html-keyboard-response","71","200969","0.0-2.0-5.0-0.25","6135dd3307f6e86bcbc33a0d","D2","batch4","","null","<p class=block-text>Trial 26 out of 78</p>","null","pattern_show_trial_num","","","","","","","","","","","","","","","","","","","","","","","","",""
"","","","","","image-keyboard-response","72","207154","0.0-2.0-5.0-1.25","6135dd3307f6e86bcbc33a0d","D2","batch4","","6183.69999999553","stim/no_39_1_w.png","j","pattern_response","true","j","pattern_21","6183.69999999553","true","24","","","","","","","","","","","","","","","","","","",""
"","","","","","html-keyboard-response","73","208467","0.0-2.0-5.0-0.26","6135dd3307f6e86bcbc33a0d","D2","batch4","","null","<p class=block-text>Trial 27 out of 78</p>","null","pattern_show_trial_num","","","","","","","","","","","","","","","","","","","","","","","","",""
"","","","","","image-keyboard-response","74","215474","0.0-2.0-5.0-1.26","6135dd3307f6e86bcbc33a0d","D2","batch4","","7005.30000000447","stim/yes_53_ver_b1_b.png","j","pattern_response","false","f","pattern_74","7005.30000000447","false","24","","","","","","","","","","","","","","","","","","",""
"","","","","","html-keyboard-response","75","216799","0.0-2.0-5.0-0.27","6135dd3307f6e86bcbc33a0d","D2","batch4","","null","<p class=block-text>Trial 28 out of 78</p>","null","pattern_show_trial_num","","","","","","","","","","","","","","","","","","","","","","","","",""
"","","","","","image-keyboard-response","76","222453","0.0-2.0-5.0-1.27","6135dd3307f6e86bcbc33a0d","D2","batch4","","5651.70000000298","stim/yes_58_dia_w1_w.png","j","pattern_response","false","f","pattern_76","5651.70000000298","false","24","","","","","","","","","","","","","","","","","","",""
"","","","","","html-keyboard-response","77","223781","0.0-2.0-5.0-0.28","6135dd3307f6e86bcbc33a0d","D2","batch4","","null","<p class=block-text>Trial 29 out of 78</p>","null","pattern_show_trial_num","","","","","","","","","","","","","","","","","","","","","","","","",""
"","","","","","image-keyboard-response","78","228527","0.0-2.0-5.0-1.28","6135dd3307f6e86bcbc33a0d","D2","batch4","","4744.20000000298","stim/no_49_2_b.png","j","pattern_response","true","j","pattern_29","4744.20000000298","true","25","","","","","","","","","","","","","","","","","","",""
"","","","","","html-keyboard-response","79","229834","0.0-2.0-5.0-0.29","6135dd3307f6e86bcbc33a0d","D2","batch4","","null","<p class=block-text>Trial 30 out of 78</p>","null","pattern_show_trial_num","","","","","","","","","","","","","","","","","","","","","","","","",""
"","","","","","image-keyboard-response","80","238091","0.0-2.0-5.0-1.29","6135dd3307f6e86bcbc33a0d","D2","batch4","","8255.19999999553","stim/no_58_1_w.png","j","pattern_response","true","j","pattern_35","8255.19999999553","true","26","","","","","","","","","","","","","","","","","","",""
"","","","","","html-keyboard-response","81","239415","0.0-2.0-5.0-0.30","6135dd3307f6e86bcbc33a0d","D2","batch4","","null","<p class=block-text>Trial 31 out of 78</p>","null","pattern_show_trial_num","","","","","","","","","","","","","","","","","","","","","","","","",""
"","","","","","image-keyboard-response","82","240571","0.0-2.0-5.0-1.30","6135dd3307f6e86bcbc33a0d","D2","batch4","","1155","stim/yes_29_hor_b1_b.png","f","pattern_response","true","f","pattern_52","1155","true","27","","","","","","","","","","","","","","","","","","",""
"","","","","","html-keyboard-response","83","241886","0.0-2.0-5.0-0.31","6135dd3307f6e86bcbc33a0d","D2","batch4","","null","<p class=block-text>Trial 32 out of 78</p>","null","pattern_show_trial_num","","","","","","","","","","","","","","","","","","","","","","","","",""
"","","","","","image-keyboard-response","84","244460","0.0-2.0-5.0-1.31","6135dd3307f6e86bcbc33a0d","D2","batch4","","2571.2999999970198","stim/no_25_1_b.png","j","pattern_response","true","j","pattern_09","2571.2999999970198","true","28","","","","","","","","","","","","","","","","","","",""
"","","","","","html-keyboard-response","85","245778","0.0-2.0-5.0-0.32","6135dd3307f6e86bcbc33a0d","D2","batch4","","null","<p class=block-text>Trial 33 out of 78</p>","null","pattern_show_trial_num","","","","","","","","","","","","","","","","","","","","","","","","",""
"","","","","","image-keyboard-response","86","247686","0.0-2.0-5.0-1.32","6135dd3307f6e86bcbc33a0d","D2","batch4","","1907.2000000029802","stim/yes_33_dia_w1_w.png","f","pattern_response","true","f","pattern_56","1907.2000000029802","true","29","","","","","","","","","","","","","","","","","","",""
"","","","","","html-keyboard-response","87","249013","0.0-2.0-5.0-0.33","6135dd3307f6e86bcbc33a0d","D2","batch4","","null","<p class=block-text>Trial 34 out of 78</p>","null","pattern_show_trial_num","","","","","","","","","","","","","","","","","","","","","","","","",""
"","","","","","image-keyboard-response","88","254338","0.0-2.0-5.0-1.33","6135dd3307f6e86bcbc33a0d","D2","batch4","","5320.5","stim/no_43_2_b.png","f","pattern_response","false","j","pattern_23","5320.5","false","29","","","","","","","","","","","","","","","","","","",""
"","","","","","html-keyboard-response","89","255662","0.0-2.0-5.0-0.34","6135dd3307f6e86bcbc33a0d","D2","batch4","","null","<p class=block-text>Trial 35 out of 78</p>","null","pattern_show_trial_num","","","","","","","","","","","","","","","","","","","","","","","","",""
"","","","","","image-keyboard-response","90","261478","0.0-2.0-5.0-1.34","6135dd3307f6e86bcbc33a0d","D2","batch4","","5812","stim/yes_70_ver_b1.png","f","pattern_response","true","f","pattern_80","5812","true","30","","","","","","","","","","","","","","","","","","",""
"","","","","","html-keyboard-response","91","262793","0.0-2.0-5.0-0.35","6135dd3307f6e86bcbc33a0d","D2","batch4","","null","<p class=block-text>Trial 36 out of 78</p>","null","pattern_show_trial_num","","","","","","","","","","","","","","","","","","","","","","","","",""
"","","","","","image-keyboard-response","92","267648","0.0-2.0-5.0-1.35","6135dd3307f6e86bcbc33a0d","D2","batch4","","4851.10000000149","stim/yes_51_dia_b1.png","f","pattern_response","true","f","pattern_72","4851.10000000149","true","31","","","","","","","","","","","","","","","","","","",""
"","","","","","html-keyboard-response","93","268978","0.0-2.0-5.0-0.36","6135dd3307f6e86bcbc33a0d","D2","batch4","","null","<p class=block-text>Trial 37 out of 78</p>","null","pattern_show_trial_num","","","","","","","","","","","","","","","","","","","","","","","","",""
"","","","","","image-keyboard-response","94","272171","0.0-2.0-5.0-1.36","6135dd3307f6e86bcbc33a0d","D2","batch4","","3189.0999999940395","stim/no_33_1_b.png","f","pattern_response","false","j","pattern_15","3189.0999999940395","false","31","","","","","","","","","","","","","","","","","","",""
"","","","","","html-keyboard-response","95","273496","0.0-2.0-5.0-0.37","6135dd3307f6e86bcbc33a0d","D2","batch4","","null","<p class=block-text>Trial 38 out of 78</p>","null","pattern_show_trial_num","","","","","","","","","","","","","","","","","","","","","","","","",""
"","","","","","image-keyboard-response","96","274893","0.0-2.0-5.0-1.37","6135dd3307f6e86bcbc33a0d","D2","batch4","","1392.8999999985099","stim/no_12_1.png","j","pattern_response","true","j","pattern_01","1392.8999999985099","true","32","","","","","","","","","","","","","","","","","","",""
"","","","","","html-keyboard-response","97","276211","0.0-2.0-5.0-0.38","6135dd3307f6e86bcbc33a0d","D2","batch4","","null","<p class=block-text>Trial 39 out of 78</p>","null","pattern_show_trial_num","","","","","","","","","","","","","","","","","","","","","","","","",""
"","","","","","image-keyboard-response","98","277519","0.0-2.0-5.0-1.38","6135dd3307f6e86bcbc33a0d","D2","batch4","","1304.3999999985099","stim/yes_36_ver_w1_w.png","f","pattern_response","true","f","pattern_58","1304.3999999985099","true","33","","","","","","","","","","","","","","","","","","",""
"","","","","","image-keyboard-response","99","280921","0.0-2.0-6.0","6135dd3307f6e86bcbc33a0d","D2","batch4","","2888.1999999955297","stim/empty_board.png","j","attention_check","true","j","","","","","500","[""f"",""j""]","","","","","","","","","","","","","","","","",""
"","","","","","html-keyboard-response","100","281727","0.0-2.0-7.0-0.0","6135dd3307f6e86bcbc33a0d","D2","batch4","","null","<p class=block-text>Trial 40 out of 78</p>","null","pattern_show_trial_num","","","","","","","","","","","","","","","","","","","","","","","","",""
"","","","","","image-keyboard-response","101","283779","0.0-2.0-7.0-1.0","6135dd3307f6e86bcbc33a0d","D2","batch4","","2048.89999999851","stim/yes_29_ver_w1.png","f","pattern_response","true","f","pattern_53","2048.89999999851","true","34","","","","","","","","","","","","","","","","","","",""
"","","","","","html-keyboard-response","102","285112","0.0-2.0-7.0-0.1","6135dd3307f6e86bcbc33a0d","D2","batch4","","null","<p class=block-text>Trial 41 out of 78</p>","null","pattern_show_trial_num","","","","","","","","","","","","","","","","","","","","","","","","",""
"","","","","","image-keyboard-response","103","289990","0.0-2.0-7.0-1.1","6135dd3307f6e86bcbc33a0d","D2","batch4","","4874.60000000149","stim/yes_50_dia_w1.png","f","pattern_response","true","f","pattern_71","4874.60000000149","true","35","","","","","","","","","","","","","","","","","","",""
"","","","","","html-keyboard-response","104","291308","0.0-2.0-7.0-0.2","6135dd3307f6e86bcbc33a0d","D2","batch4","","null","<p class=block-text>Trial 42 out of 78</p>","null","pattern_show_trial_num","","","","","","","","","","","","","","","","","","","","","","","","",""
"","","","","","image-keyboard-response","105","292438","0.0-2.0-7.0-1.2","6135dd3307f6e86bcbc33a0d","D2","batch4","","1125.6000000014901","stim/yes_17_dia_w1.png","f","pattern_response","true","f","pattern_45","1125.6000000014901","true","36","","","","","","","","","","","","","","","","","","",""
"","","","","","html-keyboard-response","106","293757","0.0-2.0-7.0-0.3","6135dd3307f6e86bcbc33a0d","D2","batch4","","null","<p class=block-text>Trial 43 out of 78</p>","null","pattern_show_trial_num","","","","","","","","","","","","","","","","","","","","","","","","",""
"","","","","","image-keyboard-response","107","300855","0.0-2.0-7.0-1.3","6135dd3307f6e86bcbc33a0d","D2","batch4","","7095.60000000149","stim/no_38_1_b.png","j","pattern_response","true","j","pattern_20","7095.60000000149","true","37","","","","","","","","","","","","","","","","","","",""
"","","","","","html-keyboard-response","108","302206","0.0-2.0-7.0-0.4","6135dd3307f6e86bcbc33a0d","D2","batch4","","null","<p class=block-text>Trial 44 out of 78</p>","null","pattern_show_trial_num","","","","","","","","","","","","","","","","","","","","","","","","",""
"","","","","","image-keyboard-response","109","305648","0.0-2.0-7.0-1.4","6135dd3307f6e86bcbc33a0d","D2","batch4","","3434.6999999955297","stim/no_26_1_w.png","j","pattern_response","true","j","pattern_10","3434.6999999955297","true","38","","","","","","","","","","","","","","","","","","",""
"","","","","","html-keyboard-response","110","306972","0.0-2.0-7.0-0.5","6135dd3307f6e86bcbc33a0d","D2","batch4","","null","<p class=block-text>Trial 45 out of 78</p>","null","pattern_show_trial_num","","","","","","","","","","","","","","","","","","","","","","","","",""
"","","","","","image-keyboard-response","111","310223","0.0-2.0-7.0-1.5","6135dd3307f6e86bcbc33a0d","D2","batch4","","3247.10000000149","stim/no_23_1.png","j","pattern_response","true","j","pattern_08","3247.10000000149","true","39","","","","","","","","","","","","","","","","","","",""
"","","","","","html-keyboard-response","112","311538","0.0-2.0-7.0-0.6","6135dd3307f6e86bcbc33a0d","D2","batch4","","null","<p class=block-text>Trial 46 out of 78</p>","null","pattern_show_trial_num","","","","","","","","","","","","","","","","","","","","","","","","",""
"","","","","","image-keyboard-response","113","315094","0.0-2.0-7.0-1.6","6135dd3307f6e86bcbc33a0d","D2","batch4","","3552","stim/yes_48_dia_w1_w.png","f","pattern_response","true","f","pattern_69","3552","true","40","","","","","","","","","","","","","","","","","","",""
"","","","","","html-keyboard-response","114","316418","0.0-2.0-7.0-0.7","6135dd3307f6e86bcbc33a0d","D2","batch4","","null","<p class=block-text>Trial 47 out of 78</p>","null","pattern_show_trial_num","","","","","","","","","","","","","","","","","","","","","","","","",""
"","","","","","image-keyboard-response","115","317458","0.0-2.0-7.0-1.7","6135dd3307f6e86bcbc33a0d","D2","batch4","","1037.8999999985099","stim/no_13_2_b.png","j","pattern_response","true","j","pattern_02","1037.8999999985099","true","41","","","","","","","","","","","","","","","","","","",""
"","","","","","html-keyboard-response","116","318788","0.0-2.0-7.0-0.8","6135dd3307f6e86bcbc33a0d","D2","batch4","","null","<p class=block-text>Trial 48 out of 78</p>","null","pattern_show_trial_num","","","","","","","","","","","","","","","","","","","","","","","","",""
"","","","","","image-keyboard-response","117","320962","0.0-2.0-7.0-1.8","6135dd3307f6e86bcbc33a0d","D2","batch4","","2171.7999999970198","stim/yes_67_hor_b1.png","f","pattern_response","true","f","pattern_79","2171.7999999970198","true","42","","","","","","","","","","","","","","","","","","",""
"","","","","","html-keyboard-response","118","322287","0.0-2.0-7.0-0.9","6135dd3307f6e86bcbc33a0d","D2","batch4","","null","<p class=block-text>Trial 49 out of 78</p>","null","pattern_show_trial_num","","","","","","","","","","","","","","","","","","","","","","","","",""
"","","","","","image-keyboard-response","119","325180","0.0-2.0-7.0-1.9","6135dd3307f6e86bcbc33a0d","D2","batch4","","2887.2999999970198","stim/no_29_1_b.png","j","pattern_response","true","j","pattern_12","2887.2999999970198","true","43","","","","","","","","","","","","","","","","","","",""
"","","","","","html-keyboard-response","120","326488","0.0-2.0-7.0-0.10","6135dd3307f6e86bcbc33a0d","D2","batch4","","null","<p class=block-text>Trial 50 out of 78</p>","null","pattern_show_trial_num","","","","","","","","","","","","","","","","","","","","","","","","",""
"","","","","","image-keyboard-response","121","333616","0.0-2.0-7.0-1.10","6135dd3307f6e86bcbc33a0d","D2","batch4","","7124.29999999702","stim/no_46_1_b.png","j","pattern_response","true","j","pattern_26","7124.29999999702","true","44","","","","","","","","","","","","","","","","","","",""
"","","","","","html-keyboard-response","122","334935","0.0-2.0-7.0-0.11","6135dd3307f6e86bcbc33a0d","D2","batch4","","null","<p class=block-text>Trial 51 out of 78</p>","null","pattern_show_trial_num","","","","","","","","","","","","","","","","","","","","","","","","",""
"","","","","","image-keyboard-response","123","336637","0.0-2.0-7.0-1.11","6135dd3307f6e86bcbc33a0d","D2","batch4","","1698.5","stim/no_20_1_w.png","j","pattern_response","true","j","pattern_06","1698.5","true","45","","","","","","","","","","","","","","","","","","",""
"","","","","","html-keyboard-response","124","337952","0.0-2.0-7.0-0.12","6135dd3307f6e86bcbc33a0d","D2","batch4","","null","<p class=block-text>Trial 52 out of 78</p>","null","pattern_show_trial_num","","","","","","","","","","","","","","","","","","","","","","","","",""
"","","","","","image-keyboard-response","125","339596","0.0-2.0-7.0-1.12","6135dd3307f6e86bcbc33a0d","D2","batch4","","1640.5","stim/yes_43_ver_w1_w.png","f","pattern_response","true","f","pattern_65","1640.5","true","46","","","","","","","","","","","","","","","","","","",""
"","","","","","html-keyboard-response","126","340918","0.0-2.0-7.0-0.13","6135dd3307f6e86bcbc33a0d","D2","batch4","","null","<p class=block-text>Trial 53 out of 78</p>","null","pattern_show_trial_num","","","","","","","","","","","","","","","","","","","","","","","","",""
"","","","","","image-keyboard-response","127","348087","0.0-2.0-7.0-1.13","6135dd3307f6e86bcbc33a0d","D2","batch4","","7166.70000000298","stim/no_50_1.png","j","pattern_response","true","j","pattern_30","7166.70000000298","true","47","","","","","","","","","","","","","","","","","","",""
"","","","","","html-keyboard-response","128","349401","0.0-2.0-7.0-0.14","6135dd3307f6e86bcbc33a0d","D2","batch4","","null","<p class=block-text>Trial 54 out of 78</p>","null","pattern_show_trial_num","","","","","","","","","","","","","","","","","","","","","","","","",""
"","","","","","image-keyboard-response","129","350644","0.0-2.0-7.0-1.14","6135dd3307f6e86bcbc33a0d","D2","batch4","","1239.3000000044703","stim/yes_25_hor_b1_b.png","f","pattern_response","true","f","pattern_49","1239.3000000044703","true","48","","","","","","","","","","","","","","","","","","",""
"","","","","","html-keyboard-response","130","351966","0.0-2.0-7.0-0.15","6135dd3307f6e86bcbc33a0d","D2","batch4","","null","<p class=block-text>Trial 55 out of 78</p>","null","pattern_show_trial_num","","","","","","","","","","","","","","","","","","","","","","","","",""
"","","","","","image-keyboard-response","131","353288","0.0-2.0-7.0-1.15","6135dd3307f6e86bcbc33a0d","D2","batch4","","1312.7999999970198","stim/no_17_1_w.png","j","pattern_response","true","j","pattern_04","1312.7999999970198","true","49","","","","","","","","","","","","","","","","","","",""
"","","","","","html-keyboard-response","132","354616","0.0-2.0-7.0-0.16","6135dd3307f6e86bcbc33a0d","D2","batch4","","null","<p class=block-text>Trial 56 out of 78</p>","null","pattern_show_trial_num","","","","","","","","","","","","","","","","","","","","","","","","",""
"","","","","","image-keyboard-response","133","358867","0.0-2.0-7.0-1.16","6135dd3307f6e86bcbc33a0d","D2","batch4","","4249","stim/no_48_1_w.png","j","pattern_response","true","j","pattern_28","4249","true","50","","","","","","","","","","","","","","","","","","",""
"","","","","","html-keyboard-response","134","360182","0.0-2.0-7.0-0.17","6135dd3307f6e86bcbc33a0d","D2","batch4","","null","<p class=block-text>Trial 57 out of 78</p>","null","pattern_show_trial_num","","","","","","","","","","","","","","","","","","","","","","","","",""
"","","","","","image-keyboard-response","135","367746","0.0-2.0-7.0-1.17","6135dd3307f6e86bcbc33a0d","D2","batch4","","7562","stim/no_62_1_w.png","j","pattern_response","true","j","pattern_36","7562","true","51","","","","","","","","","","","","","","","","","","",""
"","","","","","html-keyboard-response","136","369064","0.0-2.0-7.0-0.18","6135dd3307f6e86bcbc33a0d","D2","batch4","","null","<p class=block-text>Trial 58 out of 78</p>","null","pattern_show_trial_num","","","","","","","","","","","","","","","","","","","","","","","","",""
"","","","","","image-keyboard-response","137","377566","0.0-2.0-7.0-1.18","6135dd3307f6e86bcbc33a0d","D2","batch4","","8498.10000000149","stim/yes_60_ver_b1_b.png","j","pattern_response","false","f","pattern_77","8498.10000000149","false","51","","","","","","","","","","","","","","","","","","",""
"","","","","","html-keyboard-response","138","378882","0.0-2.0-7.0-0.19","6135dd3307f6e86bcbc33a0d","D2","batch4","","null","<p class=block-text>Trial 59 out of 78</p>","null","pattern_show_trial_num","","","","","","","","","","","","","","","","","","","","","","","","",""
"","","","","","image-keyboard-response","139","380500","0.0-2.0-7.0-1.19","6135dd3307f6e86bcbc33a0d","D2","batch4","","1616.3999999985099","stim/yes_38_hor_b1_b.png","f","pattern_response","true","f","pattern_61","1616.3999999985099","true","52","","","","","","","","","","","","","","","","","","",""
"","","","","","html-keyboard-response","140","381814","0.0-2.0-7.0-0.20","6135dd3307f6e86bcbc33a0d","D2","batch4","","null","<p class=block-text>Trial 60 out of 78</p>","null","pattern_show_trial_num","","","","","","","","","","","","","","","","","","","","","","","","",""
"","","","","","image-keyboard-response","141","383575","0.0-2.0-7.0-1.20","6135dd3307f6e86bcbc33a0d","D2","batch4","","1757.7999999970198","stim/no_36_2_w.png","j","pattern_response","true","j","pattern_18","1757.7999999970198","true","53","","","","","","","","","","","","","","","","","","",""
"","","","","","html-keyboard-response","142","384898","0.0-2.0-7.0-0.21","6135dd3307f6e86bcbc33a0d","D2","batch4","","null","<p class=block-text>Trial 61 out of 78</p>","null","pattern_show_trial_num","","","","","","","","","","","","","","","","","","","","","","","","",""
"","","","","","image-keyboard-response","143","386399","0.0-2.0-7.0-1.21","6135dd3307f6e86bcbc33a0d","D2","batch4","","1497.5","stim/yes_55_hor_w1_w.png","f","pattern_response","true","f","pattern_75","1497.5","true","54","","","","","","","","","","","","","","","","","","",""
"","","","","","html-keyboard-response","144","387714","0.0-2.0-7.0-0.22","6135dd3307f6e86bcbc33a0d","D2","batch4","","null","<p class=block-text>Trial 62 out of 78</p>","null","pattern_show_trial_num","","","","","","","","","","","","","","","","","","","","","","","","",""
"","","","","","image-keyboard-response","145","395900","0.0-2.0-7.0-1.22","6135dd3307f6e86bcbc33a0d","D2","batch4","","8179.0999999940395","stim/no_65_1_b.png","j","pattern_response","true","j","pattern_38","8179.0999999940395","true","55","","","","","","","","","","","","","","","","","","",""
"","","","","","html-keyboard-response","146","397228","0.0-2.0-7.0-0.23","6135dd3307f6e86bcbc33a0d","D2","batch4","","null","<p class=block-text>Trial 63 out of 78</p>","null","pattern_show_trial_num","","","","","","","","","","","","","","","","","","","","","","","","",""
"","","","","","image-keyboard-response","147","401080","0.0-2.0-7.0-1.23","6135dd3307f6e86bcbc33a0d","D2","batch4","","3850.1999999955297","stim/yes_37_dia_w1.png","j","pattern_response","false","f","pattern_59","3850.1999999955297","false","55","","","","","","","","","","","","","","","","","","",""
"","","","","","html-keyboard-response","148","402394","0.0-2.0-7.0-0.24","6135dd3307f6e86bcbc33a0d","D2","batch4","","null","<p class=block-text>Trial 64 out of 78</p>","null","pattern_show_trial_num","","","","","","","","","","","","","","","","","","","","","","","","",""
"","","","","","image-keyboard-response","149","407879","0.0-2.0-7.0-1.24","6135dd3307f6e86bcbc33a0d","D2","batch4","","5481.80000000447","stim/no_42_1_w.png","j","pattern_response","true","j","pattern_22","5481.80000000447","true","56","","","","","","","","","","","","","","","","","","",""
"","","","","","html-keyboard-response","150","409193","0.0-2.0-7.0-0.25","6135dd3307f6e86bcbc33a0d","D2","batch4","","null","<p class=block-text>Trial 65 out of 78</p>","null","pattern_show_trial_num","","","","","","","","","","","","","","","","","","","","","","","","",""
"","","","","","image-keyboard-response","151","410671","0.0-2.0-7.0-1.25","6135dd3307f6e86bcbc33a0d","D2","batch4","","1476.4000000059605","stim/yes_22_ver_w1.png","f","pattern_response","true","f","pattern_47","1476.4000000059605","true","57","","","","","","","","","","","","","","","","","","",""
"","","","","","html-keyboard-response","152","411993","0.0-2.0-7.0-0.26","6135dd3307f6e86bcbc33a0d","D2","batch4","","null","<p class=block-text>Trial 66 out of 78</p>","null","pattern_show_trial_num","","","","","","","","","","","","","","","","","","","","","","","","",""
"","","","","","image-keyboard-response","153","413352","0.0-2.0-7.0-1.26","6135dd3307f6e86bcbc33a0d","D2","batch4","","1357.5","stim/yes_14_hor_b1_w.png","f","pattern_response","true","f","pattern_43","1357.5","true","58","","","","","","","","","","","","","","","","","","",""
"","","","","","html-keyboard-response","154","414678","0.0-2.0-7.0-0.27","6135dd3307f6e86bcbc33a0d","D2","batch4","","null","<p class=block-text>Trial 67 out of 78</p>","null","pattern_show_trial_num","","","","","","","","","","","","","","","","","","","","","","","","",""
"","","","","","image-keyboard-response","155","416581","0.0-2.0-7.0-1.27","6135dd3307f6e86bcbc33a0d","D2","batch4","","1899.6000000014901","stim/yes_52_ver_w1.png","f","pattern_response","true","f","pattern_73","1899.6000000014901","true","59","","","","","","","","","","","","","","","","","","",""
"","","","","","html-keyboard-response","156","417910","0.0-2.0-7.0-0.28","6135dd3307f6e86bcbc33a0d","D2","batch4","","null","<p class=block-text>Trial 68 out of 78</p>","null","pattern_show_trial_num","","","","","","","","","","","","","","","","","","","","","","","","",""
"","","","","","image-keyboard-response","157","421793","0.0-2.0-7.0-1.28","6135dd3307f6e86bcbc33a0d","D2","batch4","","3881.2999999970198","stim/yes_40_dia_b1_b.png","j","pattern_response","false","f","pattern_63","3881.2999999970198","false","59","","","","","","","","","","","","","","","","","","",""
"","","","","","html-keyboard-response","158","423110","0.0-2.0-7.0-0.29","6135dd3307f6e86bcbc33a0d","D2","batch4","","null","<p class=block-text>Trial 69 out of 78</p>","null","pattern_show_trial_num","","","","","","","","","","","","","","","","","","","","","","","","",""
"","","","","","image-keyboard-response","159","428357","0.0-2.0-7.0-1.29","6135dd3307f6e86bcbc33a0d","D2","batch4","","5240.79999999702","stim/no_34_1_b.png","j","pattern_response","true","j","pattern_16","5240.79999999702","true","60","","","","","","","","","","","","","","","","","","",""
"","","","","","html-keyboard-response","160","429681","0.0-2.0-7.0-0.30","6135dd3307f6e86bcbc33a0d","D2","batch4","","null","<p class=block-text>Trial 70 out of 78</p>","null","pattern_show_trial_num","","","","","","","","","","","","","","","","","","","","","","","","",""
"","","","","","image-keyboard-response","161","436826","0.0-2.0-7.0-1.30","6135dd3307f6e86bcbc33a0d","D2","batch4","","7140.80000000447","stim/no_52_1.png","j","pattern_response","true","j","pattern_32","7140.80000000447","true","61","","","","","","","","","","","","","","","","","","",""
"","","","","","html-keyboard-response","162","438140","0.0-2.0-7.0-0.31","6135dd3307f6e86bcbc33a0d","D2","batch4","","null","<p class=block-text>Trial 71 out of 78</p>","null","pattern_show_trial_num","","","","","","","","","","","","","","","","","","","","","","","","",""
"","","","","","image-keyboard-response","163","444912","0.0-2.0-7.0-1.31","6135dd3307f6e86bcbc33a0d","D2","batch4","","6767.30000000447","stim/no_70_2.png","j","pattern_response","true","j","pattern_40","6767.30000000447","true","62","","","","","","","","","","","","","","","","","","",""
"","","","","","html-keyboard-response","164","446240","0.0-2.0-7.0-0.32","6135dd3307f6e86bcbc33a0d","D2","batch4","","null","<p class=block-text>Trial 72 out of 78</p>","null","pattern_show_trial_num","","","","","","","","","","","","","","","","","","","","","","","","",""
"","","","","","image-keyboard-response","165","447906","0.0-2.0-7.0-1.32","6135dd3307f6e86bcbc33a0d","D2","batch4","","1658","stim/yes_35_dia_b1.png","f","pattern_response","true","f","pattern_57","1658","true","63","","","","","","","","","","","","","","","","","","",""
"","","","","","html-keyboard-response","166","449224","0.0-2.0-7.0-0.33","6135dd3307f6e86bcbc33a0d","D2","batch4","","null","<p class=block-text>Trial 73 out of 78</p>","null","pattern_show_trial_num","","","","","","","","","","","","","","","","","","","","","","","","",""
"","","","","","image-keyboard-response","167","454302","0.0-2.0-7.0-1.33","6135dd3307f6e86bcbc33a0d","D2","batch4","","5077.10000000149","stim/no_44_1.png","j","pattern_response","true","j","pattern_24","5077.10000000149","true","64","","","","","","","","","","","","","","","","","","",""
"","","","","","html-keyboard-response","168","455622","0.0-2.0-7.0-0.34","6135dd3307f6e86bcbc33a0d","D2","batch4","","null","<p class=block-text>Trial 74 out of 78</p>","null","pattern_show_trial_num","","","","","","","","","","","","","","","","","","","","","","","","",""
"","","","","","image-keyboard-response","169","456951","0.0-2.0-7.0-1.34","6135dd3307f6e86bcbc33a0d","D2","batch4","","1325.3000000044703","stim/yes_28_ver_b1.png","f","pattern_response","true","f","pattern_51","1325.3000000044703","true","65","","","","","","","","","","","","","","","","","","",""
"","","","","","html-keyboard-response","170","458278","0.0-2.0-7.0-0.35","6135dd3307f6e86bcbc33a0d","D2","batch4","","null","<p class=block-text>Trial 75 out of 78</p>","null","pattern_show_trial_num","","","","","","","","","","","","","","","","","","","","","","","","",""
"","","","","","image-keyboard-response","171","465827","0.0-2.0-7.0-1.35","6135dd3307f6e86bcbc33a0d","D2","batch4","","7544.89999999851","stim/no_55_1_w.png","j","pattern_response","true","j","pattern_34","7544.89999999851","true","66","","","","","","","","","","","","","","","","","","",""
"","","","","","html-keyboard-response","172","467171","0.0-2.0-7.0-0.36","6135dd3307f6e86bcbc33a0d","D2","batch4","","null","<p class=block-text>Trial 76 out of 78</p>","null","pattern_show_trial_num","","","","","","","","","","","","","","","","","","","","","","","","",""
"","","","","","image-keyboard-response","173","468362","0.0-2.0-7.0-1.36","6135dd3307f6e86bcbc33a0d","D2","batch4","","1184.5","stim/yes_31_hor_b1.png","f","pattern_response","true","f","pattern_55","1184.5","true","67","","","","","","","","","","","","","","","","","","",""
"","","","","","html-keyboard-response","174","469686","0.0-2.0-7.0-0.37","6135dd3307f6e86bcbc33a0d","D2","batch4","","null","<p class=block-text>Trial 77 out of 78</p>","null","pattern_show_trial_num","","","","","","","","","","","","","","","","","","","","","","","","",""
"","","","","","image-keyboard-response","175","471821","0.0-2.0-7.0-1.37","6135dd3307f6e86bcbc33a0d","D2","batch4","","2133.10000000149","stim/no_32_1_w.png","j","pattern_response","true","j","pattern_14","2133.10000000149","true","68","","","","","","","","","","","","","","","","","","",""
"","","","","","html-keyboard-response","176","473137","0.0-2.0-7.0-0.38","6135dd3307f6e86bcbc33a0d","D2","batch4","","null","<p class=block-text>Trial 78 out of 78</p>","null","pattern_show_trial_num","","","","","","","","","","","","","","","","","","","","","","","","",""
"","","","","","image-keyboard-response","177","474222","0.0-2.0-7.0-1.38","6135dd3307f6e86bcbc33a0d","D2","batch4","","1080.2000000029802","stim/yes_45_hor_b2_b.png","f","pattern_response","true","f","pattern_67","1080.2000000029802","true","69","","","","","","","","","","","","","","","","","","",""
"","","","","","html-button-response","178","484846","0.0-2.0-8.0","6135dd3307f6e86bcbc33a0d","D2","batch4","","10118","<p class = block-text>This concludes the 4-in-a-row detection game.Thank you for your responses!<br>
            You responded correctly on 88% of the trials.<br>
            When you are ready, press ""Continue"" button to continue </p>","0","","","","","","","","","","","","","","","","","","","","","","","","","",""
"true","","","","","fullscreen","179","488873","0.0-3.0-0.0","6135dd3307f6e86bcbc33a0d","D2","batch4","","","","","","","","","","","","","","","","","","","","","","","","","","","","","",""
"","","","","","instructions","180","795179","0.0-3.0-1.0-0.0-0.0","6135dd3307f6e86bcbc33a0d","D2","batch4","[{""page_index"":0,""viewing_time"":242533.79999999702},{""page_index"":1,""viewing_time"":9231.89999999851},{""page_index"":2,""viewing_time"":7767.9000000059605},{""page_index"":3,""viewing_time"":17280.5},{""page_index"":4,""viewing_time"":9112.89999999851},{""page_index"":5,""viewing_time"":15384},{""page_index"":6,""viewing_time"":4990.89999999851}]","306302.19999999553","","","tol-instructions","","","","","","","","","","","","","","","","","","","","","","","","",""
"","","","","","html-button-response","181","796435","0.0-3.0-1.0-1.0-0.0","6135dd3307f6e86bcbc33a0d","D2","batch4","","1255.7000000029802","<p class=block-text> Let's answer a few questions <br>","0","tol_enter_quiz","","","","","","","","","","","","","","","","","","","","","","","","",""
"","","","","","html-button-response","182","800115","0.0-3.0-1.0-1.0-1.0","6135dd3307f6e86bcbc33a0d","D2","batch4","","3678.7999999970198","<p class = block-text>True or False: You can only move the ball on top of a peg. <br></p>","0","tol_quiz","true","","","","","","","","","","","","","","","","","","","","","","","",""
"","","","","","html-button-response","183","803915","0.0-3.0-1.0-1.0-2.0","6135dd3307f6e86bcbc33a0d","D2","batch4","","3798.39999999851","<p class = block-text>Correct! You can only move the ball on top of a peg.</p>","0","tol_quiz_feedback","","","","","","","","","","","","","","","","","","","","","","","","",""
"","","","","","html-button-response","184","807403","0.0-3.0-1.0-1.0-3.0","6135dd3307f6e86bcbc33a0d","D2","batch4","","3487.10000000149","<p class = block-text>True or False: You should try to match your board with the target board with fewest moves possible. <br></p>","0","tol_quiz","true","","","","","","","","","","","","","","","","","","","","","","","",""
"","","","","","html-button-response","185","808356","0.0-3.0-1.0-1.0-4.0","6135dd3307f6e86bcbc33a0d","D2","batch4","","952.1000000014901","<p class = block-text>Correct! </p>","0","tol_quiz_feedback","","","","","","","","","","","","","","","","","","","","","","","","",""
"","","","","","html-button-response","186","810211","0.0-3.0-2.0","6135dd3307f6e86bcbc33a0d","D2","batch4","","1853.3999999985099","<p class=block-text> Now that you've understood the game, let's practice a few easier examples before we start!<br> <br>","0","","","","","","","","","","","","","","","","","","","","","","","","","",""
"","","","","","single-stim-button","187","816453","0.0-3.0-3.0-0.0","6135dd3307f6e86bcbc33a0d","D2","batch4","","6240","","","tol_practice","","","","","","","","","tol_peg_2","6240","6240","0","[[1,2,0],[0,0],[0]]","1","[[1,2,0],[0,0],[3]]","practice","6240","","","","","","","",""
"","","","","","single-stim-button","188","819251","0.0-3.0-3.0-1.0","6135dd3307f6e86bcbc33a0d","D2","batch4","","2798","","","tol_practice","","","","","","","","","tol_peg_3","2798","2798","0","[[1,2,0],[0,0],[3]]","1","[[1,2,0],[0,0],[3]]","practice","2798","","","","","","","",""
"","","","","","poldrack-single-stim","189","820262","0.0-3.0-4.0","6135dd3307f6e86bcbc33a0d","D2","batch4","","-1","","","tol_feedback","true","","","","","","","","","1000","1000","500","","","","","","-1","none","true","","0","","",""
"","","","","","single-stim-button","190","827771","0.0-3.0-5.0-0.0","6135dd3307f6e86bcbc33a0d","D2","batch4","","7508","","","tol_practice","","","","","","","","","tol_peg_1","7508","7508","0","[[1,0,0],[3,0],[0]]","2","[[0,0,0],[3,1],[2]]","practice","7508","","","","","","","",""
"","","","","","single-stim-button","191","831419","0.0-3.0-5.0-1.0","6135dd3307f6e86bcbc33a0d","D2","batch4","","3647","","","tol_practice","","","","","","","","","tol_peg_3","3647","3647","0","[[1,0,0],[3,0],[2]]","2","[[0,0,0],[3,1],[2]]","practice","3647","","","","","","","",""
"","","","","","single-stim-button","192","832619","0.0-3.0-5.1-0.1","6135dd3307f6e86bcbc33a0d","D2","batch4","","1198","","","tol_practice","","","","","","","","","tol_peg_1","1198","1198","0","[[0,0,0],[3,0],[2]]","3","[[0,0,0],[3,1],[2]]","practice","1198","","","","","","","",""
"","","","","","single-stim-button","193","834243","0.0-3.0-5.1-1.1","6135dd3307f6e86bcbc33a0d","D2","batch4","","1624","","","tol_practice","","","","","","","","","tol_peg_2","1624","1624","0","[[0,0,0],[3,1],[2]]","3","[[0,0,0],[3,1],[2]]","practice","1624","","","","","","","",""
"","","","","","poldrack-single-stim","194","835253","0.0-3.0-6.0","6135dd3307f6e86bcbc33a0d","D2","batch4","","-1","","","tol_feedback","true","","","","","","","","","1000","1000","500","","","","","","-1","none","true","","0","","",""
"","","","","","single-stim-button","195","842019","0.0-3.0-7.0-0.0","6135dd3307f6e86bcbc33a0d","D2","batch4","","6765","","","tol_practice","","","","","","","","","tol_peg_2","6765","6765","0","[[1,2,0],[0,0],[0]]","4","[[1,0,0],[2,0],[3]]","practice","6765","","","","","","","",""
"","","","","","single-stim-button","196","844092","0.0-3.0-7.0-1.0","6135dd3307f6e86bcbc33a0d","D2","batch4","","2073","","","tol_practice","","","","","","","","","tol_peg_3","2073","2073","0","[[1,2,0],[0,0],[3]]","4","[[1,0,0],[2,0],[3]]","practice","2073","","","","","","","",""
"","","","","","single-stim-button","197","844811","0.0-3.0-7.1-0.1","6135dd3307f6e86bcbc33a0d","D2","batch4","","718","","","tol_practice","","","","","","","","","tol_peg_1","718","718","0","[[1,0,0],[0,0],[3]]","5","[[1,0,0],[2,0],[3]]","practice","718","","","","","","","",""
"","","","","","single-stim-button","198","845635","0.0-3.0-7.1-1.1","6135dd3307f6e86bcbc33a0d","D2","batch4","","823","","","tol_practice","","","","","","","","","tol_peg_2","823","823","0","[[1,0,0],[2,0],[3]]","5","[[1,0,0],[2,0],[3]]","practice","823","","","","","","","",""
"","","","","","poldrack-single-stim","199","846652","0.0-3.0-8.0","6135dd3307f6e86bcbc33a0d","D2","batch4","","-1","","","tol_feedback","true","","","","","","","","","1000","1000","500","","","","","","-1","none","true","","0","","",""
"","","","","","html-button-response","200","850682","0.0-3.0-9.0","6135dd3307f6e86bcbc33a0d","D2","batch4","","4029.2000000029802","<div class = centerbox><p class = center-block-text>Great job! You are done with practice trials<br>You are about to start official trials.<br> <br> Problem <strong>1</strong> out of 25 problems</p></div>","0","tol_instruction","","","","","","","","","","","","","","","","","","","","","","","","",""
"","","","","","single-stim-button","201","859467","0.0-3.0-10.0-0.0","6135dd3307f6e86bcbc33a0d","D2","batch4","","7779","","","tol_tohand","","","","","","","","","tol_peg_2","7779","7779","0","[[1,2,0],[0,0],[0]]","1","[[1,3,0],[2,0],[0]]","0","0","","","","","","3","",""
"","","","","","single-stim-button","202","860843","0.0-3.0-10.0-1.0","6135dd3307f6e86bcbc33a0d","D2","batch4","","1376","","","tol_toboard","","","","","","","","","tol_peg_3","1376","1376","0","[[1,2,0],[0,0],[3]]","1","[[1,3,0],[2,0],[0]]","0","0","","","","","","3","",""
"","","","","","single-stim-button","203","861755","0.0-3.0-10.1-0.1","6135dd3307f6e86bcbc33a0d","D2","batch4","","911","","","tol_tohand","","","","","","","","","tol_peg_1","911","911","0","[[1,0,0],[0,0],[3]]","2","[[1,3,0],[2,0],[0]]","0","0","","","","","","3","",""
"","","","","","single-stim-button","204","863027","0.0-3.0-10.1-1.1","6135dd3307f6e86bcbc33a0d","D2","batch4","","1272","","","tol_toboard","","","","","","","","","tol_peg_2","1272","1272","0","[[1,0,0],[2,0],[3]]","2","[[1,3,0],[2,0],[0]]","0","0","","","","","","3","",""
"","","","","","single-stim-button","205","864050","0.0-3.0-10.2-0.2","6135dd3307f6e86bcbc33a0d","D2","batch4","","1023","","","tol_tohand","","","","","","","","","tol_peg_3","1023","1023","0","[[1,0,0],[2,0],[0]]","3","[[1,3,0],[2,0],[0]]","0","0","","","","","","3","",""
"","","","","","single-stim-button","206","865260","0.0-3.0-10.2-1.2","6135dd3307f6e86bcbc33a0d","D2","batch4","","1208","","","tol_toboard","","","","","","","","","tol_peg_1","1208","1208","0","[[1,3,0],[2,0],[0]]","3","[[1,3,0],[2,0],[0]]","0","0","","","","","","3","",""
"","","","","","poldrack-single-stim","207","866261","0.0-3.0-11.0","6135dd3307f6e86bcbc33a0d","D2","batch4","","-1","","","tol_feedback","true","","","","","","","","","1000","1000","500","","","","","","-1","none","true","7779","9713","","",""
"","","","","","html-button-response","208","867499","0.0-3.0-12.0","6135dd3307f6e86bcbc33a0d","D2","batch4","","1235.5","<div class = centerbox><p class = center-block-text>problem <strong>2</strong> out of 25 problems</p></div>","0","tol_trial_num","","","","","","","","","","","","","","","","","","","","","","","","",""
"","","","","","single-stim-button","209","878267","0.0-3.0-13.0-0.0","6135dd3307f6e86bcbc33a0d","D2","batch4","","10766","","","tol_tohand","","","","","","","","","tol_peg_1","10766","10766","0","[[1,0,0],[3,0],[0]]","1","[[2,1,3],[0,0],[0]]","1","0","","","","","","5","",""
"","","","","","single-stim-button","210","882131","0.0-3.0-13.0-1.0","6135dd3307f6e86bcbc33a0d","D2","batch4","","3864","","","tol_toboard","","","","","","","","","tol_peg_2","3864","3864","0","[[1,0,0],[3,2],[0]]","1","[[2,1,3],[0,0],[0]]","1","0","","","","","","5","",""
"","","","","","single-stim-button","211","883131","0.0-3.0-13.1-0.1","6135dd3307f6e86bcbc33a0d","D2","batch4","","998","","","tol_tohand","","","","","","","","","tol_peg_1","998","998","0","[[0,0,0],[3,2],[0]]","2","[[2,1,3],[0,0],[0]]","1","0","","","","","","5","",""
"","","","","","single-stim-button","212","884203","0.0-3.0-13.1-1.1","6135dd3307f6e86bcbc33a0d","D2","batch4","","1072","","","tol_toboard","","","","","","","","","tol_peg_3","1072","1072","0","[[0,0,0],[3,2],[1]]","2","[[2,1,3],[0,0],[0]]","1","0","","","","","","5","",""
"","","","","","single-stim-button","213","887371","0.0-3.0-13.2-0.2","6135dd3307f6e86bcbc33a0d","D2","batch4","","3167","","","tol_tohand","","","","","","","","","tol_peg_2","3167","3167","0","[[0,0,0],[3,0],[1]]","3","[[2,1,3],[0,0],[0]]","1","0","","","","","","5","",""
"","","","","","single-stim-button","214","888547","0.0-3.0-13.2-1.2","6135dd3307f6e86bcbc33a0d","D2","batch4","","1174","","","tol_toboard","","","","","","","","","tol_peg_1","1174","1174","0","[[2,0,0],[3,0],[1]]","3","[[2,1,3],[0,0],[0]]","1","0","","","","","","5","",""
"","","","","","single-stim-button","215","889555","0.0-3.0-13.3-0.3","6135dd3307f6e86bcbc33a0d","D2","batch4","","1008","","","tol_tohand","","","","","","","","","tol_peg_3","1008","1008","0","[[2,0,0],[3,0],[0]]","4","[[2,1,3],[0,0],[0]]","1","0","","","","","","5","",""
"","","","","","single-stim-button","216","890787","0.0-3.0-13.3-1.3","6135dd3307f6e86bcbc33a0d","D2","batch4","","1231","","","tol_toboard","","","","","","","","","tol_peg_1","1231","1231","0","[[2,1,0],[3,0],[0]]","4","[[2,1,3],[0,0],[0]]","1","0","","","","","","5","",""
"","","","","","single-stim-button","217","891468","0.0-3.0-13.4-0.4","6135dd3307f6e86bcbc33a0d","D2","batch4","","680","","","tol_tohand","","","","","","","","","tol_peg_2","680","680","0","[[2,1,0],[0,0],[0]]","5","[[2,1,3],[0,0],[0]]","1","0","","","","","","5","",""
"","","","","","single-stim-button","218","892395","0.0-3.0-13.4-1.4","6135dd3307f6e86bcbc33a0d","D2","batch4","","926","","","tol_toboard","","","","","","","","","tol_peg_1","926","926","0","[[2,1,3],[0,0],[0]]","5","[[2,1,3],[0,0],[0]]","1","0","","","","","","5","",""
"","","","","","poldrack-single-stim","219","893412","0.0-3.0-14.0","6135dd3307f6e86bcbc33a0d","D2","batch4","","-1","","","tol_feedback","true","","","","","","","","","1000","1000","500","","","","","","-1","none","true","10766","16619","","",""
"","","","","","html-button-response","220","895099","0.0-3.0-15.0","6135dd3307f6e86bcbc33a0d","D2","batch4","","1685.3000000044703","<div class = centerbox><p class = center-block-text>problem <strong>3</strong> out of 25 problems</p></div>","0","tol_trial_num","","","","","","","","","","","","","","","","","","","","","","","","",""
"","","","","","single-stim-button","221","902979","0.0-3.0-16.0-0.0","6135dd3307f6e86bcbc33a0d","D2","batch4","","7879","","","tol_tohand","","","","","","","","","tol_peg_1","7879","7879","0","[[2,0,0],[0,0],[1]]","1","[[1,2,0],[3,0],[0]]","2","0","","","","","","4","",""
"","","","","","single-stim-button","222","904979","0.0-3.0-16.0-1.0","6135dd3307f6e86bcbc33a0d","D2","batch4","","2000","","","tol_toboard","","","","","","","","","tol_peg_2","2000","2000","0","[[2,0,0],[3,0],[1]]","1","[[1,2,0],[3,0],[0]]","2","0","","","","","","4","",""
"","","","","","single-stim-button","223","908843","0.0-3.0-16.1-0.1","6135dd3307f6e86bcbc33a0d","D2","batch4","","3864","","","tol_tohand","","","","","","","","","tol_peg_1","3864","3864","0","[[0,0,0],[3,0],[1]]","2","[[1,2,0],[3,0],[0]]","2","0","","","","","","4","",""
"","","","","","single-stim-button","224","910331","0.0-3.0-16.1-1.1","6135dd3307f6e86bcbc33a0d","D2","batch4","","1487","","","tol_toboard","","","","","","","","","tol_peg_2","1487","1487","0","[[0,0,0],[3,2],[1]]","2","[[1,2,0],[3,0],[0]]","2","0","","","","","","4","",""
"","","","","","single-stim-button","225","911100","0.0-3.0-16.2-0.2","6135dd3307f6e86bcbc33a0d","D2","batch4","","768","","","tol_tohand","","","","","","","","","tol_peg_3","768","768","0","[[0,0,0],[3,2],[0]]","3","[[1,2,0],[3,0],[0]]","2","0","","","","","","4","",""
"","","","","","single-stim-button","226","912869","0.0-3.0-16.2-1.2","6135dd3307f6e86bcbc33a0d","D2","batch4","","1769","","","tol_toboard","","","","","","","","","tol_peg_1","1769","1769","0","[[1,0,0],[3,2],[0]]","3","[[1,2,0],[3,0],[0]]","2","0","","","","","","4","",""
"","","","","","single-stim-button","227","913692","0.0-3.0-16.3-0.3","6135dd3307f6e86bcbc33a0d","D2","batch4","","822","","","tol_tohand","","","","","","","","","tol_peg_2","822","822","0","[[1,0,0],[3,0],[0]]","4","[[1,2,0],[3,0],[0]]","2","0","","","","","","4","",""
"","","","","","single-stim-button","228","914508","0.0-3.0-16.3-1.3","6135dd3307f6e86bcbc33a0d","D2","batch4","","815","","","tol_toboard","","","","","","","","","tol_peg_1","815","815","0","[[1,2,0],[3,0],[0]]","4","[[1,2,0],[3,0],[0]]","2","0","","","","","","4","",""
"","","","","","poldrack-single-stim","229","915511","0.0-3.0-17.0","6135dd3307f6e86bcbc33a0d","D2","batch4","","-1","","","tol_feedback","true","","","","","","","","","1000","1000","500","","","","","","-1","none","true","7879","13333","","",""
"","","","","","html-button-response","230","916820","0.0-3.0-18.0","6135dd3307f6e86bcbc33a0d","D2","batch4","","1308.8999999985099","<div class = centerbox><p class = center-block-text>problem <strong>4</strong> out of 25 problems</p></div>","0","tol_trial_num","","","","","","","","","","","","","","","","","","","","","","","","",""
"","","","","","single-stim-button","231","923516","0.0-3.0-19.0-0.0","6135dd3307f6e86bcbc33a0d","D2","batch4","","6695","","","tol_tohand","","","","","","","","","tol_peg_2","6695","6695","0","[[3,0,0],[2,0],[0]]","1","[[3,0,0],[1,0],[2]]","3","0","","","","","","3","",""
"","","","","","single-stim-button","232","924763","0.0-3.0-19.0-1.0","6135dd3307f6e86bcbc33a0d","D2","batch4","","1247","","","tol_toboard","","","","","","","","","tol_peg_1","1247","1247","0","[[3,1,0],[2,0],[0]]","1","[[3,0,0],[1,0],[2]]","3","0","","","","","","3","",""
"","","","","","single-stim-button","233","925403","0.0-3.0-19.1-0.1","6135dd3307f6e86bcbc33a0d","D2","batch4","","639","","","tol_tohand","","","","","","","","","tol_peg_2","639","639","0","[[3,1,0],[0,0],[0]]","2","[[3,0,0],[1,0],[2]]","3","0","","","","","","3","",""
"","","","","","single-stim-button","234","926012","0.0-3.0-19.1-1.1","6135dd3307f6e86bcbc33a0d","D2","batch4","","607","","","tol_toboard","","","","","","","","","tol_peg_3","607","607","0","[[3,1,0],[0,0],[2]]","2","[[3,0,0],[1,0],[2]]","3","0","","","","","","3","",""
"","","","","","single-stim-button","235","928140","0.0-3.0-19.2-0.2","6135dd3307f6e86bcbc33a0d","D2","batch4","","2128","","","tol_tohand","","","","","","","","","tol_peg_1","2128","2128","0","[[3,0,0],[0,0],[2]]","3","[[3,0,0],[1,0],[2]]","3","0","","","","","","3","",""
"","","","","","single-stim-button","236","928851","0.0-3.0-19.2-1.2","6135dd3307f6e86bcbc33a0d","D2","batch4","","710","","","tol_toboard","","","","","","","","","tol_peg_2","710","710","0","[[3,0,0],[1,0],[2]]","3","[[3,0,0],[1,0],[2]]","3","0","","","","","","3","",""
"","","","","","poldrack-single-stim","237","929853","0.0-3.0-20.0","6135dd3307f6e86bcbc33a0d","D2","batch4","","-1","","","tol_feedback","true","","","","","","","","","1000","1000","500","","","","","","-1","none","true","6695","9462","","",""
"","","","","","html-button-response","238","931164","0.0-3.0-21.0","6135dd3307f6e86bcbc33a0d","D2","batch4","","1309.2000000029802","<div class = centerbox><p class = center-block-text>problem <strong>5</strong> out of 25 problems</p></div>","0","tol_trial_num","","","","","","","","","","","","","","","","","","","","","","","","",""
"","","","","","single-stim-button","239","966948","0.0-3.0-22.0-0.0","6135dd3307f6e86bcbc33a0d","D2","batch4","","35783","","","tol_tohand","","","","","","","","","tol_peg_1","35783","35783","0","[[0,0,0],[2,0],[3]]","1","[[0,0,0],[1,2],[3]]","4","0","","","","","","7","",""
"","","","","","single-stim-button","240","978708","0.0-3.0-22.0-1.0","6135dd3307f6e86bcbc33a0d","D2","batch4","","11760","","","tol_toboard","","","","","","","","","tol_peg_1","11760","11760","0","[[1,0,0],[2,0],[3]]","1","[[0,0,0],[1,2],[3]]","4","0","","","","","","7","",""
"","","","","","single-stim-button","241","981860","0.0-3.0-22.1-0.1","6135dd3307f6e86bcbc33a0d","D2","batch4","","3151","","","tol_tohand","","","","","","","","","tol_peg_3","3151","3151","0","[[1,0,0],[2,0],[0]]","2","[[0,0,0],[1,2],[3]]","4","0","","","","","","7","",""
"","","","","","single-stim-button","242","989508","0.0-3.0-22.1-1.1","6135dd3307f6e86bcbc33a0d","D2","batch4","","7647","","","tol_toboard","","","","","","","","","tol_peg_1","7647","7647","0","[[1,3,0],[2,0],[0]]","2","[[0,0,0],[1,2],[3]]","4","0","","","","","","7","",""
"","","","","","single-stim-button","243","994741","0.0-3.0-22.2-0.2","6135dd3307f6e86bcbc33a0d","D2","batch4","","5233","","","tol_tohand","","","","","","","","","tol_peg_2","5233","5233","0","[[1,3,0],[0,0],[0]]","3","[[0,0,0],[1,2],[3]]","4","0","","","","","","7","",""
"","","","","","single-stim-button","244","996398","0.0-3.0-22.2-1.2","6135dd3307f6e86bcbc33a0d","D2","batch4","","1655","","","tol_toboard","","","","","","","","","tol_peg_3","1655","1655","0","[[1,3,0],[0,0],[2]]","3","[[0,0,0],[1,2],[3]]","4","0","","","","","","7","",""
"","","","","","single-stim-button","245","1001980","0.0-3.0-22.3-0.3","6135dd3307f6e86bcbc33a0d","D2","batch4","","5581","","","tol_tohand","","","","","","","","","tol_peg_1","5581","5581","0","[[1,0,0],[0,0],[2]]","4","[[0,0,0],[1,2],[3]]","4","0","","","","","","7","",""
"","","","","","single-stim-button","246","1003268","0.0-3.0-22.3-1.3","6135dd3307f6e86bcbc33a0d","D2","batch4","","1287","","","tol_toboard","","","","","","","","","tol_peg_2","1287","1287","0","[[1,0,0],[3,0],[2]]","4","[[0,0,0],[1,2],[3]]","4","0","","","","","","7","",""
"","","","","","single-stim-button","247","1004204","0.0-3.0-22.4-0.4","6135dd3307f6e86bcbc33a0d","D2","batch4","","935","","","tol_tohand","","","","","","","","","tol_peg_1","935","935","0","[[0,0,0],[3,0],[2]]","5","[[0,0,0],[1,2],[3]]","4","0","","","","","","7","",""
"","","","","","single-stim-button","248","1006916","0.0-3.0-22.4-1.4","6135dd3307f6e86bcbc33a0d","D2","batch4","","2711","","","tol_toboard","","","","","","","","","tol_peg_2","2711","2711","0","[[0,0,0],[3,1],[2]]","5","[[0,0,0],[1,2],[3]]","4","0","","","","","","7","",""
"","","","","","single-stim-button","249","1007692","0.0-3.0-22.5-0.5","6135dd3307f6e86bcbc33a0d","D2","batch4","","776","","","tol_tohand","","","","","","","","","tol_peg_3","776","776","0","[[0,0,0],[3,1],[0]]","6","[[0,0,0],[1,2],[3]]","4","0","","","","","","7","",""
"","","","","","single-stim-button","250","1009228","0.0-3.0-22.5-1.5","6135dd3307f6e86bcbc33a0d","D2","batch4","","1534","","","tol_toboard","","","","","","","","","tol_peg_1","1534","1534","0","[[2,0,0],[3,1],[0]]","6","[[0,0,0],[1,2],[3]]","4","0","","","","","","7","",""
"","","","","","single-stim-button","251","1010604","0.0-3.0-22.6-0.6","6135dd3307f6e86bcbc33a0d","D2","batch4","","1376","","","tol_tohand","","","","","","","","","tol_peg_2","1376","1376","0","[[2,0,0],[3,0],[0]]","7","[[0,0,0],[1,2],[3]]","4","0","","","","","","7","",""
"","","","","","single-stim-button","252","1015044","0.0-3.0-22.6-1.6","6135dd3307f6e86bcbc33a0d","D2","batch4","","4438","","","tol_toboard","","","","","","","","","tol_peg_3","4438","4438","0","[[2,0,0],[3,0],[1]]","7","[[0,0,0],[1,2],[3]]","4","0","","","","","","7","",""
"","","","","","single-stim-button","253","1016020","0.0-3.0-22.7-0.7","6135dd3307f6e86bcbc33a0d","D2","batch4","","976","","","tol_tohand","","","","","","","","","tol_peg_2","976","976","0","[[2,0,0],[0,0],[1]]","8","[[0,0,0],[1,2],[3]]","4","0","","","","","","7","",""
"","","","","","single-stim-button","254","1017028","0.0-3.0-22.7-1.7","6135dd3307f6e86bcbc33a0d","D2","batch4","","1008","","","tol_toboard","","","","","","","","","tol_peg_1","1008","1008","0","[[2,3,0],[0,0],[1]]","8","[[0,0,0],[1,2],[3]]","4","0","","","","","","7","",""
"","","","","","single-stim-button","255","1018292","0.0-3.0-22.8-0.8","6135dd3307f6e86bcbc33a0d","D2","batch4","","1264","","","tol_tohand","","","","","","","","","tol_peg_3","1264","1264","0","[[2,3,0],[0,0],[0]]","9","[[0,0,0],[1,2],[3]]","4","0","","","","","","7","",""
"","","","","","single-stim-button","256","1019060","0.0-3.0-22.8-1.8","6135dd3307f6e86bcbc33a0d","D2","batch4","","768","","","tol_toboard","","","","","","","","","tol_peg_2","768","768","0","[[2,3,0],[1,0],[0]]","9","[[0,0,0],[1,2],[3]]","4","0","","","","","","7","",""
"","","","","","single-stim-button","257","1019764","0.0-3.0-22.9-0.9","6135dd3307f6e86bcbc33a0d","D2","batch4","","703","","","tol_tohand","","","","","","","","","tol_peg_1","703","703","0","[[2,0,0],[1,0],[0]]","10","[[0,0,0],[1,2],[3]]","4","0","","","","","","7","",""
"","","","","","single-stim-button","258","1020748","0.0-3.0-22.9-1.9","6135dd3307f6e86bcbc33a0d","D2","batch4","","983","","","tol_toboard","","","","","","","","","tol_peg_3","983","983","0","[[2,0,0],[1,0],[3]]","10","[[0,0,0],[1,2],[3]]","4","0","","","","","","7","",""
"","","","","","single-stim-button","259","1021589","0.0-3.0-22.10-0.10","6135dd3307f6e86bcbc33a0d","D2","batch4","","841","","","tol_tohand","","","","","","","","","tol_peg_1","841","841","0","[[0,0,0],[1,0],[3]]","11","[[0,0,0],[1,2],[3]]","4","0","","","","","","7","",""
"","","","","","single-stim-button","260","1022452","0.0-3.0-22.10-1.10","6135dd3307f6e86bcbc33a0d","D2","batch4","","862","","","tol_toboard","","","","","","","","","tol_peg_2","862","862","0","[[0,0,0],[1,2],[3]]","11","[[0,0,0],[1,2],[3]]","4","0","","","","","","7","",""
"","","","","","poldrack-single-stim","261","1023456","0.0-3.0-23.0","6135dd3307f6e86bcbc33a0d","D2","batch4","","-1","","","tol_feedback","true","","","","","","","","","1000","1000","500","","","","","","-1","none","true","35783","56619","","",""
"","","","","","html-button-response","262","1024564","0.0-3.0-24.0","6135dd3307f6e86bcbc33a0d","D2","batch4","","1106.5999999940395","<div class = centerbox><p class = center-block-text>problem <strong>6</strong> out of 25 problems</p></div>","0","tol_trial_num","","","","","","","","","","","","","","","","","","","","","","","","",""
"","","","","","single-stim-button","263","1040044","0.0-3.0-25.0-0.0","6135dd3307f6e86bcbc33a0d","D2","batch4","","15480","","","tol_tohand","","","","","","","","","tol_peg_3","15480","15480","0","[[0,0,0],[1,2],[0]]","1","[[1,0,0],[2,3],[0]]","5","0","","","","","","6","",""
"","","","","","single-stim-button","264","1042139","0.0-3.0-25.0-1.0","6135dd3307f6e86bcbc33a0d","D2","batch4","","2094","","","tol_toboard","","","","","","","","","tol_peg_1","2094","2094","0","[[3,0,0],[1,2],[0]]","1","[[1,0,0],[2,3],[0]]","5","0","","","","","","6","",""
"","","","","","single-stim-button","265","1045315","0.0-3.0-25.1-0.1","6135dd3307f6e86bcbc33a0d","D2","batch4","","3175","","","tol_tohand","","","","","","","","","tol_peg_2","3175","3175","0","[[3,0,0],[1,0],[0]]","2","[[1,0,0],[2,3],[0]]","5","0","","","","","","6","",""
"","","","","","single-stim-button","266","1047243","0.0-3.0-25.1-1.1","6135dd3307f6e86bcbc33a0d","D2","batch4","","1927","","","tol_toboard","","","","","","","","","tol_peg_3","1927","1927","0","[[3,0,0],[1,0],[2]]","2","[[1,0,0],[2,3],[0]]","5","0","","","","","","6","",""
"","","","","","single-stim-button","267","1048124","0.0-3.0-25.2-0.2","6135dd3307f6e86bcbc33a0d","D2","batch4","","880","","","tol_tohand","","","","","","","","","tol_peg_2","880","880","0","[[3,0,0],[0,0],[2]]","3","[[1,0,0],[2,3],[0]]","5","0","","","","","","6","",""
"","","","","","single-stim-button","268","1049332","0.0-3.0-25.2-1.2","6135dd3307f6e86bcbc33a0d","D2","batch4","","1206","","","tol_toboard","","","","","","","","","tol_peg_1","1206","1206","0","[[3,1,0],[0,0],[2]]","3","[[1,0,0],[2,3],[0]]","5","0","","","","","","6","",""
"","","","","","single-stim-button","269","1050469","0.0-3.0-25.3-0.3","6135dd3307f6e86bcbc33a0d","D2","batch4","","1136","","","tol_tohand","","","","","","","","","tol_peg_3","1136","1136","0","[[3,1,0],[0,0],[0]]","4","[[1,0,0],[2,3],[0]]","5","0","","","","","","6","",""
"","","","","","single-stim-button","270","1051387","0.0-3.0-25.3-1.3","6135dd3307f6e86bcbc33a0d","D2","batch4","","918","","","tol_toboard","","","","","","","","","tol_peg_2","918","918","0","[[3,1,0],[2,0],[0]]","4","[[1,0,0],[2,3],[0]]","5","0","","","","","","6","",""
"","","","","","single-stim-button","271","1052739","0.0-3.0-25.4-0.4","6135dd3307f6e86bcbc33a0d","D2","batch4","","1351","","","tol_tohand","","","","","","","","","tol_peg_1","1351","1351","0","[[3,0,0],[2,0],[0]]","5","[[1,0,0],[2,3],[0]]","5","0","","","","","","6","",""
"","","","","","single-stim-button","272","1054107","0.0-3.0-25.4-1.4","6135dd3307f6e86bcbc33a0d","D2","batch4","","1367","","","tol_toboard","","","","","","","","","tol_peg_3","1367","1367","0","[[3,0,0],[2,0],[1]]","5","[[1,0,0],[2,3],[0]]","5","0","","","","","","6","",""
"","","","","","single-stim-button","273","1055251","0.0-3.0-25.5-0.5","6135dd3307f6e86bcbc33a0d","D2","batch4","","1143","","","tol_tohand","","","","","","","","","tol_peg_1","1143","1143","0","[[0,0,0],[2,0],[1]]","6","[[1,0,0],[2,3],[0]]","5","0","","","","","","6","",""
"","","","","","single-stim-button","274","1055939","0.0-3.0-25.5-1.5","6135dd3307f6e86bcbc33a0d","D2","batch4","","687","","","tol_toboard","","","","","","","","","tol_peg_2","687","687","0","[[0,0,0],[2,3],[1]]","6","[[1,0,0],[2,3],[0]]","5","0","","","","","","6","",""
"","","","","","single-stim-button","275","1057379","0.0-3.0-25.6-0.6","6135dd3307f6e86bcbc33a0d","D2","batch4","","1439","","","tol_tohand","","","","","","","","","tol_peg_3","1439","1439","0","[[0,0,0],[2,3],[0]]","7","[[1,0,0],[2,3],[0]]","5","0","","","","","","6","",""
"","","","","","single-stim-button","276","1058604","0.0-3.0-25.6-1.6","6135dd3307f6e86bcbc33a0d","D2","batch4","","1224","","","tol_toboard","","","","","","","","","tol_peg_1","1224","1224","0","[[1,0,0],[2,3],[0]]","7","[[1,0,0],[2,3],[0]]","5","0","","","","","","6","",""
"","","","","","poldrack-single-stim","277","1059606","0.0-3.0-26.0","6135dd3307f6e86bcbc33a0d","D2","batch4","","-1","","","tol_feedback","true","","","","","","","","","1000","1000","500","","","","","","-1","none","true","15480","24604","","",""
"","","","","","html-button-response","278","1060643","0.0-3.0-27.0","6135dd3307f6e86bcbc33a0d","D2","batch4","","1036.3999999985099","<div class = centerbox><p class = center-block-text>problem <strong>7</strong> out of 25 problems</p></div>","0","tol_trial_num","","","","","","","","","","","","","","","","","","","","","","","","",""
"","","","","","single-stim-button","279","1072596","0.0-3.0-28.0-0.0","6135dd3307f6e86bcbc33a0d","D2","batch4","","11951","","","tol_tohand","","","","","","","","","tol_peg_3","11951","11951","0","[[2,1,0],[0,0],[0]]","1","[[1,2,0],[3,0],[0]]","6","0","","","","","","5","",""
"","","","","","single-stim-button","280","1073603","0.0-3.0-28.0-1.0","6135dd3307f6e86bcbc33a0d","D2","batch4","","1007","","","tol_toboard","","","","","","","","","tol_peg_2","1007","1007","0","[[2,1,0],[3,0],[0]]","1","[[1,2,0],[3,0],[0]]","6","0","","","","","","5","",""
"","","","","","single-stim-button","281","1074443","0.0-3.0-28.1-0.1","6135dd3307f6e86bcbc33a0d","D2","batch4","","839","","","tol_tohand","","","","","","","","","tol_peg_1","839","839","0","[[2,0,0],[3,0],[0]]","2","[[1,2,0],[3,0],[0]]","6","0","","","","","","5","",""
"","","","","","single-stim-button","282","1075355","0.0-3.0-28.1-1.1","6135dd3307f6e86bcbc33a0d","D2","batch4","","911","","","tol_toboard","","","","","","","","","tol_peg_3","911","911","0","[[2,0,0],[3,0],[1]]","2","[[1,2,0],[3,0],[0]]","6","0","","","","","","5","",""
"","","","","","single-stim-button","283","1082483","0.0-3.0-28.2-0.2","6135dd3307f6e86bcbc33a0d","D2","batch4","","7127","","","tol_tohand","","","","","","","","","tol_peg_1","7127","7127","0","[[0,0,0],[3,0],[1]]","3","[[1,2,0],[3,0],[0]]","6","0","","","","","","5","",""
"","","","","","single-stim-button","284","1083260","0.0-3.0-28.2-1.2","6135dd3307f6e86bcbc33a0d","D2","batch4","","775","","","tol_toboard","","","","","","","","","tol_peg_2","775","775","0","[[0,0,0],[3,2],[1]]","3","[[1,2,0],[3,0],[0]]","6","0","","","","","","5","",""
"","","","","","single-stim-button","285","1085284","0.0-3.0-28.3-0.3","6135dd3307f6e86bcbc33a0d","D2","batch4","","2024","","","tol_tohand","","","","","","","","","tol_peg_3","2024","2024","0","[[0,0,0],[3,2],[0]]","4","[[1,2,0],[3,0],[0]]","6","0","","","","","","5","",""
"","","","","","single-stim-button","286","1086381","0.0-3.0-28.3-1.3","6135dd3307f6e86bcbc33a0d","D2","batch4","","1096","","","tol_toboard","","","","","","","","","tol_peg_1","1096","1096","0","[[1,0,0],[3,2],[0]]","4","[[1,2,0],[3,0],[0]]","6","0","","","","","","5","",""
"","","","","","single-stim-button","287","1087956","0.0-3.0-28.4-0.4","6135dd3307f6e86bcbc33a0d","D2","batch4","","1575","","","tol_tohand","","","","","","","","","tol_peg_2","1575","1575","0","[[1,0,0],[3,0],[0]]","5","[[1,2,0],[3,0],[0]]","6","0","","","","","","5","",""
"","","","","","single-stim-button","288","1088668","0.0-3.0-28.4-1.4","6135dd3307f6e86bcbc33a0d","D2","batch4","","710","","","tol_toboard","","","","","","","","","tol_peg_1","710","710","0","[[1,2,0],[3,0],[0]]","5","[[1,2,0],[3,0],[0]]","6","0","","","","","","5","",""
"","","","","","poldrack-single-stim","289","1089669","0.0-3.0-29.0","6135dd3307f6e86bcbc33a0d","D2","batch4","","-1","","","tol_feedback","true","","","","","","","","","1000","1000","500","","","","","","-1","none","true","11951","23516","","",""
"","","","","","html-button-response","290","1090708","0.0-3.0-30.0","6135dd3307f6e86bcbc33a0d","D2","batch4","","1037.5","<div class = centerbox><p class = center-block-text>problem <strong>8</strong> out of 25 problems</p></div>","0","tol_trial_num","","","","","","","","","","","","","","","","","","","","","","","","",""
"","","","","","single-stim-button","291","1095509","0.0-3.0-31.0-0.0","6135dd3307f6e86bcbc33a0d","D2","batch4","","4800","","","tol_tohand","","","","","","","","","tol_peg_3","4800","4800","0","[[0,0,0],[2,3],[0]]","1","[[1,2,0],[3,0],[0]]","7","0","","","","","","4","",""
"","","","","","single-stim-button","292","1097372","0.0-3.0-31.0-1.0","6135dd3307f6e86bcbc33a0d","D2","batch4","","1862","","","tol_toboard","","","","","","","","","tol_peg_1","1862","1862","0","[[1,0,0],[2,3],[0]]","1","[[1,2,0],[3,0],[0]]","7","0","","","","","","4","",""
"","","","","","single-stim-button","293","1097988","0.0-3.0-31.1-0.1","6135dd3307f6e86bcbc33a0d","D2","batch4","","616","","","tol_tohand","","","","","","","","","tol_peg_2","616","616","0","[[1,0,0],[2,0],[0]]","2","[[1,2,0],[3,0],[0]]","7","0","","","","","","4","",""
"","","","","","single-stim-button","294","1098964","0.0-3.0-31.1-1.1","6135dd3307f6e86bcbc33a0d","D2","batch4","","975","","","tol_toboard","","","","","","","","","tol_peg_3","975","975","0","[[1,0,0],[2,0],[3]]","2","[[1,2,0],[3,0],[0]]","7","0","","","","","","4","",""
"","","","","","single-stim-button","295","1099588","0.0-3.0-31.2-0.2","6135dd3307f6e86bcbc33a0d","D2","batch4","","623","","","tol_tohand","","","","","","","","","tol_peg_2","623","623","0","[[1,0,0],[0,0],[3]]","3","[[1,2,0],[3,0],[0]]","7","0","","","","","","4","",""
"","","","","","single-stim-button","296","1100300","0.0-3.0-31.2-1.2","6135dd3307f6e86bcbc33a0d","D2","batch4","","711","","","tol_toboard","","","","","","","","","tol_peg_1","711","711","0","[[1,2,0],[0,0],[3]]","3","[[1,2,0],[3,0],[0]]","7","0","","","","","","4","",""
"","","","","","single-stim-button","297","1101413","0.0-3.0-31.3-0.3","6135dd3307f6e86bcbc33a0d","D2","batch4","","1112","","","tol_tohand","","","","","","","","","tol_peg_3","1112","1112","0","[[1,2,0],[0,0],[0]]","4","[[1,2,0],[3,0],[0]]","7","0","","","","","","4","",""
"","","","","","single-stim-button","298","1102044","0.0-3.0-31.3-1.3","6135dd3307f6e86bcbc33a0d","D2","batch4","","630","","","tol_toboard","","","","","","","","","tol_peg_2","630","630","0","[[1,2,0],[3,0],[0]]","4","[[1,2,0],[3,0],[0]]","7","0","","","","","","4","",""
"","","","","","poldrack-single-stim","299","1103046","0.0-3.0-32.0","6135dd3307f6e86bcbc33a0d","D2","batch4","","-1","","","tol_feedback","true","","","","","","","","","1000","1000","500","","","","","","-1","none","true","4800","7151","","",""
"","","","","","html-button-response","300","1104004","0.0-3.0-33.0","6135dd3307f6e86bcbc33a0d","D2","batch4","","957.1999999955297","<div class = centerbox><p class = center-block-text>problem <strong>9</strong> out of 25 problems</p></div>","0","tol_trial_num","","","","","","","","","","","","","","","","","","","","","","","","",""
"","","","","","single-stim-button","301","1112076","0.0-3.0-34.0-0.0","6135dd3307f6e86bcbc33a0d","D2","batch4","","8072","","","tol_tohand","","","","","","","","","tol_peg_1","8072","8072","0","[[3,0,0],[0,0],[1]]","1","[[2,1,0],[3,0],[0]]","8","0","","","","","","6","",""
"","","","","","single-stim-button","302","1112764","0.0-3.0-34.0-1.0","6135dd3307f6e86bcbc33a0d","D2","batch4","","687","","","tol_toboard","","","","","","","","","tol_peg_2","687","687","0","[[3,0,0],[2,0],[1]]","1","[[2,1,0],[3,0],[0]]","8","0","","","","","","6","",""
"","","","","","single-stim-button","303","1118588","0.0-3.0-34.1-0.1","6135dd3307f6e86bcbc33a0d","D2","batch4","","5823","","","tol_tohand","","","","","","","","","tol_peg_3","5823","5823","0","[[3,0,0],[2,0],[0]]","2","[[2,1,0],[3,0],[0]]","8","0","","","","","","6","",""
"","","","","","single-stim-button","304","1119364","0.0-3.0-34.1-1.1","6135dd3307f6e86bcbc33a0d","D2","batch4","","776","","","tol_toboard","","","","","","","","","tol_peg_2","776","776","0","[[3,0,0],[2,1],[0]]","2","[[2,1,0],[3,0],[0]]","8","0","","","","","","6","",""
"","","","","","single-stim-button","305","1120605","0.0-3.0-34.2-0.2","6135dd3307f6e86bcbc33a0d","D2","batch4","","1241","","","tol_tohand","","","","","","","","","tol_peg_1","1241","1241","0","[[0,0,0],[2,1],[0]]","3","[[2,1,0],[3,0],[0]]","8","0","","","","","","6","",""
"","","","","","single-stim-button","306","1121636","0.0-3.0-34.2-1.2","6135dd3307f6e86bcbc33a0d","D2","batch4","","1031","","","tol_toboard","","","","","","","","","tol_peg_3","1031","1031","0","[[0,0,0],[2,1],[3]]","3","[[2,1,0],[3,0],[0]]","8","0","","","","","","6","",""
"","","","","","single-stim-button","307","1122476","0.0-3.0-34.3-0.3","6135dd3307f6e86bcbc33a0d","D2","batch4","","840","","","tol_tohand","","","","","","","","","tol_peg_2","840","840","0","[[0,0,0],[2,0],[3]]","4","[[2,1,0],[3,0],[0]]","8","0","","","","","","6","",""
"","","","","","single-stim-button","308","1123260","0.0-3.0-34.3-1.3","6135dd3307f6e86bcbc33a0d","D2","batch4","","783","","","tol_toboard","","","","","","","","","tol_peg_1","783","783","0","[[1,0,0],[2,0],[3]]","4","[[2,1,0],[3,0],[0]]","8","0","","","","","","6","",""
"","","","","","single-stim-button","309","1123860","0.0-3.0-34.4-0.4","6135dd3307f6e86bcbc33a0d","D2","batch4","","600","","","tol_tohand","","","","","","","","","tol_peg_2","600","600","0","[[1,0,0],[0,0],[3]]","5","[[2,1,0],[3,0],[0]]","8","0","","","","","","6","",""
"","","","","","single-stim-button","310","1124508","0.0-3.0-34.4-1.4","6135dd3307f6e86bcbc33a0d","D2","batch4","","646","","","tol_toboard","","","","","","","","","tol_peg_1","646","646","0","[[1,2,0],[0,0],[3]]","5","[[2,1,0],[3,0],[0]]","8","0","","","","","","6","",""
"","","","","","single-stim-button","311","1125221","0.0-3.0-34.5-0.5","6135dd3307f6e86bcbc33a0d","D2","batch4","","712","","","tol_tohand","","","","","","","","","tol_peg_3","712","712","0","[[1,2,0],[0,0],[0]]","6","[[2,1,0],[3,0],[0]]","8","0","","","","","","6","",""
"","","","","","single-stim-button","312","1125900","0.0-3.0-34.5-1.5","6135dd3307f6e86bcbc33a0d","D2","batch4","","678","","","tol_toboard","","","","","","","","","tol_peg_2","678","678","0","[[1,2,0],[3,0],[0]]","6","[[2,1,0],[3,0],[0]]","8","0","","","","","","6","",""
"","","","","","single-stim-button","313","1130852","0.0-3.0-34.6-0.6","6135dd3307f6e86bcbc33a0d","D2","batch4","","4952","","","tol_tohand","","","","","","","","","tol_peg_1","4952","4952","0","[[1,0,0],[3,0],[0]]","7","[[2,1,0],[3,0],[0]]","8","0","","","","","","6","",""
"","","","","","single-stim-button","314","1133196","0.0-3.0-34.6-1.6","6135dd3307f6e86bcbc33a0d","D2","batch4","","2344","","","tol_toboard","","","","","","","","","tol_peg_3","2344","2344","0","[[1,0,0],[3,0],[2]]","7","[[2,1,0],[3,0],[0]]","8","0","","","","","","6","",""
"","","","","","single-stim-button","315","1135756","0.0-3.0-34.7-0.7","6135dd3307f6e86bcbc33a0d","D2","batch4","","2559","","","tol_tohand","","","","","","","","","tol_peg_1","2559","2559","0","[[0,0,0],[3,0],[2]]","8","[[2,1,0],[3,0],[0]]","8","0","","","","","","6","",""
"","","","","","single-stim-button","316","1136493","0.0-3.0-34.7-1.7","6135dd3307f6e86bcbc33a0d","D2","batch4","","736","","","tol_toboard","","","","","","","","","tol_peg_2","736","736","0","[[0,0,0],[3,1],[2]]","8","[[2,1,0],[3,0],[0]]","8","0","","","","","","6","",""
"","","","","","single-stim-button","317","1137356","0.0-3.0-34.8-0.8","6135dd3307f6e86bcbc33a0d","D2","batch4","","862","","","tol_tohand","","","","","","","","","tol_peg_3","862","862","0","[[0,0,0],[3,1],[0]]","9","[[2,1,0],[3,0],[0]]","8","0","","","","","","6","",""
"","","","","","single-stim-button","318","1138188","0.0-3.0-34.8-1.8","6135dd3307f6e86bcbc33a0d","D2","batch4","","832","","","tol_toboard","","","","","","","","","tol_peg_1","832","832","0","[[2,0,0],[3,1],[0]]","9","[[2,1,0],[3,0],[0]]","8","0","","","","","","6","",""
"","","","","","single-stim-button","319","1138820","0.0-3.0-34.9-0.9","6135dd3307f6e86bcbc33a0d","D2","batch4","","632","","","tol_tohand","","","","","","","","","tol_peg_2","632","632","0","[[2,0,0],[3,0],[0]]","10","[[2,1,0],[3,0],[0]]","8","0","","","","","","6","",""
"","","","","","single-stim-button","320","1139652","0.0-3.0-34.9-1.9","6135dd3307f6e86bcbc33a0d","D2","batch4","","832","","","tol_toboard","","","","","","","","","tol_peg_1","832","832","0","[[2,1,0],[3,0],[0]]","10","[[2,1,0],[3,0],[0]]","8","0","","","","","","6","",""
"","","","","","poldrack-single-stim","321","1140654","0.0-3.0-35.0","6135dd3307f6e86bcbc33a0d","D2","batch4","","-1","","","tol_feedback","true","","","","","","","","","1000","1000","500","","","","","","-1","none","true","8072","26293","","",""
"","","","","","html-button-response","322","1141795","0.0-3.0-36.0","6135dd3307f6e86bcbc33a0d","D2","batch4","","1140.7999999970198","<div class = centerbox><p class = center-block-text>problem <strong>10</strong> out of 25 problems</p></div>","0","tol_trial_num","","","","","","","","","","","","","","","","","","","","","","","","",""
"","","","","","single-stim-button","323","1147804","0.0-3.0-37.0-0.0","6135dd3307f6e86bcbc33a0d","D2","batch4","","6008","","","tol_tohand","","","","","","","","","tol_peg_2","6008","6008","0","[[3,0,0],[0,0],[2]]","1","[[3,0,0],[2,1],[0]]","9","0","","","","","","3","",""
"","","","","","single-stim-button","324","1149060","0.0-3.0-37.0-1.0","6135dd3307f6e86bcbc33a0d","D2","batch4","","1255","","","tol_toboard","","","","","","","","","tol_peg_1","1255","1255","0","[[3,1,0],[0,0],[2]]","1","[[3,0,0],[2,1],[0]]","9","0","","","","","","3","",""
"","","","","","single-stim-button","325","1150357","0.0-3.0-37.1-0.1","6135dd3307f6e86bcbc33a0d","D2","batch4","","1297","","","tol_tohand","","","","","","","","","tol_peg_3","1297","1297","0","[[3,1,0],[0,0],[0]]","2","[[3,0,0],[2,1],[0]]","9","0","","","","","","3","",""
"","","","","","single-stim-button","326","1151525","0.0-3.0-37.1-1.1","6135dd3307f6e86bcbc33a0d","D2","batch4","","1168","","","tol_toboard","","","","","","","","","tol_peg_2","1168","1168","0","[[3,1,0],[2,0],[0]]","2","[[3,0,0],[2,1],[0]]","9","0","","","","","","3","",""
"","","","","","single-stim-button","327","1152092","0.0-3.0-37.2-0.2","6135dd3307f6e86bcbc33a0d","D2","batch4","","567","","","tol_tohand","","","","","","","","","tol_peg_1","567","567","0","[[3,0,0],[2,0],[0]]","3","[[3,0,0],[2,1],[0]]","9","0","","","","","","3","",""
"","","","","","single-stim-button","328","1152644","0.0-3.0-37.2-1.2","6135dd3307f6e86bcbc33a0d","D2","batch4","","551","","","tol_toboard","","","","","","","","","tol_peg_2","551","551","0","[[3,0,0],[2,1],[0]]","3","[[3,0,0],[2,1],[0]]","9","0","","","","","","3","",""
"","","","","","poldrack-single-stim","329","1153659","0.0-3.0-38.0","6135dd3307f6e86bcbc33a0d","D2","batch4","","-1","","","tol_feedback","true","","","","","","","","","1000","1000","500","","","","","","-1","none","true","6008","7872","","",""
"","","","","","html-button-response","330","1155053","0.0-3.0-39.0","6135dd3307f6e86bcbc33a0d","D2","batch4","","1391.2000000029802","<div class = centerbox><p class = center-block-text>problem <strong>11</strong> out of 25 problems</p></div>","0","tol_trial_num","","","","","","","","","","","","","","","","","","","","","","","","",""
"","","","","","single-stim-button","331","1178029","0.0-3.0-40.0-0.0","6135dd3307f6e86bcbc33a0d","D2","batch4","","22975","","","tol_tohand","","","","","","","","","tol_peg_2","22975","22975","0","[[1,2,0],[0,0],[0]]","1","[[2,0,0],[1,3],[0]]","10","0","","","","","","6","",""
"","","","","","single-stim-button","332","1179092","0.0-3.0-40.0-1.0","6135dd3307f6e86bcbc33a0d","D2","batch4","","1063","","","tol_toboard","","","","","","","","","tol_peg_3","1063","1063","0","[[1,2,0],[0,0],[3]]","1","[[2,0,0],[1,3],[0]]","10","0","","","","","","6","",""
"","","","","","single-stim-button","333","1181764","0.0-3.0-40.1-0.1","6135dd3307f6e86bcbc33a0d","D2","batch4","","2671","","","tol_tohand","","","","","","","","","tol_peg_1","2671","2671","0","[[1,0,0],[0,0],[3]]","2","[[2,0,0],[1,3],[0]]","10","0","","","","","","6","",""
"","","","","","single-stim-button","334","1183732","0.0-3.0-40.1-1.1","6135dd3307f6e86bcbc33a0d","D2","batch4","","1967","","","tol_toboard","","","","","","","","","tol_peg_2","1967","1967","0","[[1,0,0],[2,0],[3]]","2","[[2,0,0],[1,3],[0]]","10","0","","","","","","6","",""
"","","","","","single-stim-button","335","1189221","0.0-3.0-40.2-0.2","6135dd3307f6e86bcbc33a0d","D2","batch4","","5487","","","tol_tohand","","","","","","","","","tol_peg_1","5487","5487","0","[[0,0,0],[2,0],[3]]","3","[[2,0,0],[1,3],[0]]","10","0","","","","","","6","",""
"","","","","","single-stim-button","336","1189820","0.0-3.0-40.2-1.2","6135dd3307f6e86bcbc33a0d","D2","batch4","","599","","","tol_toboard","","","","","","","","","tol_peg_2","599","599","0","[[0,0,0],[2,1],[3]]","3","[[2,0,0],[1,3],[0]]","10","0","","","","","","6","",""
"","","","","","single-stim-button","337","1190532","0.0-3.0-40.3-0.3","6135dd3307f6e86bcbc33a0d","D2","batch4","","711","","","tol_tohand","","","","","","","","","tol_peg_3","711","711","0","[[0,0,0],[2,1],[0]]","4","[[2,0,0],[1,3],[0]]","10","0","","","","","","6","",""
"","","","","","single-stim-button","338","1191485","0.0-3.0-40.3-1.3","6135dd3307f6e86bcbc33a0d","D2","batch4","","952","","","tol_toboard","","","","","","","","","tol_peg_1","952","952","0","[[3,0,0],[2,1],[0]]","4","[[2,0,0],[1,3],[0]]","10","0","","","","","","6","",""
"","","","","","single-stim-button","339","1193900","0.0-3.0-40.4-0.4","6135dd3307f6e86bcbc33a0d","D2","batch4","","2414","","","tol_tohand","","","","","","","","","tol_peg_2","2414","2414","0","[[3,0,0],[2,0],[0]]","5","[[2,0,0],[1,3],[0]]","10","0","","","","","","6","",""
"","","","","","single-stim-button","340","1194789","0.0-3.0-40.4-1.4","6135dd3307f6e86bcbc33a0d","D2","batch4","","887","","","tol_toboard","","","","","","","","","tol_peg_3","887","887","0","[[3,0,0],[2,0],[1]]","5","[[2,0,0],[1,3],[0]]","10","0","","","","","","6","",""
"","","","","","single-stim-button","341","1195620","0.0-3.0-40.5-0.5","6135dd3307f6e86bcbc33a0d","D2","batch4","","831","","","tol_tohand","","","","","","","","","tol_peg_2","831","831","0","[[3,0,0],[0,0],[1]]","6","[[2,0,0],[1,3],[0]]","10","0","","","","","","6","",""
"","","","","","single-stim-button","342","1196589","0.0-3.0-40.5-1.5","6135dd3307f6e86bcbc33a0d","D2","batch4","","967","","","tol_toboard","","","","","","","","","tol_peg_1","967","967","0","[[3,2,0],[0,0],[1]]","6","[[2,0,0],[1,3],[0]]","10","0","","","","","","6","",""
"","","","","","single-stim-button","343","1199200","0.0-3.0-40.6-0.6","6135dd3307f6e86bcbc33a0d","D2","batch4","","2610","","","tol_tohand","","","","","","","","","tol_peg_3","2610","2610","0","[[3,2,0],[0,0],[0]]","7","[[2,0,0],[1,3],[0]]","10","0","","","","","","6","",""
"","","","","","single-stim-button","344","1200004","0.0-3.0-40.6-1.6","6135dd3307f6e86bcbc33a0d","D2","batch4","","804","","","tol_toboard","","","","","","","","","tol_peg_2","804","804","0","[[3,2,0],[1,0],[0]]","7","[[2,0,0],[1,3],[0]]","10","0","","","","","","6","",""
"","","","","","single-stim-button","345","1201173","0.0-3.0-40.7-0.7","6135dd3307f6e86bcbc33a0d","D2","batch4","","1168","","","tol_tohand","","","","","","","","","tol_peg_1","1168","1168","0","[[3,0,0],[1,0],[0]]","8","[[2,0,0],[1,3],[0]]","10","0","","","","","","6","",""
"","","","","","single-stim-button","346","1202068","0.0-3.0-40.7-1.7","6135dd3307f6e86bcbc33a0d","D2","batch4","","895","","","tol_toboard","","","","","","","","","tol_peg_3","895","895","0","[[3,0,0],[1,0],[2]]","8","[[2,0,0],[1,3],[0]]","10","0","","","","","","6","",""
"","","","","","single-stim-button","347","1202822","0.0-3.0-40.8-0.8","6135dd3307f6e86bcbc33a0d","D2","batch4","","753","","","tol_tohand","","","","","","","","","tol_peg_1","753","753","0","[[0,0,0],[1,0],[2]]","9","[[2,0,0],[1,3],[0]]","10","0","","","","","","6","",""
"","","","","","single-stim-button","348","1203501","0.0-3.0-40.8-1.8","6135dd3307f6e86bcbc33a0d","D2","batch4","","679","","","tol_toboard","","","","","","","","","tol_peg_2","679","679","0","[[0,0,0],[1,3],[2]]","9","[[2,0,0],[1,3],[0]]","10","0","","","","","","6","",""
