"success","timeout","failed_images","failed_audio","failed_video","trial_type","trial_index","time_elapsed","internal_node_id","subject_id","study_id","session_id","task","rt","stimulus","response","item","answer","correct","spm_correct","spm_rt","view_history","mouse_click","stim_duration","block_duration","timing_post_trial","current_position","tol_num_moves_made","tol_target","tol_problem_id","tol_rt","key_press","possible_responses","tol_correct","preplanning","tol_rt_per_trial","tol_min_moves","fiar_detect_rt","fiar_detect_correct","total_correct_fiar_detect","post_trial_gap","choices"
"true","false","[]","[]","[]","preload","0","61144","0.0-0.0","6135752aa4ee5158b0708670","D2","batch4","","","","","","","","","","","","","","","","","","","","","","","","","","","","","",""
"true","","","","","fullscreen","1","127836","0.0-1.0-0.0","6135752aa4ee5158b0708670","D2","batch4","","","","","","","","","","","","","","","","","","","","","","","","","","","","","",""
"true","","","","","fullscreen","2","136837","0.0-2.0-0.0","6135752aa4ee5158b0708670","D2","batch4","spm_fullscreen","","","","","","","","","","","","","","","","","","","","","","","","","","","","",""
"","","","","","html-button-response","3","201909","0.0-2.0-1.0","6135752aa4ee5158b0708670","D2","batch4","","65068.39999999851","<p class = block-text><b>Instructions</b> <br>This is a widely used intelligence test in research. <br>In this test, a figure with a missing piece will be presented.<br>Below the figure are alternative pieces to complete the figure, only one of which is correct.<br> Different figures might involve different principles for obtaining the missing piece<br>Your job is to select the most logical piece to complete the figure.</p>","0","","","","","","","","","","","","","","","","","","","","","","","","","",""
"","","","","","html-keyboard-response","4","202711","0.0-2.0-2.0-0.0","6135752aa4ee5158b0708670","D2","batch4","spm_show_trial_num","null","<p class=block-text>Trial 1 out of 60</p>","null","","","","","","","","","","","","","","","","","","","","","","","","","",""
"","","","","","image-button-response","5","229333","0.0-2.0-2.0-1.0","6135752aa4ee5158b0708670","D2","batch4","spm_respsonse","26614.10000000149","img/question_1_1.jpeg","3","mat_01","4","1","1","26614.10000000149","","","","","","","","","","","","","","","","","","","","",""
"","","","","","html-keyboard-response","6","230386","0.0-2.0-2.0-0.1","6135752aa4ee5158b0708670","D2","batch4","spm_show_trial_num","null","<p class=block-text>Trial 2 out of 60</p>","null","","","","","","","","","","","","","","","","","","","","","","","","","",""
"","","","","","image-button-response","7","234148","0.0-2.0-2.0-1.1","6135752aa4ee5158b0708670","D2","batch4","spm_respsonse","3759","img/question_1_2.jpeg","4","mat_02","5","1","1","3759","","","","","","","","","","","","","","","","","","","","",""
"","","","","","html-keyboard-response","8","235201","0.0-2.0-2.0-0.2","6135752aa4ee5158b0708670","D2","batch4","spm_show_trial_num","null","<p class=block-text>Trial 3 out of 60</p>","null","","","","","","","","","","","","","","","","","","","","","","","","","",""
"","","","","","image-button-response","9","240052","0.0-2.0-2.0-1.2","6135752aa4ee5158b0708670","D2","batch4","spm_respsonse","4847.9000000059605","img/question_1_3.jpeg","0","mat_03","1","1","1","4847.9000000059605","","","","","","","","","","","","","","","","","","","","",""
"","","","","","html-keyboard-response","10","241117","0.0-2.0-2.0-0.3","6135752aa4ee5158b0708670","D2","batch4","spm_show_trial_num","null","<p class=block-text>Trial 4 out of 60</p>","null","","","","","","","","","","","","","","","","","","","","","","","","","",""
"","","","","","image-button-response","11","247436","0.0-2.0-2.0-1.3","6135752aa4ee5158b0708670","D2","batch4","spm_respsonse","6316.10000000149","img/question_1_4.jpeg","1","mat_04","2","1","1","6316.10000000149","","","","","","","","","","","","","","","","","","","","",""
"","","","","","html-keyboard-response","12","248503","0.0-2.0-2.0-0.4","6135752aa4ee5158b0708670","D2","batch4","spm_show_trial_num","null","<p class=block-text>Trial 5 out of 60</p>","null","","","","","","","","","","","","","","","","","","","","","","","","","",""
"","","","","","image-button-response","13","256900","0.0-2.0-2.0-1.4","6135752aa4ee5158b0708670","D2","batch4","spm_respsonse","8393.70000000298","img/question_1_5.jpeg","5","mat_05","6","1","1","8393.70000000298","","","","","","","","","","","","","","","","","","","","",""
"","","","","","html-keyboard-response","14","257953","0.0-2.0-2.0-0.5","6135752aa4ee5158b0708670","D2","batch4","spm_show_trial_num","null","<p class=block-text>Trial 6 out of 60</p>","null","","","","","","","","","","","","","","","","","","","","","","","","","",""
"","","","","","image-button-response","15","264700","0.0-2.0-2.0-1.5","6135752aa4ee5158b0708670","D2","batch4","spm_respsonse","6743.5","img/question_1_6.jpeg","2","mat_06","3","1","1","6743.5","","","","","","","","","","","","","","","","","","","","",""
"","","","","","html-keyboard-response","16","265759","0.0-2.0-2.0-0.6","6135752aa4ee5158b0708670","D2","batch4","spm_show_trial_num","null","<p class=block-text>Trial 7 out of 60</p>","null","","","","","","","","","","","","","","","","","","","","","","","","","",""
"","","","","","image-button-response","17","270053","0.0-2.0-2.0-1.6","6135752aa4ee5158b0708670","D2","batch4","spm_respsonse","4291.10000000149","img/question_1_7.jpeg","5","mat_07","6","1","1","4291.10000000149","","","","","","","","","","","","","","","","","","","","",""
"","","","","","html-keyboard-response","18","271105","0.0-2.0-2.0-0.7","6135752aa4ee5158b0708670","D2","batch4","spm_show_trial_num","null","<p class=block-text>Trial 8 out of 60</p>","null","","","","","","","","","","","","","","","","","","","","","","","","","",""
"","","","","","image-button-response","19","276660","0.0-2.0-2.0-1.7","6135752aa4ee5158b0708670","D2","batch4","spm_respsonse","5551.5","img/question_1_8.jpeg","1","mat_08","2","1","1","5551.5","","","","","","","","","","","","","","","","","","","","",""
"","","","","","html-keyboard-response","20","277724","0.0-2.0-2.0-0.8","6135752aa4ee5158b0708670","D2","batch4","spm_show_trial_num","null","<p class=block-text>Trial 9 out of 60</p>","null","","","","","","","","","","","","","","","","","","","","","","","","","",""
"","","","","","image-button-response","21","281828","0.0-2.0-2.0-1.8","6135752aa4ee5158b0708670","D2","batch4","spm_respsonse","4101.29999999702","img/question_1_9.jpeg","0","mat_09","1","1","1","4101.29999999702","","","","","","","","","","","","","","","","","","","","",""
"","","","","","html-keyboard-response","22","282888","0.0-2.0-2.0-0.9","6135752aa4ee5158b0708670","D2","batch4","spm_show_trial_num","null","<p class=block-text>Trial 10 out of 60</p>","null","","","","","","","","","","","","","","","","","","","","","","","","","",""
"","","","","","image-button-response","23","287252","0.0-2.0-2.0-1.9","6135752aa4ee5158b0708670","D2","batch4","spm_respsonse","4359.19999999553","img/question_1_10.jpeg","2","mat_10","3","1","1","4359.19999999553","","","","","","","","","","","","","","","","","","","","",""
"","","","","","html-keyboard-response","24","288304","0.0-2.0-2.0-0.10","6135752aa4ee5158b0708670","D2","batch4","spm_show_trial_num","null","<p class=block-text>Trial 11 out of 60</p>","null","","","","","","","","","","","","","","","","","","","","","","","","","",""
"","","","","","image-button-response","25","311572","0.0-2.0-2.0-1.10","6135752aa4ee5158b0708670","D2","batch4","spm_respsonse","23264.5","img/question_1_11.jpeg","3","mat_11","4","1","1","23264.5","","","","","","","","","","","","","","","","","","","","",""
"","","","","","html-keyboard-response","26","312637","0.0-2.0-2.0-0.11","6135752aa4ee5158b0708670","D2","batch4","spm_show_trial_num","null","<p class=block-text>Trial 12 out of 60</p>","null","","","","","","","","","","","","","","","","","","","","","","","","","",""
"","","","","","image-button-response","27","321388","0.0-2.0-2.0-1.11","6135752aa4ee5158b0708670","D2","batch4","spm_respsonse","8748.20000000298","img/question_1_12.jpeg","4","mat_12","5","1","1","8748.20000000298","","","","","","","","","","","","","","","","","","","","",""
"","","","","","html-keyboard-response","28","322442","0.0-2.0-2.0-0.12","6135752aa4ee5158b0708670","D2","batch4","spm_show_trial_num","null","<p class=block-text>Trial 13 out of 60</p>","null","","","","","","","","","","","","","","","","","","","","","","","","","",""
"","","","","","image-button-response","29","325372","0.0-2.0-2.0-1.12","6135752aa4ee5158b0708670","D2","batch4","spm_respsonse","2926.60000000149","img/question_2_1.jpeg","1","mat_13","2","1","1","2926.60000000149","","","","","","","","","","","","","","","","","","","","",""
"","","","","","html-keyboard-response","30","326440","0.0-2.0-2.0-0.13","6135752aa4ee5158b0708670","D2","batch4","spm_show_trial_num","null","<p class=block-text>Trial 14 out of 60</p>","null","","","","","","","","","","","","","","","","","","","","","","","","","",""
"","","","","","image-button-response","31","355549","0.0-2.0-2.0-1.13","6135752aa4ee5158b0708670","D2","batch4","spm_respsonse","29104.5","img/question_2_2.jpeg","5","mat_14","6","1","1","29104.5","","","","","","","","","","","","","","","","","","","","",""
"","","","","","html-keyboard-response","32","356602","0.0-2.0-2.0-0.14","6135752aa4ee5158b0708670","D2","batch4","spm_show_trial_num","null","<p class=block-text>Trial 15 out of 60</p>","null","","","","","","","","","","","","","","","","","","","","","","","","","",""
"","","","","","image-button-response","33","383797","0.0-2.0-2.0-1.14","6135752aa4ee5158b0708670","D2","batch4","spm_respsonse","27191.39999999851","img/question_2_3.jpeg","0","mat_15","1","1","1","27191.39999999851","","","","","","","","","","","","","","","","","","","","",""
"","","","","","html-keyboard-response","34","384873","0.0-2.0-2.0-0.15","6135752aa4ee5158b0708670","D2","batch4","spm_show_trial_num","null","<p class=block-text>Trial 16 out of 60</p>","null","","","","","","","","","","","","","","","","","","","","","","","","","",""
"","","","","","image-button-response","35","388773","0.0-2.0-2.0-1.15","6135752aa4ee5158b0708670","D2","batch4","spm_respsonse","3896.60000000149","img/question_2_4.jpeg","1","mat_16","2","1","1","3896.60000000149","","","","","","","","","","","","","","","","","","","","",""
"","","","","","html-keyboard-response","36","389826","0.0-2.0-2.0-0.16","6135752aa4ee5158b0708670","D2","batch4","spm_show_trial_num","null","<p class=block-text>Trial 17 out of 60</p>","null","","","","","","","","","","","","","","","","","","","","","","","","","",""
"","","","","","image-button-response","37","393589","0.0-2.0-2.0-1.16","6135752aa4ee5158b0708670","D2","batch4","spm_respsonse","3759.2999999970198","img/question_2_5.jpeg","0","mat_17","1","1","1","3759.2999999970198","","","","","","","","","","","","","","","","","","","","",""
"","","","","","html-keyboard-response","38","394643","0.0-2.0-2.0-0.17","6135752aa4ee5158b0708670","D2","batch4","spm_show_trial_num","null","<p class=block-text>Trial 18 out of 60</p>","null","","","","","","","","","","","","","","","","","","","","","","","","","",""
"","","","","","image-button-response","39","398861","0.0-2.0-2.0-1.17","6135752aa4ee5158b0708670","D2","batch4","spm_respsonse","4214.5","img/question_2_6.jpeg","2","mat_18","3","1","1","4214.5","","","","","","","","","","","","","","","","","","","","",""
"","","","","","html-keyboard-response","40","399927","0.0-2.0-2.0-0.18","6135752aa4ee5158b0708670","D2","batch4","spm_show_trial_num","null","<p class=block-text>Trial 19 out of 60</p>","null","","","","","","","","","","","","","","","","","","","","","","","","","",""
"","","","","","image-button-response","41","406733","0.0-2.0-2.0-1.18","6135752aa4ee5158b0708670","D2","batch4","spm_respsonse","6802.70000000298","img/question_2_7.jpeg","4","mat_19","5","1","1","6802.70000000298","","","","","","","","","","","","","","","","","","","","",""
"","","","","","html-keyboard-response","42","407803","0.0-2.0-2.0-0.19","6135752aa4ee5158b0708670","D2","batch4","spm_show_trial_num","null","<p class=block-text>Trial 20 out of 60</p>","null","","","","","","","","","","","","","","","","","","","","","","","","","",""
"","","","","","image-button-response","43","418717","0.0-2.0-2.0-1.19","6135752aa4ee5158b0708670","D2","batch4","spm_respsonse","10911.19999999553","img/question_2_8.jpeg","5","mat_20","6","1","1","10911.19999999553","","","","","","","","","","","","","","","","","","","","",""
"","","","","","html-keyboard-response","44","419784","0.0-2.0-2.0-0.20","6135752aa4ee5158b0708670","D2","batch4","spm_show_trial_num","null","<p class=block-text>Trial 21 out of 60</p>","null","","","","","","","","","","","","","","","","","","","","","","","","","",""
"","","","","","image-button-response","45","429037","0.0-2.0-2.0-1.20","6135752aa4ee5158b0708670","D2","batch4","spm_respsonse","9250.70000000298","img/question_2_9.jpeg","3","mat_21","4","1","1","9250.70000000298","","","","","","","","","","","","","","","","","","","","",""
"","","","","","html-keyboard-response","46","430104","0.0-2.0-2.0-0.21","6135752aa4ee5158b0708670","D2","batch4","spm_show_trial_num","null","<p class=block-text>Trial 22 out of 60</p>","null","","","","","","","","","","","","","","","","","","","","","","","","","",""
"","","","","","image-button-response","47","437268","0.0-2.0-2.0-1.21","6135752aa4ee5158b0708670","D2","batch4","spm_respsonse","7161.60000000149","img/question_2_10.jpeg","2","mat_22","3","1","1","7161.60000000149","","","","","","","","","","","","","","","","","","","","",""
"","","","","","html-keyboard-response","48","438328","0.0-2.0-2.0-0.22","6135752aa4ee5158b0708670","D2","batch4","spm_show_trial_num","null","<p class=block-text>Trial 23 out of 60</p>","null","","","","","","","","","","","","","","","","","","","","","","","","","",""
"","","","","","image-button-response","49","446621","0.0-2.0-2.0-1.22","6135752aa4ee5158b0708670","D2","batch4","spm_respsonse","8289.10000000149","img/question_2_11.jpeg","3","mat_23","4","1","1","8289.10000000149","","","","","","","","","","","","","","","","","","","","",""
"","","","","","html-keyboard-response","50","447698","0.0-2.0-2.0-0.23","6135752aa4ee5158b0708670","D2","batch4","spm_show_trial_num","null","<p class=block-text>Trial 24 out of 60</p>","null","","","","","","","","","","","","","","","","","","","","","","","","","",""
"","","","","","image-button-response","51","460588","0.0-2.0-2.0-1.23","6135752aa4ee5158b0708670","D2","batch4","spm_respsonse","12887.29999999702","img/question_2_12.jpeg","0","mat_24","5","0","0","12887.29999999702","","","","","","","","","","","","","","","","","","","","",""
"","","","","","html-button-response","52","463268","0.0-2.0-3.0","6135752aa4ee5158b0708670","D2","batch4","attention_check","2427.60000000149","<p class = block-text>Attention check: Please choose 1<br></p>","0","","","true","","","","","","","","","","","","","","","","","","","","","","",""
"","","","","","html-keyboard-response","53","464070","0.0-2.0-4.0-0.0","6135752aa4ee5158b0708670","D2","batch4","spm_show_trial_num","null","<p class=block-text>Trial 25 out of 60</p>","null","","","","","","","","","","","","","","","","","","","","","","","","","",""
"","","","","","image-button-response","54","487253","0.0-2.0-4.0-1.0","6135752aa4ee5158b0708670","D2","batch4","spm_respsonse","23179.29999999702","img/question_3_1.jpeg","7","mat_25","8","1","1","23179.29999999702","","","","","","","","","","","","","","","","","","","","",""
"","","","","","html-keyboard-response","55","488318","0.0-2.0-4.0-0.1","6135752aa4ee5158b0708670","D2","batch4","spm_show_trial_num","null","<p class=block-text>Trial 26 out of 60</p>","null","","","","","","","","","","","","","","","","","","","","","","","","","",""
"","","","","","image-button-response","56","504900","0.0-2.0-4.0-1.1","6135752aa4ee5158b0708670","D2","batch4","spm_respsonse","16579.09999999404","img/question_3_2.jpeg","1","mat_26","2","1","1","16579.09999999404","","","","","","","","","","","","","","","","","","","","",""
"","","","","","html-keyboard-response","57","505952","0.0-2.0-4.0-0.2","6135752aa4ee5158b0708670","D2","batch4","spm_show_trial_num","null","<p class=block-text>Trial 27 out of 60</p>","null","","","","","","","","","","","","","","","","","","","","","","","","","",""
"","","","","","image-button-response","58","513436","0.0-2.0-4.0-1.2","6135752aa4ee5158b0708670","D2","batch4","spm_respsonse","7481.10000000149","img/question_3_3.jpeg","2","mat_27","3","1","1","7481.10000000149","","","","","","","","","","","","","","","","","","","","",""
"","","","","","html-keyboard-response","59","514490","0.0-2.0-4.0-0.3","6135752aa4ee5158b0708670","D2","batch4","spm_show_trial_num","null","<p class=block-text>Trial 28 out of 60</p>","null","","","","","","","","","","","","","","","","","","","","","","","","","",""
"","","","","","image-button-response","60","537213","0.0-2.0-4.0-1.3","6135752aa4ee5158b0708670","D2","batch4","spm_respsonse","22719.19999999553","img/question_3_4.jpeg","3","mat_28","8","0","0","22719.19999999553","","","","","","","","","","","","","","","","","","","","",""
"","","","","","html-keyboard-response","61","538268","0.0-2.0-4.0-0.4","6135752aa4ee5158b0708670","D2","batch4","spm_show_trial_num","null","<p class=block-text>Trial 29 out of 60</p>","null","","","","","","","","","","","","","","","","","","","","","","","","","",""
"","","","","","image-button-response","62","554973","0.0-2.0-4.0-1.4","6135752aa4ee5158b0708670","D2","batch4","spm_respsonse","16701.5","img/question_3_5.jpeg","6","mat_29","7","1","1","16701.5","","","","","","","","","","","","","","","","","","","","",""
"","","","","","html-keyboard-response","63","556040","0.0-2.0-4.0-0.5","6135752aa4ee5158b0708670","D2","batch4","spm_show_trial_num","null","<p class=block-text>Trial 30 out of 60</p>","null","","","","","","","","","","","","","","","","","","","","","","","","","",""
"","","","","","image-button-response","64","568525","0.0-2.0-4.0-1.5","6135752aa4ee5158b0708670","D2","batch4","spm_respsonse","12480.60000000149","img/question_3_6.jpeg","3","mat_30","4","1","1","12480.60000000149","","","","","","","","","","","","","","","","","","","","",""
"","","","","","html-keyboard-response","65","569578","0.0-2.0-4.0-0.6","6135752aa4ee5158b0708670","D2","batch4","spm_show_trial_num","null","<p class=block-text>Trial 31 out of 60</p>","null","","","","","","","","","","","","","","","","","","","","","","","","","",""
"","","","","","image-button-response","66","582101","0.0-2.0-4.0-1.6","6135752aa4ee5158b0708670","D2","batch4","spm_respsonse","12519.60000000149","img/question_3_7.jpeg","4","mat_31","5","1","1","12519.60000000149","","","","","","","","","","","","","","","","","","","","",""
"","","","","","html-keyboard-response","67","583168","0.0-2.0-4.0-0.7","6135752aa4ee5158b0708670","D2","batch4","spm_show_trial_num","null","<p class=block-text>Trial 32 out of 60</p>","null","","","","","","","","","","","","","","","","","","","","","","","","","",""
"","","","","","image-button-response","68","598429","0.0-2.0-4.0-1.7","6135752aa4ee5158b0708670","D2","batch4","spm_respsonse","15258.30000000447","img/question_3_8.jpeg","0","mat_32","1","1","1","15258.30000000447","","","","","","","","","","","","","","","","","","","","",""
"","","","","","html-keyboard-response","69","599483","0.0-2.0-4.0-0.8","6135752aa4ee5158b0708670","D2","batch4","spm_show_trial_num","null","<p class=block-text>Trial 33 out of 60</p>","null","","","","","","","","","","","","","","","","","","","","","","","","","",""
"","","","","","image-button-response","70","609789","0.0-2.0-4.0-1.8","6135752aa4ee5158b0708670","D2","batch4","spm_respsonse","10301.79999999702","img/question_3_9.jpeg","6","mat_33","7","1","1","10301.79999999702","","","","","","","","","","","","","","","","","","","","",""
"","","","","","html-keyboard-response","71","610843","0.0-2.0-4.0-0.9","6135752aa4ee5158b0708670","D2","batch4","spm_show_trial_num","null","<p class=block-text>Trial 34 out of 60</p>","null","","","","","","","","","","","","","","","","","","","","","","","","","",""
"","","","","","image-button-response","72","618093","0.0-2.0-4.0-1.9","6135752aa4ee5158b0708670","D2","batch4","spm_respsonse","7245.80000000447","img/question_3_10.jpeg","5","mat_34","6","1","1","7245.80000000447","","","","","","","","","","","","","","","","","","","","",""
"","","","","","html-keyboard-response","73","619155","0.0-2.0-4.0-0.10","6135752aa4ee5158b0708670","D2","batch4","spm_show_trial_num","null","<p class=block-text>Trial 35 out of 60</p>","null","","","","","","","","","","","","","","","","","","","","","","","","","",""
"","","","","","image-button-response","74","653085","0.0-2.0-4.0-1.10","6135752aa4ee5158b0708670","D2","batch4","spm_respsonse","33926","img/question_3_11.jpeg","7","mat_35","1","0","0","33926","","","","","","","","","","","","","","","","","","","","",""
"","","","","","html-keyboard-response","75","654149","0.0-2.0-4.0-0.11","6135752aa4ee5158b0708670","D2","batch4","spm_show_trial_num","null","<p class=block-text>Trial 36 out of 60</p>","null","","","","","","","","","","","","","","","","","","","","","","","","","",""
"","","","","","image-button-response","76","660365","0.0-2.0-4.0-1.11","6135752aa4ee5158b0708670","D2","batch4","spm_respsonse","6213","img/question_3_12.jpeg","7","mat_36","2","0","0","6213","","","","","","","","","","","","","","","","","","","","",""
"","","","","","html-keyboard-response","77","661417","0.0-2.0-4.0-0.12","6135752aa4ee5158b0708670","D2","batch4","spm_show_trial_num","null","<p class=block-text>Trial 37 out of 60</p>","null","","","","","","","","","","","","","","","","","","","","","","","","","",""
"","","","","","image-button-response","78","669413","0.0-2.0-4.0-1.12","6135752aa4ee5158b0708670","D2","batch4","spm_respsonse","7992.0999999940395","img/question_4_1.jpeg","2","mat_37","3","1","1","7992.0999999940395","","","","","","","","","","","","","","","","","","","","",""
"","","","","","html-keyboard-response","79","670465","0.0-2.0-4.0-0.13","6135752aa4ee5158b0708670","D2","batch4","spm_show_trial_num","null","<p class=block-text>Trial 38 out of 60</p>","null","","","","","","","","","","","","","","","","","","","","","","","","","",""
"","","","","","image-button-response","80","674957","0.0-2.0-4.0-1.13","6135752aa4ee5158b0708670","D2","batch4","spm_respsonse","4488.20000000298","img/question_4_2.jpeg","3","mat_38","4","1","1","4488.20000000298","","","","","","","","","","","","","","","","","","","","",""
"","","","","","html-keyboard-response","81","676009","0.0-2.0-4.0-0.14","6135752aa4ee5158b0708670","D2","batch4","spm_show_trial_num","null","<p class=block-text>Trial 39 out of 60</p>","null","","","","","","","","","","","","","","","","","","","","","","","","","",""
"","","","","","image-button-response","82","681085","0.0-2.0-4.0-1.14","6135752aa4ee5158b0708670","D2","batch4","spm_respsonse","5072.20000000298","img/question_4_3.jpeg","2","mat_39","3","1","1","5072.20000000298","","","","","","","","","","","","","","","","","","","","",""
"","","","","","html-keyboard-response","83","682139","0.0-2.0-4.0-0.15","6135752aa4ee5158b0708670","D2","batch4","spm_show_trial_num","null","<p class=block-text>Trial 40 out of 60</p>","null","","","","","","","","","","","","","","","","","","","","","","","","","",""
"","","","","","image-button-response","84","703524","0.0-2.0-4.0-1.15","6135752aa4ee5158b0708670","D2","batch4","spm_respsonse","21381.89999999851","img/question_4_4.jpeg","6","mat_40","7","1","1","21381.89999999851","","","","","","","","","","","","","","","","","","","","",""
"","","","","","html-keyboard-response","85","704584","0.0-2.0-4.0-0.16","6135752aa4ee5158b0708670","D2","batch4","spm_show_trial_num","null","<p class=block-text>Trial 41 out of 60</p>","null","","","","","","","","","","","","","","","","","","","","","","","","","",""
"","","","","","image-button-response","86","719141","0.0-2.0-4.0-1.16","6135752aa4ee5158b0708670","D2","batch4","spm_respsonse","14553.30000000447","img/question_4_5.jpeg","7","mat_41","8","1","1","14553.30000000447","","","","","","","","","","","","","","","","","","","","",""
"","","","","","html-keyboard-response","87","720216","0.0-2.0-4.0-0.17","6135752aa4ee5158b0708670","D2","batch4","spm_show_trial_num","null","<p class=block-text>Trial 42 out of 60</p>","null","","","","","","","","","","","","","","","","","","","","","","","","","",""
"","","","","","image-button-response","88","729021","0.0-2.0-4.0-1.17","6135752aa4ee5158b0708670","D2","batch4","spm_respsonse","8801.60000000149","img/question_4_6.jpeg","5","mat_42","6","1","1","8801.60000000149","","","","","","","","","","","","","","","","","","","","",""
"","","","","","html-keyboard-response","89","730085","0.0-2.0-4.0-0.18","6135752aa4ee5158b0708670","D2","batch4","spm_show_trial_num","null","<p class=block-text>Trial 43 out of 60</p>","null","","","","","","","","","","","","","","","","","","","","","","","","","",""
"","","","","","image-button-response","90","735493","0.0-2.0-4.0-1.18","6135752aa4ee5158b0708670","D2","batch4","spm_respsonse","5404.4000000059605","img/question_4_7.jpeg","4","mat_43","5","1","1","5404.4000000059605","","","","","","","","","","","","","","","","","","","","",""
"","","","","","html-keyboard-response","91","736563","0.0-2.0-4.0-0.19","6135752aa4ee5158b0708670","D2","batch4","spm_show_trial_num","null","<p class=block-text>Trial 44 out of 60</p>","null","","","","","","","","","","","","","","","","","","","","","","","","","",""
"","","","","","image-button-response","92","758461","0.0-2.0-4.0-1.19","6135752aa4ee5158b0708670","D2","batch4","spm_respsonse","21894.39999999851","img/question_4_8.jpeg","3","mat_44","4","1","1","21894.39999999851","","","","","","","","","","","","","","","","","","","","",""
"","","","","","html-keyboard-response","93","759529","0.0-2.0-4.0-0.20","6135752aa4ee5158b0708670","D2","batch4","spm_show_trial_num","null","<p class=block-text>Trial 45 out of 60</p>","null","","","","","","","","","","","","","","","","","","","","","","","","","",""
"","","","","","image-button-response","94","783540","0.0-2.0-4.0-1.20","6135752aa4ee5158b0708670","D2","batch4","spm_respsonse","24008.5","img/question_4_9.jpeg","3","mat_45","1","0","0","24008.5","","","","","","","","","","","","","","","","","","","","",""
"","","","","","html-keyboard-response","95","784605","0.0-2.0-4.0-0.21","6135752aa4ee5158b0708670","D2","batch4","spm_show_trial_num","null","<p class=block-text>Trial 46 out of 60</p>","null","","","","","","","","","","","","","","","","","","","","","","","","","",""
"","","","","","image-button-response","96","807748","0.0-2.0-4.0-1.21","6135752aa4ee5158b0708670","D2","batch4","spm_respsonse","23140.19999999553","img/question_4_10.jpeg","1","mat_46","2","1","1","23140.19999999553","","","","","","","","","","","","","","","","","","","","",""
"","","","","","html-keyboard-response","97","808813","0.0-2.0-4.0-0.22","6135752aa4ee5158b0708670","D2","batch4","spm_show_trial_num","null","<p class=block-text>Trial 47 out of 60</p>","null","","","","","","","","","","","","","","","","","","","","","","","","","",""
"","","","","","image-button-response","98","858469","0.0-2.0-4.0-1.22","6135752aa4ee5158b0708670","D2","batch4","spm_respsonse","49651.79999999702","img/question_4_11.jpeg","4","mat_47","5","1","1","49651.79999999702","","","","","","","","","","","","","","","","","","","","",""
"","","","","","html-keyboard-response","99","859533","0.0-2.0-4.0-0.23","6135752aa4ee5158b0708670","D2","batch4","spm_show_trial_num","null","<p class=block-text>Trial 48 out of 60</p>","null","","","","","","","","","","","","","","","","","","","","","","","","","",""
"","","","","","image-button-response","100","866957","0.0-2.0-4.0-1.23","6135752aa4ee5158b0708670","D2","batch4","spm_respsonse","7420.19999999553","img/question_4_12.jpeg","4","mat_48","6","0","0","7420.19999999553","","","","","","","","","","","","","","","","","","","","",""
"","","","","","html-keyboard-response","101","868017","0.0-2.0-4.0-0.24","6135752aa4ee5158b0708670","D2","batch4","spm_show_trial_num","null","<p class=block-text>Trial 49 out of 60</p>","null","","","","","","","","","","","","","","","","","","","","","","","","","",""
"","","","","","image-button-response","102","885301","0.0-2.0-4.0-1.24","6135752aa4ee5158b0708670","D2","batch4","spm_respsonse","17280","img/question_5_1.jpeg","6","mat_49","7","1","1","17280","","","","","","","","","","","","","","","","","","","","",""
"","","","","","html-keyboard-response","103","886375","0.0-2.0-4.0-0.25","6135752aa4ee5158b0708670","D2","batch4","spm_show_trial_num","null","<p class=block-text>Trial 50 out of 60</p>","null","","","","","","","","","","","","","","","","","","","","","","","","","",""
"","","","","","image-button-response","104","953557","0.0-2.0-4.0-1.25","6135752aa4ee5158b0708670","D2","batch4","spm_respsonse","67178.5","img/question_5_2.jpeg","5","mat_50","6","1","1","67178.5","","","","","","","","","","","","","","","","","","","","",""
"","","","","","html-keyboard-response","105","954614","0.0-2.0-4.0-0.26","6135752aa4ee5158b0708670","D2","batch4","spm_show_trial_num","null","<p class=block-text>Trial 51 out of 60</p>","null","","","","","","","","","","","","","","","","","","","","","","","","","",""
"","","","","","image-button-response","106","960845","0.0-2.0-4.0-1.26","6135752aa4ee5158b0708670","D2","batch4","spm_respsonse","6227.5","img/question_5_3.jpeg","7","mat_51","8","1","1","6227.5","","","","","","","","","","","","","","","","","","","","",""
"","","","","","html-keyboard-response","107","961907","0.0-2.0-4.0-0.27","6135752aa4ee5158b0708670","D2","batch4","spm_show_trial_num","null","<p class=block-text>Trial 52 out of 60</p>","null","","","","","","","","","","","","","","","","","","","","","","","","","",""
"","","","","","image-button-response","108","967997","0.0-2.0-4.0-1.27","6135752aa4ee5158b0708670","D2","batch4","spm_respsonse","6085.5","img/question_5_4.jpeg","7","mat_52","2","0","0","6085.5","","","","","","","","","","","","","","","","","","","","",""
"","","","","","html-keyboard-response","109","969055","0.0-2.0-4.0-0.28","6135752aa4ee5158b0708670","D2","batch4","spm_show_trial_num","null","<p class=block-text>Trial 53 out of 60</p>","null","","","","","","","","","","","","","","","","","","","","","","","","","",""
"","","","","","image-button-response","110","987956","0.0-2.0-4.0-1.28","6135752aa4ee5158b0708670","D2","batch4","spm_respsonse","18898","img/question_5_5.jpeg","0","mat_53","1","1","1","18898","","","","","","","","","","","","","","","","","","","","",""
"","","","","","html-keyboard-response","111","989009","0.0-2.0-4.0-0.29","6135752aa4ee5158b0708670","D2","batch4","spm_show_trial_num","null","<p class=block-text>Trial 54 out of 60</p>","null","","","","","","","","","","","","","","","","","","","","","","","","","",""
"","","","","","image-button-response","112","1018694","0.0-2.0-4.0-1.29","6135752aa4ee5158b0708670","D2","batch4","spm_respsonse","29680.39999999851","img/question_5_6.jpeg","0","mat_54","5","0","0","29680.39999999851","","","","","","","","","","","","","","","","","","","","",""
"","","","","","html-keyboard-response","113","1019762","0.0-2.0-4.0-0.30","6135752aa4ee5158b0708670","D2","batch4","spm_show_trial_num","null","<p class=block-text>Trial 55 out of 60</p>","null","","","","","","","","","","","","","","","","","","","","","","","","","",""
"","","","","","image-button-response","114","1052782","0.0-2.0-4.0-1.30","6135752aa4ee5158b0708670","D2","batch4","spm_respsonse","33016.40000000596","img/question_5_7.jpeg","4","mat_55","1","0","0","33016.40000000596","","","","","","","","","","","","","","","","","","","","",""
"","","","","","html-keyboard-response","115","1053861","0.0-2.0-4.0-0.31","6135752aa4ee5158b0708670","D2","batch4","spm_show_trial_num","null","<p class=block-text>Trial 56 out of 60</p>","null","","","","","","","","","","","","","","","","","","","","","","","","","",""
"","","","","","image-button-response","116","1073957","0.0-2.0-4.0-1.31","6135752aa4ee5158b0708670","D2","batch4","spm_respsonse","20093.30000000447","img/question_5_8.jpeg","2","mat_56","6","0","0","20093.30000000447","","","","","","","","","","","","","","","","","","","","",""
"","","","","","html-keyboard-response","117","1075035","0.0-2.0-4.0-0.32","6135752aa4ee5158b0708670","D2","batch4","spm_show_trial_num","null","<p class=block-text>Trial 57 out of 60</p>","null","","","","","","","","","","","","","","","","","","","","","","","","","",""
"","","","","","image-button-response","118","1091502","0.0-2.0-4.0-1.32","6135752aa4ee5158b0708670","D2","batch4","spm_respsonse","16463","img/question_5_9.jpeg","3","mat_57","3","0","0","16463","","","","","","","","","","","","","","","","","","","","",""
"","","","","","html-keyboard-response","119","1092561","0.0-2.0-4.0-0.33","6135752aa4ee5158b0708670","D2","batch4","spm_show_trial_num","null","<p class=block-text>Trial 58 out of 60</p>","null","","","","","","","","","","","","","","","","","","","","","","","","","",""
"","","","","","image-button-response","120","1115693","0.0-2.0-4.0-1.33","6135752aa4ee5158b0708670","D2","batch4","spm_respsonse","23128.89999999851","img/question_5_10.jpeg","1","mat_58","2","1","1","23128.89999999851","","","","","","","","","","","","","","","","","","","","",""
"","","","","","html-keyboard-response","121","1116758","0.0-2.0-4.0-0.34","6135752aa4ee5158b0708670","D2","batch4","spm_show_trial_num","null","<p class=block-text>Trial 59 out of 60</p>","null","","","","","","","","","","","","","","","","","","","","","","","","","",""
"","","","","","image-button-response","122","1144206","0.0-2.0-4.0-1.34","6135752aa4ee5158b0708670","D2","batch4","spm_respsonse","27443.90000000596","img/question_5_11.jpeg","3","mat_59","4","1","1","27443.90000000596","","","","","","","","","","","","","","","","","","","","",""
"","","","","","html-keyboard-response","123","1145264","0.0-2.0-4.0-0.35","6135752aa4ee5158b0708670","D2","batch4","spm_show_trial_num","null","<p class=block-text>Trial 60 out of 60</p>","null","","","","","","","","","","","","","","","","","","","","","","","","","",""
"","","","","","image-button-response","124","1151446","0.0-2.0-4.0-1.35","6135752aa4ee5158b0708670","D2","batch4","spm_respsonse","6179.9000000059605","img/question_5_12.jpeg","6","mat_60","5","0","0","6179.9000000059605","","","","","","","","","","","","","","","","","","","","",""
"","","","","","html-button-response","125","1153974","0.0-2.0-5.0","6135752aa4ee5158b0708670","D2","batch4","spm_goodbye","2274","<p class= block-text>This concludes the Standard Progressive Matrix game. Thank you for your responses!<br> When you are ready, click the button continue</p>","0","","","","","","","","","","","","","","","","","","","","","","","","","",""
"true","","","","","fullscreen","126","1156655","0.0-3.0-0.0","6135752aa4ee5158b0708670","D2","batch4","","","","","","","","","","","","","","","","","","","","","","","","","","","","","",""
"","","","","","instructions","127","1252413","0.0-3.0-1.0-0.0-0.0","6135752aa4ee5158b0708670","D2","batch4","tol-instructions","95757.70000000298","","","","","","","","[{""page_index"":0,""viewing_time"":12813.60000000149},{""page_index"":1,""viewing_time"":4207.79999999702},{""page_index"":2,""viewing_time"":51759.80000000447},{""page_index"":3,""viewing_time"":6016.19999999553},{""page_index"":4,""viewing_time"":8120.10000000149},{""page_index"":5,""viewing_time"":11536},{""page_index"":6,""viewing_time"":1303.8000000044703}]","","","","","","","","","","","","","","","","","","","",""
"","","","","","html-button-response","128","1253509","0.0-3.0-1.0-1.0-0.0","6135752aa4ee5158b0708670","D2","batch4","tol_enter_quiz","1095.1000000014901","<p class=block-text> Let's answer a few questions <br>","0","","","","","","","","","","","","","","","","","","","","","","","","","",""
"","","","","","html-button-response","129","1258045","0.0-3.0-1.0-1.0-1.0","6135752aa4ee5158b0708670","D2","batch4","tol_quiz","4534.30000000447","<p class = block-text>True or False: You can only move the ball on top of a peg. <br></p>","0","","","true","","","","","","","","","","","","","","","","","","","","","","",""
"","","","","","html-button-response","130","1259150","0.0-3.0-1.0-1.0-2.0","6135752aa4ee5158b0708670","D2","batch4","tol_quiz_feedback","1102.2999999970198","<p class = block-text>Correct! You can only move the ball on top of a peg.</p>","0","","","","","","","","","","","","","","","","","","","","","","","","","",""
"","","","","","html-button-response","131","1264117","0.0-3.0-1.0-1.0-3.0","6135752aa4ee5158b0708670","D2","batch4","tol_quiz","4966.70000000298","<p class = block-text>True or False: You should try to match your board with the target board with fewest moves possible. <br></p>","0","","","true","","","","","","","","","","","","","","","","","","","","","","",""
"","","","","","html-button-response","132","1264861","0.0-3.0-1.0-1.0-4.0","6135752aa4ee5158b0708670","D2","batch4","tol_quiz_feedback","742.7999999970198","<p class = block-text>Correct! </p>","0","","","","","","","","","","","","","","","","","","","","","","","","","",""
"","","","","","html-button-response","133","1265853","0.0-3.0-2.0","6135752aa4ee5158b0708670","D2","batch4","","989.9000000059605","<p class=block-text> Now that you've understood the game, let's practice a few easier examples before we start!<br> <br>","0","","","","","","","","","","","","","","","","","","","","","","","","","",""
"","","","","","single-stim-button","134","1268775","0.0-3.0-3.0-0.0","6135752aa4ee5158b0708670","D2","batch4","tol_practice","2919","","","","","","","","","tol_peg_2","2919","2919","0","[[1,2,0],[0,0],[0]]","1","[[1,2,0],[0,0],[3]]","practice","2919","","","","","","","","","","",""
"","","","","","single-stim-button","135","1270078","0.0-3.0-3.0-1.0","6135752aa4ee5158b0708670","D2","batch4","tol_practice","1302","","","","","","","","","tol_peg_3","1302","1302","0","[[1,2,0],[0,0],[3]]","1","[[1,2,0],[0,0],[3]]","practice","1302","","","","","","","","","","",""
"","","","","","poldrack-single-stim","136","1271080","0.0-3.0-4.0","6135752aa4ee5158b0708670","D2","batch4","tol_feedback","-1","","","","","true","","","","","1000","1000","500","","","","","","-1","none","true","","0","","","","","",""
"","","","","","single-stim-button","137","1275453","0.0-3.0-5.0-0.0","6135752aa4ee5158b0708670","D2","batch4","tol_practice","4372","","","","","","","","","tol_peg_1","4372","4372","0","[[1,0,0],[3,0],[0]]","2","[[0,0,0],[3,1],[2]]","practice","4372","","","","","","","","","","",""
"","","","","","single-stim-button","138","1278134","0.0-3.0-5.0-1.0","6135752aa4ee5158b0708670","D2","batch4","tol_practice","2679","","","","","","","","","tol_peg_3","2679","2679","0","[[1,0,0],[3,0],[2]]","2","[[0,0,0],[3,1],[2]]","practice","2679","","","","","","","","","","",""
"","","","","","single-stim-button","139","1278893","0.0-3.0-5.1-0.1","6135752aa4ee5158b0708670","D2","batch4","tol_practice","759","","","","","","","","","tol_peg_1","759","759","0","[[0,0,0],[3,0],[2]]","3","[[0,0,0],[3,1],[2]]","practice","759","","","","","","","","","","",""
"","","","","","single-stim-button","140","1279581","0.0-3.0-5.1-1.1","6135752aa4ee5158b0708670","D2","batch4","tol_practice","687","","","","","","","","","tol_peg_2","687","687","0","[[0,0,0],[3,1],[2]]","3","[[0,0,0],[3,1],[2]]","practice","687","","","","","","","","","","",""
"","","","","","poldrack-single-stim","141","1280589","0.0-3.0-6.0","6135752aa4ee5158b0708670","D2","batch4","tol_feedback","-1","","","","","true","","","","","1000","1000","500","","","","","","-1","none","true","","0","","","","","",""
"","","","","","single-stim-button","142","1287517","0.0-3.0-7.0-0.0","6135752aa4ee5158b0708670","D2","batch4","tol_practice","6927","","","","","","","","","tol_peg_2","6927","6927","0","[[1,2,0],[0,0],[0]]","4","[[1,0,0],[2,0],[3]]","practice","6927","","","","","","","","","","",""
"","","","","","single-stim-button","143","1288373","0.0-3.0-7.0-1.0","6135752aa4ee5158b0708670","D2","batch4","tol_practice","855","","","","","","","","","tol_peg_3","855","855","0","[[1,2,0],[0,0],[3]]","4","[[1,0,0],[2,0],[3]]","practice","855","","","","","","","","","","",""
"","","","","","single-stim-button","144","1289109","0.0-3.0-7.1-0.1","6135752aa4ee5158b0708670","D2","batch4","tol_practice","735","","","","","","","","","tol_peg_1","735","735","0","[[1,0,0],[0,0],[3]]","5","[[1,0,0],[2,0],[3]]","practice","735","","","","","","","","","","",""
"","","","","","single-stim-button","145","1289805","0.0-3.0-7.1-1.1","6135752aa4ee5158b0708670","D2","batch4","tol_practice","695","","","","","","","","","tol_peg_2","695","695","0","[[1,0,0],[2,0],[3]]","5","[[1,0,0],[2,0],[3]]","practice","695","","","","","","","","","","",""
"","","","","","poldrack-single-stim","146","1290807","0.0-3.0-8.0","6135752aa4ee5158b0708670","D2","batch4","tol_feedback","-1","","","","","true","","","","","1000","1000","500","","","","","","-1","none","true","","0","","","","","",""
"","","","","","html-button-response","147","1478253","0.0-3.0-9.0","6135752aa4ee5158b0708670","D2","batch4","tol_instruction","187445.3999999985","<div class = centerbox><p class = center-block-text>Great job! You are done with practice trials<br>You are about to start official trials.<br> <br> Problem <strong>1</strong> out of 25 problems</p></div>","0","","","","","","","","","","","","","","","","","","","","","","","","","",""
"","","","","","single-stim-button","148","1483565","0.0-3.0-10.0-0.0","6135752aa4ee5158b0708670","D2","batch4","tol_tohand","4309","","","","","","","","","tol_peg_2","4309","4309","0","[[1,2,0],[0,0],[0]]","1","[[1,3,0],[2,0],[0]]","0","0","","","","","","3","","","","",""
"","","","","","single-stim-button","149","1484733","0.0-3.0-10.0-1.0","6135752aa4ee5158b0708670","D2","batch4","tol_toboard","1167","","","","","","","","","tol_peg_3","1167","1167","0","[[1,2,0],[0,0],[3]]","1","[[1,3,0],[2,0],[0]]","0","0","","","","","","3","","","","",""
"","","","","","single-stim-button","150","1485829","0.0-3.0-10.1-0.1","6135752aa4ee5158b0708670","D2","batch4","tol_tohand","1096","","","","","","","","","tol_peg_1","1096","1096","0","[[1,0,0],[0,0],[3]]","2","[[1,3,0],[2,0],[0]]","0","0","","","","","","3","","","","",""
"","","","","","single-stim-button","151","1486413","0.0-3.0-10.1-1.1","6135752aa4ee5158b0708670","D2","batch4","tol_toboard","584","","","","","","","","","tol_peg_2","584","584","0","[[1,0,0],[2,0],[3]]","2","[[1,3,0],[2,0],[0]]","0","0","","","","","","3","","","","",""
"","","","","","single-stim-button","152","1487549","0.0-3.0-10.2-0.2","6135752aa4ee5158b0708670","D2","batch4","tol_tohand","1135","","","","","","","","","tol_peg_3","1135","1135","0","[[1,0,0],[2,0],[0]]","3","[[1,3,0],[2,0],[0]]","0","0","","","","","","3","","","","",""
"","","","","","single-stim-button","153","1488429","0.0-3.0-10.2-1.2","6135752aa4ee5158b0708670","D2","batch4","tol_toboard","878","","","","","","","","","tol_peg_1","878","878","0","[[1,3,0],[2,0],[0]]","3","[[1,3,0],[2,0],[0]]","0","0","","","","","","3","","","","",""
"","","","","","poldrack-single-stim","154","1489431","0.0-3.0-11.0","6135752aa4ee5158b0708670","D2","batch4","tol_feedback","-1","","","","","true","","","","","1000","1000","500","","","","","","-1","none","true","4309","6540","","","","","",""
"","","","","","html-button-response","155","1490310","0.0-3.0-12.0","6135752aa4ee5158b0708670","D2","batch4","tol_trial_num","876.8000000044703","<div class = centerbox><p class = center-block-text>problem <strong>2</strong> out of 25 problems</p></div>","0","","","","","","","","","","","","","","","","","","","","","","","","","",""
"","","","","","single-stim-button","156","1495997","0.0-3.0-13.0-0.0","6135752aa4ee5158b0708670","D2","batch4","tol_tohand","5686","","","","","","","","","tol_peg_1","5686","5686","0","[[1,0,0],[3,0],[0]]","1","[[2,1,3],[0,0],[0]]","1","0","","","","","","5","","","","",""
"","","","","","single-stim-button","157","1502717","0.0-3.0-13.0-1.0","6135752aa4ee5158b0708670","D2","batch4","tol_toboard","6719","","","","","","","","","tol_peg_2","6719","6719","0","[[1,0,0],[3,2],[0]]","1","[[2,1,3],[0,0],[0]]","1","0","","","","","","5","","","","",""
"","","","","","single-stim-button","158","1503573","0.0-3.0-13.1-0.1","6135752aa4ee5158b0708670","D2","batch4","tol_tohand","855","","","","","","","","","tol_peg_1","855","855","0","[[0,0,0],[3,2],[0]]","2","[[2,1,3],[0,0],[0]]","1","0","","","","","","5","","","","",""
"","","","","","single-stim-button","159","1504501","0.0-3.0-13.1-1.1","6135752aa4ee5158b0708670","D2","batch4","tol_toboard","927","","","","","","","","","tol_peg_3","927","927","0","[[0,0,0],[3,2],[1]]","2","[[2,1,3],[0,0],[0]]","1","0","","","","","","5","","","","",""
"","","","","","single-stim-button","160","1505238","0.0-3.0-13.2-0.2","6135752aa4ee5158b0708670","D2","batch4","tol_tohand","735","","","","","","","","","tol_peg_2","735","735","0","[[0,0,0],[3,0],[1]]","3","[[2,1,3],[0,0],[0]]","1","0","","","","","","5","","","","",""
"","","","","","single-stim-button","161","1505773","0.0-3.0-13.2-1.2","6135752aa4ee5158b0708670","D2","batch4","tol_toboard","534","","","","","","","","","tol_peg_1","534","534","0","[[2,0,0],[3,0],[1]]","3","[[2,1,3],[0,0],[0]]","1","0","","","","","","5","","","","",""
"","","","","","single-stim-button","162","1506701","0.0-3.0-13.3-0.3","6135752aa4ee5158b0708670","D2","batch4","tol_tohand","928","","","","","","","","","tol_peg_3","928","928","0","[[2,0,0],[3,0],[0]]","4","[[2,1,3],[0,0],[0]]","1","0","","","","","","5","","","","",""
"","","","","","single-stim-button","163","1507389","0.0-3.0-13.3-1.3","6135752aa4ee5158b0708670","D2","batch4","tol_toboard","687","","","","","","","","","tol_peg_1","687","687","0","[[2,1,0],[3,0],[0]]","4","[[2,1,3],[0,0],[0]]","1","0","","","","","","5","","","","",""
"","","","","","single-stim-button","164","1507981","0.0-3.0-13.4-0.4","6135752aa4ee5158b0708670","D2","batch4","tol_tohand","591","","","","","","","","","tol_peg_2","591","591","0","[[2,1,0],[0,0],[0]]","5","[[2,1,3],[0,0],[0]]","1","0","","","","","","5","","","","",""
"","","","","","single-stim-button","165","1508485","0.0-3.0-13.4-1.4","6135752aa4ee5158b0708670","D2","batch4","tol_toboard","503","","","","","","","","","tol_peg_1","503","503","0","[[2,1,3],[0,0],[0]]","5","[[2,1,3],[0,0],[0]]","1","0","","","","","","5","","","","",""
"","","","","","poldrack-single-stim","166","1509487","0.0-3.0-14.0","6135752aa4ee5158b0708670","D2","batch4","tol_feedback","-1","","","","","true","","","","","1000","1000","500","","","","","","-1","none","true","5686","8795","","","","","",""
"","","","","","html-button-response","167","1510669","0.0-3.0-15.0","6135752aa4ee5158b0708670","D2","batch4","tol_trial_num","1180.7000000029802","<div class = centerbox><p class = center-block-text>problem <strong>3</strong> out of 25 problems</p></div>","0","","","","","","","","","","","","","","","","","","","","","","","","","",""
"","","","","","single-stim-button","168","1524838","0.0-3.0-16.0-0.0","6135752aa4ee5158b0708670","D2","batch4","tol_tohand","14167","","","","","","","","","tol_peg_1","14167","14167","0","[[2,0,0],[0,0],[1]]","1","[[1,2,0],[3,0],[0]]","2","0","","","","","","4","","","","",""
"","","","","","single-stim-button","169","1529933","0.0-3.0-16.0-1.0","6135752aa4ee5158b0708670","D2","batch4","tol_toboard","5094","","","","","","","","","tol_peg_2","5094","5094","0","[[2,0,0],[3,0],[1]]","1","[[1,2,0],[3,0],[0]]","2","0","","","","","","4","","","","",""
"","","","","","single-stim-button","170","1530581","0.0-3.0-16.1-0.1","6135752aa4ee5158b0708670","D2","batch4","tol_tohand","647","","","","","","","","","tol_peg_1","647","647","0","[[0,0,0],[3,0],[1]]","2","[[1,2,0],[3,0],[0]]","2","0","","","","","","4","","","","",""
"","","","","","single-stim-button","171","1531301","0.0-3.0-16.1-1.1","6135752aa4ee5158b0708670","D2","batch4","tol_toboard","719","","","","","","","","","tol_peg_2","719","719","0","[[0,0,0],[3,2],[1]]","2","[[1,2,0],[3,0],[0]]","2","0","","","","","","4","","","","",""
"","","","","","single-stim-button","172","1531822","0.0-3.0-16.2-0.2","6135752aa4ee5158b0708670","D2","batch4","tol_tohand","519","","","","","","","","","tol_peg_3","519","519","0","[[0,0,0],[3,2],[0]]","3","[[1,2,0],[3,0],[0]]","2","0","","","","","","4","","","","",""
"","","","","","single-stim-button","173","1532573","0.0-3.0-16.2-1.2","6135752aa4ee5158b0708670","D2","batch4","tol_toboard","751","","","","","","","","","tol_peg_1","751","751","0","[[1,0,0],[3,2],[0]]","3","[[1,2,0],[3,0],[0]]","2","0","","","","","","4","","","","",""
"","","","","","single-stim-button","174","1533702","0.0-3.0-16.3-0.3","6135752aa4ee5158b0708670","D2","batch4","tol_tohand","1127","","","","","","","","","tol_peg_2","1127","1127","0","[[1,0,0],[3,0],[0]]","4","[[1,2,0],[3,0],[0]]","2","0","","","","","","4","","","","",""
"","","","","","single-stim-button","175","1534245","0.0-3.0-16.3-1.3","6135752aa4ee5158b0708670","D2","batch4","tol_toboard","543","","","","","","","","","tol_peg_1","543","543","0","[[1,2,0],[3,0],[0]]","4","[[1,2,0],[3,0],[0]]","2","0","","","","","","4","","","","",""
"","","","","","poldrack-single-stim","176","1535247","0.0-3.0-17.0","6135752aa4ee5158b0708670","D2","batch4","tol_feedback","-1","","","","","true","","","","","1000","1000","500","","","","","","-1","none","true","14167","16460","","","","","",""
"","","","","","html-button-response","177","1536133","0.0-3.0-18.0","6135752aa4ee5158b0708670","D2","batch4","tol_trial_num","884.5","<div class = centerbox><p class = center-block-text>problem <strong>4</strong> out of 25 problems</p></div>","0","","","","","","","","","","","","","","","","","","","","","","","","","",""
"","","","","","single-stim-button","178","1552390","0.0-3.0-19.0-0.0","6135752aa4ee5158b0708670","D2","batch4","tol_tohand","16255","","","","","","","","","tol_peg_2","16255","16255","0","[[3,0,0],[2,0],[0]]","1","[[3,0,0],[1,0],[2]]","3","0","","","","","","3","","","","",""
"","","","","","single-stim-button","179","1553118","0.0-3.0-19.0-1.0","6135752aa4ee5158b0708670","D2","batch4","tol_toboard","727","","","","","","","","","tol_peg_1","727","727","0","[[3,1,0],[2,0],[0]]","1","[[3,0,0],[1,0],[2]]","3","0","","","","","","3","","","","",""
"","","","","","single-stim-button","180","1553622","0.0-3.0-19.1-0.1","6135752aa4ee5158b0708670","D2","batch4","tol_tohand","503","","","","","","","","","tol_peg_2","503","503","0","[[3,1,0],[0,0],[0]]","2","[[3,0,0],[1,0],[2]]","3","0","","","","","","3","","","","",""
"","","","","","single-stim-button","181","1554302","0.0-3.0-19.1-1.1","6135752aa4ee5158b0708670","D2","batch4","tol_toboard","679","","","","","","","","","tol_peg_3","679","679","0","[[3,1,0],[0,0],[2]]","2","[[3,0,0],[1,0],[2]]","3","0","","","","","","3","","","","",""
"","","","","","single-stim-button","182","1555206","0.0-3.0-19.2-0.2","6135752aa4ee5158b0708670","D2","batch4","tol_tohand","903","","","","","","","","","tol_peg_1","903","903","0","[[3,0,0],[0,0],[2]]","3","[[3,0,0],[1,0],[2]]","3","0","","","","","","3","","","","",""
"","","","","","single-stim-button","183","1555590","0.0-3.0-19.2-1.2","6135752aa4ee5158b0708670","D2","batch4","tol_toboard","383","","","","","","","","","tol_peg_2","383","383","0","[[3,0,0],[1,0],[2]]","3","[[3,0,0],[1,0],[2]]","3","0","","","","","","3","","","","",""
"","","","","","poldrack-single-stim","184","1556598","0.0-3.0-20.0","6135752aa4ee5158b0708670","D2","batch4","tol_feedback","-1","","","","","true","","","","","1000","1000","500","","","","","","-1","none","true","16255","17661","","","","","",""
"","","","","","html-button-response","185","1763822","0.0-3.0-21.0","6135752aa4ee5158b0708670","D2","batch4","tol_trial_num","207222.8999999985","<div class = centerbox><p class = center-block-text>problem <strong>5</strong> out of 25 problems</p></div>","0","","","","","","","","","","","","","","","","","","","","","","","","","",""
"","","","","","single-stim-button","186","1767550","0.0-3.0-22.0-0.0","6135752aa4ee5158b0708670","D2","batch4","tol_tohand","3726","","","","","","","","","tol_peg_2","3726","3726","0","[[1,0,0],[0,0],[3]]","1","[[0,0,0],[1,2],[3]]","4","0","","","","","","7","","","","",""
"","","","","","single-stim-button","187","1768046","0.0-3.0-22.0-1.0","6135752aa4ee5158b0708670","D2","batch4","tol_toboard","496","","","","","","","","","tol_peg_1","496","496","0","[[1,2,0],[0,0],[3]]","1","[[0,0,0],[1,2],[3]]","4","0","","","","","","7","","","","",""
"","","","","","single-stim-button","188","1777310","0.0-3.0-22.1-0.1","6135752aa4ee5158b0708670","D2","batch4","tol_tohand","9262","","","","","","","","","tol_peg_1","9262","9262","0","[[1,0,0],[0,0],[3]]","2","[[0,0,0],[1,2],[3]]","4","0","","","","","","7","","","","",""
"","","","","","single-stim-button","189","1782414","0.0-3.0-22.1-1.1","6135752aa4ee5158b0708670","D2","batch4","tol_toboard","5103","","","","","","","","","tol_peg_2","5103","5103","0","[[1,0,0],[2,0],[3]]","2","[[0,0,0],[1,2],[3]]","4","0","","","","","","7","","","","",""
"","","","","","single-stim-button","190","1784158","0.0-3.0-22.2-0.2","6135752aa4ee5158b0708670","D2","batch4","tol_tohand","1743","","","","","","","","","tol_peg_3","1743","1743","0","[[1,0,0],[2,0],[0]]","3","[[0,0,0],[1,2],[3]]","4","0","","","","","","7","","","","",""
"","","","","","single-stim-button","191","1785030","0.0-3.0-22.2-1.2","6135752aa4ee5158b0708670","D2","batch4","tol_toboard","871","","","","","","","","","tol_peg_1","871","871","0","[[1,3,0],[2,0],[0]]","3","[[0,0,0],[1,2],[3]]","4","0","","","","","","7","","","","",""
"","","","","","single-stim-button","192","1786174","0.0-3.0-22.3-0.3","6135752aa4ee5158b0708670","D2","batch4","tol_tohand","1143","","","","","","","","","tol_peg_2","1143","1143","0","[[1,3,0],[0,0],[0]]","4","[[0,0,0],[1,2],[3]]","4","0","","","","","","7","","","","",""
"","","","","","single-stim-button","193","1786886","0.0-3.0-22.3-1.3","6135752aa4ee5158b0708670","D2","batch4","tol_toboard","711","","","","","","","","","tol_peg_3","711","711","0","[[1,3,0],[0,0],[2]]","4","[[0,0,0],[1,2],[3]]","4","0","","","","","","7","","","","",""
"","","","","","single-stim-button","194","1788646","0.0-3.0-22.4-0.4","6135752aa4ee5158b0708670","D2","batch4","tol_tohand","1759","","","","","","","","","tol_peg_1","1759","1759","0","[[1,0,0],[0,0],[2]]","5","[[0,0,0],[1,2],[3]]","4","0","","","","","","7","","","","",""
"","","","","","single-stim-button","195","1793062","0.0-3.0-22.4-1.4","6135752aa4ee5158b0708670","D2","batch4","tol_toboard","4416","","","","","","","","","tol_peg_1","4416","4416","0","[[1,3,0],[0,0],[2]]","5","[[0,0,0],[1,2],[3]]","4","0","","","","","","7","","","","",""
"","","","","","single-stim-button","196","1798206","0.0-3.0-22.5-0.5","6135752aa4ee5158b0708670","D2","batch4","tol_tohand","5142","","","","","","","","","tol_peg_3","5142","5142","0","[[1,3,0],[0,0],[0]]","6","[[0,0,0],[1,2],[3]]","4","0","","","","","","7","","","","",""
"","","","","","single-stim-button","197","1799006","0.0-3.0-22.5-1.5","6135752aa4ee5158b0708670","D2","batch4","tol_toboard","800","","","","","","","","","tol_peg_2","800","800","0","[[1,3,0],[2,0],[0]]","6","[[0,0,0],[1,2],[3]]","4","0","","","","","","7","","","","",""
"","","","","","single-stim-button","198","1799542","0.0-3.0-22.6-0.6","6135752aa4ee5158b0708670","D2","batch4","tol_tohand","535","","","","","","","","","tol_peg_1","535","535","0","[[1,0,0],[2,0],[0]]","7","[[0,0,0],[1,2],[3]]","4","0","","","","","","7","","","","",""
"","","","","","single-stim-button","199","1800254","0.0-3.0-22.6-1.6","6135752aa4ee5158b0708670","D2","batch4","tol_toboard","711","","","","","","","","","tol_peg_3","711","711","0","[[1,0,0],[2,0],[3]]","7","[[0,0,0],[1,2],[3]]","4","0","","","","","","7","","","","",""
"","","","","","single-stim-button","200","1809798","0.0-3.0-22.7-0.7","6135752aa4ee5158b0708670","D2","batch4","tol_tohand","9544","","","","","","","","","tol_peg_1","9544","9544","0","[[0,0,0],[2,0],[3]]","8","[[0,0,0],[1,2],[3]]","4","0","","","","","","7","","","","",""
"","","","","","single-stim-button","201","1810494","0.0-3.0-22.7-1.7","6135752aa4ee5158b0708670","D2","batch4","tol_toboard","694","","","","","","","","","tol_peg_2","694","694","0","[[0,0,0],[2,1],[3]]","8","[[0,0,0],[1,2],[3]]","4","0","","","","","","7","","","","",""
"","","","","","single-stim-button","202","1811254","0.0-3.0-22.8-0.8","6135752aa4ee5158b0708670","D2","batch4","tol_tohand","760","","","","","","","","","tol_peg_3","760","760","0","[[0,0,0],[2,1],[0]]","9","[[0,0,0],[1,2],[3]]","4","0","","","","","","7","","","","",""
"","","","","","single-stim-button","203","1812054","0.0-3.0-22.8-1.8","6135752aa4ee5158b0708670","D2","batch4","tol_toboard","800","","","","","","","","","tol_peg_1","800","800","0","[[3,0,0],[2,1],[0]]","9","[[0,0,0],[1,2],[3]]","4","0","","","","","","7","","","","",""
"","","","","","single-stim-button","204","1813662","0.0-3.0-22.9-0.9","6135752aa4ee5158b0708670","D2","batch4","tol_tohand","1607","","","","","","","","","tol_peg_2","1607","1607","0","[[3,0,0],[2,0],[0]]","10","[[0,0,0],[1,2],[3]]","4","0","","","","","","7","","","","",""
"","","","","","single-stim-button","205","1814286","0.0-3.0-22.9-1.9","6135752aa4ee5158b0708670","D2","batch4","tol_toboard","623","","","","","","","","","tol_peg_3","623","623","0","[[3,0,0],[2,0],[1]]","10","[[0,0,0],[1,2],[3]]","4","0","","","","","","7","","","","",""
"","","","","","single-stim-button","206","1841646","0.0-3.0-22.10-0.10","6135752aa4ee5158b0708670","D2","batch4","tol_tohand","27359","","","","","","","","","tol_peg_2","27359","27359","0","[[3,0,0],[0,0],[1]]","11","[[0,0,0],[1,2],[3]]","4","0","","","","","","7","","","","",""
"","","","","","single-stim-button","207","1842365","0.0-3.0-22.10-1.10","6135752aa4ee5158b0708670","D2","batch4","tol_toboard","719","","","","","","","","","tol_peg_1","719","719","0","[[3,2,0],[0,0],[1]]","11","[[0,0,0],[1,2],[3]]","4","0","","","","","","7","","","","",""
"","","","","","single-stim-button","208","1843110","0.0-3.0-22.11-0.11","6135752aa4ee5158b0708670","D2","batch4","tol_tohand","743","","","","","","","","","tol_peg_3","743","743","0","[[3,2,0],[0,0],[0]]","12","[[0,0,0],[1,2],[3]]","4","0","","","","","","7","","","","",""
"","","","","","single-stim-button","209","1843462","0.0-3.0-22.11-1.11","6135752aa4ee5158b0708670","D2","batch4","tol_toboard","351","","","","","","","","","tol_peg_2","351","351","0","[[3,2,0],[1,0],[0]]","12","[[0,0,0],[1,2],[3]]","4","0","","","","","","7","","","","",""
"","","","","","single-stim-button","210","1844142","0.0-3.0-22.12-0.12","6135752aa4ee5158b0708670","D2","batch4","tol_tohand","679","","","","","","","","","tol_peg_1","679","679","0","[[3,0,0],[1,0],[0]]","13","[[0,0,0],[1,2],[3]]","4","0","","","","","","7","","","","",""
"","","","","","single-stim-button","211","1844781","0.0-3.0-22.12-1.12","6135752aa4ee5158b0708670","D2","batch4","tol_toboard","639","","","","","","","","","tol_peg_3","639","639","0","[[3,0,0],[1,0],[2]]","13","[[0,0,0],[1,2],[3]]","4","0","","","","","","7","","","","",""
"","","","","","single-stim-button","212","1846565","0.0-3.0-22.13-0.13","6135752aa4ee5158b0708670","D2","batch4","tol_tohand","1783","","","","","","","","","tol_peg_2","1783","1783","0","[[3,0,0],[0,0],[2]]","14","[[0,0,0],[1,2],[3]]","4","0","","","","","","7","","","","",""
"","","","","","single-stim-button","213","1847718","0.0-3.0-22.13-1.13","6135752aa4ee5158b0708670","D2","batch4","tol_toboard","1152","","","","","","","","","tol_peg_2","1152","1152","0","[[3,0,0],[1,0],[2]]","14","[[0,0,0],[1,2],[3]]","4","0","","","","","","7","","","","",""
"","","","","","single-stim-button","214","1848365","0.0-3.0-22.14-0.14","6135752aa4ee5158b0708670","D2","batch4","tol_tohand","646","","","","","","","","","tol_peg_1","646","646","0","[[0,0,0],[1,0],[2]]","15","[[0,0,0],[1,2],[3]]","4","0","","","","","","7","","","","",""
"","","","","","single-stim-button","215","1849686","0.0-3.0-22.14-1.14","6135752aa4ee5158b0708670","D2","batch4","tol_toboard","1319","","","","","","","","","tol_peg_2","1319","1319","0","[[0,0,0],[1,3],[2]]","15","[[0,0,0],[1,2],[3]]","4","0","","","","","","7","","","","",""
"","","","","","single-stim-button","216","1850334","0.0-3.0-22.15-0.15","6135752aa4ee5158b0708670","D2","batch4","tol_tohand","647","","","","","","","","","tol_peg_3","647","647","0","[[0,0,0],[1,3],[0]]","16","[[0,0,0],[1,2],[3]]","4","0","","","","","","7","","","","",""
"","","","","","single-stim-button","217","1850917","0.0-3.0-22.15-1.15","6135752aa4ee5158b0708670","D2","batch4","tol_toboard","583","","","","","","","","","tol_peg_1","583","583","0","[[2,0,0],[1,3],[0]]","16","[[0,0,0],[1,2],[3]]","4","0","","","","","","7","","","","",""
"","","","","","single-stim-button","218","1851670","0.0-3.0-22.16-0.16","6135752aa4ee5158b0708670","D2","batch4","tol_tohand","752","","","","","","","","","tol_peg_2","752","752","0","[[2,0,0],[1,0],[0]]","17","[[0,0,0],[1,2],[3]]","4","0","","","","","","7","","","","",""
"","","","","","single-stim-button","219","1852133","0.0-3.0-22.16-1.16","6135752aa4ee5158b0708670","D2","batch4","tol_toboard","463","","","","","","","","","tol_peg_3","463","463","0","[[2,0,0],[1,0],[3]]","17","[[0,0,0],[1,2],[3]]","4","0","","","","","","7","","","","",""
"","","","","","single-stim-button","220","1852670","0.0-3.0-22.17-0.17","6135752aa4ee5158b0708670","D2","batch4","tol_tohand","535","","","","","","","","","tol_peg_2","535","535","0","[[2,0,0],[0,0],[3]]","18","[[0,0,0],[1,2],[3]]","4","0","","","","","","7","","","","",""
"","","","","","single-stim-button","221","1853677","0.0-3.0-22.17-1.17","6135752aa4ee5158b0708670","D2","batch4","tol_toboard","1007","","","","","","","","","tol_peg_1","1007","1007","0","[[2,1,0],[0,0],[3]]","18","[[0,0,0],[1,2],[3]]","4","0","","","","","","7","","","","",""
"","","","","","single-stim-button","222","1858718","0.0-3.0-22.18-0.18","6135752aa4ee5158b0708670","D2","batch4","tol_tohand","5039","","","","","","","","","tol_peg_1","5039","5039","0","[[2,0,0],[0,0],[3]]","19","[[0,0,0],[1,2],[3]]","4","0","","","","","","7","","","","",""
"","","","","","single-stim-button","223","1859238","0.0-3.0-22.18-1.18","6135752aa4ee5158b0708670","D2","batch4","tol_toboard","519","","","","","","","","","tol_peg_2","519","519","0","[[2,0,0],[1,0],[3]]","19","[[0,0,0],[1,2],[3]]","4","0","","","","","","7","","","","",""
"","","","","","single-stim-button","224","1859662","0.0-3.0-22.19-0.19","6135752aa4ee5158b0708670","D2","batch4","tol_tohand","423","","","","","","","","","tol_peg_1","423","423","0","[[0,0,0],[1,0],[3]]","20","[[0,0,0],[1,2],[3]]","4","0","","","","","","7","","","","",""
"","","","","","single-stim-button","225","1860126","0.0-3.0-22.19-1.19","6135752aa4ee5158b0708670","D2","batch4","tol_toboard","462","","","","","","","","","tol_peg_2","462","462","0","[[0,0,0],[1,2],[3]]","20","[[0,0,0],[1,2],[3]]","4","0","","","","","","7","","","","",""
"","","","","","poldrack-single-stim","226","1861127","0.0-3.0-23.0","6135752aa4ee5158b0708670","D2","batch4","tol_feedback","-1","","","","","true","","","","","1000","1000","500","","","","","","-1","none","true","3726","73827","","","","","",""
"","","","","","html-button-response","227","1866502","0.0-3.0-24.0","6135752aa4ee5158b0708670","D2","batch4","tol_trial_num","5373.20000000298","<div class = centerbox><p class = center-block-text>problem <strong>6</strong> out of 25 problems</p></div>","0","","","","","","","","","","","","","","","","","","","","","","","","","",""
"","","","","","single-stim-button","228","1889894","0.0-3.0-25.0-0.0","6135752aa4ee5158b0708670","D2","batch4","tol_tohand","23391","","","","","","","","","tol_peg_3","23391","23391","0","[[0,0,0],[1,2],[0]]","1","[[1,0,0],[2,3],[0]]","5","0","","","","","","6","","","","",""
"","","","","","single-stim-button","229","1891142","0.0-3.0-25.0-1.0","6135752aa4ee5158b0708670","D2","batch4","tol_toboard","1247","","","","","","","","","tol_peg_1","1247","1247","0","[[3,0,0],[1,2],[0]]","1","[[1,0,0],[2,3],[0]]","5","0","","","","","","6","","","","",""
"","","","","","single-stim-button","230","1891886","0.0-3.0-25.1-0.1","6135752aa4ee5158b0708670","D2","batch4","tol_tohand","743","","","","","","","","","tol_peg_2","743","743","0","[[3,0,0],[1,0],[0]]","2","[[1,0,0],[2,3],[0]]","5","0","","","","","","6","","","","",""
"","","","","","single-stim-button","231","1892526","0.0-3.0-25.1-1.1","6135752aa4ee5158b0708670","D2","batch4","tol_toboard","639","","","","","","","","","tol_peg_3","639","639","0","[[3,0,0],[1,0],[2]]","2","[[1,0,0],[2,3],[0]]","5","0","","","","","","6","","","","",""
"","","","","","single-stim-button","232","1897310","0.0-3.0-25.2-0.2","6135752aa4ee5158b0708670","D2","batch4","tol_tohand","4783","","","","","","","","","tol_peg_3","4783","4783","0","[[3,0,0],[1,0],[0]]","3","[[1,0,0],[2,3],[0]]","5","0","","","","","","6","","","","",""
"","","","","","single-stim-button","233","1897669","0.0-3.0-25.2-1.2","6135752aa4ee5158b0708670","D2","batch4","tol_toboard","359","","","","","","","","","tol_peg_2","359","359","0","[[3,0,0],[1,2],[0]]","3","[[1,0,0],[2,3],[0]]","5","0","","","","","","6","","","","",""
"","","","","","single-stim-button","234","1898230","0.0-3.0-25.3-0.3","6135752aa4ee5158b0708670","D2","batch4","tol_tohand","560","","","","","","","","","tol_peg_1","560","560","0","[[0,0,0],[1,2],[0]]","4","[[1,0,0],[2,3],[0]]","5","0","","","","","","6","","","","",""
"","","","","","single-stim-button","235","1898638","0.0-3.0-25.3-1.3","6135752aa4ee5158b0708670","D2","batch4","tol_toboard","407","","","","","","","","","tol_peg_3","407","407","0","[[0,0,0],[1,2],[3]]","4","[[1,0,0],[2,3],[0]]","5","0","","","","","","6","","","","",""
"","","","","","single-stim-button","236","1902030","0.0-3.0-25.4-0.4","6135752aa4ee5158b0708670","D2","batch4","tol_tohand","3391","","","","","","","","","tol_peg_3","3391","3391","0","[[0,0,0],[1,2],[0]]","5","[[1,0,0],[2,3],[0]]","5","0","","","","","","6","","","","",""
"","","","","","single-stim-button","237","1902806","0.0-3.0-25.4-1.4","6135752aa4ee5158b0708670","D2","batch4","tol_toboard","775","","","","","","","","","tol_peg_1","775","775","0","[[3,0,0],[1,2],[0]]","5","[[1,0,0],[2,3],[0]]","5","0","","","","","","6","","","","",""
"","","","","","single-stim-button","238","1903238","0.0-3.0-25.5-0.5","6135752aa4ee5158b0708670","D2","batch4","tol_tohand","431","","","","","","","","","tol_peg_2","431","431","0","[[3,0,0],[1,0],[0]]","6","[[1,0,0],[2,3],[0]]","5","0","","","","","","6","","","","",""
"","","","","","single-stim-button","239","1903854","0.0-3.0-25.5-1.5","6135752aa4ee5158b0708670","D2","batch4","tol_toboard","615","","","","","","","","","tol_peg_3","615","615","0","[[3,0,0],[1,0],[2]]","6","[[1,0,0],[2,3],[0]]","5","0","","","","","","6","","","","",""
"","","","","","single-stim-button","240","1904310","0.0-3.0-25.6-0.6","6135752aa4ee5158b0708670","D2","batch4","tol_tohand","456","","","","","","","","","tol_peg_2","456","456","0","[[3,0,0],[0,0],[2]]","7","[[1,0,0],[2,3],[0]]","5","0","","","","","","6","","","","",""
"","","","","","single-stim-button","241","1904734","0.0-3.0-25.6-1.6","6135752aa4ee5158b0708670","D2","batch4","tol_toboard","423","","","","","","","","","tol_peg_1","423","423","0","[[3,1,0],[0,0],[2]]","7","[[1,0,0],[2,3],[0]]","5","0","","","","","","6","","","","",""
"","","","","","single-stim-button","242","1906527","0.0-3.0-25.7-0.7","6135752aa4ee5158b0708670","D2","batch4","tol_tohand","1792","","","","","","","","","tol_peg_3","1792","1792","0","[[3,1,0],[0,0],[0]]","8","[[1,0,0],[2,3],[0]]","5","0","","","","","","6","","","","",""
"","","","","","single-stim-button","243","1907222","0.0-3.0-25.7-1.7","6135752aa4ee5158b0708670","D2","batch4","tol_toboard","695","","","","","","","","","tol_peg_2","695","695","0","[[3,1,0],[2,0],[0]]","8","[[1,0,0],[2,3],[0]]","5","0","","","","","","6","","","","",""
"","","","","","single-stim-button","244","1907926","0.0-3.0-25.8-0.8","6135752aa4ee5158b0708670","D2","batch4","tol_tohand","703","","","","","","","","","tol_peg_1","703","703","0","[[3,0,0],[2,0],[0]]","9","[[1,0,0],[2,3],[0]]","5","0","","","","","","6","","","","",""
"","","","","","single-stim-button","245","1908286","0.0-3.0-25.8-1.8","6135752aa4ee5158b0708670","D2","batch4","tol_toboard","359","","","","","","","","","tol_peg_3","359","359","0","[[3,0,0],[2,0],[1]]","9","[[1,0,0],[2,3],[0]]","5","0","","","","","","6","","","","",""
"","","","","","single-stim-button","246","1909255","0.0-3.0-25.9-0.9","6135752aa4ee5158b0708670","D2","batch4","tol_tohand","968","","","","","","","","","tol_peg_1","968","968","0","[[0,0,0],[2,0],[1]]","10","[[1,0,0],[2,3],[0]]","5","0","","","","","","6","","","","",""
"","","","","","single-stim-button","247","1915598","0.0-3.0-25.9-1.9","6135752aa4ee5158b0708670","D2","batch4","tol_toboard","6343","","","","","","","","","tol_peg_2","6343","6343","0","[[0,0,0],[2,3],[1]]","10","[[1,0,0],[2,3],[0]]","5","0","","","","","","6","","","","",""
"","","","","","single-stim-button","248","1916086","0.0-3.0-25.10-0.10","6135752aa4ee5158b0708670","D2","batch4","tol_tohand","487","","","","","","","","","tol_peg_3","487","487","0","[[0,0,0],[2,3],[0]]","11","[[1,0,0],[2,3],[0]]","5","0","","","","","","6","","","","",""
"","","","","","single-stim-button","249","1916750","0.0-3.0-25.10-1.10","6135752aa4ee5158b0708670","D2","batch4","tol_toboard","663","","","","","","","","","tol_peg_1","663","663","0","[[1,0,0],[2,3],[0]]","11","[[1,0,0],[2,3],[0]]","5","0","","","","","","6","","","","",""
"","","","","","poldrack-single-stim","250","1917752","0.0-3.0-26.0","6135752aa4ee5158b0708670","D2","batch4","tol_feedback","-1","","","","","true","","","","","1000","1000","500","","","","","","-1","none","true","23391","37705","","","","","",""
"","","","","","html-button-response","251","1922870","0.0-3.0-27.0","6135752aa4ee5158b0708670","D2","batch4","tol_trial_num","5117.19999999553","<div class = centerbox><p class = center-block-text>problem <strong>7</strong> out of 25 problems</p></div>","0","","","","","","","","","","","","","","","","","","","","","","","","","",""
"","","","","","single-stim-button","252","1936878","0.0-3.0-28.0-0.0","6135752aa4ee5158b0708670","D2","batch4","tol_tohand","14007","","","","","","","","","tol_peg_3","14007","14007","0","[[2,1,0],[0,0],[0]]","1","[[1,2,0],[3,0],[0]]","6","0","","","","","","5","","","","",""
"","","","","","single-stim-button","253","1937390","0.0-3.0-28.0-1.0","6135752aa4ee5158b0708670","D2","batch4","tol_toboard","511","","","","","","","","","tol_peg_2","511","511","0","[[2,1,0],[3,0],[0]]","1","[[1,2,0],[3,0],[0]]","6","0","","","","","","5","","","","",""
"","","","","","single-stim-button","254","1938086","0.0-3.0-28.1-0.1","6135752aa4ee5158b0708670","D2","batch4","tol_tohand","695","","","","","","","","","tol_peg_1","695","695","0","[[2,0,0],[3,0],[0]]","2","[[1,2,0],[3,0],[0]]","6","0","","","","","","5","","","","",""
"","","","","","single-stim-button","255","1939926","0.0-3.0-28.1-1.1","6135752aa4ee5158b0708670","D2","batch4","tol_toboard","1840","","","","","","","","","tol_peg_3","1840","1840","0","[[2,0,0],[3,0],[1]]","2","[[1,2,0],[3,0],[0]]","6","0","","","","","","5","","","","",""
"","","","","","single-stim-button","256","1940406","0.0-3.0-28.2-0.2","6135752aa4ee5158b0708670","D2","batch4","tol_tohand","480","","","","","","","","","tol_peg_1","480","480","0","[[0,0,0],[3,0],[1]]","3","[[1,2,0],[3,0],[0]]","6","0","","","","","","5","","","","",""
"","","","","","single-stim-button","257","1940766","0.0-3.0-28.2-1.2","6135752aa4ee5158b0708670","D2","batch4","tol_toboard","360","","","","","","","","","tol_peg_2","360","360","0","[[0,0,0],[3,2],[1]]","3","[[1,2,0],[3,0],[0]]","6","0","","","","","","5","","","","",""
"","","","","","single-stim-button","258","1941622","0.0-3.0-28.3-0.3","6135752aa4ee5158b0708670","D2","batch4","tol_tohand","855","","","","","","","","","tol_peg_3","855","855","0","[[0,0,0],[3,2],[0]]","4","[[1,2,0],[3,0],[0]]","6","0","","","","","","5","","","","",""
"","","","","","single-stim-button","259","1942070","0.0-3.0-28.3-1.3","6135752aa4ee5158b0708670","D2","batch4","tol_toboard","447","","","","","","","","","tol_peg_1","447","447","0","[[1,0,0],[3,2],[0]]","4","[[1,2,0],[3,0],[0]]","6","0","","","","","","5","","","","",""
"","","","","","single-stim-button","260","1942502","0.0-3.0-28.4-0.4","6135752aa4ee5158b0708670","D2","batch4","tol_tohand","431","","","","","","","","","tol_peg_2","431","431","0","[[1,0,0],[3,0],[0]]","5","[[1,2,0],[3,0],[0]]","6","0","","","","","","5","","","","",""
"","","","","","single-stim-button","261","1943142","0.0-3.0-28.4-1.4","6135752aa4ee5158b0708670","D2","batch4","tol_toboard","639","","","","","","","","","tol_peg_1","639","639","0","[[1,2,0],[3,0],[0]]","5","[[1,2,0],[3,0],[0]]","6","0","","","","","","5","","","","",""
"","","","","","poldrack-single-stim","262","1944152","0.0-3.0-29.0","6135752aa4ee5158b0708670","D2","batch4","tol_feedback","-1","","","","","true","","","","","1000","1000","500","","","","","","-1","none","true","14007","16468","","","","","",""
"","","","","","html-button-response","263","1998862","0.0-3.0-30.0","6135752aa4ee5158b0708670","D2","batch4","tol_trial_num","54708.60000000149","<div class = centerbox><p class = center-block-text>problem <strong>8</strong> out of 25 problems</p></div>","0","","","","","","","","","","","","","","","","","","","","","","","","","",""
"","","","","","single-stim-button","264","2017262","0.0-3.0-31.0-0.0","6135752aa4ee5158b0708670","D2","batch4","tol_tohand","18400","","","","","","","","","tol_peg_3","18400","18400","0","[[0,0,0],[2,3],[0]]","1","[[1,2,0],[3,0],[0]]","7","0","","","","","","4","","","","",""
"","","","","","single-stim-button","265","2017942","0.0-3.0-31.0-1.0","6135752aa4ee5158b0708670","D2","batch4","tol_toboard","679","","","","","","","","","tol_peg_1","679","679","0","[[1,0,0],[2,3],[0]]","1","[[1,2,0],[3,0],[0]]","7","0","","","","","","4","","","","",""
"","","","","","single-stim-button","266","2018454","0.0-3.0-31.1-0.1","6135752aa4ee5158b0708670","D2","batch4","tol_tohand","511","","","","","","","","","tol_peg_2","511","511","0","[[1,0,0],[2,0],[0]]","2","[[1,2,0],[3,0],[0]]","7","0","","","","","","4","","","","",""
"","","","","","single-stim-button","267","2018838","0.0-3.0-31.1-1.1","6135752aa4ee5158b0708670","D2","batch4","tol_toboard","384","","","","","","","","","tol_peg_3","384","384","0","[[1,0,0],[2,0],[3]]","2","[[1,2,0],[3,0],[0]]","7","0","","","","","","4","","","","",""
"","","","","","single-stim-button","268","2019246","0.0-3.0-31.2-0.2","6135752aa4ee5158b0708670","D2","batch4","tol_tohand","408","","","","","","","","","tol_peg_2","408","408","0","[[1,0,0],[0,0],[3]]","3","[[1,2,0],[3,0],[0]]","7","0","","","","","","4","","","","",""
"","","","","","single-stim-button","269","2019782","0.0-3.0-31.2-1.2","6135752aa4ee5158b0708670","D2","batch4","tol_toboard","536","","","","","","","","","tol_peg_1","536","536","0","[[1,2,0],[0,0],[3]]","3","[[1,2,0],[3,0],[0]]","7","0","","","","","","4","","","","",""
"","","","","","single-stim-button","270","2020494","0.0-3.0-31.3-0.3","6135752aa4ee5158b0708670","D2","batch4","tol_tohand","712","","","","","","","","","tol_peg_3","712","712","0","[[1,2,0],[0,0],[0]]","4","[[1,2,0],[3,0],[0]]","7","0","","","","","","4","","","","",""
"","","","","","single-stim-button","271","2020830","0.0-3.0-31.3-1.3","6135752aa4ee5158b0708670","D2","batch4","tol_toboard","336","","","","","","","","","tol_peg_2","336","336","0","[[1,2,0],[3,0],[0]]","4","[[1,2,0],[3,0],[0]]","7","0","","","","","","4","","","","",""
"","","","","","poldrack-single-stim","272","2021832","0.0-3.0-32.0","6135752aa4ee5158b0708670","D2","batch4","tol_feedback","-1","","","","","true","","","","","1000","1000","500","","","","","","-1","none","true","18400","20031","","","","","",""
"","","","","","html-button-response","273","2058877","0.0-3.0-33.0","6135752aa4ee5158b0708670","D2","batch4","tol_trial_num","37044.10000000149","<div class = centerbox><p class = center-block-text>problem <strong>9</strong> out of 25 problems</p></div>","0","","","","","","","","","","","","","","","","","","","","","","","","","",""
"","","","","","single-stim-button","274","2066558","0.0-3.0-34.0-0.0","6135752aa4ee5158b0708670","D2","batch4","tol_tohand","7679","","","","","","","","","tol_peg_3","7679","7679","0","[[3,2,0],[0,0],[0]]","1","[[2,1,0],[3,0],[0]]","8","0","","","","","","6","","","","",""
"","","","","","single-stim-button","275","2067094","0.0-3.0-34.0-1.0","6135752aa4ee5158b0708670","D2","batch4","tol_toboard","535","","","","","","","","","tol_peg_2","535","535","0","[[3,2,0],[1,0],[0]]","1","[[2,1,0],[3,0],[0]]","8","0","","","","","","6","","","","",""
"","","","","","single-stim-button","276","2067622","0.0-3.0-34.1-0.1","6135752aa4ee5158b0708670","D2","batch4","tol_tohand","527","","","","","","","","","tol_peg_1","527","527","0","[[3,0,0],[1,0],[0]]","2","[[2,1,0],[3,0],[0]]","8","0","","","","","","6","","","","",""
"","","","","","single-stim-button","277","2068621","0.0-3.0-34.1-1.1","6135752aa4ee5158b0708670","D2","batch4","tol_toboard","999","","","","","","","","","tol_peg_3","999","999","0","[[3,0,0],[1,0],[2]]","2","[[2,1,0],[3,0],[0]]","8","0","","","","","","6","","","","",""
"","","","","","single-stim-button","278","2071758","0.0-3.0-34.2-0.2","6135752aa4ee5158b0708670","D2","batch4","tol_tohand","3135","","","","","","","","","tol_peg_3","3135","3135","0","[[3,0,0],[1,0],[0]]","3","[[2,1,0],[3,0],[0]]","8","0","","","","","","6","","","","",""
"","","","","","single-stim-button","279","2072702","0.0-3.0-34.2-1.2","6135752aa4ee5158b0708670","D2","batch4","tol_toboard","943","","","","","","","","","tol_peg_2","943","943","0","[[3,0,0],[1,2],[0]]","3","[[2,1,0],[3,0],[0]]","8","0","","","","","","6","","","","",""
"","","","","","single-stim-button","280","2073285","0.0-3.0-34.3-0.3","6135752aa4ee5158b0708670","D2","batch4","tol_tohand","583","","","","","","","","","tol_peg_1","583","583","0","[[0,0,0],[1,2],[0]]","4","[[2,1,0],[3,0],[0]]","8","0","","","","","","6","","","","",""
"","","","","","single-stim-button","281","2073950","0.0-3.0-34.3-1.3","6135752aa4ee5158b0708670","D2","batch4","tol_toboard","663","","","","","","","","","tol_peg_3","663","663","0","[[0,0,0],[1,2],[3]]","4","[[2,1,0],[3,0],[0]]","8","0","","","","","","6","","","","",""
"","","","","","single-stim-button","282","2075462","0.0-3.0-34.4-0.4","6135752aa4ee5158b0708670","D2","batch4","tol_tohand","1511","","","","","","","","","tol_peg_3","1511","1511","0","[[0,0,0],[1,2],[0]]","5","[[2,1,0],[3,0],[0]]","8","0","","","","","","6","","","","",""
"","","","","","single-stim-button","283","2078174","0.0-3.0-34.4-1.4","6135752aa4ee5158b0708670","D2","batch4","tol_toboard","2711","","","","","","","","","tol_peg_1","2711","2711","0","[[3,0,0],[1,2],[0]]","5","[[2,1,0],[3,0],[0]]","8","0","","","","","","6","","","","",""
"","","","","","single-stim-button","284","2081958","0.0-3.0-34.5-0.5","6135752aa4ee5158b0708670","D2","batch4","tol_tohand","3783","","","","","","","","","tol_peg_2","3783","3783","0","[[3,0,0],[1,0],[0]]","6","[[2,1,0],[3,0],[0]]","8","0","","","","","","6","","","","",""
"","","","","","single-stim-button","285","2082518","0.0-3.0-34.5-1.5","6135752aa4ee5158b0708670","D2","batch4","tol_toboard","559","","","","","","","","","tol_peg_1","559","559","0","[[3,2,0],[1,0],[0]]","6","[[2,1,0],[3,0],[0]]","8","0","","","","","","6","","","","",""
"","","","","","single-stim-button","286","2082982","0.0-3.0-34.6-0.6","6135752aa4ee5158b0708670","D2","batch4","tol_tohand","463","","","","","","","","","tol_peg_2","463","463","0","[[3,2,0],[0,0],[0]]","7","[[2,1,0],[3,0],[0]]","8","0","","","","","","6","","","","",""
"","","","","","single-stim-button","287","2083518","0.0-3.0-34.6-1.6","6135752aa4ee5158b0708670","D2","batch4","tol_toboard","535","","","","","","","","","tol_peg_3","535","535","0","[[3,2,0],[0,0],[1]]","7","[[2,1,0],[3,0],[0]]","8","0","","","","","","6","","","","",""
"","","","","","single-stim-button","288","2084214","0.0-3.0-34.7-0.7","6135752aa4ee5158b0708670","D2","batch4","tol_tohand","695","","","","","","","","","tol_peg_1","695","695","0","[[3,0,0],[0,0],[1]]","8","[[2,1,0],[3,0],[0]]","8","0","","","","","","6","","","","",""
"","","","","","single-stim-button","289","2084622","0.0-3.0-34.7-1.7","6135752aa4ee5158b0708670","D2","batch4","tol_toboard","407","","","","","","","","","tol_peg_2","407","407","0","[[3,0,0],[2,0],[1]]","8","[[2,1,0],[3,0],[0]]","8","0","","","","","","6","","","","",""
"","","","","","single-stim-button","290","2085078","0.0-3.0-34.8-0.8","6135752aa4ee5158b0708670","D2","batch4","tol_tohand","456","","","","","","","","","tol_peg_3","456","456","0","[[3,0,0],[2,0],[0]]","9","[[2,1,0],[3,0],[0]]","8","0","","","","","","6","","","","",""
"","","","","","single-stim-button","291","2085390","0.0-3.0-34.8-1.8","6135752aa4ee5158b0708670","D2","batch4","tol_toboard","310","","","","","","","","","tol_peg_2","310","310","0","[[3,0,0],[2,1],[0]]","9","[[2,1,0],[3,0],[0]]","8","0","","","","","","6","","","","",""
"","","","","","single-stim-button","292","2092165","0.0-3.0-34.9-0.9","6135752aa4ee5158b0708670","D2","batch4","tol_tohand","6775","","","","","","","","","tol_peg_1","6775","6775","0","[[0,0,0],[2,1],[0]]","10","[[2,1,0],[3,0],[0]]","8","0","","","","","","6","","","","",""
"","","","","","single-stim-button","293","2092838","0.0-3.0-34.9-1.9","6135752aa4ee5158b0708670","D2","batch4","tol_toboard","671","","","","","","","","","tol_peg_3","671","671","0","[[0,0,0],[2,1],[3]]","10","[[2,1,0],[3,0],[0]]","8","0","","","","","","6","","","","",""
"","","","","","single-stim-button","294","2094269","0.0-3.0-34.10-0.10","6135752aa4ee5158b0708670","D2","batch4","tol_tohand","1431","","","","","","","","","tol_peg_2","1431","1431","0","[[0,0,0],[2,0],[3]]","11","[[2,1,0],[3,0],[0]]","8","0","","","","","","6","","","","",""
"","","","","","single-stim-button","295","2095606","0.0-3.0-34.10-1.10","6135752aa4ee5158b0708670","D2","batch4","tol_toboard","1335","","","","","","","","","tol_peg_1","1335","1335","0","[[1,0,0],[2,0],[3]]","11","[[2,1,0],[3,0],[0]]","8","0","","","","","","6","","","","",""
"","","","","","single-stim-button","296","2096325","0.0-3.0-34.11-0.11","6135752aa4ee5158b0708670","D2","batch4","tol_tohand","719","","","","","","","","","tol_peg_2","719","719","0","[[1,0,0],[0,0],[3]]","12","[[2,1,0],[3,0],[0]]","8","0","","","","","","6","","","","",""
"","","","","","single-stim-button","297","2098934","0.0-3.0-34.11-1.11","6135752aa4ee5158b0708670","D2","batch4","tol_toboard","2607","","","","","","","","","tol_peg_2","2607","2607","0","[[1,0,0],[2,0],[3]]","12","[[2,1,0],[3,0],[0]]","8","0","","","","","","6","","","","",""
"","","","","","single-stim-button","298","2100558","0.0-3.0-34.12-0.12","6135752aa4ee5158b0708670","D2","batch4","tol_tohand","1622","","","","","","","","","tol_peg_3","1622","1622","0","[[1,0,0],[2,0],[0]]","13","[[2,1,0],[3,0],[0]]","8","0","","","","","","6","","","","",""
"","","","","","single-stim-button","299","2101854","0.0-3.0-34.12-1.12","6135752aa4ee5158b0708670","D2","batch4","tol_toboard","1295","","","","","","","","","tol_peg_1","1295","1295","0","[[1,3,0],[2,0],[0]]","13","[[2,1,0],[3,0],[0]]","8","0","","","","","","6","","","","",""
"","","","","","single-stim-button","300","2102470","0.0-3.0-34.13-0.13","6135752aa4ee5158b0708670","D2","batch4","tol_tohand","616","","","","","","","","","tol_peg_2","616","616","0","[[1,3,0],[0,0],[0]]","14","[[2,1,0],[3,0],[0]]","8","0","","","","","","6","","","","",""
"","","","","","single-stim-button","301","2103182","0.0-3.0-34.13-1.13","6135752aa4ee5158b0708670","D2","batch4","tol_toboard","711","","","","","","","","","tol_peg_3","711","711","0","[[1,3,0],[0,0],[2]]","14","[[2,1,0],[3,0],[0]]","8","0","","","","","","6","","","","",""
"","","","","","single-stim-button","302","2104854","0.0-3.0-34.14-0.14","6135752aa4ee5158b0708670","D2","batch4","tol_tohand","1671","","","","","","","","","tol_peg_1","1671","1671","0","[[1,0,0],[0,0],[2]]","15","[[2,1,0],[3,0],[0]]","8","0","","","","","","6","","","","",""
"","","","","","single-stim-button","303","2105445","0.0-3.0-34.14-1.14","6135752aa4ee5158b0708670","D2","batch4","tol_toboard","591","","","","","","","","","tol_peg_2","591","591","0","[[1,0,0],[3,0],[2]]","15","[[2,1,0],[3,0],[0]]","8","0","","","","","","6","","","","",""
"","","","","","single-stim-button","304","2106863","0.0-3.0-34.15-0.15","6135752aa4ee5158b0708670","D2","batch4","tol_tohand","1416","","","","","","","","","tol_peg_1","1416","1416","0","[[0,0,0],[3,0],[2]]","16","[[2,1,0],[3,0],[0]]","8","0","","","","","","6","","","","",""
"","","","","","single-stim-button","305","2107637","0.0-3.0-34.15-1.15","6135752aa4ee5158b0708670","D2","batch4","tol_toboard","774","","","","","","","","","tol_peg_2","774","774","0","[[0,0,0],[3,1],[2]]","16","[[2,1,0],[3,0],[0]]","8","0","","","","","","6","","","","",""
"","","","","","single-stim-button","306","2108165","0.0-3.0-34.16-0.16","6135752aa4ee5158b0708670","D2","batch4","tol_tohand","527","","","","","","","","","tol_peg_3","527","527","0","[[0,0,0],[3,1],[0]]","17","[[2,1,0],[3,0],[0]]","8","0","","","","","","6","","","","",""
"","","","","","single-stim-button","307","2108662","0.0-3.0-34.16-1.16","6135752aa4ee5158b0708670","D2","batch4","tol_toboard","495","","","","","","","","","tol_peg_1","495","495","0","[[2,0,0],[3,1],[0]]","17","[[2,1,0],[3,0],[0]]","8","0","","","","","","6","","","","",""
"","","","","","single-stim-button","308","2109365","0.0-3.0-34.17-0.17","6135752aa4ee5158b0708670","D2","batch4","tol_tohand","703","","","","","","","","","tol_peg_2","703","703","0","[[2,0,0],[3,0],[0]]","18","[[2,1,0],[3,0],[0]]","8","0","","","","","","6","","","","",""
"","","","","","single-stim-button","309","2109750","0.0-3.0-34.17-1.17","6135752aa4ee5158b0708670","D2","batch4","tol_toboard","383","","","","","","","","","tol_peg_1","383","383","0","[[2,1,0],[3,0],[0]]","18","[[2,1,0],[3,0],[0]]","8","0","","","","","","6","","","","",""
"","","","","","poldrack-single-stim","310","2110752","0.0-3.0-35.0","6135752aa4ee5158b0708670","D2","batch4","tol_feedback","-1","","","","","true","","","","","1000","1000","500","","","","","","-1","none","true","7679","34312","","","","","",""
"","","","","","html-button-response","311","2111622","0.0-3.0-36.0","6135752aa4ee5158b0708670","D2","batch4","tol_trial_num","867.9000000059605","<div class = centerbox><p class = center-block-text>problem <strong>10</strong> out of 25 problems</p></div>","0","","","","","","","","","","","","","","","","","","","","","","","","","",""
"","","","","","single-stim-button","312","2146998","0.0-3.0-37.0-0.0","6135752aa4ee5158b0708670","D2","batch4","tol_tohand","35376","","","","","","","","","tol_peg_2","35376","35376","0","[[3,0,0],[0,0],[2]]","1","[[3,0,0],[2,1],[0]]","9","0","","","","","","3","","","","",""
"","","","","","single-stim-button","313","2147830","0.0-3.0-37.0-1.0","6135752aa4ee5158b0708670","D2","batch4","tol_toboard","831","","","","","","","","","tol_peg_1","831","831","0","[[3,1,0],[0,0],[2]]","1","[[3,0,0],[2,1],[0]]","9","0","","","","","","3","","","","",""
"","","","","","single-stim-button","314","2148446","0.0-3.0-37.1-0.1","6135752aa4ee5158b0708670","D2","batch4","tol_tohand","615","","","","","","","","","tol_peg_3","615","615","0","[[3,1,0],[0,0],[0]]","2","[[3,0,0],[2,1],[0]]","9","0","","","","","","3","","","","",""
"","","","","","single-stim-button","315","2148990","0.0-3.0-37.1-1.1","6135752aa4ee5158b0708670","D2","batch4","tol_toboard","543","","","","","","","","","tol_peg_2","543","543","0","[[3,1,0],[2,0],[0]]","2","[[3,0,0],[2,1],[0]]","9","0","","","","","","3","","","","",""
"","","","","","single-stim-button","316","2149462","0.0-3.0-37.2-0.2","6135752aa4ee5158b0708670","D2","batch4","tol_tohand","471","","","","","","","","","tol_peg_1","471","471","0","[[3,0,0],[2,0],[0]]","3","[[3,0,0],[2,1],[0]]","9","0","","","","","","3","","","","",""
"","","","","","single-stim-button","317","2149750","0.0-3.0-37.2-1.2","6135752aa4ee5158b0708670","D2","batch4","tol_toboard","287","","","","","","","","","tol_peg_2","287","287","0","[[3,0,0],[2,1],[0]]","3","[[3,0,0],[2,1],[0]]","9","0","","","","","","3","","","","",""
"","","","","","poldrack-single-stim","318","2150753","0.0-3.0-38.0","6135752aa4ee5158b0708670","D2","batch4","tol_feedback","-1","","","","","true","","","","","1000","1000","500","","","","","","-1","none","true","35376","36462","","","","","",""
"","","","","","html-button-response","319","2151502","0.0-3.0-39.0","6135752aa4ee5158b0708670","D2","batch4","tol_trial_num","747.8999999985099","<div class = centerbox><p class = center-block-text>problem <strong>11</strong> out of 25 problems</p></div>","0","","","","","","","","","","","","","","","","","","","","","","","","","",""
"","","","","","single-stim-button","320","2159166","0.0-3.0-40.0-0.0","6135752aa4ee5158b0708670","D2","batch4","tol_tohand","7662","","","","","","","","","tol_peg_1","7662","7662","0","[[1,0,0],[3,0],[0]]","1","[[2,0,0],[1,3],[0]]","10","0","","","","","","6","","","","",""
"","","","","","single-stim-button","321","2159678","0.0-3.0-40.0-1.0","6135752aa4ee5158b0708670","D2","batch4","tol_toboard","511","","","","","","","","","tol_peg_3","511","511","0","[[1,0,0],[3,0],[2]]","1","[[2,0,0],[1,3],[0]]","10","0","","","","","","6","","","","",""
"","","","","","single-stim-button","322","2160519","0.0-3.0-40.1-0.1","6135752aa4ee5158b0708670","D2","batch4","tol_tohand","839","","","","","","","","","tol_peg_1","839","839","0","[[0,0,0],[3,0],[2]]","2","[[2,0,0],[1,3],[0]]","10","0","","","","","","6","","","","",""
"","","","","","single-stim-button","323","2161767","0.0-3.0-40.1-1.1","6135752aa4ee5158b0708670","D2","batch4","tol_toboard","1247","","","","","","","","","tol_peg_2","1247","1247","0","[[0,0,0],[3,1],[2]]","2","[[2,0,0],[1,3],[0]]","10","0","","","","","","6","","","","",""
"","","","","","single-stim-button","324","2164126","0.0-3.0-40.2-0.2","6135752aa4ee5158b0708670","D2","batch4","tol_tohand","2359","","","","","","","","","tol_peg_3","2359","2359","0","[[0,0,0],[3,1],[0]]","3","[[2,0,0],[1,3],[0]]","10","0","","","","","","6","","","","",""
"","","","","","single-stim-button","325","2164838","0.0-3.0-40.2-1.2","6135752aa4ee5158b0708670","D2","batch4","tol_toboard","711","","","","","","","","","tol_peg_1","711","711","0","[[2,0,0],[3,1],[0]]","3","[[2,0,0],[1,3],[0]]","10","0","","","","","","6","","","","",""
"","","","","","single-stim-button","326","2168950","0.0-3.0-40.3-0.3","6135752aa4ee5158b0708670","D2","batch4","tol_tohand","4111","","","","","","","","","tol_peg_2","4111","4111","0","[[2,0,0],[3,0],[0]]","4","[[2,0,0],[1,3],[0]]","10","0","","","","","","6","","","","",""
"","","","","","single-stim-button","327","2170294","0.0-3.0-40.3-1.3","6135752aa4ee5158b0708670","D2","batch4","tol_toboard","1343","","","","","","","","","tol_peg_1","1343","1343","0","[[2,1,0],[3,0],[0]]","4","[[2,0,0],[1,3],[0]]","10","0","","","","","","6","","","","",""
"","","","","","single-stim-button","328","2171390","0.0-3.0-40.4-0.4","6135752aa4ee5158b0708670","D2","batch4","tol_tohand","1096","","","","","","","","","tol_peg_2","1096","1096","0","[[2,1,0],[0,0],[0]]","5","[[2,0,0],[1,3],[0]]","10","0","","","","","","6","","","","",""
"","","","","","single-stim-button","329","2171895","0.0-3.0-40.4-1.4","6135752aa4ee5158b0708670","D2","batch4","tol_toboard","503","","","","","","","","","tol_peg_3","503","503","0","[[2,1,0],[0,0],[3]]","5","[[2,0,0],[1,3],[0]]","10","0","","","","","","6","","","","",""
"","","","","","single-stim-button","330","2172454","0.0-3.0-40.5-0.5","6135752aa4ee5158b0708670","D2","batch4","tol_tohand","559","","","","","","","","","tol_peg_1","559","559","0","[[2,0,0],[0,0],[3]]","6","[[2,0,0],[1,3],[0]]","10","0","","","","","","6","","","","",""
"","","","","","single-stim-button","331","2172774","0.0-3.0-40.5-1.5","6135752aa4ee5158b0708670","D2","batch4","tol_toboard","319","","","","","","","","","tol_peg_2","319","319","0","[[2,0,0],[1,0],[3]]","6","[[2,0,0],[1,3],[0]]","10","0","","","","","","6","","","","",""
"","","","","","single-stim-button","332","2173214","0.0-3.0-40.6-0.6","6135752aa4ee5158b0708670","D2","batch4","tol_tohand","439","","","","","","","","","tol_peg_3","439","439","0","[[2,0,0],[1,0],[0]]","7","[[2,0,0],[1,3],[0]]","10","0","","","","","","6","","","","",""
"","","","","","single-stim-button","333","2173710","0.0-3.0-40.6-1.6","6135752aa4ee5158b0708670","D2","batch4","tol_toboard","495","","","","","","","","","tol_peg_2","495","495","0","[[2,0,0],[1,3],[0]]","7","[[2,0,0],[1,3],[0]]","10","0","","","","","","6","","","","",""
"","","","","","poldrack-single-stim","334","2174713","0.0-3.0-41.0","6135752aa4ee5158b0708670","D2","batch4","tol_feedback","-1","","","","","true","","","","","1000","1000","500","","","","","","-1","none","true","7662","17065","","","","","",""
"","","","","","html-button-response","335","2175406","0.0-3.0-42.0","6135752aa4ee5158b0708670","D2","batch4","tol_trial_num","692.3000000044703","<div class = centerbox><p class = center-block-text>problem <strong>12</strong> out of 25 problems</p></div>","0","","","","","","","","","","","","","","","","","","","","","","","","","",""
"","","","","","single-stim-button","336","2182502","0.0-3.0-43.0-0.0","6135752aa4ee5158b0708670","D2","batch4","tol_tohand","7094","","","","","","","","","tol_peg_1","7094","7094","0","[[1,0,0],[3,0],[0]]","1","[[2,3,0],[0,0],[1]]","11","0","","","","","","4","","","","",""
"","","","","","single-stim-button","337","2183142","0.0-3.0-43.0-1.0","6135752aa4ee5158b0708670","D2","batch4","tol_toboard","638","","","","","","","","","tol_peg_2","638","638","0","[[1,0,0],[3,2],[0]]","1","[[2,3,0],[0,0],[1]]","11","0","","","","","","4","","","","",""
"","","","","","single-stim-button","338","2183646","0.0-3.0-43.1-0.1","6135752aa4ee5158b0708670","D2","batch4","tol_tohand","503","","","","","","","","","tol_peg_1","503","503","0","[[0,0,0],[3,2],[0]]","2","[[2,3,0],[0,0],[1]]","11","0","","","","","","4","","","","",""
"","","","","","single-stim-button","339","2184534","0.0-3.0-43.1-1.1","6135752aa4ee5158b0708670","D2","batch4","tol_toboard","888","","","","","","","","","tol_peg_3","888","888","0","[[0,0,0],[3,2],[1]]","2","[[2,3,0],[0,0],[1]]","11","0","","","","","","4","","","","",""
"","","","","","single-stim-button","340","2185518","0.0-3.0-43.2-0.2","6135752aa4ee5158b0708670","D2","batch4","tol_tohand","983","","","","","","","","","tol_peg_2","983","983","0","[[0,0,0],[3,0],[1]]","3","[[2,3,0],[0,0],[1]]","11","0","","","","","","4","","","","",""
"","","","","","single-stim-button","341","2187814","0.0-3.0-43.2-1.2","6135752aa4ee5158b0708670","D2","batch4","tol_toboard","2295","","","","","","","","","tol_peg_1","2295","2295","0","[[2,0,0],[3,0],[1]]","3","[[2,3,0],[0,0],[1]]","11","0","","","","","","4","","","","",""
"","","","","","single-stim-button","342","2202366","0.0-3.0-43.3-0.3","6135752aa4ee5158b0708670","D2","batch4","tol_tohand","14551","","","","","","","","","tol_peg_2","14551","14551","0","[[2,0,0],[0,0],[1]]","4","[[2,3,0],[0,0],[1]]","11","0","","","","","","4","","","","",""
"","","","","","single-stim-button","343","2203174","0.0-3.0-43.3-1.3","6135752aa4ee5158b0708670","D2","batch4","tol_toboard","807","","","","","","","","","tol_peg_1","807","807","0","[[2,3,0],[0,0],[1]]","4","[[2,3,0],[0,0],[1]]","11","0","","","","","","4","","","","",""
"","","","","","poldrack-single-stim","344","2204185","0.0-3.0-44.0","6135752aa4ee5158b0708670","D2","batch4","tol_feedback","-1","","","","","true","","","","","1000","1000","500","","","","","","-1","none","true","7094","23131","","","","","",""
"","","","","","html-button-response","345","2205046","0.0-3.0-45.0","6135752aa4ee5158b0708670","D2","batch4","tol_trial_num","859.5","<div class = centerbox><p class = center-block-text>problem <strong>13</strong> out of 25 problems</p></div>","0","","","","","","","","","","","","","","","","","","","","","","","","","",""
"","","","","","single-stim-button","346","2208478","0.0-3.0-46.0-0.0","6135752aa4ee5158b0708670","D2","batch4","tol_tohand","3431","","","","","","","","","tol_peg_1","3431","3431","0","[[1,0,0],[3,0],[0]]","1","[[0,0,0],[2,3],[1]]","12","0","","","","","","4","","","","",""
"","","","","","single-stim-button","347","2208886","0.0-3.0-46.0-1.0","6135752aa4ee5158b0708670","D2","batch4","tol_toboard","407","","","","","","","","","tol_peg_2","407","407","0","[[1,0,0],[3,2],[0]]","1","[[0,0,0],[2,3],[1]]","12","0","","","","","","4","","","","",""
"","","","","","single-stim-button","348","2209438","0.0-3.0-46.1-0.1","6135752aa4ee5158b0708670","D2","batch4","tol_tohand","551","","","","","","","","","tol_peg_1","551","551","0","[[0,0,0],[3,2],[0]]","2","[[0,0,0],[2,3],[1]]","12","0","","","","","","4","","","","",""
"","","","","","single-stim-button","349","2210086","0.0-3.0-46.1-1.1","6135752aa4ee5158b0708670","D2","batch4","tol_toboard","647","","","","","","","","","tol_peg_3","647","647","0","[[0,0,0],[3,2],[1]]","2","[[0,0,0],[2,3],[1]]","12","0","","","","","","4","","","","",""
"","","","","","single-stim-button","350","2211413","0.0-3.0-46.2-0.2","6135752aa4ee5158b0708670","D2","batch4","tol_tohand","1327","","","","","","","","","tol_peg_2","1327","1327","0","[[0,0,0],[3,0],[1]]","3","[[0,0,0],[2,3],[1]]","12","0","","","","","","4","","","","",""
"","","","","","single-stim-button","351","2216534","0.0-3.0-46.2-1.2","6135752aa4ee5158b0708670","D2","batch4","tol_toboard","5120","","","","","","","","","tol_peg_1","5120","5120","0","[[2,0,0],[3,0],[1]]","3","[[0,0,0],[2,3],[1]]","12","0","","","","","","4","","","","",""
"","","","","","single-stim-button","352","2217638","0.0-3.0-46.3-0.3","6135752aa4ee5158b0708670","D2","batch4","tol_tohand","1103","","","","","","","","","tol_peg_2","1103","1103","0","[[2,0,0],[0,0],[1]]","4","[[0,0,0],[2,3],[1]]","12","0","","","","","","4","","","","",""
"","","","","","single-stim-button","353","2218254","0.0-3.0-46.3-1.3","6135752aa4ee5158b0708670","D2","batch4","tol_toboard","614","","","","","","","","","tol_peg_1","614","614","0","[[2,3,0],[0,0],[1]]","4","[[0,0,0],[2,3],[1]]","12","0","","","","","","4","","","","",""
"","","","","","single-stim-button","354","2218942","0.0-3.0-46.4-0.4","6135752aa4ee5158b0708670","D2","batch4","tol_tohand","686","","","","","","","","","tol_peg_3","686","686","0","[[2,3,0],[0,0],[0]]","5","[[0,0,0],[2,3],[1]]","12","0","","","","","","4","","","","",""
