"success","timeout","failed_images","failed_audio","failed_video","trial_type","trial_index","time_elapsed","internal_node_id","subject_id","study_id","session_id","task","rt","stimulus","response","item","answer","correct","spm_correct","spm_rt","view_history","mouse_click","stim_duration","block_duration","timing_post_trial","current_position","tol_num_moves_made","tol_target","tol_problem_id","tol_rt","key_press","possible_responses","tol_correct","preplanning","tol_rt_per_trial","tol_min_moves","fiar_detect_rt","fiar_detect_correct","total_correct_fiar_detect","post_trial_gap","choices"
"true","false","[]","[]","[]","preload","0","5772","0.0-0.0","61364739837a69353c38284a","A3","batch1","","","","","","","","","","","","","","","","","","","","","","","","","","","","","",""
"true","","","","","fullscreen","1","65878","0.0-1.0-0.0","61364739837a69353c38284a","A3","batch1","","","","","","","","","","","","","","","","","","","","","","","","","","","","","",""
"true","","","","","fullscreen","2","69623","0.0-2.0-0.0","61364739837a69353c38284a","A3","batch1","spm_fullscreen","","","","","","","","","","","","","","","","","","","","","","","","","","","","",""
"","","","","","html-button-response","3","99985","0.0-2.0-1.0","61364739837a69353c38284a","A3","batch1","","30360.79999998212","<p class = block-text><b>Instructions</b> <br>This is a widely used intelligence test in research. <br>In this test, a figure with a missing piece will be presented.<br>Below the figure are alternative pieces to complete the figure, only one of which is correct.<br> Different figures might involve different principles for obtaining the missing piece<br>Your job is to select the most logical piece to complete the figure.</p>","0","","","","","","","","","","","","","","","","","","","","","","","","","",""
"","","","","","html-keyboard-response","4","100786","0.0-2.0-2.0-0.0","61364739837a69353c38284a","A3","batch1","spm_show_trial_num","null","<p class=block-text>Trial 1 out of 60</p>","null","","","","","","","","","","","","","","","","","","","","","","","","","",""
"","","","","","image-button-response","5","107208","0.0-2.0-2.0-1.0","61364739837a69353c38284a","A3","batch1","spm_respsonse","6408.5999999940395","img/question_1_1.jpeg","3","mat_01","4","1","1","6408.5999999940395","","","","","","","","","","","","","","","","","","","","",""
"","","","","","html-keyboard-response","6","108268","0.0-2.0-2.0-0.1","61364739837a69353c38284a","A3","batch1","spm_show_trial_num","null","<p class=block-text>Trial 2 out of 60</p>","null","","","","","","","","","","","","","","","","","","","","","","","","","",""
"","","","","","image-button-response","7","112591","0.0-2.0-2.0-1.1","61364739837a69353c38284a","A3","batch1","spm_respsonse","4321.5","img/question_1_2.jpeg","4","mat_02","5","1","1","4321.5","","","","","","","","","","","","","","","","","","","","",""
"","","","","","html-keyboard-response","8","113653","0.0-2.0-2.0-0.2","61364739837a69353c38284a","A3","batch1","spm_show_trial_num","null","<p class=block-text>Trial 3 out of 60</p>","null","","","","","","","","","","","","","","","","","","","","","","","","","",""
"","","","","","image-button-response","9","117351","0.0-2.0-2.0-1.2","61364739837a69353c38284a","A3","batch1","spm_respsonse","3695.5999999940395","img/question_1_3.jpeg","0","mat_03","1","1","1","3695.5999999940395","","","","","","","","","","","","","","","","","","","","",""
"","","","","","html-keyboard-response","10","118411","0.0-2.0-2.0-0.3","61364739837a69353c38284a","A3","batch1","spm_show_trial_num","null","<p class=block-text>Trial 4 out of 60</p>","null","","","","","","","","","","","","","","","","","","","","","","","","","",""
"","","","","","image-button-response","11","121906","0.0-2.0-2.0-1.3","61364739837a69353c38284a","A3","batch1","spm_respsonse","3493.9000000059605","img/question_1_4.jpeg","1","mat_04","2","1","1","3493.9000000059605","","","","","","","","","","","","","","","","","","","","",""
"","","","","","html-keyboard-response","12","122977","0.0-2.0-2.0-0.4","61364739837a69353c38284a","A3","batch1","spm_show_trial_num","null","<p class=block-text>Trial 5 out of 60</p>","null","","","","","","","","","","","","","","","","","","","","","","","","","",""
"","","","","","image-button-response","13","126649","0.0-2.0-2.0-1.4","61364739837a69353c38284a","A3","batch1","spm_respsonse","3670.2999999821186","img/question_1_5.jpeg","5","mat_05","6","1","1","3670.2999999821186","","","","","","","","","","","","","","","","","","","","",""
"","","","","","html-keyboard-response","14","127717","0.0-2.0-2.0-0.5","61364739837a69353c38284a","A3","batch1","spm_show_trial_num","null","<p class=block-text>Trial 6 out of 60</p>","null","","","","","","","","","","","","","","","","","","","","","","","","","",""
"","","","","","image-button-response","15","132548","0.0-2.0-2.0-1.5","61364739837a69353c38284a","A3","batch1","spm_respsonse","4828.9000000059605","img/question_1_6.jpeg","2","mat_06","3","1","1","4828.9000000059605","","","","","","","","","","","","","","","","","","","","",""
"","","","","","html-keyboard-response","16","133612","0.0-2.0-2.0-0.6","61364739837a69353c38284a","A3","batch1","spm_show_trial_num","null","<p class=block-text>Trial 7 out of 60</p>","null","","","","","","","","","","","","","","","","","","","","","","","","","",""
"","","","","","image-button-response","17","138350","0.0-2.0-2.0-1.6","61364739837a69353c38284a","A3","batch1","spm_respsonse","4737","img/question_1_7.jpeg","5","mat_07","6","1","1","4737","","","","","","","","","","","","","","","","","","","","",""
"","","","","","html-keyboard-response","18","139421","0.0-2.0-2.0-0.7","61364739837a69353c38284a","A3","batch1","spm_show_trial_num","null","<p class=block-text>Trial 8 out of 60</p>","null","","","","","","","","","","","","","","","","","","","","","","","","","",""
"","","","","","image-button-response","19","146687","0.0-2.0-2.0-1.7","61364739837a69353c38284a","A3","batch1","spm_respsonse","7264.300000011921","img/question_1_8.jpeg","1","mat_08","2","1","1","7264.300000011921","","","","","","","","","","","","","","","","","","","","",""
"","","","","","html-keyboard-response","20","147755","0.0-2.0-2.0-0.8","61364739837a69353c38284a","A3","batch1","spm_show_trial_num","null","<p class=block-text>Trial 9 out of 60</p>","null","","","","","","","","","","","","","","","","","","","","","","","","","",""
"","","","","","image-button-response","21","151591","0.0-2.0-2.0-1.8","61364739837a69353c38284a","A3","batch1","spm_respsonse","3834.7000000178814","img/question_1_9.jpeg","0","mat_09","1","1","1","3834.7000000178814","","","","","","","","","","","","","","","","","","","","",""
"","","","","","html-keyboard-response","22","152652","0.0-2.0-2.0-0.9","61364739837a69353c38284a","A3","batch1","spm_show_trial_num","null","<p class=block-text>Trial 10 out of 60</p>","null","","","","","","","","","","","","","","","","","","","","","","","","","",""
"","","","","","image-button-response","23","157870","0.0-2.0-2.0-1.9","61364739837a69353c38284a","A3","batch1","spm_respsonse","5216.4000000059605","img/question_1_10.jpeg","2","mat_10","3","1","1","5216.4000000059605","","","","","","","","","","","","","","","","","","","","",""
"","","","","","html-keyboard-response","24","158937","0.0-2.0-2.0-0.10","61364739837a69353c38284a","A3","batch1","spm_show_trial_num","null","<p class=block-text>Trial 11 out of 60</p>","null","","","","","","","","","","","","","","","","","","","","","","","","","",""
"","","","","","image-button-response","25","167355","0.0-2.0-2.0-1.10","61364739837a69353c38284a","A3","batch1","spm_respsonse","8416.799999982119","img/question_1_11.jpeg","3","mat_11","4","1","1","8416.799999982119","","","","","","","","","","","","","","","","","","","","",""
"","","","","","html-keyboard-response","26","168433","0.0-2.0-2.0-0.11","61364739837a69353c38284a","A3","batch1","spm_show_trial_num","null","<p class=block-text>Trial 12 out of 60</p>","null","","","","","","","","","","","","","","","","","","","","","","","","","",""
"","","","","","image-button-response","27","181416","0.0-2.0-2.0-1.11","61364739837a69353c38284a","A3","batch1","spm_respsonse","12980.40000000596","img/question_1_12.jpeg","4","mat_12","5","1","1","12980.40000000596","","","","","","","","","","","","","","","","","","","","",""
"","","","","","html-keyboard-response","28","182469","0.0-2.0-2.0-0.12","61364739837a69353c38284a","A3","batch1","spm_show_trial_num","null","<p class=block-text>Trial 13 out of 60</p>","null","","","","","","","","","","","","","","","","","","","","","","","","","",""
"","","","","","image-button-response","29","186767","0.0-2.0-2.0-1.12","61364739837a69353c38284a","A3","batch1","spm_respsonse","4296.9000000059605","img/question_2_1.jpeg","1","mat_13","2","1","1","4296.9000000059605","","","","","","","","","","","","","","","","","","","","",""
"","","","","","html-keyboard-response","30","187833","0.0-2.0-2.0-0.13","61364739837a69353c38284a","A3","batch1","spm_show_trial_num","null","<p class=block-text>Trial 14 out of 60</p>","null","","","","","","","","","","","","","","","","","","","","","","","","","",""
"","","","","","image-button-response","31","193052","0.0-2.0-2.0-1.13","61364739837a69353c38284a","A3","batch1","spm_respsonse","5218.300000011921","img/question_2_2.jpeg","5","mat_14","6","1","1","5218.300000011921","","","","","","","","","","","","","","","","","","","","",""
"","","","","","html-keyboard-response","32","194107","0.0-2.0-2.0-0.14","61364739837a69353c38284a","A3","batch1","spm_show_trial_num","null","<p class=block-text>Trial 15 out of 60</p>","null","","","","","","","","","","","","","","","","","","","","","","","","","",""
"","","","","","image-button-response","33","197778","0.0-2.0-2.0-1.14","61364739837a69353c38284a","A3","batch1","spm_respsonse","3669.300000011921","img/question_2_3.jpeg","0","mat_15","1","1","1","3669.300000011921","","","","","","","","","","","","","","","","","","","","",""
"","","","","","html-keyboard-response","34","198843","0.0-2.0-2.0-0.15","61364739837a69353c38284a","A3","batch1","spm_show_trial_num","null","<p class=block-text>Trial 16 out of 60</p>","null","","","","","","","","","","","","","","","","","","","","","","","","","",""
"","","","","","image-button-response","35","202780","0.0-2.0-2.0-1.15","61364739837a69353c38284a","A3","batch1","spm_respsonse","3935.5999999940395","img/question_2_4.jpeg","1","mat_16","2","1","1","3935.5999999940395","","","","","","","","","","","","","","","","","","","","",""
"","","","","","html-keyboard-response","36","203848","0.0-2.0-2.0-0.16","61364739837a69353c38284a","A3","batch1","spm_show_trial_num","null","<p class=block-text>Trial 17 out of 60</p>","null","","","","","","","","","","","","","","","","","","","","","","","","","",""
"","","","","","image-button-response","37","210333","0.0-2.0-2.0-1.16","61364739837a69353c38284a","A3","batch1","spm_respsonse","6483.299999982119","img/question_2_5.jpeg","0","mat_17","1","1","1","6483.299999982119","","","","","","","","","","","","","","","","","","","","",""
"","","","","","html-keyboard-response","38","211405","0.0-2.0-2.0-0.17","61364739837a69353c38284a","A3","batch1","spm_show_trial_num","null","<p class=block-text>Trial 18 out of 60</p>","null","","","","","","","","","","","","","","","","","","","","","","","","","",""
"","","","","","image-button-response","39","222735","0.0-2.0-2.0-1.17","61364739837a69353c38284a","A3","batch1","spm_respsonse","11328.699999988079","img/question_2_6.jpeg","2","mat_18","3","1","1","11328.699999988079","","","","","","","","","","","","","","","","","","","","",""
"","","","","","html-keyboard-response","40","223798","0.0-2.0-2.0-0.18","61364739837a69353c38284a","A3","batch1","spm_show_trial_num","null","<p class=block-text>Trial 19 out of 60</p>","null","","","","","","","","","","","","","","","","","","","","","","","","","",""
"","","","","","image-button-response","41","231137","0.0-2.0-2.0-1.18","61364739837a69353c38284a","A3","batch1","spm_respsonse","7337.300000011921","img/question_2_7.jpeg","4","mat_19","5","1","1","7337.300000011921","","","","","","","","","","","","","","","","","","","","",""
"","","","","","html-keyboard-response","42","232198","0.0-2.0-2.0-0.19","61364739837a69353c38284a","A3","batch1","spm_show_trial_num","null","<p class=block-text>Trial 20 out of 60</p>","null","","","","","","","","","","","","","","","","","","","","","","","","","",""
"","","","","","image-button-response","43","240390","0.0-2.0-2.0-1.19","61364739837a69353c38284a","A3","batch1","spm_respsonse","8191.199999988079","img/question_2_8.jpeg","4","mat_20","6","0","0","8191.199999988079","","","","","","","","","","","","","","","","","","","","",""
"","","","","","html-keyboard-response","44","241443","0.0-2.0-2.0-0.20","61364739837a69353c38284a","A3","batch1","spm_show_trial_num","null","<p class=block-text>Trial 21 out of 60</p>","null","","","","","","","","","","","","","","","","","","","","","","","","","",""
"","","","","","image-button-response","45","246511","0.0-2.0-2.0-1.20","61364739837a69353c38284a","A3","batch1","spm_respsonse","5067","img/question_2_9.jpeg","3","mat_21","4","1","1","5067","","","","","","","","","","","","","","","","","","","","",""
"","","","","","html-keyboard-response","46","247581","0.0-2.0-2.0-0.21","61364739837a69353c38284a","A3","batch1","spm_show_trial_num","null","<p class=block-text>Trial 22 out of 60</p>","null","","","","","","","","","","","","","","","","","","","","","","","","","",""
"","","","","","image-button-response","47","253904","0.0-2.0-2.0-1.21","61364739837a69353c38284a","A3","batch1","spm_respsonse","6320.800000011921","img/question_2_10.jpeg","2","mat_22","3","1","1","6320.800000011921","","","","","","","","","","","","","","","","","","","","",""
"","","","","","html-keyboard-response","48","254972","0.0-2.0-2.0-0.22","61364739837a69353c38284a","A3","batch1","spm_show_trial_num","null","<p class=block-text>Trial 23 out of 60</p>","null","","","","","","","","","","","","","","","","","","","","","","","","","",""
"","","","","","image-button-response","49","264711","0.0-2.0-2.0-1.22","61364739837a69353c38284a","A3","batch1","spm_respsonse","9738.199999988079","img/question_2_11.jpeg","3","mat_23","4","1","1","9738.199999988079","","","","","","","","","","","","","","","","","","","","",""
"","","","","","html-keyboard-response","50","265769","0.0-2.0-2.0-0.23","61364739837a69353c38284a","A3","batch1","spm_show_trial_num","null","<p class=block-text>Trial 24 out of 60</p>","null","","","","","","","","","","","","","","","","","","","","","","","","","",""
"","","","","","image-button-response","51","280899","0.0-2.0-2.0-1.23","61364739837a69353c38284a","A3","batch1","spm_respsonse","15128.200000017881","img/question_2_12.jpeg","4","mat_24","5","1","1","15128.200000017881","","","","","","","","","","","","","","","","","","","","",""
"","","","","","html-button-response","52","283229","0.0-2.0-3.0","61364739837a69353c38284a","A3","batch1","attention_check","2065.5999999940395","<p class = block-text>Attention check: Please choose 1<br></p>","0","","","true","","","","","","","","","","","","","","","","","","","","","","",""
"","","","","","html-keyboard-response","53","284041","0.0-2.0-4.0-0.0","61364739837a69353c38284a","A3","batch1","spm_show_trial_num","null","<p class=block-text>Trial 25 out of 60</p>","null","","","","","","","","","","","","","","","","","","","","","","","","","",""
"","","","","","image-button-response","54","291110","0.0-2.0-4.0-1.0","61364739837a69353c38284a","A3","batch1","spm_respsonse","7066.5999999940395","img/question_3_1.jpeg","7","mat_25","8","1","1","7066.5999999940395","","","","","","","","","","","","","","","","","","","","",""
"","","","","","html-keyboard-response","55","292177","0.0-2.0-4.0-0.1","61364739837a69353c38284a","A3","batch1","spm_show_trial_num","null","<p class=block-text>Trial 26 out of 60</p>","null","","","","","","","","","","","","","","","","","","","","","","","","","",""
"","","","","","image-button-response","56","304076","0.0-2.0-4.0-1.1","61364739837a69353c38284a","A3","batch1","spm_respsonse","11897.59999999404","img/question_3_2.jpeg","1","mat_26","2","1","1","11897.59999999404","","","","","","","","","","","","","","","","","","","","",""
"","","","","","html-keyboard-response","57","305139","0.0-2.0-4.0-0.2","61364739837a69353c38284a","A3","batch1","spm_show_trial_num","null","<p class=block-text>Trial 27 out of 60</p>","null","","","","","","","","","","","","","","","","","","","","","","","","","",""
"","","","","","image-button-response","58","323203","0.0-2.0-4.0-1.2","61364739837a69353c38284a","A3","batch1","spm_respsonse","18062.90000000596","img/question_3_3.jpeg","2","mat_27","3","1","1","18062.90000000596","","","","","","","","","","","","","","","","","","","","",""
"","","","","","html-keyboard-response","59","324270","0.0-2.0-4.0-0.3","61364739837a69353c38284a","A3","batch1","spm_show_trial_num","null","<p class=block-text>Trial 28 out of 60</p>","null","","","","","","","","","","","","","","","","","","","","","","","","","",""
"","","","","","image-button-response","60","348383","0.0-2.0-4.0-1.3","61364739837a69353c38284a","A3","batch1","spm_respsonse","24111.69999998808","img/question_3_4.jpeg","7","mat_28","8","1","1","24111.69999998808","","","","","","","","","","","","","","","","","","","","",""
"","","","","","html-keyboard-response","61","349449","0.0-2.0-4.0-0.4","61364739837a69353c38284a","A3","batch1","spm_show_trial_num","null","<p class=block-text>Trial 29 out of 60</p>","null","","","","","","","","","","","","","","","","","","","","","","","","","",""
"","","","","","image-button-response","62","365644","0.0-2.0-4.0-1.4","61364739837a69353c38284a","A3","batch1","spm_respsonse","16194.199999988079","img/question_3_5.jpeg","6","mat_29","7","1","1","16194.199999988079","","","","","","","","","","","","","","","","","","","","",""
"","","","","","html-keyboard-response","63","366703","0.0-2.0-4.0-0.5","61364739837a69353c38284a","A3","batch1","spm_show_trial_num","null","<p class=block-text>Trial 30 out of 60</p>","null","","","","","","","","","","","","","","","","","","","","","","","","","",""
"","","","","","image-button-response","64","383488","0.0-2.0-4.0-1.5","61364739837a69353c38284a","A3","batch1","spm_respsonse","16782.5","img/question_3_6.jpeg","3","mat_30","4","1","1","16782.5","","","","","","","","","","","","","","","","","","","","",""
"","","","","","html-keyboard-response","65","384556","0.0-2.0-4.0-0.6","61364739837a69353c38284a","A3","batch1","spm_show_trial_num","null","<p class=block-text>Trial 31 out of 60</p>","null","","","","","","","","","","","","","","","","","","","","","","","","","",""
"","","","","","image-button-response","66","392029","0.0-2.0-4.0-1.6","61364739837a69353c38284a","A3","batch1","spm_respsonse","7472.4000000059605","img/question_3_7.jpeg","4","mat_31","5","1","1","7472.4000000059605","","","","","","","","","","","","","","","","","","","","",""
"","","","","","html-keyboard-response","67","393092","0.0-2.0-4.0-0.7","61364739837a69353c38284a","A3","batch1","spm_show_trial_num","null","<p class=block-text>Trial 32 out of 60</p>","null","","","","","","","","","","","","","","","","","","","","","","","","","",""
"","","","","","image-button-response","68","418665","0.0-2.0-4.0-1.7","61364739837a69353c38284a","A3","batch1","spm_respsonse","25570.899999976158","img/question_3_8.jpeg","0","mat_32","1","1","1","25570.899999976158","","","","","","","","","","","","","","","","","","","","",""
"","","","","","html-keyboard-response","69","419718","0.0-2.0-4.0-0.8","61364739837a69353c38284a","A3","batch1","spm_show_trial_num","null","<p class=block-text>Trial 33 out of 60</p>","null","","","","","","","","","","","","","","","","","","","","","","","","","",""
"","","","","","image-button-response","70","434804","0.0-2.0-4.0-1.8","61364739837a69353c38284a","A3","batch1","spm_respsonse","15084","img/question_3_9.jpeg","6","mat_33","7","1","1","15084","","","","","","","","","","","","","","","","","","","","",""
"","","","","","html-keyboard-response","71","435866","0.0-2.0-4.0-0.9","61364739837a69353c38284a","A3","batch1","spm_show_trial_num","null","<p class=block-text>Trial 34 out of 60</p>","null","","","","","","","","","","","","","","","","","","","","","","","","","",""
"","","","","","image-button-response","72","492019","0.0-2.0-4.0-1.9","61364739837a69353c38284a","A3","batch1","spm_respsonse","56150.89999997616","img/question_3_10.jpeg","5","mat_34","6","1","1","56150.89999997616","","","","","","","","","","","","","","","","","","","","",""
"","","","","","html-keyboard-response","73","493079","0.0-2.0-4.0-0.10","61364739837a69353c38284a","A3","batch1","spm_show_trial_num","null","<p class=block-text>Trial 35 out of 60</p>","null","","","","","","","","","","","","","","","","","","","","","","","","","",""
"","","","","","image-button-response","74","523224","0.0-2.0-4.0-1.10","61364739837a69353c38284a","A3","batch1","spm_respsonse","30143.19999998808","img/question_3_11.jpeg","0","mat_35","1","1","1","30143.19999998808","","","","","","","","","","","","","","","","","","","","",""
"","","","","","html-keyboard-response","75","524291","0.0-2.0-4.0-0.11","61364739837a69353c38284a","A3","batch1","spm_show_trial_num","null","<p class=block-text>Trial 36 out of 60</p>","null","","","","","","","","","","","","","","","","","","","","","","","","","",""
"","","","","","image-button-response","76","552695","0.0-2.0-4.0-1.11","61364739837a69353c38284a","A3","batch1","spm_respsonse","28402","img/question_3_12.jpeg","1","mat_36","2","1","1","28402","","","","","","","","","","","","","","","","","","","","",""
"","","","","","html-keyboard-response","77","553756","0.0-2.0-4.0-0.12","61364739837a69353c38284a","A3","batch1","spm_show_trial_num","null","<p class=block-text>Trial 37 out of 60</p>","null","","","","","","","","","","","","","","","","","","","","","","","","","",""
"","","","","","image-button-response","78","560387","0.0-2.0-4.0-1.12","61364739837a69353c38284a","A3","batch1","spm_respsonse","6629.199999988079","img/question_4_1.jpeg","2","mat_37","3","1","1","6629.199999988079","","","","","","","","","","","","","","","","","","","","",""
"","","","","","html-keyboard-response","79","561454","0.0-2.0-4.0-0.13","61364739837a69353c38284a","A3","batch1","spm_show_trial_num","null","<p class=block-text>Trial 38 out of 60</p>","null","","","","","","","","","","","","","","","","","","","","","","","","","",""
"","","","","","image-button-response","80","571980","0.0-2.0-4.0-1.13","61364739837a69353c38284a","A3","batch1","spm_respsonse","10524.600000023842","img/question_4_2.jpeg","3","mat_38","4","1","1","10524.600000023842","","","","","","","","","","","","","","","","","","","","",""
"","","","","","html-keyboard-response","81","573057","0.0-2.0-4.0-0.14","61364739837a69353c38284a","A3","batch1","spm_show_trial_num","null","<p class=block-text>Trial 39 out of 60</p>","null","","","","","","","","","","","","","","","","","","","","","","","","","",""
"","","","","","image-button-response","82","579633","0.0-2.0-4.0-1.14","61364739837a69353c38284a","A3","batch1","spm_respsonse","6573.800000011921","img/question_4_3.jpeg","2","mat_39","3","1","1","6573.800000011921","","","","","","","","","","","","","","","","","","","","",""
"","","","","","html-keyboard-response","83","580689","0.0-2.0-4.0-0.15","61364739837a69353c38284a","A3","batch1","spm_show_trial_num","null","<p class=block-text>Trial 40 out of 60</p>","null","","","","","","","","","","","","","","","","","","","","","","","","","",""
"","","","","","image-button-response","84","588757","0.0-2.0-4.0-1.15","61364739837a69353c38284a","A3","batch1","spm_respsonse","8065.699999988079","img/question_4_4.jpeg","6","mat_40","7","1","1","8065.699999988079","","","","","","","","","","","","","","","","","","","","",""
"","","","","","html-keyboard-response","85","589815","0.0-2.0-4.0-0.16","61364739837a69353c38284a","A3","batch1","spm_show_trial_num","null","<p class=block-text>Trial 41 out of 60</p>","null","","","","","","","","","","","","","","","","","","","","","","","","","",""
"","","","","","image-button-response","86","602832","0.0-2.0-4.0-1.16","61364739837a69353c38284a","A3","batch1","spm_respsonse","13015.800000011921","img/question_4_5.jpeg","7","mat_41","8","1","1","13015.800000011921","","","","","","","","","","","","","","","","","","","","",""
"","","","","","html-keyboard-response","87","603903","0.0-2.0-4.0-0.17","61364739837a69353c38284a","A3","batch1","spm_show_trial_num","null","<p class=block-text>Trial 42 out of 60</p>","null","","","","","","","","","","","","","","","","","","","","","","","","","",""
"","","","","","image-button-response","88","618328","0.0-2.0-4.0-1.17","61364739837a69353c38284a","A3","batch1","spm_respsonse","14423","img/question_4_6.jpeg","5","mat_42","6","1","1","14423","","","","","","","","","","","","","","","","","","","","",""
"","","","","","html-keyboard-response","89","619406","0.0-2.0-4.0-0.18","61364739837a69353c38284a","A3","batch1","spm_show_trial_num","null","<p class=block-text>Trial 43 out of 60</p>","null","","","","","","","","","","","","","","","","","","","","","","","","","",""
"","","","","","image-button-response","90","631694","0.0-2.0-4.0-1.18","61364739837a69353c38284a","A3","batch1","spm_respsonse","12285.5","img/question_4_7.jpeg","4","mat_43","5","1","1","12285.5","","","","","","","","","","","","","","","","","","","","",""
"","","","","","html-keyboard-response","91","632746","0.0-2.0-4.0-0.19","61364739837a69353c38284a","A3","batch1","spm_show_trial_num","null","<p class=block-text>Trial 44 out of 60</p>","null","","","","","","","","","","","","","","","","","","","","","","","","","",""
"","","","","","image-button-response","92","651452","0.0-2.0-4.0-1.19","61364739837a69353c38284a","A3","batch1","spm_respsonse","18703.69999998808","img/question_4_8.jpeg","3","mat_44","4","1","1","18703.69999998808","","","","","","","","","","","","","","","","","","","","",""
"","","","","","html-keyboard-response","93","652516","0.0-2.0-4.0-0.20","61364739837a69353c38284a","A3","batch1","spm_show_trial_num","null","<p class=block-text>Trial 45 out of 60</p>","null","","","","","","","","","","","","","","","","","","","","","","","","","",""
"","","","","","image-button-response","94","694663","0.0-2.0-4.0-1.20","61364739837a69353c38284a","A3","batch1","spm_respsonse","42145.29999998212","img/question_4_9.jpeg","0","mat_45","1","1","1","42145.29999998212","","","","","","","","","","","","","","","","","","","","",""
"","","","","","html-keyboard-response","95","695731","0.0-2.0-4.0-0.21","61364739837a69353c38284a","A3","batch1","spm_show_trial_num","null","<p class=block-text>Trial 46 out of 60</p>","null","","","","","","","","","","","","","","","","","","","","","","","","","",""
"","","","","","image-button-response","96","728894","0.0-2.0-4.0-1.21","61364739837a69353c38284a","A3","batch1","spm_respsonse","33161.5","img/question_4_10.jpeg","1","mat_46","2","1","1","33161.5","","","","","","","","","","","","","","","","","","","","",""
"","","","","","html-keyboard-response","97","729959","0.0-2.0-4.0-0.22","61364739837a69353c38284a","A3","batch1","spm_show_trial_num","null","<p class=block-text>Trial 47 out of 60</p>","null","","","","","","","","","","","","","","","","","","","","","","","","","",""
"","","","","","image-button-response","98","781166","0.0-2.0-4.0-1.22","61364739837a69353c38284a","A3","batch1","spm_respsonse","51205","img/question_4_11.jpeg","1","mat_47","5","0","0","51205","","","","","","","","","","","","","","","","","","","","",""
"","","","","","html-keyboard-response","99","782230","0.0-2.0-4.0-0.23","61364739837a69353c38284a","A3","batch1","spm_show_trial_num","null","<p class=block-text>Trial 48 out of 60</p>","null","","","","","","","","","","","","","","","","","","","","","","","","","",""
"","","","","","image-button-response","100","825786","0.0-2.0-4.0-1.23","61364739837a69353c38284a","A3","batch1","spm_respsonse","43554.40000000596","img/question_4_12.jpeg","0","mat_48","6","0","0","43554.40000000596","","","","","","","","","","","","","","","","","","","","",""
"","","","","","html-keyboard-response","101","826849","0.0-2.0-4.0-0.24","61364739837a69353c38284a","A3","batch1","spm_show_trial_num","null","<p class=block-text>Trial 49 out of 60</p>","null","","","","","","","","","","","","","","","","","","","","","","","","","",""
"","","","","","image-button-response","102","839324","0.0-2.0-4.0-1.24","61364739837a69353c38284a","A3","batch1","spm_respsonse","12473","img/question_5_1.jpeg","6","mat_49","7","1","1","12473","","","","","","","","","","","","","","","","","","","","",""
"","","","","","html-keyboard-response","103","840392","0.0-2.0-4.0-0.25","61364739837a69353c38284a","A3","batch1","spm_show_trial_num","null","<p class=block-text>Trial 50 out of 60</p>","null","","","","","","","","","","","","","","","","","","","","","","","","","",""
"","","","","","image-button-response","104","856573","0.0-2.0-4.0-1.25","61364739837a69353c38284a","A3","batch1","spm_respsonse","16179.800000011921","img/question_5_2.jpeg","5","mat_50","6","1","1","16179.800000011921","","","","","","","","","","","","","","","","","","","","",""
"","","","","","html-keyboard-response","105","857643","0.0-2.0-4.0-0.26","61364739837a69353c38284a","A3","batch1","spm_show_trial_num","null","<p class=block-text>Trial 51 out of 60</p>","null","","","","","","","","","","","","","","","","","","","","","","","","","",""
"","","","","","image-button-response","106","866514","0.0-2.0-4.0-1.26","61364739837a69353c38284a","A3","batch1","spm_respsonse","8869.5","img/question_5_3.jpeg","7","mat_51","8","1","1","8869.5","","","","","","","","","","","","","","","","","","","","",""
"","","","","","html-keyboard-response","107","867583","0.0-2.0-4.0-0.27","61364739837a69353c38284a","A3","batch1","spm_show_trial_num","null","<p class=block-text>Trial 52 out of 60</p>","null","","","","","","","","","","","","","","","","","","","","","","","","","",""
"","","","","","image-button-response","108","892268","0.0-2.0-4.0-1.27","61364739837a69353c38284a","A3","batch1","spm_respsonse","24682.5","img/question_5_4.jpeg","1","mat_52","2","1","1","24682.5","","","","","","","","","","","","","","","","","","","","",""
"","","","","","html-keyboard-response","109","893333","0.0-2.0-4.0-0.28","61364739837a69353c38284a","A3","batch1","spm_show_trial_num","null","<p class=block-text>Trial 53 out of 60</p>","null","","","","","","","","","","","","","","","","","","","","","","","","","",""
"","","","","","image-button-response","110","901049","0.0-2.0-4.0-1.28","61364739837a69353c38284a","A3","batch1","spm_respsonse","7713.699999988079","img/question_5_5.jpeg","0","mat_53","1","1","1","7713.699999988079","","","","","","","","","","","","","","","","","","","","",""
"","","","","","html-keyboard-response","111","902109","0.0-2.0-4.0-0.29","61364739837a69353c38284a","A3","batch1","spm_show_trial_num","null","<p class=block-text>Trial 54 out of 60</p>","null","","","","","","","","","","","","","","","","","","","","","","","","","",""
"","","","","","image-button-response","112","923709","0.0-2.0-4.0-1.29","61364739837a69353c38284a","A3","batch1","spm_respsonse","21599.09999999404","img/question_5_6.jpeg","4","mat_54","5","1","1","21599.09999999404","","","","","","","","","","","","","","","","","","","","",""
"","","","","","html-keyboard-response","113","924776","0.0-2.0-4.0-0.30","61364739837a69353c38284a","A3","batch1","spm_show_trial_num","null","<p class=block-text>Trial 55 out of 60</p>","null","","","","","","","","","","","","","","","","","","","","","","","","","",""
"","","","","","image-button-response","114","976191","0.0-2.0-4.0-1.30","61364739837a69353c38284a","A3","batch1","spm_respsonse","51412.59999999404","img/question_5_7.jpeg","0","mat_55","1","1","1","51412.59999999404","","","","","","","","","","","","","","","","","","","","",""
"","","","","","html-keyboard-response","115","977244","0.0-2.0-4.0-0.31","61364739837a69353c38284a","A3","batch1","spm_show_trial_num","null","<p class=block-text>Trial 56 out of 60</p>","null","","","","","","","","","","","","","","","","","","","","","","","","","",""
"","","","","","image-button-response","116","1014380","0.0-2.0-4.0-1.31","61364739837a69353c38284a","A3","batch1","spm_respsonse","37134.20000001788","img/question_5_8.jpeg","5","mat_56","6","1","1","37134.20000001788","","","","","","","","","","","","","","","","","","","","",""
"","","","","","html-keyboard-response","117","1015441","0.0-2.0-4.0-0.32","61364739837a69353c38284a","A3","batch1","spm_show_trial_num","null","<p class=block-text>Trial 57 out of 60</p>","null","","","","","","","","","","","","","","","","","","","","","","","","","",""
"","","","","","image-button-response","118","1065940","0.0-2.0-4.0-1.32","61364739837a69353c38284a","A3","batch1","spm_respsonse","50496.70000001788","img/question_5_9.jpeg","2","mat_57","3","1","1","50496.70000001788","","","","","","","","","","","","","","","","","","","","",""
"","","","","","html-keyboard-response","119","1067010","0.0-2.0-4.0-0.33","61364739837a69353c38284a","A3","batch1","spm_show_trial_num","null","<p class=block-text>Trial 58 out of 60</p>","null","","","","","","","","","","","","","","","","","","","","","","","","","",""
"","","","","","image-button-response","120","1125394","0.0-2.0-4.0-1.33","61364739837a69353c38284a","A3","batch1","spm_respsonse","58382.5","img/question_5_10.jpeg","6","mat_58","2","0","0","58382.5","","","","","","","","","","","","","","","","","","","","",""
"","","","","","html-keyboard-response","121","1126458","0.0-2.0-4.0-0.34","61364739837a69353c38284a","A3","batch1","spm_show_trial_num","null","<p class=block-text>Trial 59 out of 60</p>","null","","","","","","","","","","","","","","","","","","","","","","","","","",""
"","","","","","image-button-response","122","1240866","0.0-2.0-4.0-1.34","61364739837a69353c38284a","A3","batch1","spm_respsonse","114405.80000001192","img/question_5_11.jpeg","1","mat_59","4","0","0","114405.80000001192","","","","","","","","","","","","","","","","","","","","",""
"","","","","","html-keyboard-response","123","1241932","0.0-2.0-4.0-0.35","61364739837a69353c38284a","A3","batch1","spm_show_trial_num","null","<p class=block-text>Trial 60 out of 60</p>","null","","","","","","","","","","","","","","","","","","","","","","","","","",""
"","","","","","image-button-response","124","1332006","0.0-2.0-4.0-1.35","61364739837a69353c38284a","A3","batch1","spm_respsonse","90071.30000001192","img/question_5_12.jpeg","4","mat_60","5","1","1","90071.30000001192","","","","","","","","","","","","","","","","","","","","",""
"","","","","","html-button-response","125","1335320","0.0-2.0-5.0","61364739837a69353c38284a","A3","batch1","spm_goodbye","3051.899999976158","<p class= block-text>This concludes the Standard Progressive Matrix game. Thank you for your responses!<br> When you are ready, click the button continue</p>","0","","","","","","","","","","","","","","","","","","","","","","","","","",""
"true","","","","","fullscreen","126","1338388","0.0-3.0-0.0","61364739837a69353c38284a","A3","batch1","","","","","","","","","","","","","","","","","","","","","","","","","","","","","",""
"","","","","","instructions","127","1415268","0.0-3.0-1.0-0.0-0.0","61364739837a69353c38284a","A3","batch1","tol-instructions","76879.5","","","","","","","","[{""page_index"":0,""viewing_time"":21407.79999998212},{""page_index"":1,""viewing_time"":5839.800000011921},{""page_index"":2,""viewing_time"":4487.799999982119},{""page_index"":3,""viewing_time"":12580.800000011921},{""page_index"":4,""viewing_time"":8495.5},{""page_index"":5,""viewing_time"":20385.69999998808},{""page_index"":6,""viewing_time"":3681.800000011921}]","","","","","","","","","","","","","","","","","","","",""
"","","","","","html-button-response","128","1416449","0.0-3.0-1.0-1.0-0.0","61364739837a69353c38284a","A3","batch1","tol_enter_quiz","1180.199999988079","<p class=block-text> Let's answer a few questions <br>","0","","","","","","","","","","","","","","","","","","","","","","","","","",""
"","","","","","html-button-response","129","1420163","0.0-3.0-1.0-1.0-1.0","61364739837a69353c38284a","A3","batch1","tol_quiz","3714.0999999940395","<p class = block-text>True or False: You can only move the ball on top of a peg. <br></p>","1","","","false","","","","","","","","","","","","","","","","","","","","","","",""
"","","","","","html-button-response","130","1423048","0.0-3.0-1.0-1.0-2.0","61364739837a69353c38284a","A3","batch1","tol_quiz_feedback","2883.600000023842","<p class = block-text>Incorrect. Remember, you can only move the ball on top of a peg.</p>","0","","","","","","","","","","","","","","","","","","","","","","","","","",""
"","","","","","html-button-response","131","1426324","0.0-3.0-1.0-1.0-3.0","61364739837a69353c38284a","A3","batch1","tol_quiz","3275","<p class = block-text>True or False: You should try to match your board with the target board with fewest moves possible. <br></p>","0","","","true","","","","","","","","","","","","","","","","","","","","","","",""
"","","","","","html-button-response","132","1427456","0.0-3.0-1.0-1.0-4.0","61364739837a69353c38284a","A3","batch1","tol_quiz_feedback","1130.699999988079","<p class = block-text>Correct! </p>","0","","","","","","","","","","","","","","","","","","","","","","","","","",""
"","","","","","html-button-response","133","1429438","0.0-3.0-1.0-2.0-0.0","61364739837a69353c38284a","A3","batch1","","1981.7000000178814","<p class = block-text>You made too many incorrect choices.</p><p class = block-text>You will now repeat the instructions and quiz</p>","0","","","","","","","","","","","","","","","","","","","","","","","","","",""
"","","","","","instructions","134","1487094","0.0-3.0-1.1-0.1-0.1","61364739837a69353c38284a","A3","batch1","tol-instructions","57655.20000001788","","","","","","","","[{""page_index"":0,""viewing_time"":9386.100000023842},{""page_index"":1,""viewing_time"":5965.5999999940395},{""page_index"":2,""viewing_time"":3556.7999999821186},{""page_index"":3,""viewing_time"":10299.40000000596},{""page_index"":4,""viewing_time"":8209.700000017881},{""page_index"":5,""viewing_time"":18082.399999976158},{""page_index"":6,""viewing_time"":2155.100000023842}]","","","","","","","","","","","","","","","","","","","",""
"","","","","","html-button-response","135","1488245","0.0-3.0-1.1-1.1-0.1","61364739837a69353c38284a","A3","batch1","tol_enter_quiz","1150.7000000178814","<p class=block-text> Let's answer a few questions <br>","0","","","","","","","","","","","","","","","","","","","","","","","","","",""
"","","","","","html-button-response","136","1511781","0.0-3.0-1.1-1.1-1.1","61364739837a69353c38284a","A3","batch1","tol_quiz","23534.80000001192","<p class = block-text>True or False: You can only move the ball on top of a peg. <br></p>","1","","","false","","","","","","","","","","","","","","","","","","","","","","",""
"","","","","","html-button-response","137","1517317","0.0-3.0-1.1-1.1-2.1","61364739837a69353c38284a","A3","batch1","tol_quiz_feedback","5535.399999976158","<p class = block-text>Incorrect. Remember, you can only move the ball on top of a peg.</p>","0","","","","","","","","","","","","","","","","","","","","","","","","","",""
"","","","","","html-button-response","138","1520913","0.0-3.0-1.1-1.1-3.1","61364739837a69353c38284a","A3","batch1","tol_quiz","3595","<p class = block-text>True or False: You should try to match your board with the target board with fewest moves possible. <br></p>","0","","","true","","","","","","","","","","","","","","","","","","","","","","",""
"","","","","","html-button-response","139","1521845","0.0-3.0-1.1-1.1-4.1","61364739837a69353c38284a","A3","batch1","tol_quiz_feedback","931.2999999821186","<p class = block-text>Correct! </p>","0","","","","","","","","","","","","","","","","","","","","","","","","","",""
"","","","","","html-button-response","140","1525217","0.0-3.0-1.1-2.1-0.1","61364739837a69353c38284a","A3","batch1","","3371.0999999940395","<p class = block-text>You made too many incorrect choices.</p><p class = block-text>You will now repeat the instructions and quiz</p>","0","","","","","","","","","","","","","","","","","","","","","","","","","",""
"","","","","","instructions","141","1571718","0.0-3.0-1.2-0.2-0.2","61364739837a69353c38284a","A3","batch1","tol-instructions","46500.59999999404","","","","","","","","[{""page_index"":0,""viewing_time"":4545.199999988079},{""page_index"":1,""viewing_time"":5859.5999999940395},{""page_index"":2,""viewing_time"":4625.4000000059605},{""page_index"":3,""viewing_time"":11720.90000000596},{""page_index"":4,""viewing_time"":11145.59999999404},{""page_index"":5,""viewing_time"":6769.800000011921},{""page_index"":6,""viewing_time"":1834}]","","","","","","","","","","","","","","","","","","","",""
"","","","","","html-button-response","142","1572680","0.0-3.0-1.2-1.2-0.2","61364739837a69353c38284a","A3","batch1","tol_enter_quiz","960.5999999940395","<p class=block-text> Let's answer a few questions <br>","0","","","","","","","","","","","","","","","","","","","","","","","","","",""
"","","","","","html-button-response","143","1574811","0.0-3.0-1.2-1.2-1.2","61364739837a69353c38284a","A3","batch1","tol_quiz","2129.9000000059605","<p class = block-text>True or False: You can only move the ball on top of a peg. <br></p>","0","","","true","","","","","","","","","","","","","","","","","","","","","","",""
"","","","","","html-button-response","144","1576933","0.0-3.0-1.2-1.2-2.2","61364739837a69353c38284a","A3","batch1","tol_quiz_feedback","2121.2999999821186","<p class = block-text>Correct! You can only move the ball on top of a peg.</p>","0","","","","","","","","","","","","","","","","","","","","","","","","","",""
"","","","","","html-button-response","145","1580597","0.0-3.0-1.2-1.2-3.2","61364739837a69353c38284a","A3","batch1","tol_quiz","3664","<p class = block-text>True or False: You should try to match your board with the target board with fewest moves possible. <br></p>","0","","","true","","","","","","","","","","","","","","","","","","","","","","",""
"","","","","","html-button-response","146","1581731","0.0-3.0-1.2-1.2-4.2","61364739837a69353c38284a","A3","batch1","tol_quiz_feedback","1132.800000011921","<p class = block-text>Correct! </p>","0","","","","","","","","","","","","","","","","","","","","","","","","","",""
"","","","","","html-button-response","147","1586785","0.0-3.0-2.0","61364739837a69353c38284a","A3","batch1","","5053","<p class=block-text> Now that you've understood the game, let's practice a few easier examples before we start!<br> <br>","0","","","","","","","","","","","","","","","","","","","","","","","","","",""
"","","","","","single-stim-button","148","1589860","0.0-3.0-3.0-0.0","61364739837a69353c38284a","A3","batch1","tol_practice","3074","","","","","","","","","tol_peg_2","3074","3074","0","[[1,2,0],[0,0],[0]]","1","[[1,2,0],[0,0],[3]]","practice","3074","","","","","","","","","","",""
"","","","","","single-stim-button","149","1593034","0.0-3.0-3.0-1.0","61364739837a69353c38284a","A3","batch1","tol_practice","3173","","","","","","","","","tol_peg_3","3173","3173","0","[[1,2,0],[0,0],[3]]","1","[[1,2,0],[0,0],[3]]","practice","3173","","","","","","","","","","",""
"","","","","","poldrack-single-stim","150","1594047","0.0-3.0-4.0","61364739837a69353c38284a","A3","batch1","tol_feedback","-1","","","","","true","","","","","1000","1000","500","","","","","","-1","none","true","","0","","","","","",""
"","","","","","single-stim-button","151","1599443","0.0-3.0-5.0-0.0","61364739837a69353c38284a","A3","batch1","tol_practice","5396","","","","","","","","","tol_peg_1","5396","5396","0","[[1,0,0],[3,0],[0]]","2","[[0,0,0],[3,1],[2]]","practice","5396","","","","","","","","","","",""
"","","","","","single-stim-button","152","1600877","0.0-3.0-5.0-1.0","61364739837a69353c38284a","A3","batch1","tol_practice","1433","","","","","","","","","tol_peg_3","1433","1433","0","[[1,0,0],[3,0],[2]]","2","[[0,0,0],[3,1],[2]]","practice","1433","","","","","","","","","","",""
"","","","","","single-stim-button","153","1602190","0.0-3.0-5.1-0.1","61364739837a69353c38284a","A3","batch1","tol_practice","1312","","","","","","","","","tol_peg_1","1312","1312","0","[[0,0,0],[3,0],[2]]","3","[[0,0,0],[3,1],[2]]","practice","1312","","","","","","","","","","",""
"","","","","","single-stim-button","154","1603341","0.0-3.0-5.1-1.1","61364739837a69353c38284a","A3","batch1","tol_practice","1151","","","","","","","","","tol_peg_2","1151","1151","0","[[0,0,0],[3,1],[2]]","3","[[0,0,0],[3,1],[2]]","practice","1151","","","","","","","","","","",""
"","","","","","poldrack-single-stim","155","1604350","0.0-3.0-6.0","61364739837a69353c38284a","A3","batch1","tol_feedback","-1","","","","","true","","","","","1000","1000","500","","","","","","-1","none","true","","0","","","","","",""
"","","","","","single-stim-button","156","1608898","0.0-3.0-7.0-0.0","61364739837a69353c38284a","A3","batch1","tol_practice","4548","","","","","","","","","tol_peg_2","4548","4548","0","[[1,2,0],[0,0],[0]]","4","[[1,0,0],[2,0],[3]]","practice","4548","","","","","","","","","","",""
"","","","","","single-stim-button","157","1609861","0.0-3.0-7.0-1.0","61364739837a69353c38284a","A3","batch1","tol_practice","961","","","","","","","","","tol_peg_3","961","961","0","[[1,2,0],[0,0],[3]]","4","[[1,0,0],[2,0],[3]]","practice","961","","","","","","","","","","",""
"","","","","","single-stim-button","158","1610804","0.0-3.0-7.1-0.1","61364739837a69353c38284a","A3","batch1","tol_practice","942","","","","","","","","","tol_peg_1","942","942","0","[[1,0,0],[0,0],[3]]","5","[[1,0,0],[2,0],[3]]","practice","942","","","","","","","","","","",""
"","","","","","single-stim-button","159","1611623","0.0-3.0-7.1-1.1","61364739837a69353c38284a","A3","batch1","tol_practice","818","","","","","","","","","tol_peg_2","818","818","0","[[1,0,0],[2,0],[3]]","5","[[1,0,0],[2,0],[3]]","practice","818","","","","","","","","","","",""
"","","","","","poldrack-single-stim","160","1612624","0.0-3.0-8.0","61364739837a69353c38284a","A3","batch1","tol_feedback","-1","","","","","true","","","","","1000","1000","500","","","","","","-1","none","true","","0","","","","","",""
"","","","","","html-button-response","161","1616900","0.0-3.0-9.0","61364739837a69353c38284a","A3","batch1","tol_instruction","4274.699999988079","<div class = centerbox><p class = center-block-text>Great job! You are done with practice trials<br>You are about to start official trials.<br> <br> Problem <strong>1</strong> out of 25 problems</p></div>","0","","","","","","","","","","","","","","","","","","","","","","","","","",""
"","","","","","single-stim-button","162","1622919","0.0-3.0-10.0-0.0","61364739837a69353c38284a","A3","batch1","tol_tohand","5006","","","","","","","","","tol_peg_2","5006","5006","0","[[1,2,0],[0,0],[0]]","1","[[1,3,0],[2,0],[0]]","0","0","","","","","","3","","","","",""
"","","","","","single-stim-button","163","1629912","0.0-3.0-10.0-1.0","61364739837a69353c38284a","A3","batch1","tol_toboard","6992","","","","","","","","","tol_peg_1","6992","6992","0","[[1,2,3],[0,0],[0]]","1","[[1,3,0],[2,0],[0]]","0","0","","","","","","3","","","","",""
"","","","","","single-stim-button","164","1632005","0.0-3.0-10.1-0.1","61364739837a69353c38284a","A3","batch1","tol_tohand","2093","","","","","","","","","tol_peg_1","2093","2093","0","[[1,2,0],[0,0],[0]]","2","[[1,3,0],[2,0],[0]]","0","0","","","","","","3","","","","",""
"","","","","","single-stim-button","165","1636661","0.0-3.0-10.1-1.1","61364739837a69353c38284a","A3","batch1","tol_toboard","4655","","","","","","","","","tol_peg_3","4655","4655","0","[[1,2,0],[0,0],[3]]","2","[[1,3,0],[2,0],[0]]","0","0","","","","","","3","","","","",""
"","","","","","single-stim-button","166","1638352","0.0-3.0-10.2-0.2","61364739837a69353c38284a","A3","batch1","tol_tohand","1690","","","","","","","","","tol_peg_1","1690","1690","0","[[1,0,0],[0,0],[3]]","3","[[1,3,0],[2,0],[0]]","0","0","","","","","","3","","","","",""
"","","","","","single-stim-button","167","1639483","0.0-3.0-10.2-1.2","61364739837a69353c38284a","A3","batch1","tol_toboard","1131","","","","","","","","","tol_peg_2","1131","1131","0","[[1,0,0],[2,0],[3]]","3","[[1,3,0],[2,0],[0]]","0","0","","","","","","3","","","","",""
"","","","","","single-stim-button","168","1641315","0.0-3.0-10.3-0.3","61364739837a69353c38284a","A3","batch1","tol_tohand","1831","","","","","","","","","tol_peg_3","1831","1831","0","[[1,0,0],[2,0],[0]]","4","[[1,3,0],[2,0],[0]]","0","0","","","","","","3","","","","",""
"","","","","","single-stim-button","169","1642258","0.0-3.0-10.3-1.3","61364739837a69353c38284a","A3","batch1","tol_toboard","942","","","","","","","","","tol_peg_1","942","942","0","[[1,3,0],[2,0],[0]]","4","[[1,3,0],[2,0],[0]]","0","0","","","","","","3","","","","",""
"","","","","","poldrack-single-stim","170","1643259","0.0-3.0-11.0","61364739837a69353c38284a","A3","batch1","tol_feedback","-1","","","","","true","","","","","1000","1000","500","","","","","","-1","none","true","5006","10620","","","","","",""
"","","","","","html-button-response","171","1644491","0.0-3.0-12.0","61364739837a69353c38284a","A3","batch1","tol_trial_num","1231.5","<div class = centerbox><p class = center-block-text>problem <strong>2</strong> out of 25 problems</p></div>","0","","","","","","","","","","","","","","","","","","","","","","","","","",""
"","","","","","single-stim-button","172","1665347","0.0-3.0-13.0-0.0","61364739837a69353c38284a","A3","batch1","tol_tohand","20856","","","","","","","","","tol_peg_1","20856","20856","0","[[1,0,0],[3,0],[0]]","1","[[2,1,3],[0,0],[0]]","1","0","","","","","","5","","","","",""
"","","","","","single-stim-button","173","1668300","0.0-3.0-13.0-1.0","61364739837a69353c38284a","A3","batch1","tol_toboard","2953","","","","","","","","","tol_peg_3","2953","2953","0","[[1,0,0],[3,0],[2]]","1","[[2,1,3],[0,0],[0]]","1","0","","","","","","5","","","","",""
"","","","","","single-stim-button","174","1685075","0.0-3.0-13.1-0.1","61364739837a69353c38284a","A3","batch1","tol_tohand","16773","","","","","","","","","tol_peg_1","16773","16773","0","[[0,0,0],[3,0],[2]]","2","[[2,1,3],[0,0],[0]]","1","0","","","","","","5","","","","",""
"","","","","","single-stim-button","175","1685975","0.0-3.0-13.1-1.1","61364739837a69353c38284a","A3","batch1","tol_toboard","900","","","","","","","","","tol_peg_2","900","900","0","[[0,0,0],[3,1],[2]]","2","[[2,1,3],[0,0],[0]]","1","0","","","","","","5","","","","",""
"","","","","","single-stim-button","176","1686735","0.0-3.0-13.2-0.2","61364739837a69353c38284a","A3","batch1","tol_tohand","760","","","","","","","","","tol_peg_3","760","760","0","[[0,0,0],[3,1],[0]]","3","[[2,1,3],[0,0],[0]]","1","0","","","","","","5","","","","",""
"","","","","","single-stim-button","177","1687827","0.0-3.0-13.2-1.2","61364739837a69353c38284a","A3","batch1","tol_toboard","1092","","","","","","","","","tol_peg_1","1092","1092","0","[[2,0,0],[3,1],[0]]","3","[[2,1,3],[0,0],[0]]","1","0","","","","","","5","","","","",""
"","","","","","single-stim-button","178","1689071","0.0-3.0-13.3-0.3","61364739837a69353c38284a","A3","batch1","tol_tohand","1244","","","","","","","","","tol_peg_2","1244","1244","0","[[2,0,0],[3,0],[0]]","4","[[2,1,3],[0,0],[0]]","1","0","","","","","","5","","","","",""
"","","","","","single-stim-button","179","1689963","0.0-3.0-13.3-1.3","61364739837a69353c38284a","A3","batch1","tol_toboard","891","","","","","","","","","tol_peg_1","891","891","0","[[2,1,0],[3,0],[0]]","4","[[2,1,3],[0,0],[0]]","1","0","","","","","","5","","","","",""
"","","","","","single-stim-button","180","1691050","0.0-3.0-13.4-0.4","61364739837a69353c38284a","A3","batch1","tol_tohand","1087","","","","","","","","","tol_peg_2","1087","1087","0","[[2,1,0],[0,0],[0]]","5","[[2,1,3],[0,0],[0]]","1","0","","","","","","5","","","","",""
"","","","","","single-stim-button","181","1692007","0.0-3.0-13.4-1.4","61364739837a69353c38284a","A3","batch1","tol_toboard","957","","","","","","","","","tol_peg_1","957","957","0","[[2,1,3],[0,0],[0]]","5","[[2,1,3],[0,0],[0]]","1","0","","","","","","5","","","","",""
"","","","","","poldrack-single-stim","182","1693023","0.0-3.0-14.0","61364739837a69353c38284a","A3","batch1","tol_feedback","-1","","","","","true","","","","","1000","1000","500","","","","","","-1","none","true","20856","40720","","","","","",""
"","","","","","html-button-response","183","1696180","0.0-3.0-15.0","61364739837a69353c38284a","A3","batch1","tol_trial_num","3156","<div class = centerbox><p class = center-block-text>problem <strong>3</strong> out of 25 problems</p></div>","0","","","","","","","","","","","","","","","","","","","","","","","","","",""
"","","","","","single-stim-button","184","1702432","0.0-3.0-16.0-0.0","61364739837a69353c38284a","A3","batch1","tol_tohand","6251","","","","","","","","","tol_peg_1","6251","6251","0","[[2,0,0],[0,0],[1]]","1","[[1,2,0],[3,0],[0]]","2","0","","","","","","4","","","","",""
"","","","","","single-stim-button","185","1703366","0.0-3.0-16.0-1.0","61364739837a69353c38284a","A3","batch1","tol_toboard","933","","","","","","","","","tol_peg_2","933","933","0","[[2,0,0],[3,0],[1]]","1","[[1,2,0],[3,0],[0]]","2","0","","","","","","4","","","","",""
"","","","","","single-stim-button","186","1706039","0.0-3.0-16.1-0.1","61364739837a69353c38284a","A3","batch1","tol_tohand","2673","","","","","","","","","tol_peg_1","2673","2673","0","[[0,0,0],[3,0],[1]]","2","[[1,2,0],[3,0],[0]]","2","0","","","","","","4","","","","",""
"","","","","","single-stim-button","187","1708314","0.0-3.0-16.1-1.1","61364739837a69353c38284a","A3","batch1","tol_toboard","2273","","","","","","","","","tol_peg_2","2273","2273","0","[[0,0,0],[3,2],[1]]","2","[[1,2,0],[3,0],[0]]","2","0","","","","","","4","","","","",""
"","","","","","single-stim-button","188","1709434","0.0-3.0-16.2-0.2","61364739837a69353c38284a","A3","batch1","tol_tohand","1120","","","","","","","","","tol_peg_3","1120","1120","0","[[0,0,0],[3,2],[0]]","3","[[1,2,0],[3,0],[0]]","2","0","","","","","","4","","","","",""
"","","","","","single-stim-button","189","1710418","0.0-3.0-16.2-1.2","61364739837a69353c38284a","A3","batch1","tol_toboard","984","","","","","","","","","tol_peg_1","984","984","0","[[1,0,0],[3,2],[0]]","3","[[1,2,0],[3,0],[0]]","2","0","","","","","","4","","","","",""
"","","","","","single-stim-button","190","1711200","0.0-3.0-16.3-0.3","61364739837a69353c38284a","A3","batch1","tol_tohand","781","","","","","","","","","tol_peg_2","781","781","0","[[1,0,0],[3,0],[0]]","4","[[1,2,0],[3,0],[0]]","2","0","","","","","","4","","","","",""
"","","","","","single-stim-button","191","1711761","0.0-3.0-16.3-1.3","61364739837a69353c38284a","A3","batch1","tol_toboard","561","","","","","","","","","tol_peg_1","561","561","0","[[1,2,0],[3,0],[0]]","4","[[1,2,0],[3,0],[0]]","2","0","","","","","","4","","","","",""
"","","","","","poldrack-single-stim","192","1712763","0.0-3.0-17.0","61364739837a69353c38284a","A3","batch1","tol_feedback","-1","","","","","true","","","","","1000","1000","500","","","","","","-1","none","true","6251","10825","","","","","",""
"","","","","","html-button-response","193","1714213","0.0-3.0-18.0","61364739837a69353c38284a","A3","batch1","tol_trial_num","1449.5999999940395","<div class = centerbox><p class = center-block-text>problem <strong>4</strong> out of 25 problems</p></div>","0","","","","","","","","","","","","","","","","","","","","","","","","","",""
"","","","","","single-stim-button","194","1719581","0.0-3.0-19.0-0.0","61364739837a69353c38284a","A3","batch1","tol_tohand","5368","","","","","","","","","tol_peg_2","5368","5368","0","[[3,0,0],[2,0],[0]]","1","[[3,0,0],[1,0],[2]]","3","0","","","","","","3","","","","",""
"","","","","","single-stim-button","195","1720654","0.0-3.0-19.0-1.0","61364739837a69353c38284a","A3","batch1","tol_toboard","1072","","","","","","","","","tol_peg_1","1072","1072","0","[[3,1,0],[2,0],[0]]","1","[[3,0,0],[1,0],[2]]","3","0","","","","","","3","","","","",""
"","","","","","single-stim-button","196","1721534","0.0-3.0-19.1-0.1","61364739837a69353c38284a","A3","batch1","tol_tohand","878","","","","","","","","","tol_peg_2","878","878","0","[[3,1,0],[0,0],[0]]","2","[[3,0,0],[1,0],[2]]","3","0","","","","","","3","","","","",""
"","","","","","single-stim-button","197","1722156","0.0-3.0-19.1-1.1","61364739837a69353c38284a","A3","batch1","tol_toboard","622","","","","","","","","","tol_peg_3","622","622","0","[[3,1,0],[0,0],[2]]","2","[[3,0,0],[1,0],[2]]","3","0","","","","","","3","","","","",""
"","","","","","single-stim-button","198","1722947","0.0-3.0-19.2-0.2","61364739837a69353c38284a","A3","batch1","tol_tohand","791","","","","","","","","","tol_peg_1","791","791","0","[[3,0,0],[0,0],[2]]","3","[[3,0,0],[1,0],[2]]","3","0","","","","","","3","","","","",""
"","","","","","single-stim-button","199","1723608","0.0-3.0-19.2-1.2","61364739837a69353c38284a","A3","batch1","tol_toboard","660","","","","","","","","","tol_peg_2","660","660","0","[[3,0,0],[1,0],[2]]","3","[[3,0,0],[1,0],[2]]","3","0","","","","","","3","","","","",""
"","","","","","poldrack-single-stim","200","1724609","0.0-3.0-20.0","61364739837a69353c38284a","A3","batch1","tol_feedback","-1","","","","","true","","","","","1000","1000","500","","","","","","-1","none","true","5368","7037","","","","","",""
"","","","","","html-button-response","201","1725910","0.0-3.0-21.0","61364739837a69353c38284a","A3","batch1","tol_trial_num","1300.5999999940395","<div class = centerbox><p class = center-block-text>problem <strong>5</strong> out of 25 problems</p></div>","0","","","","","","","","","","","","","","","","","","","","","","","","","",""
"","","","","","single-stim-button","202","1739160","0.0-3.0-22.0-0.0","61364739837a69353c38284a","A3","batch1","tol_tohand","13248","","","","","","","","","tol_peg_2","13248","13248","0","[[1,0,0],[0,0],[3]]","1","[[0,0,0],[1,2],[3]]","4","0","","","","","","7","","","","",""
"","","","","","single-stim-button","203","1740362","0.0-3.0-22.0-1.0","61364739837a69353c38284a","A3","batch1","tol_toboard","1202","","","","","","","","","tol_peg_1","1202","1202","0","[[1,2,0],[0,0],[3]]","1","[[0,0,0],[1,2],[3]]","4","0","","","","","","7","","","","",""
"","","","","","single-stim-button","204","1742757","0.0-3.0-22.1-0.1","61364739837a69353c38284a","A3","batch1","tol_tohand","2395","","","","","","","","","tol_peg_1","2395","2395","0","[[1,0,0],[0,0],[3]]","2","[[0,0,0],[1,2],[3]]","4","0","","","","","","7","","","","",""
"","","","","","single-stim-button","205","1744418","0.0-3.0-22.1-1.1","61364739837a69353c38284a","A3","batch1","tol_toboard","1660","","","","","","","","","tol_peg_2","1660","1660","0","[[1,0,0],[2,0],[3]]","2","[[0,0,0],[1,2],[3]]","4","0","","","","","","7","","","","",""
"","","","","","single-stim-button","206","1745180","0.0-3.0-22.2-0.2","61364739837a69353c38284a","A3","batch1","tol_tohand","762","","","","","","","","","tol_peg_3","762","762","0","[[1,0,0],[2,0],[0]]","3","[[0,0,0],[1,2],[3]]","4","0","","","","","","7","","","","",""
"","","","","","single-stim-button","207","1746853","0.0-3.0-22.2-1.2","61364739837a69353c38284a","A3","batch1","tol_toboard","1672","","","","","","","","","tol_peg_1","1672","1672","0","[[1,3,0],[2,0],[0]]","3","[[0,0,0],[1,2],[3]]","4","0","","","","","","7","","","","",""
"","","","","","single-stim-button","208","1747553","0.0-3.0-22.3-0.3","61364739837a69353c38284a","A3","batch1","tol_tohand","700","","","","","","","","","tol_peg_2","700","700","0","[[1,3,0],[0,0],[0]]","4","[[0,0,0],[1,2],[3]]","4","0","","","","","","7","","","","",""
"","","","","","single-stim-button","209","1748343","0.0-3.0-22.3-1.3","61364739837a69353c38284a","A3","batch1","tol_toboard","788","","","","","","","","","tol_peg_3","788","788","0","[[1,3,0],[0,0],[2]]","4","[[0,0,0],[1,2],[3]]","4","0","","","","","","7","","","","",""
"","","","","","single-stim-button","210","1749481","0.0-3.0-22.4-0.4","61364739837a69353c38284a","A3","batch1","tol_tohand","1138","","","","","","","","","tol_peg_1","1138","1138","0","[[1,0,0],[0,0],[2]]","5","[[0,0,0],[1,2],[3]]","4","0","","","","","","7","","","","",""
"","","","","","single-stim-button","211","1750388","0.0-3.0-22.4-1.4","61364739837a69353c38284a","A3","batch1","tol_toboard","907","","","","","","","","","tol_peg_2","907","907","0","[[1,0,0],[3,0],[2]]","5","[[0,0,0],[1,2],[3]]","4","0","","","","","","7","","","","",""
"","","","","","single-stim-button","212","1756541","0.0-3.0-22.5-0.5","61364739837a69353c38284a","A3","batch1","tol_tohand","6152","","","","","","","","","tol_peg_1","6152","6152","0","[[0,0,0],[3,0],[2]]","6","[[0,0,0],[1,2],[3]]","4","0","","","","","","7","","","","",""
"","","","","","single-stim-button","213","1757434","0.0-3.0-22.5-1.5","61364739837a69353c38284a","A3","batch1","tol_toboard","892","","","","","","","","","tol_peg_2","892","892","0","[[0,0,0],[3,1],[2]]","6","[[0,0,0],[1,2],[3]]","4","0","","","","","","7","","","","",""
"","","","","","single-stim-button","214","1760396","0.0-3.0-22.6-0.6","61364739837a69353c38284a","A3","batch1","tol_tohand","2961","","","","","","","","","tol_peg_3","2961","2961","0","[[0,0,0],[3,1],[0]]","7","[[0,0,0],[1,2],[3]]","4","0","","","","","","7","","","","",""
"","","","","","single-stim-button","215","1761539","0.0-3.0-22.6-1.6","61364739837a69353c38284a","A3","batch1","tol_toboard","1142","","","","","","","","","tol_peg_1","1142","1142","0","[[2,0,0],[3,1],[0]]","7","[[0,0,0],[1,2],[3]]","4","0","","","","","","7","","","","",""
"","","","","","single-stim-button","216","1762632","0.0-3.0-22.7-0.7","61364739837a69353c38284a","A3","batch1","tol_tohand","1092","","","","","","","","","tol_peg_2","1092","1092","0","[[2,0,0],[3,0],[0]]","8","[[0,0,0],[1,2],[3]]","4","0","","","","","","7","","","","",""
"","","","","","single-stim-button","217","1765234","0.0-3.0-22.7-1.7","61364739837a69353c38284a","A3","batch1","tol_toboard","2602","","","","","","","","","tol_peg_1","2602","2602","0","[[2,1,0],[3,0],[0]]","8","[[0,0,0],[1,2],[3]]","4","0","","","","","","7","","","","",""
"","","","","","single-stim-button","218","1765943","0.0-3.0-22.8-0.8","61364739837a69353c38284a","A3","batch1","tol_tohand","708","","","","","","","","","tol_peg_2","708","708","0","[[2,1,0],[0,0],[0]]","9","[[0,0,0],[1,2],[3]]","4","0","","","","","","7","","","","",""
"","","","","","single-stim-button","219","1766747","0.0-3.0-22.8-1.8","61364739837a69353c38284a","A3","batch1","tol_toboard","804","","","","","","","","","tol_peg_3","804","804","0","[[2,1,0],[0,0],[3]]","9","[[0,0,0],[1,2],[3]]","4","0","","","","","","7","","","","",""
"","","","","","single-stim-button","220","1767969","0.0-3.0-22.9-0.9","61364739837a69353c38284a","A3","batch1","tol_tohand","1222","","","","","","","","","tol_peg_1","1222","1222","0","[[2,0,0],[0,0],[3]]","10","[[0,0,0],[1,2],[3]]","4","0","","","","","","7","","","","",""
"","","","","","single-stim-button","221","1769450","0.0-3.0-22.9-1.9","61364739837a69353c38284a","A3","batch1","tol_toboard","1480","","","","","","","","","tol_peg_2","1480","1480","0","[[2,0,0],[1,0],[3]]","10","[[0,0,0],[1,2],[3]]","4","0","","","","","","7","","","","",""
"","","","","","single-stim-button","222","1770141","0.0-3.0-22.10-0.10","61364739837a69353c38284a","A3","batch1","tol_tohand","691","","","","","","","","","tol_peg_1","691","691","0","[[0,0,0],[1,0],[3]]","11","[[0,0,0],[1,2],[3]]","4","0","","","","","","7","","","","",""
"","","","","","single-stim-button","223","1770812","0.0-3.0-22.10-1.10","61364739837a69353c38284a","A3","batch1","tol_toboard","669","","","","","","","","","tol_peg_2","669","669","0","[[0,0,0],[1,2],[3]]","11","[[0,0,0],[1,2],[3]]","4","0","","","","","","7","","","","",""
"","","","","","poldrack-single-stim","224","1771813","0.0-3.0-23.0","61364739837a69353c38284a","A3","batch1","tol_feedback","-1","","","","","true","","","","","1000","1000","500","","","","","","-1","none","true","13248","31069","","","","","",""
"","","","","","html-button-response","225","1772993","0.0-3.0-24.0","61364739837a69353c38284a","A3","batch1","tol_trial_num","1179.199999988079","<div class = centerbox><p class = center-block-text>problem <strong>6</strong> out of 25 problems</p></div>","0","","","","","","","","","","","","","","","","","","","","","","","","","",""
"","","","","","single-stim-button","226","1791359","0.0-3.0-25.0-0.0","61364739837a69353c38284a","A3","batch1","tol_tohand","18366","","","","","","","","","tol_peg_3","18366","18366","0","[[0,0,0],[1,2],[0]]","1","[[1,0,0],[2,3],[0]]","5","0","","","","","","6","","","","",""
"","","","","","single-stim-button","227","1793593","0.0-3.0-25.0-1.0","61364739837a69353c38284a","A3","batch1","tol_toboard","2233","","","","","","","","","tol_peg_1","2233","2233","0","[[3,0,0],[1,2],[0]]","1","[[1,0,0],[2,3],[0]]","5","0","","","","","","6","","","","",""
"","","","","","single-stim-button","228","1794445","0.0-3.0-25.1-0.1","61364739837a69353c38284a","A3","batch1","tol_tohand","852","","","","","","","","","tol_peg_2","852","852","0","[[3,0,0],[1,0],[0]]","2","[[1,0,0],[2,3],[0]]","5","0","","","","","","6","","","","",""
"","","","","","single-stim-button","229","1795336","0.0-3.0-25.1-1.1","61364739837a69353c38284a","A3","batch1","tol_toboard","891","","","","","","","","","tol_peg_3","891","891","0","[[3,0,0],[1,0],[2]]","2","[[1,0,0],[2,3],[0]]","5","0","","","","","","6","","","","",""
"","","","","","single-stim-button","230","1798189","0.0-3.0-25.2-0.2","61364739837a69353c38284a","A3","batch1","tol_tohand","2853","","","","","","","","","tol_peg_2","2853","2853","0","[[3,0,0],[0,0],[2]]","3","[[1,0,0],[2,3],[0]]","5","0","","","","","","6","","","","",""
"","","","","","single-stim-button","231","1799936","0.0-3.0-25.2-1.2","61364739837a69353c38284a","A3","batch1","tol_toboard","1745","","","","","","","","","tol_peg_1","1745","1745","0","[[3,1,0],[0,0],[2]]","3","[[1,0,0],[2,3],[0]]","5","0","","","","","","6","","","","",""
"","","","","","single-stim-button","232","1801358","0.0-3.0-25.3-0.3","61364739837a69353c38284a","A3","batch1","tol_tohand","1421","","","","","","","","","tol_peg_1","1421","1421","0","[[3,0,0],[0,0],[2]]","4","[[1,0,0],[2,3],[0]]","5","0","","","","","","6","","","","",""
"","","","","","single-stim-button","233","1807066","0.0-3.0-25.3-1.3","61364739837a69353c38284a","A3","batch1","tol_toboard","5707","","","","","","","","","tol_peg_2","5707","5707","0","[[3,0,0],[1,0],[2]]","4","[[1,0,0],[2,3],[0]]","5","0","","","","","","6","","","","",""
"","","","","","single-stim-button","234","1812925","0.0-3.0-25.4-0.4","61364739837a69353c38284a","A3","batch1","tol_tohand","5858","","","","","","","","","tol_peg_2","5858","5858","0","[[3,0,0],[0,0],[2]]","5","[[1,0,0],[2,3],[0]]","5","0","","","","","","6","","","","",""
"","","","","","single-stim-button","235","1813947","0.0-3.0-25.4-1.4","61364739837a69353c38284a","A3","batch1","tol_toboard","1020","","","","","","","","","tol_peg_1","1020","1020","0","[[3,1,0],[0,0],[2]]","5","[[1,0,0],[2,3],[0]]","5","0","","","","","","6","","","","",""
"","","","","","single-stim-button","236","1814827","0.0-3.0-25.5-0.5","61364739837a69353c38284a","A3","batch1","tol_tohand","879","","","","","","","","","tol_peg_3","879","879","0","[[3,1,0],[0,0],[0]]","6","[[1,0,0],[2,3],[0]]","5","0","","","","","","6","","","","",""
"","","","","","single-stim-button","237","1815439","0.0-3.0-25.5-1.5","61364739837a69353c38284a","A3","batch1","tol_toboard","612","","","","","","","","","tol_peg_2","612","612","0","[[3,1,0],[2,0],[0]]","6","[[1,0,0],[2,3],[0]]","5","0","","","","","","6","","","","",""
"","","","","","single-stim-button","238","1816550","0.0-3.0-25.6-0.6","61364739837a69353c38284a","A3","batch1","tol_tohand","1110","","","","","","","","","tol_peg_1","1110","1110","0","[[3,0,0],[2,0],[0]]","7","[[1,0,0],[2,3],[0]]","5","0","","","","","","6","","","","",""
"","","","","","single-stim-button","239","1817803","0.0-3.0-25.6-1.6","61364739837a69353c38284a","A3","batch1","tol_toboard","1252","","","","","","","","","tol_peg_3","1252","1252","0","[[3,0,0],[2,0],[1]]","7","[[1,0,0],[2,3],[0]]","5","0","","","","","","6","","","","",""
"","","","","","single-stim-button","240","1818885","0.0-3.0-25.7-0.7","61364739837a69353c38284a","A3","batch1","tol_tohand","1082","","","","","","","","","tol_peg_1","1082","1082","0","[[0,0,0],[2,0],[1]]","8","[[1,0,0],[2,3],[0]]","5","0","","","","","","6","","","","",""
"","","","","","single-stim-button","241","1821359","0.0-3.0-25.7-1.7","61364739837a69353c38284a","A3","batch1","tol_toboard","2474","","","","","","","","","tol_peg_2","2474","2474","0","[[0,0,0],[2,3],[1]]","8","[[1,0,0],[2,3],[0]]","5","0","","","","","","6","","","","",""
"","","","","","single-stim-button","242","1822591","0.0-3.0-25.8-0.8","61364739837a69353c38284a","A3","batch1","tol_tohand","1231","","","","","","","","","tol_peg_3","1231","1231","0","[[0,0,0],[2,3],[0]]","9","[[1,0,0],[2,3],[0]]","5","0","","","","","","6","","","","",""
"","","","","","single-stim-button","243","1823323","0.0-3.0-25.8-1.8","61364739837a69353c38284a","A3","batch1","tol_toboard","730","","","","","","","","","tol_peg_1","730","730","0","[[1,0,0],[2,3],[0]]","9","[[1,0,0],[2,3],[0]]","5","0","","","","","","6","","","","",""
"","","","","","poldrack-single-stim","244","1824325","0.0-3.0-26.0","61364739837a69353c38284a","A3","batch1","tol_feedback","-1","","","","","true","","","","","1000","1000","500","","","","","","-1","none","true","18366","33652","","","","","",""
"","","","","","html-button-response","245","1826126","0.0-3.0-27.0","61364739837a69353c38284a","A3","batch1","tol_trial_num","1800.7999999821186","<div class = centerbox><p class = center-block-text>problem <strong>7</strong> out of 25 problems</p></div>","0","","","","","","","","","","","","","","","","","","","","","","","","","",""
"","","","","","single-stim-button","246","1832729","0.0-3.0-28.0-0.0","61364739837a69353c38284a","A3","batch1","tol_tohand","6602","","","","","","","","","tol_peg_3","6602","6602","0","[[2,1,0],[0,0],[0]]","1","[[1,2,0],[3,0],[0]]","6","0","","","","","","5","","","","",""
"","","","","","single-stim-button","247","1833670","0.0-3.0-28.0-1.0","61364739837a69353c38284a","A3","batch1","tol_toboard","940","","","","","","","","","tol_peg_2","940","940","0","[[2,1,0],[3,0],[0]]","1","[[1,2,0],[3,0],[0]]","6","0","","","","","","5","","","","",""
"","","","","","single-stim-button","248","1835072","0.0-3.0-28.1-0.1","61364739837a69353c38284a","A3","batch1","tol_tohand","1402","","","","","","","","","tol_peg_1","1402","1402","0","[[2,0,0],[3,0],[0]]","2","[[1,2,0],[3,0],[0]]","6","0","","","","","","5","","","","",""
"","","","","","single-stim-button","249","1836203","0.0-3.0-28.1-1.1","61364739837a69353c38284a","A3","batch1","tol_toboard","1130","","","","","","","","","tol_peg_3","1130","1130","0","[[2,0,0],[3,0],[1]]","2","[[1,2,0],[3,0],[0]]","6","0","","","","","","5","","","","",""
"","","","","","single-stim-button","250","1838116","0.0-3.0-28.2-0.2","61364739837a69353c38284a","A3","batch1","tol_tohand","1911","","","","","","","","","tol_peg_1","1911","1911","0","[[0,0,0],[3,0],[1]]","3","[[1,2,0],[3,0],[0]]","6","0","","","","","","5","","","","",""
"","","","","","single-stim-button","251","1839047","0.0-3.0-28.2-1.2","61364739837a69353c38284a","A3","batch1","tol_toboard","931","","","","","","","","","tol_peg_2","931","931","0","[[0,0,0],[3,2],[1]]","3","[[1,2,0],[3,0],[0]]","6","0","","","","","","5","","","","",""
"","","","","","single-stim-button","252","1839917","0.0-3.0-28.3-0.3","61364739837a69353c38284a","A3","batch1","tol_tohand","869","","","","","","","","","tol_peg_3","869","869","0","[[0,0,0],[3,2],[0]]","4","[[1,2,0],[3,0],[0]]","6","0","","","","","","5","","","","",""
"","","","","","single-stim-button","253","1840720","0.0-3.0-28.3-1.3","61364739837a69353c38284a","A3","batch1","tol_toboard","803","","","","","","","","","tol_peg_1","803","803","0","[[1,0,0],[3,2],[0]]","4","[[1,2,0],[3,0],[0]]","6","0","","","","","","5","","","","",""
"","","","","","single-stim-button","254","1841411","0.0-3.0-28.4-0.4","61364739837a69353c38284a","A3","batch1","tol_tohand","690","","","","","","","","","tol_peg_2","690","690","0","[[1,0,0],[3,0],[0]]","5","[[1,2,0],[3,0],[0]]","6","0","","","","","","5","","","","",""
"","","","","","single-stim-button","255","1842112","0.0-3.0-28.4-1.4","61364739837a69353c38284a","A3","batch1","tol_toboard","699","","","","","","","","","tol_peg_1","699","699","0","[[1,2,0],[3,0],[0]]","5","[[1,2,0],[3,0],[0]]","6","0","","","","","","5","","","","",""
"","","","","","poldrack-single-stim","256","1843114","0.0-3.0-29.0","61364739837a69353c38284a","A3","batch1","tol_feedback","-1","","","","","true","","","","","1000","1000","500","","","","","","-1","none","true","6602","11474","","","","","",""
"","","","","","html-button-response","257","1844234","0.0-3.0-30.0","61364739837a69353c38284a","A3","batch1","tol_trial_num","1120.0999999940395","<div class = centerbox><p class = center-block-text>problem <strong>8</strong> out of 25 problems</p></div>","0","","","","","","","","","","","","","","","","","","","","","","","","","",""
"","","","","","single-stim-button","258","1849601","0.0-3.0-31.0-0.0","61364739837a69353c38284a","A3","batch1","tol_tohand","5366","","","","","","","","","tol_peg_3","5366","5366","0","[[0,0,0],[2,3],[0]]","1","[[1,2,0],[3,0],[0]]","7","0","","","","","","4","","","","",""
"","","","","","single-stim-button","259","1850868","0.0-3.0-31.0-1.0","61364739837a69353c38284a","A3","batch1","tol_toboard","1265","","","","","","","","","tol_peg_1","1265","1265","0","[[1,0,0],[2,3],[0]]","1","[[1,2,0],[3,0],[0]]","7","0","","","","","","4","","","","",""
"","","","","","single-stim-button","260","1852091","0.0-3.0-31.1-0.1","61364739837a69353c38284a","A3","batch1","tol_tohand","1223","","","","","","","","","tol_peg_2","1223","1223","0","[[1,0,0],[2,0],[0]]","2","[[1,2,0],[3,0],[0]]","7","0","","","","","","4","","","","",""
"","","","","","single-stim-button","261","1852892","0.0-3.0-31.1-1.1","61364739837a69353c38284a","A3","batch1","tol_toboard","801","","","","","","","","","tol_peg_3","801","801","0","[[1,0,0],[2,0],[3]]","2","[[1,2,0],[3,0],[0]]","7","0","","","","","","4","","","","",""
"","","","","","single-stim-button","262","1853639","0.0-3.0-31.2-0.2","61364739837a69353c38284a","A3","batch1","tol_tohand","746","","","","","","","","","tol_peg_2","746","746","0","[[1,0,0],[0,0],[3]]","3","[[1,2,0],[3,0],[0]]","7","0","","","","","","4","","","","",""
"","","","","","single-stim-button","263","1854482","0.0-3.0-31.2-1.2","61364739837a69353c38284a","A3","batch1","tol_toboard","843","","","","","","","","","tol_peg_1","843","843","0","[[1,2,0],[0,0],[3]]","3","[[1,2,0],[3,0],[0]]","7","0","","","","","","4","","","","",""
"","","","","","single-stim-button","264","1855283","0.0-3.0-31.3-0.3","61364739837a69353c38284a","A3","batch1","tol_tohand","800","","","","","","","","","tol_peg_3","800","800","0","[[1,2,0],[0,0],[0]]","4","[[1,2,0],[3,0],[0]]","7","0","","","","","","4","","","","",""
"","","","","","single-stim-button","265","1856145","0.0-3.0-31.3-1.3","61364739837a69353c38284a","A3","batch1","tol_toboard","861","","","","","","","","","tol_peg_2","861","861","0","[[1,2,0],[3,0],[0]]","4","[[1,2,0],[3,0],[0]]","7","0","","","","","","4","","","","",""
"","","","","","poldrack-single-stim","266","1857159","0.0-3.0-32.0","61364739837a69353c38284a","A3","batch1","tol_feedback","-1","","","","","true","","","","","1000","1000","500","","","","","","-1","none","true","5366","8135","","","","","",""
"","","","","","html-button-response","267","1858529","0.0-3.0-33.0","61364739837a69353c38284a","A3","batch1","tol_trial_num","1370.2999999821186","<div class = centerbox><p class = center-block-text>problem <strong>9</strong> out of 25 problems</p></div>","0","","","","","","","","","","","","","","","","","","","","","","","","","",""
"","","","","","single-stim-button","268","1863275","0.0-3.0-34.0-0.0","61364739837a69353c38284a","A3","batch1","tol_tohand","4744","","","","","","","","","tol_peg_1","4744","4744","0","[[3,0,0],[0,0],[1]]","1","[[2,1,0],[3,0],[0]]","8","0","","","","","","6","","","","",""
"","","","","","single-stim-button","269","1871638","0.0-3.0-34.0-1.0","61364739837a69353c38284a","A3","batch1","tol_toboard","8362","","","","","","","","","tol_peg_2","8362","8362","0","[[3,0,0],[2,0],[1]]","1","[[2,1,0],[3,0],[0]]","8","0","","","","","","6","","","","",""
"","","","","","single-stim-button","270","1872349","0.0-3.0-34.1-0.1","61364739837a69353c38284a","A3","batch1","tol_tohand","710","","","","","","","","","tol_peg_3","710","710","0","[[3,0,0],[2,0],[0]]","2","[[2,1,0],[3,0],[0]]","8","0","","","","","","6","","","","",""
"","","","","","single-stim-button","271","1873290","0.0-3.0-34.1-1.1","61364739837a69353c38284a","A3","batch1","tol_toboard","941","","","","","","","","","tol_peg_2","941","941","0","[[3,0,0],[2,1],[0]]","2","[[2,1,0],[3,0],[0]]","8","0","","","","","","6","","","","",""
"","","","","","single-stim-button","272","1874762","0.0-3.0-34.2-0.2","61364739837a69353c38284a","A3","batch1","tol_tohand","1472","","","","","","","","","tol_peg_1","1472","1472","0","[[0,0,0],[2,1],[0]]","3","[[2,1,0],[3,0],[0]]","8","0","","","","","","6","","","","",""
"","","","","","single-stim-button","273","1875792","0.0-3.0-34.2-1.2","61364739837a69353c38284a","A3","batch1","tol_toboard","1029","","","","","","","","","tol_peg_3","1029","1029","0","[[0,0,0],[2,1],[3]]","3","[[2,1,0],[3,0],[0]]","8","0","","","","","","6","","","","",""
"","","","","","single-stim-button","274","1876745","0.0-3.0-34.3-0.3","61364739837a69353c38284a","A3","batch1","tol_tohand","952","","","","","","","","","tol_peg_2","952","952","0","[[0,0,0],[2,0],[3]]","4","[[2,1,0],[3,0],[0]]","8","0","","","","","","6","","","","",""
"","","","","","single-stim-button","275","1878278","0.0-3.0-34.3-1.3","61364739837a69353c38284a","A3","batch1","tol_toboard","1532","","","","","","","","","tol_peg_1","1532","1532","0","[[1,0,0],[2,0],[3]]","4","[[2,1,0],[3,0],[0]]","8","0","","","","","","6","","","","",""
"","","","","","single-stim-button","276","1879770","0.0-3.0-34.4-0.4","61364739837a69353c38284a","A3","batch1","tol_tohand","1491","","","","","","","","","tol_peg_2","1491","1491","0","[[1,0,0],[0,0],[3]]","5","[[2,1,0],[3,0],[0]]","8","0","","","","","","6","","","","",""
"","","","","","single-stim-button","277","1881514","0.0-3.0-34.4-1.4","61364739837a69353c38284a","A3","batch1","tol_toboard","1743","","","","","","","","","tol_peg_2","1743","1743","0","[[1,0,0],[2,0],[3]]","5","[[2,1,0],[3,0],[0]]","8","0","","","","","","6","","","","",""
"","","","","","single-stim-button","278","1882166","0.0-3.0-34.5-0.5","61364739837a69353c38284a","A3","batch1","tol_tohand","651","","","","","","","","","tol_peg_3","651","651","0","[[1,0,0],[2,0],[0]]","6","[[2,1,0],[3,0],[0]]","8","0","","","","","","6","","","","",""
"","","","","","single-stim-button","279","1882837","0.0-3.0-34.5-1.5","61364739837a69353c38284a","A3","batch1","tol_toboard","671","","","","","","","","","tol_peg_2","671","671","0","[[1,0,0],[2,3],[0]]","6","[[2,1,0],[3,0],[0]]","8","0","","","","","","6","","","","",""
"","","","","","single-stim-button","280","1885542","0.0-3.0-34.6-0.6","61364739837a69353c38284a","A3","batch1","tol_tohand","2704","","","","","","","","","tol_peg_2","2704","2704","0","[[1,0,0],[2,0],[0]]","7","[[2,1,0],[3,0],[0]]","8","0","","","","","","6","","","","",""
"","","","","","single-stim-button","281","1886714","0.0-3.0-34.6-1.6","61364739837a69353c38284a","A3","batch1","tol_toboard","1171","","","","","","","","","tol_peg_3","1171","1171","0","[[1,0,0],[2,0],[3]]","7","[[2,1,0],[3,0],[0]]","8","0","","","","","","6","","","","",""
"","","","","","single-stim-button","282","1887566","0.0-3.0-34.7-0.7","61364739837a69353c38284a","A3","batch1","tol_tohand","851","","","","","","","","","tol_peg_2","851","851","0","[[1,0,0],[0,0],[3]]","8","[[2,1,0],[3,0],[0]]","8","0","","","","","","6","","","","",""
"","","","","","single-stim-button","283","1888719","0.0-3.0-34.7-1.7","61364739837a69353c38284a","A3","batch1","tol_toboard","1153","","","","","","","","","tol_peg_1","1153","1153","0","[[1,2,0],[0,0],[3]]","8","[[2,1,0],[3,0],[0]]","8","0","","","","","","6","","","","",""
"","","","","","single-stim-button","284","1889368","0.0-3.0-34.8-0.8","61364739837a69353c38284a","A3","batch1","tol_tohand","648","","","","","","","","","tol_peg_3","648","648","0","[[1,2,0],[0,0],[0]]","9","[[2,1,0],[3,0],[0]]","8","0","","","","","","6","","","","",""
"","","","","","single-stim-button","285","1890231","0.0-3.0-34.8-1.8","61364739837a69353c38284a","A3","batch1","tol_toboard","861","","","","","","","","","tol_peg_2","861","861","0","[[1,2,0],[3,0],[0]]","9","[[2,1,0],[3,0],[0]]","8","0","","","","","","6","","","","",""
"","","","","","single-stim-button","286","1891035","0.0-3.0-34.9-0.9","61364739837a69353c38284a","A3","batch1","tol_tohand","804","","","","","","","","","tol_peg_1","804","804","0","[[1,0,0],[3,0],[0]]","10","[[2,1,0],[3,0],[0]]","8","0","","","","","","6","","","","",""
"","","","","","single-stim-button","287","1891784","0.0-3.0-34.9-1.9","61364739837a69353c38284a","A3","batch1","tol_toboard","748","","","","","","","","","tol_peg_3","748","748","0","[[1,0,0],[3,0],[2]]","10","[[2,1,0],[3,0],[0]]","8","0","","","","","","6","","","","",""
"","","","","","single-stim-button","288","1892635","0.0-3.0-34.10-0.10","61364739837a69353c38284a","A3","batch1","tol_tohand","851","","","","","","","","","tol_peg_1","851","851","0","[[0,0,0],[3,0],[2]]","11","[[2,1,0],[3,0],[0]]","8","0","","","","","","6","","","","",""
"","","","","","single-stim-button","289","1893498","0.0-3.0-34.10-1.10","61364739837a69353c38284a","A3","batch1","tol_toboard","863","","","","","","","","","tol_peg_2","863","863","0","[[0,0,0],[3,1],[2]]","11","[[2,1,0],[3,0],[0]]","8","0","","","","","","6","","","","",""
"","","","","","single-stim-button","290","1894426","0.0-3.0-34.11-0.11","61364739837a69353c38284a","A3","batch1","tol_tohand","927","","","","","","","","","tol_peg_3","927","927","0","[[0,0,0],[3,1],[0]]","12","[[2,1,0],[3,0],[0]]","8","0","","","","","","6","","","","",""
"","","","","","single-stim-button","291","1895131","0.0-3.0-34.11-1.11","61364739837a69353c38284a","A3","batch1","tol_toboard","703","","","","","","","","","tol_peg_1","703","703","0","[[2,0,0],[3,1],[0]]","12","[[2,1,0],[3,0],[0]]","8","0","","","","","","6","","","","",""
"","","","","","single-stim-button","292","1895803","0.0-3.0-34.12-0.12","61364739837a69353c38284a","A3","batch1","tol_tohand","671","","","","","","","","","tol_peg_2","671","671","0","[[2,0,0],[3,0],[0]]","13","[[2,1,0],[3,0],[0]]","8","0","","","","","","6","","","","",""
"","","","","","single-stim-button","293","1896484","0.0-3.0-34.12-1.12","61364739837a69353c38284a","A3","batch1","tol_toboard","681","","","","","","","","","tol_peg_1","681","681","0","[[2,1,0],[3,0],[0]]","13","[[2,1,0],[3,0],[0]]","8","0","","","","","","6","","","","",""
"","","","","","poldrack-single-stim","294","1897491","0.0-3.0-35.0","61364739837a69353c38284a","A3","batch1","tol_feedback","-1","","","","","true","","","","","1000","1000","500","","","","","","-1","none","true","4744","17476","","","","","",""
"","","","","","html-button-response","295","1898806","0.0-3.0-36.0","61364739837a69353c38284a","A3","batch1","tol_trial_num","1313.7000000178814","<div class = centerbox><p class = center-block-text>problem <strong>10</strong> out of 25 problems</p></div>","0","","","","","","","","","","","","","","","","","","","","","","","","","",""
"","","","","","single-stim-button","296","1904657","0.0-3.0-37.0-0.0","61364739837a69353c38284a","A3","batch1","tol_tohand","5850","","","","","","","","","tol_peg_2","5850","5850","0","[[3,0,0],[0,0],[2]]","1","[[3,0,0],[2,1],[0]]","9","0","","","","","","3","","","","",""
"","","","","","single-stim-button","297","1905620","0.0-3.0-37.0-1.0","61364739837a69353c38284a","A3","batch1","tol_toboard","962","","","","","","","","","tol_peg_1","962","962","0","[[3,1,0],[0,0],[2]]","1","[[3,0,0],[2,1],[0]]","9","0","","","","","","3","","","","",""
"","","","","","single-stim-button","298","1906631","0.0-3.0-37.1-0.1","61364739837a69353c38284a","A3","batch1","tol_tohand","1011","","","","","","","","","tol_peg_3","1011","1011","0","[[3,1,0],[0,0],[0]]","2","[[3,0,0],[2,1],[0]]","9","0","","","","","","3","","","","",""
"","","","","","single-stim-button","299","1907193","0.0-3.0-37.1-1.1","61364739837a69353c38284a","A3","batch1","tol_toboard","560","","","","","","","","","tol_peg_2","560","560","0","[[3,1,0],[2,0],[0]]","2","[[3,0,0],[2,1],[0]]","9","0","","","","","","3","","","","",""
"","","","","","single-stim-button","300","1908018","0.0-3.0-37.2-0.2","61364739837a69353c38284a","A3","batch1","tol_tohand","825","","","","","","","","","tol_peg_1","825","825","0","[[3,0,0],[2,0],[0]]","3","[[3,0,0],[2,1],[0]]","9","0","","","","","","3","","","","",""
"","","","","","single-stim-button","301","1908908","0.0-3.0-37.2-1.2","61364739837a69353c38284a","A3","batch1","tol_toboard","890","","","","","","","","","tol_peg_2","890","890","0","[[3,0,0],[2,1],[0]]","3","[[3,0,0],[2,1],[0]]","9","0","","","","","","3","","","","",""
"","","","","","poldrack-single-stim","302","1909919","0.0-3.0-38.0","61364739837a69353c38284a","A3","batch1","tol_feedback","-1","","","","","true","","","","","1000","1000","500","","","","","","-1","none","true","5850","7686","","","","","",""
"","","","","","html-button-response","303","1911169","0.0-3.0-39.0","61364739837a69353c38284a","A3","batch1","tol_trial_num","1249.5","<div class = centerbox><p class = center-block-text>problem <strong>11</strong> out of 25 problems</p></div>","0","","","","","","","","","","","","","","","","","","","","","","","","","",""
"","","","","","single-stim-button","304","1920152","0.0-3.0-40.0-0.0","61364739837a69353c38284a","A3","batch1","tol_tohand","8981","","","","","","","","","tol_peg_1","8981","8981","0","[[1,0,0],[3,0],[0]]","1","[[2,0,0],[1,3],[0]]","10","0","","","","","","6","","","","",""
"","","","","","single-stim-button","305","1920941","0.0-3.0-40.0-1.0","61364739837a69353c38284a","A3","batch1","tol_toboard","789","","","","","","","","","tol_peg_3","789","789","0","[[1,0,0],[3,0],[2]]","1","[[2,0,0],[1,3],[0]]","10","0","","","","","","6","","","","",""
"","","","","","single-stim-button","306","1923706","0.0-3.0-40.1-0.1","61364739837a69353c38284a","A3","batch1","tol_tohand","2763","","","","","","","","","tol_peg_3","2763","2763","0","[[1,0,0],[3,0],[0]]","2","[[2,0,0],[1,3],[0]]","10","0","","","","","","6","","","","",""
"","","","","","single-stim-button","307","1924590","0.0-3.0-40.1-1.1","61364739837a69353c38284a","A3","batch1","tol_toboard","883","","","","","","","","","tol_peg_2","883","883","0","[[1,0,0],[3,2],[0]]","2","[[2,0,0],[1,3],[0]]","10","0","","","","","","6","","","","",""
"","","","","","single-stim-button","308","1925862","0.0-3.0-40.2-0.2","61364739837a69353c38284a","A3","batch1","tol_tohand","1272","","","","","","","","","tol_peg_1","1272","1272","0","[[0,0,0],[3,2],[0]]","3","[[2,0,0],[1,3],[0]]","10","0","","","","","","6","","","","",""
"","","","","","single-stim-button","309","1927159","0.0-3.0-40.2-1.2","61364739837a69353c38284a","A3","batch1","tol_toboard","1297","","","","","","","","","tol_peg_3","1297","1297","0","[[0,0,0],[3,2],[1]]","3","[[2,0,0],[1,3],[0]]","10","0","","","","","","6","","","","",""
"","","","","","single-stim-button","310","1928160","0.0-3.0-40.3-0.3","61364739837a69353c38284a","A3","batch1","tol_tohand","999","","","","","","","","","tol_peg_2","999","999","0","[[0,0,0],[3,0],[1]]","4","[[2,0,0],[1,3],[0]]","10","0","","","","","","6","","","","",""
"","","","","","single-stim-button","311","1929004","0.0-3.0-40.3-1.3","61364739837a69353c38284a","A3","batch1","tol_toboard","844","","","","","","","","","tol_peg_1","844","844","0","[[2,0,0],[3,0],[1]]","4","[[2,0,0],[1,3],[0]]","10","0","","","","","","6","","","","",""
"","","","","","single-stim-button","312","1929925","0.0-3.0-40.4-0.4","61364739837a69353c38284a","A3","batch1","tol_tohand","920","","","","","","","","","tol_peg_2","920","920","0","[[2,0,0],[0,0],[1]]","5","[[2,0,0],[1,3],[0]]","10","0","","","","","","6","","","","",""
"","","","","","single-stim-button","313","1930670","0.0-3.0-40.4-1.4","61364739837a69353c38284a","A3","batch1","tol_toboard","744","","","","","","","","","tol_peg_1","744","744","0","[[2,3,0],[0,0],[1]]","5","[[2,0,0],[1,3],[0]]","10","0","","","","","","6","","","","",""
"","","","","","single-stim-button","314","1931277","0.0-3.0-40.5-0.5","61364739837a69353c38284a","A3","batch1","tol_tohand","606","","","","","","","","","tol_peg_3","606","606","0","[[2,3,0],[0,0],[0]]","6","[[2,0,0],[1,3],[0]]","10","0","","","","","","6","","","","",""
"","","","","","single-stim-button","315","1931992","0.0-3.0-40.5-1.5","61364739837a69353c38284a","A3","batch1","tol_toboard","714","","","","","","","","","tol_peg_2","714","714","0","[[2,3,0],[1,0],[0]]","6","[[2,0,0],[1,3],[0]]","10","0","","","","","","6","","","","",""
"","","","","","single-stim-button","316","1932633","0.0-3.0-40.6-0.6","61364739837a69353c38284a","A3","batch1","tol_tohand","641","","","","","","","","","tol_peg_1","641","641","0","[[2,0,0],[1,0],[0]]","7","[[2,0,0],[1,3],[0]]","10","0","","","","","","6","","","","",""
"","","","","","single-stim-button","317","1933392","0.0-3.0-40.6-1.6","61364739837a69353c38284a","A3","batch1","tol_toboard","759","","","","","","","","","tol_peg_2","759","759","0","[[2,0,0],[1,3],[0]]","7","[[2,0,0],[1,3],[0]]","10","0","","","","","","6","","","","",""
"","","","","","poldrack-single-stim","318","1934394","0.0-3.0-41.0","61364739837a69353c38284a","A3","batch1","tol_feedback","-1","","","","","true","","","","","1000","1000","500","","","","","","-1","none","true","8981","16182","","","","","",""
"","","","","","html-button-response","319","1935453","0.0-3.0-42.0","61364739837a69353c38284a","A3","batch1","tol_trial_num","1058.7000000178814","<div class = centerbox><p class = center-block-text>problem <strong>12</strong> out of 25 problems</p></div>","0","","","","","","","","","","","","","","","","","","","","","","","","","",""
"","","","","","single-stim-button","320","1942487","0.0-3.0-43.0-0.0","61364739837a69353c38284a","A3","batch1","tol_tohand","7033","","","","","","","","","tol_peg_1","7033","7033","0","[[1,0,0],[3,0],[0]]","1","[[2,3,0],[0,0],[1]]","11","0","","","","","","4","","","","",""
"","","","","","single-stim-button","321","1943221","0.0-3.0-43.0-1.0","61364739837a69353c38284a","A3","batch1","tol_toboard","732","","","","","","","","","tol_peg_2","732","732","0","[[1,0,0],[3,2],[0]]","1","[[2,3,0],[0,0],[1]]","11","0","","","","","","4","","","","",""
"","","","","","single-stim-button","322","1944027","0.0-3.0-43.1-0.1","61364739837a69353c38284a","A3","batch1","tol_tohand","806","","","","","","","","","tol_peg_1","806","806","0","[[0,0,0],[3,2],[0]]","2","[[2,3,0],[0,0],[1]]","11","0","","","","","","4","","","","",""
"","","","","","single-stim-button","323","1945073","0.0-3.0-43.1-1.1","61364739837a69353c38284a","A3","batch1","tol_toboard","1045","","","","","","","","","tol_peg_3","1045","1045","0","[[0,0,0],[3,2],[1]]","2","[[2,3,0],[0,0],[1]]","11","0","","","","","","4","","","","",""
"","","","","","single-stim-button","324","1946315","0.0-3.0-43.2-0.2","61364739837a69353c38284a","A3","batch1","tol_tohand","1241","","","","","","","","","tol_peg_2","1241","1241","0","[[0,0,0],[3,0],[1]]","3","[[2,3,0],[0,0],[1]]","11","0","","","","","","4","","","","",""
"","","","","","single-stim-button","325","1946989","0.0-3.0-43.2-1.2","61364739837a69353c38284a","A3","batch1","tol_toboard","673","","","","","","","","","tol_peg_1","673","673","0","[[2,0,0],[3,0],[1]]","3","[[2,3,0],[0,0],[1]]","11","0","","","","","","4","","","","",""
"","","","","","single-stim-button","326","1947488","0.0-3.0-43.3-0.3","61364739837a69353c38284a","A3","batch1","tol_tohand","499","","","","","","","","","tol_peg_2","499","499","0","[[2,0,0],[0,0],[1]]","4","[[2,3,0],[0,0],[1]]","11","0","","","","","","4","","","","",""
"","","","","","single-stim-button","327","1948028","0.0-3.0-43.3-1.3","61364739837a69353c38284a","A3","batch1","tol_toboard","539","","","","","","","","","tol_peg_1","539","539","0","[[2,3,0],[0,0],[1]]","4","[[2,3,0],[0,0],[1]]","11","0","","","","","","4","","","","",""
"","","","","","poldrack-single-stim","328","1949029","0.0-3.0-44.0","61364739837a69353c38284a","A3","batch1","tol_feedback","-1","","","","","true","","","","","1000","1000","500","","","","","","-1","none","true","7033","9579","","","","","",""
"","","","","","html-button-response","329","1950211","0.0-3.0-45.0","61364739837a69353c38284a","A3","batch1","tol_trial_num","1181","<div class = centerbox><p class = center-block-text>problem <strong>13</strong> out of 25 problems</p></div>","0","","","","","","","","","","","","","","","","","","","","","","","","","",""
"","","","","","single-stim-button","330","1958308","0.0-3.0-46.0-0.0","61364739837a69353c38284a","A3","batch1","tol_tohand","8096","","","","","","","","","tol_peg_1","8096","8096","0","[[1,0,0],[3,0],[0]]","1","[[0,0,0],[2,3],[1]]","12","0","","","","","","4","","","","",""
"","","","","","single-stim-button","331","1959599","0.0-3.0-46.0-1.0","61364739837a69353c38284a","A3","batch1","tol_toboard","1290","","","","","","","","","tol_peg_2","1290","1290","0","[[1,0,0],[3,2],[0]]","1","[[0,0,0],[2,3],[1]]","12","0","","","","","","4","","","","",""
"","","","","","single-stim-button","332","1960430","0.0-3.0-46.1-0.1","61364739837a69353c38284a","A3","batch1","tol_tohand","830","","","","","","","","","tol_peg_1","830","830","0","[[0,0,0],[3,2],[0]]","2","[[0,0,0],[2,3],[1]]","12","0","","","","","","4","","","","",""
"","","","","","single-stim-button","333","1961391","0.0-3.0-46.1-1.1","61364739837a69353c38284a","A3","batch1","tol_toboard","960","","","","","","","","","tol_peg_3","960","960","0","[[0,0,0],[3,2],[1]]","2","[[0,0,0],[2,3],[1]]","12","0","","","","","","4","","","","",""
"","","","","","single-stim-button","334","1962906","0.0-3.0-46.2-0.2","61364739837a69353c38284a","A3","batch1","tol_tohand","1513","","","","","","","","","tol_peg_2","1513","1513","0","[[0,0,0],[3,0],[1]]","3","[[0,0,0],[2,3],[1]]","12","0","","","","","","4","","","","",""
"","","","","","single-stim-button","335","1963815","0.0-3.0-46.2-1.2","61364739837a69353c38284a","A3","batch1","tol_toboard","908","","","","","","","","","tol_peg_2","908","908","0","[[0,0,0],[3,2],[1]]","3","[[0,0,0],[2,3],[1]]","12","0","","","","","","4","","","","",""
"","","","","","single-stim-button","336","1965046","0.0-3.0-46.3-0.3","61364739837a69353c38284a","A3","batch1","tol_tohand","1231","","","","","","","","","tol_peg_2","1231","1231","0","[[0,0,0],[3,0],[1]]","4","[[0,0,0],[2,3],[1]]","12","0","","","","","","4","","","","",""
"","","","","","single-stim-button","337","1966381","0.0-3.0-46.3-1.3","61364739837a69353c38284a","A3","batch1","tol_toboard","1335","","","","","","","","","tol_peg_1","1335","1335","0","[[2,0,0],[3,0],[1]]","4","[[0,0,0],[2,3],[1]]","12","0","","","","","","4","","","","",""
"","","","","","single-stim-button","338","1967132","0.0-3.0-46.4-0.4","61364739837a69353c38284a","A3","batch1","tol_tohand","749","","","","","","","","","tol_peg_2","749","749","0","[[2,0,0],[0,0],[1]]","5","[[0,0,0],[2,3],[1]]","12","0","","","","","","4","","","","",""
"","","","","","single-stim-button","339","1972914","0.0-3.0-46.4-1.4","61364739837a69353c38284a","A3","batch1","tol_toboard","5781","","","","","","","","","tol_peg_1","5781","5781","0","[[2,3,0],[0,0],[1]]","5","[[0,0,0],[2,3],[1]]","12","0","","","","","","4","","","","",""
"","","","","","single-stim-button","340","1976329","0.0-3.0-46.5-0.5","61364739837a69353c38284a","A3","batch1","tol_tohand","3414","","","","","","","","","tol_peg_3","3414","3414","0","[[2,3,0],[0,0],[0]]","6","[[0,0,0],[2,3],[1]]","12","0","","","","","","4","","","","",""
"","","","","","single-stim-button","341","1977121","0.0-3.0-46.5-1.5","61364739837a69353c38284a","A3","batch1","tol_toboard","791","","","","","","","","","tol_peg_2","791","791","0","[[2,3,0],[1,0],[0]]","6","[[0,0,0],[2,3],[1]]","12","0","","","","","","4","","","","",""
"","","","","","single-stim-button","342","1977891","0.0-3.0-46.6-0.6","61364739837a69353c38284a","A3","batch1","tol_tohand","770","","","","","","","","","tol_peg_1","770","770","0","[[2,0,0],[1,0],[0]]","7","[[0,0,0],[2,3],[1]]","12","0","","","","","","4","","","","",""
"","","","","","single-stim-button","343","1979181","0.0-3.0-46.6-1.6","61364739837a69353c38284a","A3","batch1","tol_toboard","1289","","","","","","","","","tol_peg_3","1289","1289","0","[[2,0,0],[1,0],[3]]","7","[[0,0,0],[2,3],[1]]","12","0","","","","","","4","","","","",""
"","","","","","single-stim-button","344","1984571","0.0-3.0-46.7-0.7","61364739837a69353c38284a","A3","batch1","tol_tohand","5389","","","","","","","","","tol_peg_2","5389","5389","0","[[2,0,0],[0,0],[3]]","8","[[0,0,0],[2,3],[1]]","12","0","","","","","","4","","","","",""
"","","","","","single-stim-button","345","1989209","0.0-3.0-46.7-1.7","61364739837a69353c38284a","A3","batch1","tol_toboard","4637","","","","","","","","","tol_peg_1","4637","4637","0","[[2,1,0],[0,0],[3]]","8","[[0,0,0],[2,3],[1]]","12","0","","","","","","4","","","","",""
"","","","","","single-stim-button","346","1991101","0.0-3.0-46.8-0.8","61364739837a69353c38284a","A3","batch1","tol_tohand","1891","","","","","","","","","tol_peg_3","1891","1891","0","[[2,1,0],[0,0],[0]]","9","[[0,0,0],[2,3],[1]]","12","0","","","","","","4","","","","",""
"","","","","","single-stim-button","347","1992033","0.0-3.0-46.8-1.8","61364739837a69353c38284a","A3","batch1","tol_toboard","931","","","","","","","","","tol_peg_2","931","931","0","[[2,1,0],[3,0],[0]]","9","[[0,0,0],[2,3],[1]]","12","0","","","","","","4","","","","",""
"","","","","","single-stim-button","348","1995108","0.0-3.0-46.9-0.9","61364739837a69353c38284a","A3","batch1","tol_tohand","3074","","","","","","","","","tol_peg_1","3074","3074","0","[[2,0,0],[3,0],[0]]","10","[[0,0,0],[2,3],[1]]","12","0","","","","","","4","","","","",""
"","","","","","single-stim-button","349","1995990","0.0-3.0-46.9-1.9","61364739837a69353c38284a","A3","batch1","tol_toboard","882","","","","","","","","","tol_peg_3","882","882","0","[[2,0,0],[3,0],[1]]","10","[[0,0,0],[2,3],[1]]","12","0","","","","","","4","","","","",""
"","","","","","single-stim-button","350","2004443","0.0-3.0-46.10-0.10","61364739837a69353c38284a","A3","batch1","tol_tohand","8452","","","","","","","","","tol_peg_1","8452","8452","0","[[0,0,0],[3,0],[1]]","11","[[0,0,0],[2,3],[1]]","12","0","","","","","","4","","","","",""
