"success","timeout","failed_images","failed_audio","failed_video","trial_type","trial_index","time_elapsed","internal_node_id","subject_id","study_id","session_id","task","rt","stimulus","response","item","answer","correct","spm_correct","spm_rt","view_history","fiar_detect_rt","fiar_detect_correct","total_correct_fiar_detect","post_trial_gap","choices","mouse_click","stim_duration","block_duration","timing_post_trial","current_position","tol_num_moves_made","tol_target","tol_problem_id","tol_rt","key_press","possible_responses","tol_correct","preplanning","tol_rt_per_trial","tol_min_moves"
"true","false","[]","[]","[]","preload","0","24929","0.0-0.0","6137c72965565266b4354d38","A3","batch1","","","","","","","","","","","","","","","","","","","","","","","","","","","","","",""
"true","","","","","fullscreen","1","36459","0.0-1.0-0.0","6137c72965565266b4354d38","A3","batch1","","","","","","","","","","","","","","","","","","","","","","","","","","","","","",""
"true","","","","","fullscreen","2","44293","0.0-2.0-0.0","6137c72965565266b4354d38","A3","batch1","spm_fullscreen","","","","","","","","","","","","","","","","","","","","","","","","","","","","",""
"","","","","","html-button-response","3","74450","0.0-2.0-1.0","6137c72965565266b4354d38","A3","batch1","","30155.490000004647","<p class = block-text><b>Instructions</b> <br>This is a widely used intelligence test in research. <br>In this test, a figure with a missing piece will be presented.<br>Below the figure are alternative pieces to complete the figure, only one of which is correct.<br> Different figures might involve different principles for obtaining the missing piece<br>Your job is to select the most logical piece to complete the figure.</p>","0","","","","","","","","","","","","","","","","","","","","","","","","","",""
"","","","","","html-keyboard-response","4","75252","0.0-2.0-2.0-0.0","6137c72965565266b4354d38","A3","batch1","spm_show_trial_num","null","<p class=block-text>Trial 1 out of 60</p>","null","","","","","","","","","","","","","","","","","","","","","","","","","",""
"","","","","","image-button-response","5","91849","0.0-2.0-2.0-1.0","6137c72965565266b4354d38","A3","batch1","spm_respsonse","16591.12999998615","img/question_1_1.jpeg","3","mat_01","4","1","1","16591.12999998615","","","","","","","","","","","","","","","","","","","","",""
"","","","","","html-keyboard-response","6","92902","0.0-2.0-2.0-0.1","6137c72965565266b4354d38","A3","batch1","spm_show_trial_num","null","<p class=block-text>Trial 2 out of 60</p>","null","","","","","","","","","","","","","","","","","","","","","","","","","",""
"","","","","","image-button-response","7","95352","0.0-2.0-2.0-1.1","6137c72965565266b4354d38","A3","batch1","spm_respsonse","2446.2899999925867","img/question_1_2.jpeg","4","mat_02","5","1","1","2446.2899999925867","","","","","","","","","","","","","","","","","","","","",""
"","","","","","html-keyboard-response","8","96407","0.0-2.0-2.0-0.2","6137c72965565266b4354d38","A3","batch1","spm_show_trial_num","null","<p class=block-text>Trial 3 out of 60</p>","null","","","","","","","","","","","","","","","","","","","","","","","","","",""
"","","","","","image-button-response","9","103371","0.0-2.0-2.0-1.2","6137c72965565266b4354d38","A3","batch1","spm_respsonse","6960.02500000759","img/question_1_3.jpeg","0","mat_03","1","1","1","6960.02500000759","","","","","","","","","","","","","","","","","","","","",""
"","","","","","html-keyboard-response","10","104424","0.0-2.0-2.0-0.3","6137c72965565266b4354d38","A3","batch1","spm_show_trial_num","null","<p class=block-text>Trial 4 out of 60</p>","null","","","","","","","","","","","","","","","","","","","","","","","","","",""
"","","","","","image-button-response","11","107836","0.0-2.0-2.0-1.3","6137c72965565266b4354d38","A3","batch1","spm_respsonse","3408.129999996163","img/question_1_4.jpeg","1","mat_04","2","1","1","3408.129999996163","","","","","","","","","","","","","","","","","","","","",""
"","","","","","html-keyboard-response","12","108890","0.0-2.0-2.0-0.4","6137c72965565266b4354d38","A3","batch1","spm_show_trial_num","null","<p class=block-text>Trial 5 out of 60</p>","null","","","","","","","","","","","","","","","","","","","","","","","","","",""
"","","","","","image-button-response","13","113275","0.0-2.0-2.0-1.4","6137c72965565266b4354d38","A3","batch1","spm_respsonse","4380.774999997811","img/question_1_5.jpeg","5","mat_05","6","1","1","4380.774999997811","","","","","","","","","","","","","","","","","","","","",""
"","","","","","html-keyboard-response","14","114331","0.0-2.0-2.0-0.5","6137c72965565266b4354d38","A3","batch1","spm_show_trial_num","null","<p class=block-text>Trial 6 out of 60</p>","null","","","","","","","","","","","","","","","","","","","","","","","","","",""
"","","","","","image-button-response","15","117507","0.0-2.0-2.0-1.5","6137c72965565266b4354d38","A3","batch1","spm_respsonse","3171.985000022687","img/question_1_6.jpeg","2","mat_06","3","1","1","3171.985000022687","","","","","","","","","","","","","","","","","","","","",""
"","","","","","html-keyboard-response","16","118562","0.0-2.0-2.0-0.6","6137c72965565266b4354d38","A3","batch1","spm_show_trial_num","null","<p class=block-text>Trial 7 out of 60</p>","null","","","","","","","","","","","","","","","","","","","","","","","","","",""
"","","","","","image-button-response","17","122041","0.0-2.0-2.0-1.6","6137c72965565266b4354d38","A3","batch1","spm_respsonse","3474.70500000054","img/question_1_7.jpeg","5","mat_07","6","1","1","3474.70500000054","","","","","","","","","","","","","","","","","","","","",""
"","","","","","html-keyboard-response","18","123094","0.0-2.0-2.0-0.7","6137c72965565266b4354d38","A3","batch1","spm_show_trial_num","null","<p class=block-text>Trial 8 out of 60</p>","null","","","","","","","","","","","","","","","","","","","","","","","","","",""
"","","","","","image-button-response","19","128899","0.0-2.0-2.0-1.7","6137c72965565266b4354d38","A3","batch1","spm_respsonse","5801.949999993667","img/question_1_8.jpeg","1","mat_08","2","1","1","5801.949999993667","","","","","","","","","","","","","","","","","","","","",""
"","","","","","html-keyboard-response","20","129952","0.0-2.0-2.0-0.8","6137c72965565266b4354d38","A3","batch1","spm_show_trial_num","null","<p class=block-text>Trial 9 out of 60</p>","null","","","","","","","","","","","","","","","","","","","","","","","","","",""
"","","","","","image-button-response","21","132455","0.0-2.0-2.0-1.8","6137c72965565266b4354d38","A3","batch1","spm_respsonse","2498.6400000052527","img/question_1_9.jpeg","0","mat_09","1","1","1","2498.6400000052527","","","","","","","","","","","","","","","","","","","","",""
"","","","","","html-keyboard-response","22","133509","0.0-2.0-2.0-0.9","6137c72965565266b4354d38","A3","batch1","spm_show_trial_num","null","<p class=block-text>Trial 10 out of 60</p>","null","","","","","","","","","","","","","","","","","","","","","","","","","",""
"","","","","","image-button-response","23","138560","0.0-2.0-2.0-1.9","6137c72965565266b4354d38","A3","batch1","spm_respsonse","5046.505000005709","img/question_1_10.jpeg","5","mat_10","3","0","0","5046.505000005709","","","","","","","","","","","","","","","","","","","","",""
"","","","","","html-keyboard-response","24","139616","0.0-2.0-2.0-0.10","6137c72965565266b4354d38","A3","batch1","spm_show_trial_num","null","<p class=block-text>Trial 11 out of 60</p>","null","","","","","","","","","","","","","","","","","","","","","","","","","",""
"","","","","","image-button-response","25","152404","0.0-2.0-2.0-1.10","6137c72965565266b4354d38","A3","batch1","spm_respsonse","12783.059999987017","img/question_1_11.jpeg","3","mat_11","4","1","1","12783.059999987017","","","","","","","","","","","","","","","","","","","","",""
"","","","","","html-keyboard-response","26","153459","0.0-2.0-2.0-0.11","6137c72965565266b4354d38","A3","batch1","spm_show_trial_num","null","<p class=block-text>Trial 12 out of 60</p>","null","","","","","","","","","","","","","","","","","","","","","","","","","",""
"","","","","","image-button-response","27","162688","0.0-2.0-2.0-1.11","6137c72965565266b4354d38","A3","batch1","spm_respsonse","9225.195000006352","img/question_1_12.jpeg","5","mat_12","5","0","0","9225.195000006352","","","","","","","","","","","","","","","","","","","","",""
"","","","","","html-keyboard-response","28","163742","0.0-2.0-2.0-0.12","6137c72965565266b4354d38","A3","batch1","spm_show_trial_num","null","<p class=block-text>Trial 13 out of 60</p>","null","","","","","","","","","","","","","","","","","","","","","","","","","",""
"","","","","","image-button-response","29","165868","0.0-2.0-2.0-1.12","6137c72965565266b4354d38","A3","batch1","spm_respsonse","2121.405000012601","img/question_2_1.jpeg","1","mat_13","2","1","1","2121.405000012601","","","","","","","","","","","","","","","","","","","","",""
"","","","","","html-keyboard-response","30","166923","0.0-2.0-2.0-0.13","6137c72965565266b4354d38","A3","batch1","spm_show_trial_num","null","<p class=block-text>Trial 14 out of 60</p>","null","","","","","","","","","","","","","","","","","","","","","","","","","",""
"","","","","","image-button-response","31","172005","0.0-2.0-2.0-1.13","6137c72965565266b4354d38","A3","batch1","spm_respsonse","5078.684999985853","img/question_2_2.jpeg","5","mat_14","6","1","1","5078.684999985853","","","","","","","","","","","","","","","","","","","","",""
"","","","","","html-keyboard-response","32","173057","0.0-2.0-2.0-0.14","6137c72965565266b4354d38","A3","batch1","spm_show_trial_num","null","<p class=block-text>Trial 15 out of 60</p>","null","","","","","","","","","","","","","","","","","","","","","","","","","",""
"","","","","","image-button-response","33","175473","0.0-2.0-2.0-1.14","6137c72965565266b4354d38","A3","batch1","spm_respsonse","2411.75500000827","img/question_2_3.jpeg","0","mat_15","1","1","1","2411.75500000827","","","","","","","","","","","","","","","","","","","","",""
"","","","","","html-keyboard-response","34","176525","0.0-2.0-2.0-0.15","6137c72965565266b4354d38","A3","batch1","spm_show_trial_num","null","<p class=block-text>Trial 16 out of 60</p>","null","","","","","","","","","","","","","","","","","","","","","","","","","",""
"","","","","","image-button-response","35","180444","0.0-2.0-2.0-1.15","6137c72965565266b4354d38","A3","batch1","spm_respsonse","3915.754999994533","img/question_2_4.jpeg","5","mat_16","2","0","0","3915.754999994533","","","","","","","","","","","","","","","","","","","","",""
"","","","","","html-keyboard-response","36","181504","0.0-2.0-2.0-0.16","6137c72965565266b4354d38","A3","batch1","spm_show_trial_num","null","<p class=block-text>Trial 17 out of 60</p>","null","","","","","","","","","","","","","","","","","","","","","","","","","",""
"","","","","","image-button-response","37","187407","0.0-2.0-2.0-1.16","6137c72965565266b4354d38","A3","batch1","spm_respsonse","5899.475000012899","img/question_2_5.jpeg","0","mat_17","1","1","1","5899.475000012899","","","","","","","","","","","","","","","","","","","","",""
"","","","","","html-keyboard-response","38","188460","0.0-2.0-2.0-0.17","6137c72965565266b4354d38","A3","batch1","spm_show_trial_num","null","<p class=block-text>Trial 18 out of 60</p>","null","","","","","","","","","","","","","","","","","","","","","","","","","",""
"","","","","","image-button-response","39","194232","0.0-2.0-2.0-1.17","6137c72965565266b4354d38","A3","batch1","spm_respsonse","5767.309999995632","img/question_2_6.jpeg","2","mat_18","3","1","1","5767.309999995632","","","","","","","","","","","","","","","","","","","","",""
"","","","","","html-keyboard-response","40","195289","0.0-2.0-2.0-0.18","6137c72965565266b4354d38","A3","batch1","spm_show_trial_num","null","<p class=block-text>Trial 19 out of 60</p>","null","","","","","","","","","","","","","","","","","","","","","","","","","",""
"","","","","","image-button-response","41","198982","0.0-2.0-2.0-1.18","6137c72965565266b4354d38","A3","batch1","spm_respsonse","3688.3899999957066","img/question_2_7.jpeg","5","mat_19","5","0","0","3688.3899999957066","","","","","","","","","","","","","","","","","","","","",""
"","","","","","html-keyboard-response","42","200034","0.0-2.0-2.0-0.19","6137c72965565266b4354d38","A3","batch1","spm_show_trial_num","null","<p class=block-text>Trial 20 out of 60</p>","null","","","","","","","","","","","","","","","","","","","","","","","","","",""
"","","","","","image-button-response","43","204361","0.0-2.0-2.0-1.19","6137c72965565266b4354d38","A3","batch1","spm_respsonse","4322.805000003427","img/question_2_8.jpeg","5","mat_20","6","1","1","4322.805000003427","","","","","","","","","","","","","","","","","","","","",""
"","","","","","html-keyboard-response","44","205417","0.0-2.0-2.0-0.20","6137c72965565266b4354d38","A3","batch1","spm_show_trial_num","null","<p class=block-text>Trial 21 out of 60</p>","null","","","","","","","","","","","","","","","","","","","","","","","","","",""
"","","","","","image-button-response","45","209707","0.0-2.0-2.0-1.20","6137c72965565266b4354d38","A3","batch1","spm_respsonse","4286.149999999907","img/question_2_9.jpeg","3","mat_21","4","1","1","4286.149999999907","","","","","","","","","","","","","","","","","","","","",""
"","","","","","html-keyboard-response","46","210761","0.0-2.0-2.0-0.21","6137c72965565266b4354d38","A3","batch1","spm_show_trial_num","null","<p class=block-text>Trial 22 out of 60</p>","null","","","","","","","","","","","","","","","","","","","","","","","","","",""
"","","","","","image-button-response","47","223025","0.0-2.0-2.0-1.21","6137c72965565266b4354d38","A3","batch1","spm_respsonse","12260.089999996126","img/question_2_10.jpeg","2","mat_22","3","1","1","12260.089999996126","","","","","","","","","","","","","","","","","","","","",""
"","","","","","html-keyboard-response","48","224079","0.0-2.0-2.0-0.22","6137c72965565266b4354d38","A3","batch1","spm_show_trial_num","null","<p class=block-text>Trial 23 out of 60</p>","null","","","","","","","","","","","","","","","","","","","","","","","","","",""
"","","","","","image-button-response","49","261500","0.0-2.0-2.0-1.22","6137c72965565266b4354d38","A3","batch1","spm_respsonse","37417.80500000459","img/question_2_11.jpeg","1","mat_23","4","0","0","37417.80500000459","","","","","","","","","","","","","","","","","","","","",""
"","","","","","html-keyboard-response","50","262552","0.0-2.0-2.0-0.23","6137c72965565266b4354d38","A3","batch1","spm_show_trial_num","null","<p class=block-text>Trial 24 out of 60</p>","null","","","","","","","","","","","","","","","","","","","","","","","","","",""
"","","","","","image-button-response","51","291153","0.0-2.0-2.0-1.23","6137c72965565266b4354d38","A3","batch1","spm_respsonse","28596.464999980526","img/question_2_12.jpeg","5","mat_24","5","0","0","28596.464999980526","","","","","","","","","","","","","","","","","","","","",""
"","","","","","html-button-response","52","293503","0.0-2.0-3.0","6137c72965565266b4354d38","A3","batch1","attention_check","2083.5749999969266","<p class = block-text>Attention check: Please choose 1<br></p>","0","","","true","","","","","","","","","","","","","","","","","","","","","","",""
"","","","","","html-keyboard-response","53","294305","0.0-2.0-4.0-0.0","6137c72965565266b4354d38","A3","batch1","spm_show_trial_num","null","<p class=block-text>Trial 25 out of 60</p>","null","","","","","","","","","","","","","","","","","","","","","","","","","",""
"","","","","","image-button-response","54","298907","0.0-2.0-4.0-1.0","6137c72965565266b4354d38","A3","batch1","spm_respsonse","4598.155000014231","img/question_3_1.jpeg","7","mat_25","8","1","1","4598.155000014231","","","","","","","","","","","","","","","","","","","","",""
"","","","","","html-keyboard-response","55","299960","0.0-2.0-4.0-0.1","6137c72965565266b4354d38","A3","batch1","spm_show_trial_num","null","<p class=block-text>Trial 26 out of 60</p>","null","","","","","","","","","","","","","","","","","","","","","","","","","",""
"","","","","","image-button-response","56","307199","0.0-2.0-4.0-1.1","6137c72965565266b4354d38","A3","batch1","spm_respsonse","7235.07000002428","img/question_3_2.jpeg","1","mat_26","2","1","1","7235.07000002428","","","","","","","","","","","","","","","","","","","","",""
"","","","","","html-keyboard-response","57","308252","0.0-2.0-4.0-0.2","6137c72965565266b4354d38","A3","batch1","spm_show_trial_num","null","<p class=block-text>Trial 27 out of 60</p>","null","","","","","","","","","","","","","","","","","","","","","","","","","",""
"","","","","","image-button-response","58","319633","0.0-2.0-4.0-1.2","6137c72965565266b4354d38","A3","batch1","spm_respsonse","11377.825000003213","img/question_3_3.jpeg","2","mat_27","3","1","1","11377.825000003213","","","","","","","","","","","","","","","","","","","","",""
"","","","","","html-keyboard-response","59","320686","0.0-2.0-4.0-0.3","6137c72965565266b4354d38","A3","batch1","spm_show_trial_num","null","<p class=block-text>Trial 28 out of 60</p>","null","","","","","","","","","","","","","","","","","","","","","","","","","",""
"","","","","","image-button-response","60","325933","0.0-2.0-4.0-1.3","6137c72965565266b4354d38","A3","batch1","spm_respsonse","5242.659999988973","img/question_3_4.jpeg","7","mat_28","8","1","1","5242.659999988973","","","","","","","","","","","","","","","","","","","","",""
"","","","","","html-keyboard-response","61","326985","0.0-2.0-4.0-0.4","6137c72965565266b4354d38","A3","batch1","spm_show_trial_num","null","<p class=block-text>Trial 29 out of 60</p>","null","","","","","","","","","","","","","","","","","","","","","","","","","",""
"","","","","","image-button-response","62","332207","0.0-2.0-4.0-1.4","6137c72965565266b4354d38","A3","batch1","spm_respsonse","5218.47500000149","img/question_3_5.jpeg","6","mat_29","7","1","1","5218.47500000149","","","","","","","","","","","","","","","","","","","","",""
"","","","","","html-keyboard-response","63","333259","0.0-2.0-4.0-0.5","6137c72965565266b4354d38","A3","batch1","spm_show_trial_num","null","<p class=block-text>Trial 30 out of 60</p>","null","","","","","","","","","","","","","","","","","","","","","","","","","",""
"","","","","","image-button-response","64","339439","0.0-2.0-4.0-1.5","6137c72965565266b4354d38","A3","batch1","spm_respsonse","6176.600000006147","img/question_3_6.jpeg","3","mat_30","4","1","1","6176.600000006147","","","","","","","","","","","","","","","","","","","","",""
"","","","","","html-keyboard-response","65","340491","0.0-2.0-4.0-0.6","6137c72965565266b4354d38","A3","batch1","spm_show_trial_num","null","<p class=block-text>Trial 31 out of 60</p>","null","","","","","","","","","","","","","","","","","","","","","","","","","",""
"","","","","","image-button-response","66","348053","0.0-2.0-4.0-1.6","6137c72965565266b4354d38","A3","batch1","spm_respsonse","7557.505000004312","img/question_3_7.jpeg","4","mat_31","5","1","1","7557.505000004312","","","","","","","","","","","","","","","","","","","","",""
"","","","","","html-keyboard-response","67","349108","0.0-2.0-4.0-0.7","6137c72965565266b4354d38","A3","batch1","spm_show_trial_num","null","<p class=block-text>Trial 32 out of 60</p>","null","","","","","","","","","","","","","","","","","","","","","","","","","",""
"","","","","","image-button-response","68","358185","0.0-2.0-4.0-1.7","6137c72965565266b4354d38","A3","batch1","spm_respsonse","9072.864999994636","img/question_3_8.jpeg","0","mat_32","1","1","1","9072.864999994636","","","","","","","","","","","","","","","","","","","","",""
"","","","","","html-keyboard-response","69","359236","0.0-2.0-4.0-0.8","6137c72965565266b4354d38","A3","batch1","spm_show_trial_num","null","<p class=block-text>Trial 33 out of 60</p>","null","","","","","","","","","","","","","","","","","","","","","","","","","",""
"","","","","","image-button-response","70","377276","0.0-2.0-4.0-1.8","6137c72965565266b4354d38","A3","batch1","spm_respsonse","18037.504999985686","img/question_3_9.jpeg","5","mat_33","7","0","0","18037.504999985686","","","","","","","","","","","","","","","","","","","","",""
"","","","","","html-keyboard-response","71","378333","0.0-2.0-4.0-0.9","6137c72965565266b4354d38","A3","batch1","spm_show_trial_num","null","<p class=block-text>Trial 34 out of 60</p>","null","","","","","","","","","","","","","","","","","","","","","","","","","",""
"","","","","","image-button-response","72","387361","0.0-2.0-4.0-1.9","6137c72965565266b4354d38","A3","batch1","spm_respsonse","9023.480000003474","img/question_3_10.jpeg","7","mat_34","6","0","0","9023.480000003474","","","","","","","","","","","","","","","","","","","","",""
"","","","","","html-keyboard-response","73","388414","0.0-2.0-4.0-0.10","6137c72965565266b4354d38","A3","batch1","spm_show_trial_num","null","<p class=block-text>Trial 35 out of 60</p>","null","","","","","","","","","","","","","","","","","","","","","","","","","",""
"","","","","","image-button-response","74","402959","0.0-2.0-4.0-1.10","6137c72965565266b4354d38","A3","batch1","spm_respsonse","14540.374999982305","img/question_3_11.jpeg","4","mat_35","1","0","0","14540.374999982305","","","","","","","","","","","","","","","","","","","","",""
"","","","","","html-keyboard-response","75","404011","0.0-2.0-4.0-0.11","6137c72965565266b4354d38","A3","batch1","spm_show_trial_num","null","<p class=block-text>Trial 36 out of 60</p>","null","","","","","","","","","","","","","","","","","","","","","","","","","",""
"","","","","","image-button-response","76","414241","0.0-2.0-4.0-1.11","6137c72965565266b4354d38","A3","batch1","spm_respsonse","10225.99999999511","img/question_3_12.jpeg","3","mat_36","2","0","0","10225.99999999511","","","","","","","","","","","","","","","","","","","","",""
"","","","","","html-keyboard-response","77","415293","0.0-2.0-4.0-0.12","6137c72965565266b4354d38","A3","batch1","spm_show_trial_num","null","<p class=block-text>Trial 37 out of 60</p>","null","","","","","","","","","","","","","","","","","","","","","","","","","",""
"","","","","","image-button-response","78","417889","0.0-2.0-4.0-1.12","6137c72965565266b4354d38","A3","batch1","spm_respsonse","2592.2350000182632","img/question_4_1.jpeg","2","mat_37","3","1","1","2592.2350000182632","","","","","","","","","","","","","","","","","","","","",""
"","","","","","html-keyboard-response","79","418943","0.0-2.0-4.0-0.13","6137c72965565266b4354d38","A3","batch1","spm_show_trial_num","null","<p class=block-text>Trial 38 out of 60</p>","null","","","","","","","","","","","","","","","","","","","","","","","","","",""
"","","","","","image-button-response","80","424114","0.0-2.0-4.0-1.13","6137c72965565266b4354d38","A3","batch1","spm_respsonse","5165.995000017574","img/question_4_2.jpeg","3","mat_38","4","1","1","5165.995000017574","","","","","","","","","","","","","","","","","","","","",""
"","","","","","html-keyboard-response","81","425168","0.0-2.0-4.0-0.14","6137c72965565266b4354d38","A3","batch1","spm_show_trial_num","null","<p class=block-text>Trial 39 out of 60</p>","null","","","","","","","","","","","","","","","","","","","","","","","","","",""
"","","","","","image-button-response","82","430109","0.0-2.0-4.0-1.14","6137c72965565266b4354d38","A3","batch1","spm_respsonse","4936.8499999982305","img/question_4_3.jpeg","2","mat_39","3","1","1","4936.8499999982305","","","","","","","","","","","","","","","","","","","","",""
"","","","","","html-keyboard-response","83","431162","0.0-2.0-4.0-0.15","6137c72965565266b4354d38","A3","batch1","spm_show_trial_num","null","<p class=block-text>Trial 40 out of 60</p>","null","","","","","","","","","","","","","","","","","","","","","","","","","",""
"","","","","","image-button-response","84","441359","0.0-2.0-4.0-1.15","6137c72965565266b4354d38","A3","batch1","spm_respsonse","10192.399999999907","img/question_4_4.jpeg","6","mat_40","7","1","1","10192.399999999907","","","","","","","","","","","","","","","","","","","","",""
"","","","","","html-keyboard-response","85","442413","0.0-2.0-4.0-0.16","6137c72965565266b4354d38","A3","batch1","spm_show_trial_num","null","<p class=block-text>Trial 41 out of 60</p>","null","","","","","","","","","","","","","","","","","","","","","","","","","",""
"","","","","","image-button-response","86","456655","0.0-2.0-4.0-1.16","6137c72965565266b4354d38","A3","batch1","spm_respsonse","14237.870000011753","img/question_4_5.jpeg","7","mat_41","8","1","1","14237.870000011753","","","","","","","","","","","","","","","","","","","","",""
"","","","","","html-keyboard-response","87","457710","0.0-2.0-4.0-0.17","6137c72965565266b4354d38","A3","batch1","spm_show_trial_num","null","<p class=block-text>Trial 42 out of 60</p>","null","","","","","","","","","","","","","","","","","","","","","","","","","",""
"","","","","","image-button-response","88","468643","0.0-2.0-4.0-1.17","6137c72965565266b4354d38","A3","batch1","spm_respsonse","10928.000000014435","img/question_4_6.jpeg","5","mat_42","6","1","1","10928.000000014435","","","","","","","","","","","","","","","","","","","","",""
"","","","","","html-keyboard-response","89","469695","0.0-2.0-4.0-0.18","6137c72965565266b4354d38","A3","batch1","spm_show_trial_num","null","<p class=block-text>Trial 43 out of 60</p>","null","","","","","","","","","","","","","","","","","","","","","","","","","",""
"","","","","","image-button-response","90","486569","0.0-2.0-4.0-1.18","6137c72965565266b4354d38","A3","batch1","spm_respsonse","16870.04999999772","img/question_4_7.jpeg","4","mat_43","5","1","1","16870.04999999772","","","","","","","","","","","","","","","","","","","","",""
"","","","","","html-keyboard-response","91","487622","0.0-2.0-4.0-0.19","6137c72965565266b4354d38","A3","batch1","spm_show_trial_num","null","<p class=block-text>Trial 44 out of 60</p>","null","","","","","","","","","","","","","","","","","","","","","","","","","",""
"","","","","","image-button-response","92","498580","0.0-2.0-4.0-1.19","6137c72965565266b4354d38","A3","batch1","spm_respsonse","10953.84999999078","img/question_4_8.jpeg","3","mat_44","4","1","1","10953.84999999078","","","","","","","","","","","","","","","","","","","","",""
"","","","","","html-keyboard-response","93","499633","0.0-2.0-4.0-0.20","6137c72965565266b4354d38","A3","batch1","spm_show_trial_num","null","<p class=block-text>Trial 45 out of 60</p>","null","","","","","","","","","","","","","","","","","","","","","","","","","",""
"","","","","","image-button-response","94","506412","0.0-2.0-4.0-1.20","6137c72965565266b4354d38","A3","batch1","spm_respsonse","6774.300000019139","img/question_4_9.jpeg","4","mat_45","1","0","0","6774.300000019139","","","","","","","","","","","","","","","","","","","","",""
"","","","","","html-keyboard-response","95","507464","0.0-2.0-4.0-0.21","6137c72965565266b4354d38","A3","batch1","spm_show_trial_num","null","<p class=block-text>Trial 46 out of 60</p>","null","","","","","","","","","","","","","","","","","","","","","","","","","",""
"","","","","","image-button-response","96","516627","0.0-2.0-4.0-1.21","6137c72965565266b4354d38","A3","batch1","spm_respsonse","9157.615000003716","img/question_4_10.jpeg","2","mat_46","2","0","0","9157.615000003716","","","","","","","","","","","","","","","","","","","","",""
"","","","","","html-keyboard-response","97","517682","0.0-2.0-4.0-0.22","6137c72965565266b4354d38","A3","batch1","spm_show_trial_num","null","<p class=block-text>Trial 47 out of 60</p>","null","","","","","","","","","","","","","","","","","","","","","","","","","",""
"","","","","","image-button-response","98","529531","0.0-2.0-4.0-1.22","6137c72965565266b4354d38","A3","batch1","spm_respsonse","11844.534999981988","img/question_4_11.jpeg","3","mat_47","5","0","0","11844.534999981988","","","","","","","","","","","","","","","","","","","","",""
"","","","","","html-keyboard-response","99","530583","0.0-2.0-4.0-0.23","6137c72965565266b4354d38","A3","batch1","spm_show_trial_num","null","<p class=block-text>Trial 48 out of 60</p>","null","","","","","","","","","","","","","","","","","","","","","","","","","",""
"","","","","","image-button-response","100","541505","0.0-2.0-4.0-1.23","6137c72965565266b4354d38","A3","batch1","spm_respsonse","10918.295000010403","img/question_4_12.jpeg","7","mat_48","6","0","0","10918.295000010403","","","","","","","","","","","","","","","","","","","","",""
"","","","","","html-keyboard-response","101","542560","0.0-2.0-4.0-0.24","6137c72965565266b4354d38","A3","batch1","spm_show_trial_num","null","<p class=block-text>Trial 49 out of 60</p>","null","","","","","","","","","","","","","","","","","","","","","","","","","",""
"","","","","","image-button-response","102","547490","0.0-2.0-4.0-1.24","6137c72965565266b4354d38","A3","batch1","spm_respsonse","4925.714999990305","img/question_5_1.jpeg","0","mat_49","7","0","0","4925.714999990305","","","","","","","","","","","","","","","","","","","","",""
"","","","","","html-keyboard-response","103","548543","0.0-2.0-4.0-0.25","6137c72965565266b4354d38","A3","batch1","spm_show_trial_num","null","<p class=block-text>Trial 50 out of 60</p>","null","","","","","","","","","","","","","","","","","","","","","","","","","",""
"","","","","","image-button-response","104","554380","0.0-2.0-4.0-1.25","6137c72965565266b4354d38","A3","batch1","spm_respsonse","5832.835000008345","img/question_5_2.jpeg","5","mat_50","6","1","1","5832.835000008345","","","","","","","","","","","","","","","","","","","","",""
"","","","","","html-keyboard-response","105","555432","0.0-2.0-4.0-0.26","6137c72965565266b4354d38","A3","batch1","spm_show_trial_num","null","<p class=block-text>Trial 51 out of 60</p>","null","","","","","","","","","","","","","","","","","","","","","","","","","",""
"","","","","","image-button-response","106","573839","0.0-2.0-4.0-1.26","6137c72965565266b4354d38","A3","batch1","spm_respsonse","18403.374999994412","img/question_5_3.jpeg","7","mat_51","8","1","1","18403.374999994412","","","","","","","","","","","","","","","","","","","","",""
"","","","","","html-keyboard-response","107","574897","0.0-2.0-4.0-0.27","6137c72965565266b4354d38","A3","batch1","spm_show_trial_num","null","<p class=block-text>Trial 52 out of 60</p>","null","","","","","","","","","","","","","","","","","","","","","","","","","",""
"","","","","","image-button-response","108","596518","0.0-2.0-4.0-1.27","6137c72965565266b4354d38","A3","batch1","spm_respsonse","21618.034999992233","img/question_5_4.jpeg","2","mat_52","2","0","0","21618.034999992233","","","","","","","","","","","","","","","","","","","","",""
"","","","","","html-keyboard-response","109","597571","0.0-2.0-4.0-0.28","6137c72965565266b4354d38","A3","batch1","spm_show_trial_num","null","<p class=block-text>Trial 53 out of 60</p>","null","","","","","","","","","","","","","","","","","","","","","","","","","",""
"","","","","","image-button-response","110","602137","0.0-2.0-4.0-1.28","6137c72965565266b4354d38","A3","batch1","spm_respsonse","4561.660000006668","img/question_5_5.jpeg","6","mat_53","1","0","0","4561.660000006668","","","","","","","","","","","","","","","","","","","","",""
"","","","","","html-keyboard-response","111","603189","0.0-2.0-4.0-0.29","6137c72965565266b4354d38","A3","batch1","spm_show_trial_num","null","<p class=block-text>Trial 54 out of 60</p>","null","","","","","","","","","","","","","","","","","","","","","","","","","",""
"","","","","","image-button-response","112","608434","0.0-2.0-4.0-1.29","6137c72965565266b4354d38","A3","batch1","spm_respsonse","5240.529999980936","img/question_5_6.jpeg","3","mat_54","5","0","0","5240.529999980936","","","","","","","","","","","","","","","","","","","","",""
"","","","","","html-keyboard-response","113","609488","0.0-2.0-4.0-0.30","6137c72965565266b4354d38","A3","batch1","spm_show_trial_num","null","<p class=block-text>Trial 55 out of 60</p>","null","","","","","","","","","","","","","","","","","","","","","","","","","",""
"","","","","","image-button-response","114","631895","0.0-2.0-4.0-1.30","6137c72965565266b4354d38","A3","batch1","spm_respsonse","22403.449999983422","img/question_5_7.jpeg","4","mat_55","1","0","0","22403.449999983422","","","","","","","","","","","","","","","","","","","","",""
"","","","","","html-keyboard-response","115","632947","0.0-2.0-4.0-0.31","6137c72965565266b4354d38","A3","batch1","spm_show_trial_num","null","<p class=block-text>Trial 56 out of 60</p>","null","","","","","","","","","","","","","","","","","","","","","","","","","",""
"","","","","","image-button-response","116","651198","0.0-2.0-4.0-1.31","6137c72965565266b4354d38","A3","batch1","spm_respsonse","18246.890000009444","img/question_5_8.jpeg","1","mat_56","6","0","0","18246.890000009444","","","","","","","","","","","","","","","","","","","","",""
"","","","","","html-keyboard-response","117","652251","0.0-2.0-4.0-0.32","6137c72965565266b4354d38","A3","batch1","spm_show_trial_num","null","<p class=block-text>Trial 57 out of 60</p>","null","","","","","","","","","","","","","","","","","","","","","","","","","",""
"","","","","","image-button-response","118","654785","0.0-2.0-4.0-1.32","6137c72965565266b4354d38","A3","batch1","spm_respsonse","2529.3499999970663","img/question_5_9.jpeg","2","mat_57","3","1","1","2529.3499999970663","","","","","","","","","","","","","","","","","","","","",""
"","","","","","html-keyboard-response","119","655837","0.0-2.0-4.0-0.33","6137c72965565266b4354d38","A3","batch1","spm_show_trial_num","null","<p class=block-text>Trial 58 out of 60</p>","null","","","","","","","","","","","","","","","","","","","","","","","","","",""
"","","","","","image-button-response","120","665674","0.0-2.0-4.0-1.33","6137c72965565266b4354d38","A3","batch1","spm_respsonse","9833.115000015823","img/question_5_10.jpeg","6","mat_58","2","0","0","9833.115000015823","","","","","","","","","","","","","","","","","","","","",""
"","","","","","html-keyboard-response","121","666726","0.0-2.0-4.0-0.34","6137c72965565266b4354d38","A3","batch1","spm_show_trial_num","null","<p class=block-text>Trial 59 out of 60</p>","null","","","","","","","","","","","","","","","","","","","","","","","","","",""
"","","","","","image-button-response","122","693621","0.0-2.0-4.0-1.34","6137c72965565266b4354d38","A3","batch1","spm_respsonse","26890.664999984438","img/question_5_11.jpeg","6","mat_59","4","0","0","26890.664999984438","","","","","","","","","","","","","","","","","","","","",""
"","","","","","html-keyboard-response","123","694672","0.0-2.0-4.0-0.35","6137c72965565266b4354d38","A3","batch1","spm_show_trial_num","null","<p class=block-text>Trial 60 out of 60</p>","null","","","","","","","","","","","","","","","","","","","","","","","","","",""
"","","","","","image-button-response","124","704029","0.0-2.0-4.0-1.35","6137c72965565266b4354d38","A3","batch1","spm_respsonse","9353.49499998847","img/question_5_12.jpeg","2","mat_60","5","0","0","9353.49499998847","","","","","","","","","","","","","","","","","","","","",""
"","","","","","html-button-response","125","706370","0.0-2.0-5.0","6137c72965565266b4354d38","A3","batch1","spm_goodbye","2089.3400000059046","<p class= block-text>This concludes the Standard Progressive Matrix game. Thank you for your responses!<br> When you are ready, click the button continue</p>","0","","","","","","","","","","","","","","","","","","","","","","","","","",""
"true","","","","","fullscreen","126","709572","0.0-3.0-0.0","6137c72965565266b4354d38","A3","batch1","","","","","","","","","","","","","","","","","","","","","","","","","","","","","",""
"","","","","","instructions","127","735445","0.0-3.0-1.0-0.0","6137c72965565266b4354d38","A3","batch1","","25872.059999994235","","","","","","","","[{""page_index"":0,""viewing_time"":8862.904999987222},{""page_index"":1,""viewing_time"":4527.744999999413},{""page_index"":0,""viewing_time"":7206.899999990128},{""page_index"":1,""viewing_time"":5274.035000009462}]","","","","","","","","","","","","","","","","","","","",""
"","","","","","html-button-response","128","737509","0.0-3.0-1.0-1.0-0.0","6137c72965565266b4354d38","A3","batch1","pattern_enter_quiz","2062.6549999869894","<p class=block-text> Let's answer a few questions <br>","0","","","","","","","","","","","","","","","","","","","","","","","","","",""
"","","","","","html-button-response","129","739327","0.0-3.0-1.0-1.0-1.0","6137c72965565266b4354d38","A3","batch1","pattern_quiz","1816.9699999853037","<p class = block-text>True or False: You will have as much time as you want to make each choice. <br></p>","1","","","true","","","","","","","","","","","","","","","","","","","","","","",""
"","","","","","html-button-response","130","740487","0.0-3.0-1.0-1.0-2.0","6137c72965565266b4354d38","A3","batch1","pattern_quiz_feedback","1158.9049999893177","<p class = block-text>Correct! You should make your choice <strong> as fast as you can</strong>.</p>","0","","","","","","","","","","","","","","","","","","","","","","","","","",""
"","","","","","html-button-response","131","743921","0.0-3.0-1.0-1.0-3.0","6137c72965565266b4354d38","A3","batch1","pattern_quiz","3433.0750000081025","<p class = block-text>True or False: You will look for 4 pieces in black or white color connected in a row either horizontally, vertically or diagonally. <br></p>","0","","","true","","","","","","","","","","","","","","","","","","","","","","",""
"","","","","","html-button-response","132","744993","0.0-3.0-1.0-1.0-4.0","6137c72965565266b4354d38","A3","batch1","pattern_quiz_feedback","1071.1200000077952","<p class = block-text>Correct! </p>","0","","","","","","","","","","","","","","","","","","","","","","","","","",""
"","","","","","html-button-response","133","746520","0.0-3.0-2.0","6137c72965565266b4354d38","A3","batch1","pattern_enter_practice","1524.7600000002421","<p class=block-text> Now that you've understood the game, let's do a few practice trials before we start!<br> <br>","0","","","","","","","","","","","","","","","","","","","","","","","","","",""
"","","","","","image-keyboard-response","134","748232","0.0-3.0-3.0-0.0","6137c72965565266b4354d38","A3","batch1","pattern_practice","1708.3200000051875","stim/prac_yes_16_ver_w1.png","f","","f","true","","","","","","","","","","","","","","","","","","","","","","",""
"","","","","","html-keyboard-response","135","749235","0.0-3.0-3.0-1.0","6137c72965565266b4354d38","A3","batch1","pattern_feedback","null","<p style=""font-size:30px;color:green;"">Correct!</p>","null","","","","","","","","","","","","","","","","","","","","","","","","","",""
"","","","","","image-keyboard-response","136","750353","0.0-3.0-3.0-0.1","6137c72965565266b4354d38","A3","batch1","pattern_practice","1115.029999986291","stim/prac_no_18_1.png","j","","j","true","","","","","","","","","","","","","","","","","","","","","","",""
"","","","","","html-keyboard-response","137","751357","0.0-3.0-3.0-1.1","6137c72965565266b4354d38","A3","batch1","pattern_feedback","null","<p style=""font-size:30px;color:green;"">Correct!</p>","null","","","","","","","","","","","","","","","","","","","","","","","","","",""
"","","","","","image-keyboard-response","138","752840","0.0-3.0-3.0-0.2","6137c72965565266b4354d38","A3","batch1","pattern_practice","1480.26499999105","stim/prac_no_16_1.png","j","","j","true","","","","","","","","","","","","","","","","","","","","","","",""
"","","","","","html-keyboard-response","139","753843","0.0-3.0-3.0-1.2","6137c72965565266b4354d38","A3","batch1","pattern_feedback","null","<p style=""font-size:30px;color:green;"">Correct!</p>","null","","","","","","","","","","","","","","","","","","","","","","","","","",""
"","","","","","image-keyboard-response","140","754608","0.0-3.0-3.0-0.3","6137c72965565266b4354d38","A3","batch1","pattern_practice","760.8250000048429","stim/prac_yes_18_hor_w1.png","f","","f","true","","","","","","","","","","","","","","","","","","","","","","",""
"","","","","","html-keyboard-response","141","755611","0.0-3.0-3.0-1.3","6137c72965565266b4354d38","A3","batch1","pattern_feedback","null","<p style=""font-size:30px;color:green;"">Correct!</p>","null","","","","","","","","","","","","","","","","","","","","","","","","","",""
"","","","","","image-keyboard-response","142","756582","0.0-3.0-3.0-0.4","6137c72965565266b4354d38","A3","batch1","pattern_practice","967.7749999973457","stim/prac_yes_20_dia_b1.png","f","","f","true","","","","","","","","","","","","","","","","","","","","","","",""
"","","","","","html-keyboard-response","143","757584","0.0-3.0-3.0-1.4","6137c72965565266b4354d38","A3","batch1","pattern_feedback","null","<p style=""font-size:30px;color:green;"">Correct!</p>","null","","","","","","","","","","","","","","","","","","","","","","","","","",""
"","","","","","html-button-response","144","759991","0.0-3.0-4.0","6137c72965565266b4354d38","A3","batch1","pattern_enter_official_trials","2404.325000010431","<p class=block-text> Good job! You are done with practice trials!<br>
        You responded correctly on 100% of the trials.<br>
        Press the button below to start official trials. Now you won't see any feedback about your response</p>","0","","","","","","","","","","","","","","","","","","","","","","","","","",""
"","","","","","html-keyboard-response","145","760792","0.0-3.0-5.0-0.0","6137c72965565266b4354d38","A3","batch1","pattern_show_trial_num","null","<p class=block-text>Trial 1 out of 78</p>","null","","","","","","","","","","","","","","","","","","","","","","","","","",""
"","","","","","image-keyboard-response","146","761586","0.0-3.0-5.0-1.0","6137c72965565266b4354d38","A3","batch1","pattern_response","790.7500000146683","stim/no_15_1_w.png","j","pattern_03","j","true","","","","790.7500000146683","true","1","","","","","","","","","","","","","","","","",""
"","","","","","html-keyboard-response","147","762888","0.0-3.0-5.0-0.1","6137c72965565266b4354d38","A3","batch1","pattern_show_trial_num","null","<p class=block-text>Trial 2 out of 78</p>","null","","","","","","","","","","","","","","","","","","","","","","","","","",""
"","","","","","image-keyboard-response","148","763595","0.0-3.0-5.0-1.1","6137c72965565266b4354d38","A3","batch1","pattern_response","704.0100000158418","stim/no_18_1_b.png","j","pattern_05","j","true","","","","704.0100000158418","true","2","","","","","","","","","","","","","","","","",""
"","","","","","html-keyboard-response","149","764896","0.0-3.0-5.0-0.2","6137c72965565266b4354d38","A3","batch1","pattern_show_trial_num","null","<p class=block-text>Trial 3 out of 78</p>","null","","","","","","","","","","","","","","","","","","","","","","","","","",""
"","","","","","image-keyboard-response","150","765595","0.0-3.0-5.0-1.2","6137c72965565266b4354d38","A3","batch1","pattern_response","695.4350000014529","stim/no_45_1_w.png","f","pattern_25","j","false","","","","695.4350000014529","false","2","","","","","","","","","","","","","","","","",""
"","","","","","html-keyboard-response","151","766897","0.0-3.0-5.0-0.3","6137c72965565266b4354d38","A3","batch1","pattern_show_trial_num","null","<p class=block-text>Trial 4 out of 78</p>","null","","","","","","","","","","","","","","","","","","","","","","","","","",""
"","","","","","image-keyboard-response","152","769573","0.0-3.0-5.0-1.3","6137c72965565266b4354d38","A3","batch1","pattern_response","2672.504999994999","stim/yes_26_dia_w2_w.png","f","pattern_50","f","true","","","","2672.504999994999","true","3","","","","","","","","","","","","","","","","",""
"","","","","","html-keyboard-response","153","770876","0.0-3.0-5.0-0.4","6137c72965565266b4354d38","A3","batch1","pattern_show_trial_num","null","<p class=block-text>Trial 5 out of 78</p>","null","","","","","","","","","","","","","","","","","","","","","","","","","",""
"","","","","","image-keyboard-response","154","775335","0.0-3.0-5.0-1.4","6137c72965565266b4354d38","A3","batch1","pattern_response","4454.525000008289","stim/no_67_1.png","j","pattern_39","j","true","","","","4454.525000008289","true","4","","","","","","","","","","","","","","","","",""
"","","","","","html-keyboard-response","155","776637","0.0-3.0-5.0-0.5","6137c72965565266b4354d38","A3","batch1","pattern_show_trial_num","null","<p class=block-text>Trial 6 out of 78</p>","null","","","","","","","","","","","","","","","","","","","","","","","","","",""
"","","","","","image-keyboard-response","156","777898","0.0-3.0-5.0-1.5","6137c72965565266b4354d38","A3","batch1","pattern_response","1257.6549999939743","stim/yes_37_hor_w1_w.png","f","pattern_60","f","true","","","","1257.6549999939743","true","5","","","","","","","","","","","","","","","","",""
"","","","","","html-keyboard-response","157","779201","0.0-3.0-5.0-0.6","6137c72965565266b4354d38","A3","batch1","pattern_show_trial_num","null","<p class=block-text>Trial 7 out of 78</p>","null","","","","","","","","","","","","","","","","","","","","","","","","","",""
"","","","","","image-keyboard-response","158","782862","0.0-3.0-5.0-1.6","6137c72965565266b4354d38","A3","batch1","pattern_response","3658.1899999873713","stim/no_37_2_w.png","j","pattern_19","j","true","","","","3658.1899999873713","true","6","","","","","","","","","","","","","","","","",""
"","","","","","html-keyboard-response","159","784165","0.0-3.0-5.0-0.7","6137c72965565266b4354d38","A3","batch1","pattern_show_trial_num","null","<p class=block-text>Trial 8 out of 78</p>","null","","","","","","","","","","","","","","","","","","","","","","","","","",""
"","","","","","image-keyboard-response","160","788680","0.0-3.0-5.0-1.7","6137c72965565266b4354d38","A3","batch1","pattern_response","4511.525000008987","stim/yes_44_ver_w1_w.png","j","pattern_66","f","false","","","","4511.525000008987","false","6","","","","","","","","","","","","","","","","",""
"","","","","","html-keyboard-response","161","789982","0.0-3.0-5.0-0.8","6137c72965565266b4354d38","A3","batch1","pattern_show_trial_num","null","<p class=block-text>Trial 9 out of 78</p>","null","","","","","","","","","","","","","","","","","","","","","","","","","",""
"","","","","","image-keyboard-response","162","791275","0.0-3.0-5.0-1.8","6137c72965565266b4354d38","A3","batch1","pattern_response","1289.615000016056","stim/yes_30_ver_b1_b.png","f","pattern_54","f","true","","","","1289.615000016056","true","7","","","","","","","","","","","","","","","","",""
"","","","","","html-keyboard-response","163","792576","0.0-3.0-5.0-0.9","6137c72965565266b4354d38","A3","batch1","pattern_show_trial_num","null","<p class=block-text>Trial 10 out of 78</p>","null","","","","","","","","","","","","","","","","","","","","","","","","","",""
"","","","","","image-keyboard-response","164","793439","0.0-3.0-5.0-1.9","6137c72965565266b4354d38","A3","batch1","pattern_response","859.7650000010617","stim/yes_29_hor_b1_b.png","f","pattern_52","f","true","","","","859.7650000010617","true","8","","","","","","","","","","","","","","","","",""
"","","","","","html-keyboard-response","165","794741","0.0-3.0-5.0-0.10","6137c72965565266b4354d38","A3","batch1","pattern_show_trial_num","null","<p class=block-text>Trial 11 out of 78</p>","null","","","","","","","","","","","","","","","","","","","","","","","","","",""
"","","","","","image-keyboard-response","166","798872","0.0-3.0-5.0-1.10","6137c72965565266b4354d38","A3","batch1","pattern_response","4127.6099999959115","stim/yes_42_dia_w1_w.png","j","pattern_64","f","false","","","","4127.6099999959115","false","8","","","","","","","","","","","","","","","","",""
"","","","","","html-keyboard-response","167","800177","0.0-3.0-5.0-0.11","6137c72965565266b4354d38","A3","batch1","pattern_show_trial_num","null","<p class=block-text>Trial 12 out of 78</p>","null","","","","","","","","","","","","","","","","","","","","","","","","","",""
"","","","","","image-keyboard-response","168","802312","0.0-3.0-5.0-1.11","6137c72965565266b4354d38","A3","batch1","pattern_response","2131.554999999935","stim/yes_49_hor_w1_b.png","f","pattern_70","f","true","","","","2131.554999999935","true","9","","","","","","","","","","","","","","","","",""
"","","","","","html-keyboard-response","169","803614","0.0-3.0-5.0-0.12","6137c72965565266b4354d38","A3","batch1","pattern_show_trial_num","null","<p class=block-text>Trial 13 out of 78</p>","null","","","","","","","","","","","","","","","","","","","","","","","","","",""
"","","","","","image-keyboard-response","170","806227","0.0-3.0-5.0-1.12","6137c72965565266b4354d38","A3","batch1","pattern_response","2608.634999982314","stim/no_30_1_b.png","j","pattern_13","j","true","","","","2608.634999982314","true","10","","","","","","","","","","","","","","","","",""
"","","","","","html-keyboard-response","171","807530","0.0-3.0-5.0-0.13","6137c72965565266b4354d38","A3","batch1","pattern_show_trial_num","null","<p class=block-text>Trial 14 out of 78</p>","null","","","","","","","","","","","","","","","","","","","","","","","","","",""
"","","","","","image-keyboard-response","172","811506","0.0-3.0-5.0-1.13","6137c72965565266b4354d38","A3","batch1","pattern_response","3972.184999991441","stim/yes_58_dia_w1_w.png","j","pattern_76","f","false","","","","3972.184999991441","false","10","","","","","","","","","","","","","","","","",""
"","","","","","html-keyboard-response","173","812808","0.0-3.0-5.0-0.14","6137c72965565266b4354d38","A3","batch1","pattern_show_trial_num","null","<p class=block-text>Trial 15 out of 78</p>","null","","","","","","","","","","","","","","","","","","","","","","","","","",""
"","","","","","image-keyboard-response","174","813777","0.0-3.0-5.0-1.14","6137c72965565266b4354d38","A3","batch1","pattern_response","965.8649999764748","stim/yes_46_ver_b1_b.png","f","pattern_68","f","true","","","","965.8649999764748","true","11","","","","","","","","","","","","","","","","",""
"","","","","","html-keyboard-response","175","815079","0.0-3.0-5.0-0.15","6137c72965565266b4354d38","A3","batch1","pattern_show_trial_num","null","<p class=block-text>Trial 16 out of 78</p>","null","","","","","","","","","","","","","","","","","","","","","","","","","",""
"","","","","","image-keyboard-response","176","815775","0.0-3.0-5.0-1.15","6137c72965565266b4354d38","A3","batch1","pattern_response","692.4549999821465","stim/yes_15_dia_b1u_b.png","f","pattern_44","f","true","","","","692.4549999821465","true","12","","","","","","","","","","","","","","","","",""
"","","","","","html-keyboard-response","177","817075","0.0-3.0-5.0-0.16","6137c72965565266b4354d38","A3","batch1","pattern_show_trial_num","null","<p class=block-text>Trial 17 out of 78</p>","null","","","","","","","","","","","","","","","","","","","","","","","","","",""
"","","","","","image-keyboard-response","178","820332","0.0-3.0-5.0-1.16","6137c72965565266b4354d38","A3","batch1","pattern_response","3253.3199999888893","stim/no_53_1_b.png","j","pattern_33","j","true","","","","3253.3199999888893","true","13","","","","","","","","","","","","","","","","",""
"","","","","","html-keyboard-response","179","821633","0.0-3.0-5.0-0.17","6137c72965565266b4354d38","A3","batch1","pattern_show_trial_num","null","<p class=block-text>Trial 18 out of 78</p>","null","","","","","","","","","","","","","","","","","","","","","","","","","",""
"","","","","","image-keyboard-response","180","822629","0.0-3.0-5.0-1.17","6137c72965565266b4354d38","A3","batch1","pattern_response","991.5800000017043","stim/yes_17_ver_b1_b.png","f","pattern_46","f","true","","","","991.5800000017043","true","14","","","","","","","","","","","","","","","","",""
"","","","","","html-keyboard-response","181","823930","0.0-3.0-5.0-0.18","6137c72965565266b4354d38","A3","batch1","pattern_show_trial_num","null","<p class=block-text>Trial 19 out of 78</p>","null","","","","","","","","","","","","","","","","","","","","","","","","","",""
"","","","","","image-keyboard-response","182","825754","0.0-3.0-5.0-1.18","6137c72965565266b4354d38","A3","batch1","pattern_response","1820.6800000043586","stim/no_36_1_b.png","j","pattern_17","j","true","","","","1820.6800000043586","true","15","","","","","","","","","","","","","","","","",""
"","","","","","html-keyboard-response","183","827057","0.0-3.0-5.0-0.19","6137c72965565266b4354d38","A3","batch1","pattern_show_trial_num","null","<p class=block-text>Trial 20 out of 78</p>","null","","","","","","","","","","","","","","","","","","","","","","","","","",""
"","","","","","image-keyboard-response","184","827857","0.0-3.0-5.0-1.19","6137c72965565266b4354d38","A3","batch1","pattern_response","795.6399999966379","stim/no_12_1.png","j","pattern_01","j","true","","","","795.6399999966379","true","16","","","","","","","","","","","","","","","","",""
"","","","","","html-keyboard-response","185","829158","0.0-3.0-5.0-0.20","6137c72965565266b4354d38","A3","batch1","pattern_show_trial_num","null","<p class=block-text>Trial 21 out of 78</p>","null","","","","","","","","","","","","","","","","","","","","","","","","","",""
"","","","","","image-keyboard-response","186","830112","0.0-3.0-5.0-1.20","6137c72965565266b4354d38","A3","batch1","pattern_response","950.5999999819323","stim/yes_23_ver_b1.png","f","pattern_48","f","true","","","","950.5999999819323","true","17","","","","","","","","","","","","","","","","",""
"","","","","","html-keyboard-response","187","831415","0.0-3.0-5.0-0.21","6137c72965565266b4354d38","A3","batch1","pattern_show_trial_num","null","<p class=block-text>Trial 22 out of 78</p>","null","","","","","","","","","","","","","","","","","","","","","","","","","",""
"","","","","","image-keyboard-response","188","834144","0.0-3.0-5.0-1.21","6137c72965565266b4354d38","A3","batch1","pattern_response","2725.8100000035483","stim/no_58_1_w.png","j","pattern_35","j","true","","","","2725.8100000035483","true","18","","","","","","","","","","","","","","","","",""
"","","","","","html-keyboard-response","189","835446","0.0-3.0-5.0-0.22","6137c72965565266b4354d38","A3","batch1","pattern_show_trial_num","null","<p class=block-text>Trial 23 out of 78</p>","null","","","","","","","","","","","","","","","","","","","","","","","","","",""
"","","","","","image-keyboard-response","190","836862","0.0-3.0-5.0-1.22","6137c72965565266b4354d38","A3","batch1","pattern_response","1411.965000006603","stim/no_49_2_b.png","j","pattern_29","j","true","","","","1411.965000006603","true","19","","","","","","","","","","","","","","","","",""
"","","","","","html-keyboard-response","191","838164","0.0-3.0-5.0-0.23","6137c72965565266b4354d38","A3","batch1","pattern_show_trial_num","null","<p class=block-text>Trial 24 out of 78</p>","null","","","","","","","","","","","","","","","","","","","","","","","","","",""
"","","","","","image-keyboard-response","192","838952","0.0-3.0-5.0-1.23","6137c72965565266b4354d38","A3","batch1","pattern_response","785.1950000040233","stim/yes_36_ver_w1_w.png","f","pattern_58","f","true","","","","785.1950000040233","true","20","","","","","","","","","","","","","","","","",""
"","","","","","html-keyboard-response","193","840255","0.0-3.0-5.0-0.24","6137c72965565266b4354d38","A3","batch1","pattern_show_trial_num","null","<p class=block-text>Trial 25 out of 78</p>","null","","","","","","","","","","","","","","","","","","","","","","","","","",""
"","","","","","image-keyboard-response","194","842255","0.0-3.0-5.0-1.24","6137c72965565266b4354d38","A3","batch1","pattern_response","1996.9350000028498","stim/no_47_1_b.png","j","pattern_27","j","true","","","","1996.9350000028498","true","21","","","","","","","","","","","","","","","","",""
"","","","","","html-keyboard-response","195","843557","0.0-3.0-5.0-0.25","6137c72965565266b4354d38","A3","batch1","pattern_show_trial_num","null","<p class=block-text>Trial 26 out of 78</p>","null","","","","","","","","","","","","","","","","","","","","","","","","","",""
"","","","","","image-keyboard-response","196","845436","0.0-3.0-5.0-1.25","6137c72965565266b4354d38","A3","batch1","pattern_response","1874.8149999883026","stim/yes_51_dia_b1.png","j","pattern_72","f","false","","","","1874.8149999883026","false","21","","","","","","","","","","","","","","","","",""
"","","","","","html-keyboard-response","197","846738","0.0-3.0-5.0-0.26","6137c72965565266b4354d38","A3","batch1","pattern_show_trial_num","null","<p class=block-text>Trial 27 out of 78</p>","null","","","","","","","","","","","","","","","","","","","","","","","","","",""
"","","","","","image-keyboard-response","198","847456","0.0-3.0-5.0-1.26","6137c72965565266b4354d38","A3","batch1","pattern_response","715.1350000058301","stim/yes_12_hor_w1_w.png","f","pattern_42","f","true","","","","715.1350000058301","true","22","","","","","","","","","","","","","","","","",""
"","","","","","html-keyboard-response","199","848760","0.0-3.0-5.0-0.27","6137c72965565266b4354d38","A3","batch1","pattern_show_trial_num","null","<p class=block-text>Trial 28 out of 78</p>","null","","","","","","","","","","","","","","","","","","","","","","","","","",""
"","","","","","image-keyboard-response","200","849502","0.0-3.0-5.0-1.27","6137c72965565266b4354d38","A3","batch1","pattern_response","739.1099999949802","stim/yes_39_hor_w1_w.png","f","pattern_62","f","true","","","","739.1099999949802","true","23","","","","","","","","","","","","","","","","",""
"","","","","","html-keyboard-response","201","850803","0.0-3.0-5.0-0.28","6137c72965565266b4354d38","A3","batch1","pattern_show_trial_num","null","<p class=block-text>Trial 29 out of 78</p>","null","","","","","","","","","","","","","","","","","","","","","","","","","",""
"","","","","","image-keyboard-response","202","853202","0.0-3.0-5.0-1.28","6137c72965565266b4354d38","A3","batch1","pattern_response","2395.9949999989476","stim/no_39_1_w.png","j","pattern_21","j","true","","","","2395.9949999989476","true","24","","","","","","","","","","","","","","","","",""
"","","","","","html-keyboard-response","203","854504","0.0-3.0-5.0-0.29","6137c72965565266b4354d38","A3","batch1","pattern_show_trial_num","null","<p class=block-text>Trial 30 out of 78</p>","null","","","","","","","","","","","","","","","","","","","","","","","","","",""
"","","","","","image-keyboard-response","204","856649","0.0-3.0-5.0-1.29","6137c72965565266b4354d38","A3","batch1","pattern_response","2141.8199999898206","stim/no_25_1_b.png","j","pattern_09","j","true","","","","2141.8199999898206","true","25","","","","","","","","","","","","","","","","",""
"","","","","","html-keyboard-response","205","857953","0.0-3.0-5.0-0.30","6137c72965565266b4354d38","A3","batch1","pattern_show_trial_num","null","<p class=block-text>Trial 31 out of 78</p>","null","","","","","","","","","","","","","","","","","","","","","","","","","",""
"","","","","","image-keyboard-response","206","860471","0.0-3.0-5.0-1.30","6137c72965565266b4354d38","A3","batch1","pattern_response","2513.2549999980256","stim/no_51_1.png","j","pattern_31","j","true","","","","2513.2549999980256","true","26","","","","","","","","","","","","","","","","",""
"","","","","","html-keyboard-response","207","861776","0.0-3.0-5.0-0.31","6137c72965565266b4354d38","A3","batch1","pattern_show_trial_num","null","<p class=block-text>Trial 32 out of 78</p>","null","","","","","","","","","","","","","","","","","","","","","","","","","",""
"","","","","","image-keyboard-response","208","863148","0.0-3.0-5.0-1.31","6137c72965565266b4354d38","A3","batch1","pattern_response","1368.9250000170432","stim/no_28_2.png","j","pattern_11","j","true","","","","1368.9250000170432","true","27","","","","","","","","","","","","","","","","",""
"","","","","","html-keyboard-response","209","864451","0.0-3.0-5.0-0.32","6137c72965565266b4354d38","A3","batch1","pattern_show_trial_num","null","<p class=block-text>Trial 33 out of 78</p>","null","","","","","","","","","","","","","","","","","","","","","","","","","",""
"","","","","","image-keyboard-response","210","865774","0.0-3.0-5.0-1.32","6137c72965565266b4354d38","A3","batch1","pattern_response","1319.9700000113808","stim/yes_70_ver_b1.png","f","pattern_80","f","true","","","","1319.9700000113808","true","28","","","","","","","","","","","","","","","","",""
"","","","","","html-keyboard-response","211","867078","0.0-3.0-5.0-0.33","6137c72965565266b4354d38","A3","batch1","pattern_show_trial_num","null","<p class=block-text>Trial 34 out of 78</p>","null","","","","","","","","","","","","","","","","","","","","","","","","","",""
"","","","","","image-keyboard-response","212","872491","0.0-3.0-5.0-1.33","6137c72965565266b4354d38","A3","batch1","pattern_response","5410.219999990659","stim/yes_63_dia_b1.png","j","pattern_78","f","false","","","","5410.219999990659","false","28","","","","","","","","","","","","","","","","",""
"","","","","","html-keyboard-response","213","873794","0.0-3.0-5.0-0.34","6137c72965565266b4354d38","A3","batch1","pattern_show_trial_num","null","<p class=block-text>Trial 35 out of 78</p>","null","","","","","","","","","","","","","","","","","","","","","","","","","",""
"","","","","","image-keyboard-response","214","875508","0.0-3.0-5.0-1.34","6137c72965565266b4354d38","A3","batch1","pattern_response","1709.514999995008","stim/no_22_1_b.png","j","pattern_07","j","true","","","","1709.514999995008","true","29","","","","","","","","","","","","","","","","",""
"","","","","","html-keyboard-response","215","876809","0.0-3.0-5.0-0.35","6137c72965565266b4354d38","A3","batch1","pattern_show_trial_num","null","<p class=block-text>Trial 36 out of 78</p>","null","","","","","","","","","","","","","","","","","","","","","","","","","",""
"","","","","","image-keyboard-response","216","877633","0.0-3.0-5.0-1.35","6137c72965565266b4354d38","A3","batch1","pattern_response","821.3649999815971","stim/yes_33_dia_w1_w.png","j","pattern_56","f","false","","","","821.3649999815971","false","29","","","","","","","","","","","","","","","","",""
"","","","","","html-keyboard-response","217","878935","0.0-3.0-5.0-0.36","6137c72965565266b4354d38","A3","batch1","pattern_show_trial_num","null","<p class=block-text>Trial 37 out of 78</p>","null","","","","","","","","","","","","","","","","","","","","","","","","","",""
"","","","","","image-keyboard-response","218","881752","0.0-3.0-5.0-1.36","6137c72965565266b4354d38","A3","batch1","pattern_response","2814.5950000034645","stim/no_43_2_b.png","j","pattern_23","j","true","","","","2814.5950000034645","true","30","","","","","","","","","","","","","","","","",""
"","","","","","html-keyboard-response","219","883056","0.0-3.0-5.0-0.37","6137c72965565266b4354d38","A3","batch1","pattern_show_trial_num","null","<p class=block-text>Trial 38 out of 78</p>","null","","","","","","","","","","","","","","","","","","","","","","","","","",""
"","","","","","image-keyboard-response","220","884190","0.0-3.0-5.0-1.37","6137c72965565266b4354d38","A3","batch1","pattern_response","1130.1499999826774","stim/yes_53_ver_b1_b.png","f","pattern_74","f","true","","","","1130.1499999826774","true","31","","","","","","","","","","","","","","","","",""
"","","","","","html-keyboard-response","221","885495","0.0-3.0-5.0-0.38","6137c72965565266b4354d38","A3","batch1","pattern_show_trial_num","null","<p class=block-text>Trial 39 out of 78</p>","null","","","","","","","","","","","","","","","","","","","","","","","","","",""
"","","","","","image-keyboard-response","222","887719","0.0-3.0-5.0-1.38","6137c72965565266b4354d38","A3","batch1","pattern_response","2220.8450000034645","stim/no_33_1_b.png","j","pattern_15","j","true","","","","2220.8450000034645","true","32","","","","","","","","","","","","","","","","",""
"","","","","","image-keyboard-response","223","890787","0.0-3.0-6.0","6137c72965565266b4354d38","A3","batch1","attention_check","2563.750000001164","stim/empty_board.png","j","","j","true","","","","","","","500","[""f"",""j""]","","","","","","","","","","","","","","",""
"","","","","","html-keyboard-response","224","891588","0.0-3.0-7.0-0.0","6137c72965565266b4354d38","A3","batch1","pattern_show_trial_num","null","<p class=block-text>Trial 40 out of 78</p>","null","","","","","","","","","","","","","","","","","","","","","","","","","",""
"","","","","","image-keyboard-response","225","895421","0.0-3.0-7.0-1.0","6137c72965565266b4354d38","A3","batch1","pattern_response","3829.07000000705","stim/no_44_1.png","j","pattern_24","j","true","","","","3829.07000000705","true","33","","","","","","","","","","","","","","","","",""
"","","","","","html-keyboard-response","226","896722","0.0-3.0-7.0-0.1","6137c72965565266b4354d38","A3","batch1","pattern_show_trial_num","null","<p class=block-text>Trial 41 out of 78</p>","null","","","","","","","","","","","","","","","","","","","","","","","","","",""
"","","","","","image-keyboard-response","227","901583","0.0-3.0-7.0-1.1","6137c72965565266b4354d38","A3","batch1","pattern_response","4858.000000007451","stim/no_70_2.png","j","pattern_40","j","true","","","","4858.000000007451","true","34","","","","","","","","","","","","","","","","",""
"","","","","","html-keyboard-response","228","902886","0.0-3.0-7.0-0.2","6137c72965565266b4354d38","A3","batch1","pattern_show_trial_num","null","<p class=block-text>Trial 42 out of 78</p>","null","","","","","","","","","","","","","","","","","","","","","","","","","",""
"","","","","","image-keyboard-response","229","903793","0.0-3.0-7.0-1.2","6137c72965565266b4354d38","A3","batch1","pattern_response","903.3199999830686","stim/no_29_1_b.png","j","pattern_12","j","true","","","","903.3199999830686","true","35","","","","","","","","","","","","","","","","",""
"","","","","","html-keyboard-response","230","905094","0.0-3.0-7.0-0.3","6137c72965565266b4354d38","A3","batch1","pattern_show_trial_num","null","<p class=block-text>Trial 43 out of 78</p>","null","","","","","","","","","","","","","","","","","","","","","","","","","",""
"","","","","","image-keyboard-response","231","905835","0.0-3.0-7.0-1.3","6137c72965565266b4354d38","A3","batch1","pattern_response","737.2250000189524","stim/no_13_2_b.png","j","pattern_02","j","true","","","","737.2250000189524","true","36","","","","","","","","","","","","","","","","",""
"","","","","","html-keyboard-response","232","907139","0.0-3.0-7.0-0.4","6137c72965565266b4354d38","A3","batch1","pattern_show_trial_num","null","<p class=block-text>Trial 44 out of 78</p>","null","","","","","","","","","","","","","","","","","","","","","","","","","",""
"","","","","","image-keyboard-response","233","908054","0.0-3.0-7.0-1.4","6137c72965565266b4354d38","A3","batch1","pattern_response","910.8600000035949","stim/no_36_2_w.png","j","pattern_18","j","true","","","","910.8600000035949","true","37","","","","","","","","","","","","","","","","",""
"","","","","","html-keyboard-response","234","909355","0.0-3.0-7.0-0.5","6137c72965565266b4354d38","A3","batch1","pattern_show_trial_num","null","<p class=block-text>Trial 45 out of 78</p>","null","","","","","","","","","","","","","","","","","","","","","","","","","",""
"","","","","","image-keyboard-response","235","911424","0.0-3.0-7.0-1.5","6137c72965565266b4354d38","A3","batch1","pattern_response","2065.4300000169314","stim/no_50_1.png","j","pattern_30","j","true","","","","2065.4300000169314","true","38","","","","","","","","","","","","","","","","",""
"","","","","","html-keyboard-response","236","912728","0.0-3.0-7.0-0.6","6137c72965565266b4354d38","A3","batch1","pattern_show_trial_num","null","<p class=block-text>Trial 46 out of 78</p>","null","","","","","","","","","","","","","","","","","","","","","","","","","",""
"","","","","","image-keyboard-response","237","914176","0.0-3.0-7.0-1.6","6137c72965565266b4354d38","A3","batch1","pattern_response","1443.6050000076648","stim/yes_37_dia_w1.png","j","pattern_59","f","false","","","","1443.6050000076648","false","38","","","","","","","","","","","","","","","","",""
"","","","","","html-keyboard-response","238","915478","0.0-3.0-7.0-0.7","6137c72965565266b4354d38","A3","batch1","pattern_show_trial_num","null","<p class=block-text>Trial 47 out of 78</p>","null","","","","","","","","","","","","","","","","","","","","","","","","","",""
"","","","","","image-keyboard-response","239","917800","0.0-3.0-7.0-1.7","6137c72965565266b4354d38","A3","batch1","pattern_response","2319.049999990966","stim/yes_50_dia_w1.png","j","pattern_71","f","false","","","","2319.049999990966","false","38","","","","","","","","","","","","","","","","",""
"","","","","","html-keyboard-response","240","919101","0.0-3.0-7.0-0.8","6137c72965565266b4354d38","A3","batch1","pattern_show_trial_num","null","<p class=block-text>Trial 48 out of 78</p>","null","","","","","","","","","","","","","","","","","","","","","","","","","",""
"","","","","","image-keyboard-response","241","920983","0.0-3.0-7.0-1.8","6137c72965565266b4354d38","A3","batch1","pattern_response","1878.0450000194833","stim/yes_52_ver_w1.png","f","pattern_73","f","true","","","","1878.0450000194833","true","39","","","","","","","","","","","","","","","","",""
"","","","","","html-keyboard-response","242","922284","0.0-3.0-7.0-0.9","6137c72965565266b4354d38","A3","batch1","pattern_show_trial_num","null","<p class=block-text>Trial 49 out of 78</p>","null","","","","","","","","","","","","","","","","","","","","","","","","","",""
"","","","","","image-keyboard-response","243","923658","0.0-3.0-7.0-1.9","6137c72965565266b4354d38","A3","batch1","pattern_response","1370.0499999977183","stim/yes_45_hor_b2_b.png","f","pattern_67","f","true","","","","1370.0499999977183","true","40","","","","","","","","","","","","","","","","",""
"","","","","","html-keyboard-response","244","924963","0.0-3.0-7.0-0.10","6137c72965565266b4354d38","A3","batch1","pattern_show_trial_num","null","<p class=block-text>Trial 50 out of 78</p>","null","","","","","","","","","","","","","","","","","","","","","","","","","",""
"","","","","","image-keyboard-response","245","925804","0.0-3.0-7.0-1.10","6137c72965565266b4354d38","A3","batch1","pattern_response","837.1449999976903","stim/yes_14_hor_b1_w.png","f","pattern_43","f","true","","","","837.1449999976903","true","41","","","","","","","","","","","","","","","","",""
"","","","","","html-keyboard-response","246","927105","0.0-3.0-7.0-0.11","6137c72965565266b4354d38","A3","batch1","pattern_show_trial_num","null","<p class=block-text>Trial 51 out of 78</p>","null","","","","","","","","","","","","","","","","","","","","","","","","","",""
"","","","","","image-keyboard-response","247","929555","0.0-3.0-7.0-1.11","6137c72965565266b4354d38","A3","batch1","pattern_response","2446.7449999938253","stim/no_52_1.png","j","pattern_32","j","true","","","","2446.7449999938253","true","42","","","","","","","","","","","","","","","","",""
"","","","","","html-keyboard-response","248","930857","0.0-3.0-7.0-0.12","6137c72965565266b4354d38","A3","batch1","pattern_show_trial_num","null","<p class=block-text>Trial 52 out of 78</p>","null","","","","","","","","","","","","","","","","","","","","","","","","","",""
"","","","","","image-keyboard-response","249","931863","0.0-3.0-7.0-1.12","6137c72965565266b4354d38","A3","batch1","pattern_response","1002.5949999981094","stim/yes_43_ver_w1_w.png","f","pattern_65","f","true","","","","1002.5949999981094","true","43","","","","","","","","","","","","","","","","",""
"","","","","","html-keyboard-response","250","933166","0.0-3.0-7.0-0.13","6137c72965565266b4354d38","A3","batch1","pattern_show_trial_num","null","<p class=block-text>Trial 53 out of 78</p>","null","","","","","","","","","","","","","","","","","","","","","","","","","",""
"","","","","","image-keyboard-response","251","934136","0.0-3.0-7.0-1.13","6137c72965565266b4354d38","A3","batch1","pattern_response","967.6949999993667","stim/yes_67_hor_b1.png","f","pattern_79","f","true","","","","967.6949999993667","true","44","","","","","","","","","","","","","","","","",""
"","","","","","html-keyboard-response","252","935439","0.0-3.0-7.0-0.14","6137c72965565266b4354d38","A3","batch1","pattern_show_trial_num","null","<p class=block-text>Trial 54 out of 78</p>","null","","","","","","","","","","","","","","","","","","","","","","","","","",""
"","","","","","image-keyboard-response","253","936458","0.0-3.0-7.0-1.14","6137c72965565266b4354d38","A3","batch1","pattern_response","1016.4300000178628","stim/no_20_1_w.png","j","pattern_06","j","true","","","","1016.4300000178628","true","45","","","","","","","","","","","","","","","","",""
"","","","","","html-keyboard-response","254","937760","0.0-3.0-7.0-0.15","6137c72965565266b4354d38","A3","batch1","pattern_show_trial_num","null","<p class=block-text>Trial 55 out of 78</p>","null","","","","","","","","","","","","","","","","","","","","","","","","","",""
"","","","","","image-keyboard-response","255","939753","0.0-3.0-7.0-1.15","6137c72965565266b4354d38","A3","batch1","pattern_response","1988.8949999876786","stim/yes_31_hor_b1.png","f","pattern_55","f","true","","","","1988.8949999876786","true","46","","","","","","","","","","","","","","","","",""
"","","","","","html-keyboard-response","256","941055","0.0-3.0-7.0-0.16","6137c72965565266b4354d38","A3","batch1","pattern_show_trial_num","null","<p class=block-text>Trial 56 out of 78</p>","null","","","","","","","","","","","","","","","","","","","","","","","","","",""
"","","","","","image-keyboard-response","257","942382","0.0-3.0-7.0-1.16","6137c72965565266b4354d38","A3","batch1","pattern_response","1322.9649999993853","stim/no_17_1_w.png","j","pattern_04","j","true","","","","1322.9649999993853","true","47","","","","","","","","","","","","","","","","",""
"","","","","","html-keyboard-response","258","943685","0.0-3.0-7.0-0.17","6137c72965565266b4354d38","A3","batch1","pattern_show_trial_num","null","<p class=block-text>Trial 57 out of 78</p>","null","","","","","","","","","","","","","","","","","","","","","","","","","",""
"","","","","","image-keyboard-response","259","944907","0.0-3.0-7.0-1.17","6137c72965565266b4354d38","A3","batch1","pattern_response","1217.6449999969918","stim/no_26_1_w.png","j","pattern_10","j","true","","","","1217.6449999969918","true","48","","","","","","","","","","","","","","","","",""
"","","","","","html-keyboard-response","260","946209","0.0-3.0-7.0-0.18","6137c72965565266b4354d38","A3","batch1","pattern_show_trial_num","null","<p class=block-text>Trial 58 out of 78</p>","null","","","","","","","","","","","","","","","","","","","","","","","","","",""
"","","","","","image-keyboard-response","261","950752","0.0-3.0-7.0-1.18","6137c72965565266b4354d38","A3","batch1","pattern_response","4539.269999979297","stim/no_62_1_w.png","j","pattern_36","j","true","","","","4539.269999979297","true","49","","","","","","","","","","","","","","","","",""
"","","","","","html-keyboard-response","262","952055","0.0-3.0-7.0-0.19","6137c72965565266b4354d38","A3","batch1","pattern_show_trial_num","null","<p class=block-text>Trial 59 out of 78</p>","null","","","","","","","","","","","","","","","","","","","","","","","","","",""
"","","","","","image-keyboard-response","263","952805","0.0-3.0-7.0-1.19","6137c72965565266b4354d38","A3","batch1","pattern_response","746.4150000014342","stim/yes_22_ver_w1.png","f","pattern_47","f","true","","","","746.4150000014342","true","50","","","","","","","","","","","","","","","","",""
"","","","","","html-keyboard-response","264","954114","0.0-3.0-7.0-0.20","6137c72965565266b4354d38","A3","batch1","pattern_show_trial_num","null","<p class=block-text>Trial 60 out of 78</p>","null","","","","","","","","","","","","","","","","","","","","","","","","","",""
"","","","","","image-keyboard-response","265","958186","0.0-3.0-7.0-1.20","6137c72965565266b4354d38","A3","batch1","pattern_response","4068.780000001425","stim/no_38_1_b.png","j","pattern_20","j","true","","","","4068.780000001425","true","51","","","","","","","","","","","","","","","","",""
"","","","","","html-keyboard-response","266","959487","0.0-3.0-7.0-0.21","6137c72965565266b4354d38","A3","batch1","pattern_show_trial_num","null","<p class=block-text>Trial 61 out of 78</p>","null","","","","","","","","","","","","","","","","","","","","","","","","","",""
"","","","","","image-keyboard-response","267","960861","0.0-3.0-7.0-1.21","6137c72965565266b4354d38","A3","batch1","pattern_response","1370.280000002822","stim/yes_29_ver_w1.png","f","pattern_53","f","true","","","","1370.280000002822","true","52","","","","","","","","","","","","","","","","",""
"","","","","","html-keyboard-response","268","962164","0.0-3.0-7.0-0.22","6137c72965565266b4354d38","A3","batch1","pattern_show_trial_num","null","<p class=block-text>Trial 62 out of 78</p>","null","","","","","","","","","","","","","","","","","","","","","","","","","",""
"","","","","","image-keyboard-response","269","965982","0.0-3.0-7.0-1.22","6137c72965565266b4354d38","A3","batch1","pattern_response","3815.5949999927543","stim/no_48_1_w.png","j","pattern_28","j","true","","","","3815.5949999927543","true","53","","","","","","","","","","","","","","","","",""
"","","","","","html-keyboard-response","270","967288","0.0-3.0-7.0-0.23","6137c72965565266b4354d38","A3","batch1","pattern_show_trial_num","null","<p class=block-text>Trial 63 out of 78</p>","null","","","","","","","","","","","","","","","","","","","","","","","","","",""
"","","","","","image-keyboard-response","271","968690","0.0-3.0-7.0-1.23","6137c72965565266b4354d38","A3","batch1","pattern_response","1398.829999990994","stim/yes_35_dia_b1.png","j","pattern_57","f","false","","","","1398.829999990994","false","53","","","","","","","","","","","","","","","","",""
"","","","","","html-keyboard-response","272","969992","0.0-3.0-7.0-0.24","6137c72965565266b4354d38","A3","batch1","pattern_show_trial_num","null","<p class=block-text>Trial 64 out of 78</p>","null","","","","","","","","","","","","","","","","","","","","","","","","","",""
"","","","","","image-keyboard-response","273","973583","0.0-3.0-7.0-1.24","6137c72965565266b4354d38","A3","batch1","pattern_response","3586.799999990035","stim/no_34_1_b.png","j","pattern_16","j","true","","","","3586.799999990035","true","54","","","","","","","","","","","","","","","","",""
"","","","","","html-keyboard-response","274","974885","0.0-3.0-7.0-0.25","6137c72965565266b4354d38","A3","batch1","pattern_show_trial_num","null","<p class=block-text>Trial 65 out of 78</p>","null","","","","","","","","","","","","","","","","","","","","","","","","","",""
"","","","","","image-keyboard-response","275","975755","0.0-3.0-7.0-1.25","6137c72965565266b4354d38","A3","batch1","pattern_response","867.6050000067335","stim/yes_25_hor_b1_b.png","f","pattern_49","f","true","","","","867.6050000067335","true","55","","","","","","","","","","","","","","","","",""
"","","","","","html-keyboard-response","276","977059","0.0-3.0-7.0-0.26","6137c72965565266b4354d38","A3","batch1","pattern_show_trial_num","null","<p class=block-text>Trial 66 out of 78</p>","null","","","","","","","","","","","","","","","","","","","","","","","","","",""
"","","","","","image-keyboard-response","277","979907","0.0-3.0-7.0-1.26","6137c72965565266b4354d38","A3","batch1","pattern_response","2845.400000020163","stim/no_46_1_b.png","j","pattern_26","j","true","","","","2845.400000020163","true","56","","","","","","","","","","","","","","","","",""
"","","","","","html-keyboard-response","278","981208","0.0-3.0-7.0-0.27","6137c72965565266b4354d38","A3","batch1","pattern_show_trial_num","null","<p class=block-text>Trial 67 out of 78</p>","null","","","","","","","","","","","","","","","","","","","","","","","","","",""
"","","","","","image-keyboard-response","279","986044","0.0-3.0-7.0-1.27","6137c72965565266b4354d38","A3","batch1","pattern_response","4832.439999998314","stim/no_65_1_b.png","j","pattern_38","j","true","","","","4832.439999998314","true","57","","","","","","","","","","","","","","","","",""
"","","","","","html-keyboard-response","280","987347","0.0-3.0-7.0-0.28","6137c72965565266b4354d38","A3","batch1","pattern_show_trial_num","null","<p class=block-text>Trial 68 out of 78</p>","null","","","","","","","","","","","","","","","","","","","","","","","","","",""
"","","","","","image-keyboard-response","281","988506","0.0-3.0-7.0-1.28","6137c72965565266b4354d38","A3","batch1","pattern_response","1154.9449999874923","stim/yes_17_dia_w1.png","j","pattern_45","f","false","","","","1154.9449999874923","false","57","","","","","","","","","","","","","","","","",""
"","","","","","html-keyboard-response","282","989807","0.0-3.0-7.0-0.29","6137c72965565266b4354d38","A3","batch1","pattern_show_trial_num","null","<p class=block-text>Trial 69 out of 78</p>","null","","","","","","","","","","","","","","","","","","","","","","","","","",""
"","","","","","image-keyboard-response","283","993214","0.0-3.0-7.0-1.29","6137c72965565266b4354d38","A3","batch1","pattern_response","3403.454999992391","stim/yes_55_hor_w1_w.png","j","pattern_75","f","false","","","","3403.454999992391","false","57","","","","","","","","","","","","","","","","",""
"","","","","","html-keyboard-response","284","994516","0.0-3.0-7.0-0.30","6137c72965565266b4354d38","A3","batch1","pattern_show_trial_num","null","<p class=block-text>Trial 70 out of 78</p>","null","","","","","","","","","","","","","","","","","","","","","","","","","",""
"","","","","","image-keyboard-response","285","995974","0.0-3.0-7.0-1.30","6137c72965565266b4354d38","A3","batch1","pattern_response","1453.9799999911338","stim/yes_38_hor_b1_b.png","f","pattern_61","f","true","","","","1453.9799999911338","true","58","","","","","","","","","","","","","","","","",""
"","","","","","html-keyboard-response","286","997275","0.0-3.0-7.0-0.31","6137c72965565266b4354d38","A3","batch1","pattern_show_trial_num","null","<p class=block-text>Trial 71 out of 78</p>","null","","","","","","","","","","","","","","","","","","","","","","","","","",""
"","","","","","image-keyboard-response","287","998307","0.0-3.0-7.0-1.31","6137c72965565266b4354d38","A3","batch1","pattern_response","1029.2300000146497","stim/yes_40_dia_b1_b.png","f","pattern_63","f","true","","","","1029.2300000146497","true","59","","","","","","","","","","","","","","","","",""
"","","","","","html-keyboard-response","288","999610","0.0-3.0-7.0-0.32","6137c72965565266b4354d38","A3","batch1","pattern_show_trial_num","null","<p class=block-text>Trial 72 out of 78</p>","null","","","","","","","","","","","","","","","","","","","","","","","","","",""
"","","","","","image-keyboard-response","289","1003031","0.0-3.0-7.0-1.32","6137c72965565266b4354d38","A3","batch1","pattern_response","3417.7700000000186","stim/no_42_1_w.png","j","pattern_22","j","true","","","","3417.7700000000186","true","60","","","","","","","","","","","","","","","","",""
"","","","","","html-keyboard-response","290","1004335","0.0-3.0-7.0-0.33","6137c72965565266b4354d38","A3","batch1","pattern_show_trial_num","null","<p class=block-text>Trial 73 out of 78</p>","null","","","","","","","","","","","","","","","","","","","","","","","","","",""
"","","","","","image-keyboard-response","291","1007219","0.0-3.0-7.0-1.33","6137c72965565266b4354d38","A3","batch1","pattern_response","2880.5500000016764","stim/no_32_1_w.png","j","pattern_14","j","true","","","","2880.5500000016764","true","61","","","","","","","","","","","","","","","","",""
"","","","","","html-keyboard-response","292","1008525","0.0-3.0-7.0-0.34","6137c72965565266b4354d38","A3","batch1","pattern_show_trial_num","null","<p class=block-text>Trial 74 out of 78</p>","null","","","","","","","","","","","","","","","","","","","","","","","","","",""
"","","","","","image-keyboard-response","293","1009668","0.0-3.0-7.0-1.34","6137c72965565266b4354d38","A3","batch1","pattern_response","1139.6400000085123","stim/yes_28_ver_b1.png","f","pattern_51","f","true","","","","1139.6400000085123","true","62","","","","","","","","","","","","","","","","",""
"","","","","","html-keyboard-response","294","1010973","0.0-3.0-7.0-0.35","6137c72965565266b4354d38","A3","batch1","pattern_show_trial_num","null","<p class=block-text>Trial 75 out of 78</p>","null","","","","","","","","","","","","","","","","","","","","","","","","","",""
"","","","","","image-keyboard-response","295","1015794","0.0-3.0-7.0-1.35","6137c72965565266b4354d38","A3","batch1","pattern_response","4816.969999985304","stim/yes_60_ver_b1_b.png","j","pattern_77","f","false","","","","4816.969999985304","false","62","","","","","","","","","","","","","","","","",""
"","","","","","html-keyboard-response","296","1017096","0.0-3.0-7.0-0.36","6137c72965565266b4354d38","A3","batch1","pattern_show_trial_num","null","<p class=block-text>Trial 76 out of 78</p>","null","","","","","","","","","","","","","","","","","","","","","","","","","",""
"","","","","","image-keyboard-response","297","1023791","0.0-3.0-7.0-1.36","6137c72965565266b4354d38","A3","batch1","pattern_response","6691.615000017919","stim/no_55_1_w.png","j","pattern_34","j","true","","","","6691.615000017919","true","63","","","","","","","","","","","","","","","","",""
"","","","","","html-keyboard-response","298","1025096","0.0-3.0-7.0-0.37","6137c72965565266b4354d38","A3","batch1","pattern_show_trial_num","null","<p class=block-text>Trial 77 out of 78</p>","null","","","","","","","","","","","","","","","","","","","","","","","","","",""
"","","","","","image-keyboard-response","299","1027427","0.0-3.0-7.0-1.37","6137c72965565266b4354d38","A3","batch1","pattern_response","2326.229999976931","stim/no_23_1.png","j","pattern_08","j","true","","","","2326.229999976931","true","64","","","","","","","","","","","","","","","","",""
"","","","","","html-keyboard-response","300","1028728","0.0-3.0-7.0-0.38","6137c72965565266b4354d38","A3","batch1","pattern_show_trial_num","null","<p class=block-text>Trial 78 out of 78</p>","null","","","","","","","","","","","","","","","","","","","","","","","","","",""
"","","","","","image-keyboard-response","301","1032188","0.0-3.0-7.0-1.38","6137c72965565266b4354d38","A3","batch1","pattern_response","3455.9099999896716","stim/yes_48_dia_w1_w.png","f","pattern_69","f","true","","","","3455.9099999896716","true","65","","","","","","","","","","","","","","","","",""
"","","","","","html-button-response","302","1039447","0.0-3.0-8.0","6137c72965565266b4354d38","A3","batch1","","6756.1299999943","<p class = block-text>This concludes the 4-in-a-row detection game.Thank you for your responses!<br>
            You responded correctly on 83% of the trials.<br>
            When you are ready, press ""Continue"" button to continue </p>","0","","","","","","","","","","","","","","","","","","","","","","","","","",""
"true","","","","","fullscreen","303","1042325","0.0-4.0-0.0","6137c72965565266b4354d38","A3","batch1","","","","","","","","","","","","","","","","","","","","","","","","","","","","","",""
"","","","","","instructions","304","1095602","0.0-4.0-1.0-0.0-0.0","6137c72965565266b4354d38","A3","batch1","tol-instructions","53277.384999993956","","","","","","","","[{""page_index"":0,""viewing_time"":8376.175000012154},{""page_index"":1,""viewing_time"":7447.0799999835435},{""page_index"":2,""viewing_time"":6805.605000001378},{""page_index"":3,""viewing_time"":8983.494999993127},{""page_index"":4,""viewing_time"":6257.27500001085},{""page_index"":5,""viewing_time"":11762.900000001537},{""page_index"":6,""viewing_time"":3644.56000001519}]","","","","","","","","","","","","","","","","","","","",""
"","","","","","html-button-response","305","1096485","0.0-4.0-1.0-1.0-0.0","6137c72965565266b4354d38","A3","batch1","tol_enter_quiz","881.9300000031944","<p class=block-text> Let's answer a few questions <br>","0","","","","","","","","","","","","","","","","","","","","","","","","","",""
"","","","","","html-button-response","306","1101762","0.0-4.0-1.0-1.0-1.0","6137c72965565266b4354d38","A3","batch1","tol_quiz","5275.859999994282","<p class = block-text>True or False: You can only move the ball on top of a peg. <br></p>","0","","","true","","","","","","","","","","","","","","","","","","","","","","",""
"","","","","","html-button-response","307","1103108","0.0-4.0-1.0-1.0-2.0","6137c72965565266b4354d38","A3","batch1","tol_quiz_feedback","1345.355000026757","<p class = block-text>Correct! You can only move the ball on top of a peg.</p>","0","","","","","","","","","","","","","","","","","","","","","","","","","",""
"","","","","","html-button-response","308","1105443","0.0-4.0-1.0-1.0-3.0","6137c72965565266b4354d38","A3","batch1","tol_quiz","2334.0900000184774","<p class = block-text>True or False: You should try to match your board with the target board with fewest moves possible. <br></p>","0","","","true","","","","","","","","","","","","","","","","","","","","","","",""
"","","","","","html-button-response","309","1106217","0.0-4.0-1.0-1.0-4.0","6137c72965565266b4354d38","A3","batch1","tol_quiz_feedback","772.3300000070594","<p class = block-text>Correct! </p>","0","","","","","","","","","","","","","","","","","","","","","","","","","",""
"","","","","","html-button-response","310","1107394","0.0-4.0-2.0","6137c72965565266b4354d38","A3","batch1","","1175.1899999799207","<p class=block-text> Now that you've understood the game, let's practice a few easier examples before we start!<br> <br>","0","","","","","","","","","","","","","","","","","","","","","","","","","",""
"","","","","","single-stim-button","311","1113813","0.0-4.0-3.0-0.0","6137c72965565266b4354d38","A3","batch1","tol_practice","6416","","","","","","","","","","","","","","tol_peg_2","6416","6416","0","[[1,2,0],[0,0],[0]]","1","[[1,2,0],[0,0],[3]]","practice","6416","","","","","",""
"","","","","","single-stim-button","312","1116496","0.0-4.0-3.0-1.0","6137c72965565266b4354d38","A3","batch1","tol_practice","2682","","","","","","","","","","","","","","tol_peg_3","2682","2682","0","[[1,2,0],[0,0],[3]]","1","[[1,2,0],[0,0],[3]]","practice","2682","","","","","",""
"","","","","","poldrack-single-stim","313","1117499","0.0-4.0-4.0","6137c72965565266b4354d38","A3","batch1","tol_feedback","-1","","","","","true","","","","","","","","","","1000","1000","500","","","","","","-1","none","true","","0",""
"","","","","","single-stim-button","314","1124887","0.0-4.0-5.0-0.0","6137c72965565266b4354d38","A3","batch1","tol_practice","7387","","","","","","","","","","","","","","tol_peg_1","7387","7387","0","[[1,0,0],[3,0],[0]]","2","[[0,0,0],[3,1],[2]]","practice","7387","","","","","",""
"","","","","","single-stim-button","315","1126908","0.0-4.0-5.0-1.0","6137c72965565266b4354d38","A3","batch1","tol_practice","2019","","","","","","","","","","","","","","tol_peg_3","2019","2019","0","[[1,0,0],[3,0],[2]]","2","[[0,0,0],[3,1],[2]]","practice","2019","","","","","",""
"","","","","","single-stim-button","316","1130583","0.0-4.0-5.1-0.1","6137c72965565266b4354d38","A3","batch1","tol_practice","3675","","","","","","","","","","","","","","tol_peg_1","3675","3675","0","[[0,0,0],[3,0],[2]]","3","[[0,0,0],[3,1],[2]]","practice","3675","","","","","",""
"","","","","","single-stim-button","317","1137092","0.0-4.0-5.1-1.1","6137c72965565266b4354d38","A3","batch1","tol_practice","6508","","","","","","","","","","","","","","tol_peg_2","6508","6508","0","[[0,0,0],[3,1],[2]]","3","[[0,0,0],[3,1],[2]]","practice","6508","","","","","",""
"","","","","","poldrack-single-stim","318","1138094","0.0-4.0-6.0","6137c72965565266b4354d38","A3","batch1","tol_feedback","-1","","","","","true","","","","","","","","","","1000","1000","500","","","","","","-1","none","true","","0",""
"","","","","","single-stim-button","319","1143575","0.0-4.0-7.0-0.0","6137c72965565266b4354d38","A3","batch1","tol_practice","5479","","","","","","","","","","","","","","tol_peg_2","5479","5479","0","[[1,2,0],[0,0],[0]]","4","[[1,0,0],[2,0],[3]]","practice","5479","","","","","",""
"","","","","","single-stim-button","320","1145590","0.0-4.0-7.0-1.0","6137c72965565266b4354d38","A3","batch1","tol_practice","2015","","","","","","","","","","","","","","tol_peg_3","2015","2015","0","[[1,2,0],[0,0],[3]]","4","[[1,0,0],[2,0],[3]]","practice","2015","","","","","",""
"","","","","","single-stim-button","321","1146663","0.0-4.0-7.1-0.1","6137c72965565266b4354d38","A3","batch1","tol_practice","1071","","","","","","","","","","","","","","tol_peg_1","1071","1071","0","[[1,0,0],[0,0],[3]]","5","[[1,0,0],[2,0],[3]]","practice","1071","","","","","",""
"","","","","","single-stim-button","322","1147602","0.0-4.0-7.1-1.1","6137c72965565266b4354d38","A3","batch1","tol_practice","938","","","","","","","","","","","","","","tol_peg_2","938","938","0","[[1,0,0],[2,0],[3]]","5","[[1,0,0],[2,0],[3]]","practice","938","","","","","",""
"","","","","","poldrack-single-stim","323","1148603","0.0-4.0-8.0","6137c72965565266b4354d38","A3","batch1","tol_feedback","-1","","","","","true","","","","","","","","","","1000","1000","500","","","","","","-1","none","true","","0",""
"","","","","","html-button-response","324","1150077","0.0-4.0-9.0","6137c72965565266b4354d38","A3","batch1","tol_instruction","1472.2400000027847","<div class = centerbox><p class = center-block-text>Great job! You are done with practice trials<br>You are about to start official trials.<br> <br> Problem <strong>1</strong> out of 25 problems</p></div>","0","","","","","","","","","","","","","","","","","","","","","","","","","",""
"","","","","","single-stim-button","325","1163962","0.0-4.0-10.0-0.0","6137c72965565266b4354d38","A3","batch1","tol_tohand","12884","","","","","","","","","","","","","","tol_peg_2","12884","12884","0","[[1,2,0],[0,0],[0]]","1","[[1,3,0],[2,0],[0]]","0","0","","","","","","3"
"","","","","","single-stim-button","326","1164700","0.0-4.0-10.0-1.0","6137c72965565266b4354d38","A3","batch1","tol_toboard","736","","","","","","","","","","","","","","tol_peg_1","736","736","0","[[1,2,3],[0,0],[0]]","1","[[1,3,0],[2,0],[0]]","0","0","","","","","","3"
"","","","","","single-stim-button","327","1168606","0.0-4.0-10.1-0.1","6137c72965565266b4354d38","A3","batch1","tol_tohand","3904","","","","","","","","","","","","","","tol_peg_1","3904","3904","0","[[1,2,0],[0,0],[0]]","2","[[1,3,0],[2,0],[0]]","0","0","","","","","","3"
"","","","","","single-stim-button","328","1170460","0.0-4.0-10.1-1.1","6137c72965565266b4354d38","A3","batch1","tol_toboard","1853","","","","","","","","","","","","","","tol_peg_3","1853","1853","0","[[1,2,0],[0,0],[3]]","2","[[1,3,0],[2,0],[0]]","0","0","","","","","","3"
"","","","","","single-stim-button","329","1171290","0.0-4.0-10.2-0.2","6137c72965565266b4354d38","A3","batch1","tol_tohand","830","","","","","","","","","","","","","","tol_peg_1","830","830","0","[[1,0,0],[0,0],[3]]","3","[[1,3,0],[2,0],[0]]","0","0","","","","","","3"
"","","","","","single-stim-button","330","1171903","0.0-4.0-10.2-1.2","6137c72965565266b4354d38","A3","batch1","tol_toboard","611","","","","","","","","","","","","","","tol_peg_2","611","611","0","[[1,0,0],[2,0],[3]]","3","[[1,3,0],[2,0],[0]]","0","0","","","","","","3"
"","","","","","single-stim-button","331","1174768","0.0-4.0-10.3-0.3","6137c72965565266b4354d38","A3","batch1","tol_tohand","2865","","","","","","","","","","","","","","tol_peg_3","2865","2865","0","[[1,0,0],[2,0],[0]]","4","[[1,3,0],[2,0],[0]]","0","0","","","","","","3"
"","","","","","single-stim-button","332","1175584","0.0-4.0-10.3-1.3","6137c72965565266b4354d38","A3","batch1","tol_toboard","814","","","","","","","","","","","","","","tol_peg_1","814","814","0","[[1,3,0],[2,0],[0]]","4","[[1,3,0],[2,0],[0]]","0","0","","","","","","3"
"","","","","","poldrack-single-stim","333","1176586","0.0-4.0-11.0","6137c72965565266b4354d38","A3","batch1","tol_feedback","-1","","","","","true","","","","","","","","","","1000","1000","500","","","","","","-1","none","true","12884","20483",""
"","","","","","html-button-response","334","1177884","0.0-4.0-12.0","6137c72965565266b4354d38","A3","batch1","tol_trial_num","1297.179999994114","<div class = centerbox><p class = center-block-text>problem <strong>2</strong> out of 25 problems</p></div>","0","","","","","","","","","","","","","","","","","","","","","","","","","",""
"","","","","","single-stim-button","335","1185313","0.0-4.0-13.0-0.0","6137c72965565266b4354d38","A3","batch1","tol_tohand","7427","","","","","","","","","","","","","","tol_peg_1","7427","7427","0","[[1,0,0],[3,0],[0]]","1","[[2,1,3],[0,0],[0]]","1","0","","","","","","5"
"","","","","","single-stim-button","336","1186147","0.0-4.0-13.0-1.0","6137c72965565266b4354d38","A3","batch1","tol_toboard","833","","","","","","","","","","","","","","tol_peg_3","833","833","0","[[1,0,0],[3,0],[2]]","1","[[2,1,3],[0,0],[0]]","1","0","","","","","","5"
"","","","","","single-stim-button","337","1188025","0.0-4.0-13.1-0.1","6137c72965565266b4354d38","A3","batch1","tol_tohand","1878","","","","","","","","","","","","","","tol_peg_1","1878","1878","0","[[0,0,0],[3,0],[2]]","2","[[2,1,3],[0,0],[0]]","1","0","","","","","","5"
"","","","","","single-stim-button","338","1192653","0.0-4.0-13.1-1.1","6137c72965565266b4354d38","A3","batch1","tol_toboard","4626","","","","","","","","","","","","","","tol_peg_2","4626","4626","0","[[0,0,0],[3,1],[2]]","2","[[2,1,3],[0,0],[0]]","1","0","","","","","","5"
"","","","","","single-stim-button","339","1193737","0.0-4.0-13.2-0.2","6137c72965565266b4354d38","A3","batch1","tol_tohand","1082","","","","","","","","","","","","","","tol_peg_3","1082","1082","0","[[0,0,0],[3,1],[0]]","3","[[2,1,3],[0,0],[0]]","1","0","","","","","","5"
"","","","","","single-stim-button","340","1195196","0.0-4.0-13.2-1.2","6137c72965565266b4354d38","A3","batch1","tol_toboard","1459","","","","","","","","","","","","","","tol_peg_1","1459","1459","0","[[2,0,0],[3,1],[0]]","3","[[2,1,3],[0,0],[0]]","1","0","","","","","","5"
"","","","","","single-stim-button","341","1196486","0.0-4.0-13.3-0.3","6137c72965565266b4354d38","A3","batch1","tol_tohand","1289","","","","","","","","","","","","","","tol_peg_2","1289","1289","0","[[2,0,0],[3,0],[0]]","4","[[2,1,3],[0,0],[0]]","1","0","","","","","","5"
"","","","","","single-stim-button","342","1197272","0.0-4.0-13.3-1.3","6137c72965565266b4354d38","A3","batch1","tol_toboard","786","","","","","","","","","","","","","","tol_peg_1","786","786","0","[[2,1,0],[3,0],[0]]","4","[[2,1,3],[0,0],[0]]","1","0","","","","","","5"
"","","","","","single-stim-button","343","1198223","0.0-4.0-13.4-0.4","6137c72965565266b4354d38","A3","batch1","tol_tohand","950","","","","","","","","","","","","","","tol_peg_2","950","950","0","[[2,1,0],[0,0],[0]]","5","[[2,1,3],[0,0],[0]]","1","0","","","","","","5"
"","","","","","single-stim-button","344","1198917","0.0-4.0-13.4-1.4","6137c72965565266b4354d38","A3","batch1","tol_toboard","692","","","","","","","","","","","","","","tol_peg_1","692","692","0","[[2,1,3],[0,0],[0]]","5","[[2,1,3],[0,0],[0]]","1","0","","","","","","5"
