"success","timeout","failed_images","failed_audio","failed_video","trial_type","trial_index","time_elapsed","internal_node_id","subject_id","study_id","session_id","task","rt","stimulus","response","item","answer","correct","spm_correct","spm_rt","view_history","mouse_click","stim_duration","block_duration","timing_post_trial","current_position","tol_num_moves_made","tol_target","tol_problem_id","tol_rt","key_press","possible_responses","tol_correct","preplanning","tol_rt_per_trial","tol_min_moves","fiar_detect_rt","fiar_detect_correct","total_correct_fiar_detect","post_trial_gap","choices"
"true","false","[]","[]","[]","preload","0","997","0.0-0.0","61451e21a303bee08cbb86ea","B2","batch2","","","","","","","","","","","","","","","","","","","","","","","","","","","","","",""
"true","","","","","fullscreen","1","20756","0.0-1.0-0.0","61451e21a303bee08cbb86ea","B2","batch2","","","","","","","","","","","","","","","","","","","","","","","","","","","","","",""
"true","","","","","fullscreen","2","25944","0.0-2.0-0.0","61451e21a303bee08cbb86ea","B2","batch2","spm_fullscreen","","","","","","","","","","","","","","","","","","","","","","","","","","","","",""
"","","","","","html-button-response","3","48977","0.0-2.0-1.0","61451e21a303bee08cbb86ea","B2","batch2","","23032.09999999404","<p class = block-text><b>Instructions</b> <br>This is a widely used intelligence test in research. <br>In this test, a figure with a missing piece will be presented.<br>Below the figure are alternative pieces to complete the figure, only one of which is correct.<br> Different figures might involve different principles for obtaining the missing piece<br>Your job is to select the most logical piece to complete the figure.</p>","0","","","","","","","","","","","","","","","","","","","","","","","","","",""
"","","","","","html-keyboard-response","4","49778","0.0-2.0-2.0-0.0","61451e21a303bee08cbb86ea","B2","batch2","spm_show_trial_num","null","<p class=block-text>Trial 1 out of 60</p>","null","","","","","","","","","","","","","","","","","","","","","","","","","",""
"","","","","","image-button-response","5","61209","0.0-2.0-2.0-1.0","61451e21a303bee08cbb86ea","B2","batch2","spm_respsonse","11427.300000011921","img/question_1_1.jpeg","5","mat_01","4","0","0","11427.300000011921","","","","","","","","","","","","","","","","","","","","",""
"","","","","","html-keyboard-response","6","62261","0.0-2.0-2.0-0.1","61451e21a303bee08cbb86ea","B2","batch2","spm_show_trial_num","null","<p class=block-text>Trial 2 out of 60</p>","null","","","","","","","","","","","","","","","","","","","","","","","","","",""
"","","","","","image-button-response","7","68161","0.0-2.0-2.0-1.1","61451e21a303bee08cbb86ea","B2","batch2","spm_respsonse","5898.5","img/question_1_2.jpeg","4","mat_02","5","1","1","5898.5","","","","","","","","","","","","","","","","","","","","",""
"","","","","","html-keyboard-response","8","69213","0.0-2.0-2.0-0.2","61451e21a303bee08cbb86ea","B2","batch2","spm_show_trial_num","null","<p class=block-text>Trial 3 out of 60</p>","null","","","","","","","","","","","","","","","","","","","","","","","","","",""
"","","","","","image-button-response","9","75950","0.0-2.0-2.0-1.2","61451e21a303bee08cbb86ea","B2","batch2","spm_respsonse","6735.399999976158","img/question_1_3.jpeg","0","mat_03","1","1","1","6735.399999976158","","","","","","","","","","","","","","","","","","","","",""
"","","","","","html-keyboard-response","10","77002","0.0-2.0-2.0-0.3","61451e21a303bee08cbb86ea","B2","batch2","spm_show_trial_num","null","<p class=block-text>Trial 4 out of 60</p>","null","","","","","","","","","","","","","","","","","","","","","","","","","",""
"","","","","","image-button-response","11","87640","0.0-2.0-2.0-1.3","61451e21a303bee08cbb86ea","B2","batch2","spm_respsonse","10635.899999976158","img/question_1_4.jpeg","1","mat_04","2","1","1","10635.899999976158","","","","","","","","","","","","","","","","","","","","",""
"","","","","","html-keyboard-response","12","88692","0.0-2.0-2.0-0.4","61451e21a303bee08cbb86ea","B2","batch2","spm_show_trial_num","null","<p class=block-text>Trial 5 out of 60</p>","null","","","","","","","","","","","","","","","","","","","","","","","","","",""
"","","","","","image-button-response","13","97142","0.0-2.0-2.0-1.4","61451e21a303bee08cbb86ea","B2","batch2","spm_respsonse","8448.100000023842","img/question_1_5.jpeg","5","mat_05","6","1","1","8448.100000023842","","","","","","","","","","","","","","","","","","","","",""
"","","","","","html-keyboard-response","14","98193","0.0-2.0-2.0-0.5","61451e21a303bee08cbb86ea","B2","batch2","spm_show_trial_num","null","<p class=block-text>Trial 6 out of 60</p>","null","","","","","","","","","","","","","","","","","","","","","","","","","",""
"","","","","","image-button-response","15","111727","0.0-2.0-2.0-1.5","61451e21a303bee08cbb86ea","B2","batch2","spm_respsonse","13532.40000000596","img/question_1_6.jpeg","2","mat_06","3","1","1","13532.40000000596","","","","","","","","","","","","","","","","","","","","",""
"","","","","","html-keyboard-response","16","112780","0.0-2.0-2.0-0.6","61451e21a303bee08cbb86ea","B2","batch2","spm_show_trial_num","null","<p class=block-text>Trial 7 out of 60</p>","null","","","","","","","","","","","","","","","","","","","","","","","","","",""
"","","","","","image-button-response","17","125313","0.0-2.0-2.0-1.6","61451e21a303bee08cbb86ea","B2","batch2","spm_respsonse","12531.600000023842","img/question_1_7.jpeg","5","mat_07","6","1","1","12531.600000023842","","","","","","","","","","","","","","","","","","","","",""
"","","","","","html-keyboard-response","18","126364","0.0-2.0-2.0-0.7","61451e21a303bee08cbb86ea","B2","batch2","spm_show_trial_num","null","<p class=block-text>Trial 8 out of 60</p>","null","","","","","","","","","","","","","","","","","","","","","","","","","",""
"","","","","","image-button-response","19","144926","0.0-2.0-2.0-1.7","61451e21a303bee08cbb86ea","B2","batch2","spm_respsonse","18560.79999998212","img/question_1_8.jpeg","1","mat_08","2","1","1","18560.79999998212","","","","","","","","","","","","","","","","","","","","",""
"","","","","","html-keyboard-response","20","145978","0.0-2.0-2.0-0.8","61451e21a303bee08cbb86ea","B2","batch2","spm_show_trial_num","null","<p class=block-text>Trial 9 out of 60</p>","null","","","","","","","","","","","","","","","","","","","","","","","","","",""
"","","","","","image-button-response","21","154762","0.0-2.0-2.0-1.8","61451e21a303bee08cbb86ea","B2","batch2","spm_respsonse","8781.800000011921","img/question_1_9.jpeg","0","mat_09","1","1","1","8781.800000011921","","","","","","","","","","","","","","","","","","","","",""
"","","","","","html-keyboard-response","22","155813","0.0-2.0-2.0-0.9","61451e21a303bee08cbb86ea","B2","batch2","spm_show_trial_num","null","<p class=block-text>Trial 10 out of 60</p>","null","","","","","","","","","","","","","","","","","","","","","","","","","",""
"","","","","","image-button-response","23","168290","0.0-2.0-2.0-1.9","61451e21a303bee08cbb86ea","B2","batch2","spm_respsonse","12475.800000011921","img/question_1_10.jpeg","5","mat_10","3","0","0","12475.800000011921","","","","","","","","","","","","","","","","","","","","",""
"","","","","","html-keyboard-response","24","169342","0.0-2.0-2.0-0.10","61451e21a303bee08cbb86ea","B2","batch2","spm_show_trial_num","null","<p class=block-text>Trial 11 out of 60</p>","null","","","","","","","","","","","","","","","","","","","","","","","","","",""
"","","","","","image-button-response","25","201668","0.0-2.0-2.0-1.10","61451e21a303bee08cbb86ea","B2","batch2","spm_respsonse","32322.90000000596","img/question_1_11.jpeg","3","mat_11","4","1","1","32322.90000000596","","","","","","","","","","","","","","","","","","","","",""
"","","","","","html-keyboard-response","26","202719","0.0-2.0-2.0-0.11","61451e21a303bee08cbb86ea","B2","batch2","spm_show_trial_num","null","<p class=block-text>Trial 12 out of 60</p>","null","","","","","","","","","","","","","","","","","","","","","","","","","",""
"","","","","","image-button-response","27","232174","0.0-2.0-2.0-1.11","61451e21a303bee08cbb86ea","B2","batch2","spm_respsonse","29453.19999998808","img/question_1_12.jpeg","1","mat_12","5","0","0","29453.19999998808","","","","","","","","","","","","","","","","","","","","",""
"","","","","","html-keyboard-response","28","233226","0.0-2.0-2.0-0.12","61451e21a303bee08cbb86ea","B2","batch2","spm_show_trial_num","null","<p class=block-text>Trial 13 out of 60</p>","null","","","","","","","","","","","","","","","","","","","","","","","","","",""
"","","","","","image-button-response","29","237856","0.0-2.0-2.0-1.12","61451e21a303bee08cbb86ea","B2","batch2","spm_respsonse","4628.399999976158","img/question_2_1.jpeg","1","mat_13","2","1","1","4628.399999976158","","","","","","","","","","","","","","","","","","","","",""
"","","","","","html-keyboard-response","30","238907","0.0-2.0-2.0-0.13","61451e21a303bee08cbb86ea","B2","batch2","spm_show_trial_num","null","<p class=block-text>Trial 14 out of 60</p>","null","","","","","","","","","","","","","","","","","","","","","","","","","",""
"","","","","","image-button-response","31","264999","0.0-2.0-2.0-1.13","61451e21a303bee08cbb86ea","B2","batch2","spm_respsonse","26090.70000001788","img/question_2_2.jpeg","1","mat_14","6","0","0","26090.70000001788","","","","","","","","","","","","","","","","","","","","",""
"","","","","","html-keyboard-response","32","266050","0.0-2.0-2.0-0.14","61451e21a303bee08cbb86ea","B2","batch2","spm_show_trial_num","null","<p class=block-text>Trial 15 out of 60</p>","null","","","","","","","","","","","","","","","","","","","","","","","","","",""
"","","","","","image-button-response","33","277710","0.0-2.0-2.0-1.14","61451e21a303bee08cbb86ea","B2","batch2","spm_respsonse","11658.59999999404","img/question_2_3.jpeg","0","mat_15","1","1","1","11658.59999999404","","","","","","","","","","","","","","","","","","","","",""
"","","","","","html-keyboard-response","34","278762","0.0-2.0-2.0-0.15","61451e21a303bee08cbb86ea","B2","batch2","spm_show_trial_num","null","<p class=block-text>Trial 16 out of 60</p>","null","","","","","","","","","","","","","","","","","","","","","","","","","",""
"","","","","","image-button-response","35","286824","0.0-2.0-2.0-1.15","61451e21a303bee08cbb86ea","B2","batch2","spm_respsonse","8060.200000017881","img/question_2_4.jpeg","1","mat_16","2","1","1","8060.200000017881","","","","","","","","","","","","","","","","","","","","",""
"","","","","","html-keyboard-response","36","287876","0.0-2.0-2.0-0.16","61451e21a303bee08cbb86ea","B2","batch2","spm_show_trial_num","null","<p class=block-text>Trial 17 out of 60</p>","null","","","","","","","","","","","","","","","","","","","","","","","","","",""
"","","","","","image-button-response","37","291710","0.0-2.0-2.0-1.16","61451e21a303bee08cbb86ea","B2","batch2","spm_respsonse","3832.699999988079","img/question_2_5.jpeg","4","mat_17","1","0","0","3832.699999988079","","","","","","","","","","","","","","","","","","","","",""
"","","","","","html-keyboard-response","38","292762","0.0-2.0-2.0-0.17","61451e21a303bee08cbb86ea","B2","batch2","spm_show_trial_num","null","<p class=block-text>Trial 18 out of 60</p>","null","","","","","","","","","","","","","","","","","","","","","","","","","",""
"","","","","","image-button-response","39","309712","0.0-2.0-2.0-1.17","61451e21a303bee08cbb86ea","B2","batch2","spm_respsonse","16948.5","img/question_2_6.jpeg","2","mat_18","3","1","1","16948.5","","","","","","","","","","","","","","","","","","","","",""
"","","","","","html-keyboard-response","40","310764","0.0-2.0-2.0-0.18","61451e21a303bee08cbb86ea","B2","batch2","spm_show_trial_num","null","<p class=block-text>Trial 19 out of 60</p>","null","","","","","","","","","","","","","","","","","","","","","","","","","",""
"","","","","","image-button-response","41","315460","0.0-2.0-2.0-1.18","61451e21a303bee08cbb86ea","B2","batch2","spm_respsonse","4694.4000000059605","img/question_2_7.jpeg","0","mat_19","5","0","0","4694.4000000059605","","","","","","","","","","","","","","","","","","","","",""
"","","","","","html-keyboard-response","42","316511","0.0-2.0-2.0-0.19","61451e21a303bee08cbb86ea","B2","batch2","spm_show_trial_num","null","<p class=block-text>Trial 20 out of 60</p>","null","","","","","","","","","","","","","","","","","","","","","","","","","",""
"","","","","","image-button-response","43","330419","0.0-2.0-2.0-1.19","61451e21a303bee08cbb86ea","B2","batch2","spm_respsonse","13905.90000000596","img/question_2_8.jpeg","4","mat_20","6","0","0","13905.90000000596","","","","","","","","","","","","","","","","","","","","",""
"","","","","","html-keyboard-response","44","331471","0.0-2.0-2.0-0.20","61451e21a303bee08cbb86ea","B2","batch2","spm_show_trial_num","null","<p class=block-text>Trial 21 out of 60</p>","null","","","","","","","","","","","","","","","","","","","","","","","","","",""
"","","","","","image-button-response","45","342584","0.0-2.0-2.0-1.20","61451e21a303bee08cbb86ea","B2","batch2","spm_respsonse","11111.699999988079","img/question_2_9.jpeg","3","mat_21","4","1","1","11111.699999988079","","","","","","","","","","","","","","","","","","","","",""
"","","","","","html-keyboard-response","46","343636","0.0-2.0-2.0-0.21","61451e21a303bee08cbb86ea","B2","batch2","spm_show_trial_num","null","<p class=block-text>Trial 22 out of 60</p>","null","","","","","","","","","","","","","","","","","","","","","","","","","",""
"","","","","","image-button-response","47","355995","0.0-2.0-2.0-1.21","61451e21a303bee08cbb86ea","B2","batch2","spm_respsonse","12357.299999982119","img/question_2_10.jpeg","2","mat_22","3","1","1","12357.299999982119","","","","","","","","","","","","","","","","","","","","",""
"","","","","","html-keyboard-response","48","357048","0.0-2.0-2.0-0.22","61451e21a303bee08cbb86ea","B2","batch2","spm_show_trial_num","null","<p class=block-text>Trial 23 out of 60</p>","null","","","","","","","","","","","","","","","","","","","","","","","","","",""
"","","","","","image-button-response","49","379262","0.0-2.0-2.0-1.22","61451e21a303bee08cbb86ea","B2","batch2","spm_respsonse","22211.19999998808","img/question_2_11.jpeg","1","mat_23","4","0","0","22211.19999998808","","","","","","","","","","","","","","","","","","","","",""
"","","","","","html-keyboard-response","50","380314","0.0-2.0-2.0-0.23","61451e21a303bee08cbb86ea","B2","batch2","spm_show_trial_num","null","<p class=block-text>Trial 24 out of 60</p>","null","","","","","","","","","","","","","","","","","","","","","","","","","",""
"","","","","","image-button-response","51","387921","0.0-2.0-2.0-1.23","61451e21a303bee08cbb86ea","B2","batch2","spm_respsonse","7605.0999999940395","img/question_2_12.jpeg","2","mat_24","5","0","0","7605.0999999940395","","","","","","","","","","","","","","","","","","","","",""
"","","","","","html-button-response","52","390015","0.0-2.0-3.0","61451e21a303bee08cbb86ea","B2","batch2","attention_check","1842.5999999940395","<p class = block-text>Attention check: Please choose 1<br></p>","0","","","true","","","","","","","","","","","","","","","","","","","","","","",""
"","","","","","html-keyboard-response","53","390816","0.0-2.0-4.0-0.0","61451e21a303bee08cbb86ea","B2","batch2","spm_show_trial_num","null","<p class=block-text>Trial 25 out of 60</p>","null","","","","","","","","","","","","","","","","","","","","","","","","","",""
"","","","","","image-button-response","54","406296","0.0-2.0-4.0-1.0","61451e21a303bee08cbb86ea","B2","batch2","spm_respsonse","15478.09999999404","img/question_3_1.jpeg","7","mat_25","8","1","1","15478.09999999404","","","","","","","","","","","","","","","","","","","","",""
"","","","","","html-keyboard-response","55","407348","0.0-2.0-4.0-0.1","61451e21a303bee08cbb86ea","B2","batch2","spm_show_trial_num","null","<p class=block-text>Trial 26 out of 60</p>","null","","","","","","","","","","","","","","","","","","","","","","","","","",""
"","","","","","image-button-response","56","423222","0.0-2.0-4.0-1.1","61451e21a303bee08cbb86ea","B2","batch2","spm_respsonse","15872.40000000596","img/question_3_2.jpeg","2","mat_26","2","0","0","15872.40000000596","","","","","","","","","","","","","","","","","","","","",""
"","","","","","html-keyboard-response","57","424275","0.0-2.0-4.0-0.2","61451e21a303bee08cbb86ea","B2","batch2","spm_show_trial_num","null","<p class=block-text>Trial 27 out of 60</p>","null","","","","","","","","","","","","","","","","","","","","","","","","","",""
"","","","","","image-button-response","58","447518","0.0-2.0-4.0-1.2","61451e21a303bee08cbb86ea","B2","batch2","spm_respsonse","23242.09999999404","img/question_3_3.jpeg","2","mat_27","3","1","1","23242.09999999404","","","","","","","","","","","","","","","","","","","","",""
"","","","","","html-keyboard-response","59","448570","0.0-2.0-4.0-0.3","61451e21a303bee08cbb86ea","B2","batch2","spm_show_trial_num","null","<p class=block-text>Trial 28 out of 60</p>","null","","","","","","","","","","","","","","","","","","","","","","","","","",""
"","","","","","image-button-response","60","469117","0.0-2.0-4.0-1.3","61451e21a303bee08cbb86ea","B2","batch2","spm_respsonse","20544.69999998808","img/question_3_4.jpeg","7","mat_28","8","1","1","20544.69999998808","","","","","","","","","","","","","","","","","","","","",""
"","","","","","html-keyboard-response","61","470168","0.0-2.0-4.0-0.4","61451e21a303bee08cbb86ea","B2","batch2","spm_show_trial_num","null","<p class=block-text>Trial 29 out of 60</p>","null","","","","","","","","","","","","","","","","","","","","","","","","","",""
"","","","","","image-button-response","62","481830","0.0-2.0-4.0-1.4","61451e21a303bee08cbb86ea","B2","batch2","spm_respsonse","11660.699999988079","img/question_3_5.jpeg","6","mat_29","7","1","1","11660.699999988079","","","","","","","","","","","","","","","","","","","","",""
"","","","","","html-keyboard-response","63","482882","0.0-2.0-4.0-0.5","61451e21a303bee08cbb86ea","B2","batch2","spm_show_trial_num","null","<p class=block-text>Trial 30 out of 60</p>","null","","","","","","","","","","","","","","","","","","","","","","","","","",""
"","","","","","image-button-response","64","500531","0.0-2.0-4.0-1.5","61451e21a303bee08cbb86ea","B2","batch2","spm_respsonse","17646.90000000596","img/question_3_6.jpeg","4","mat_30","4","0","0","17646.90000000596","","","","","","","","","","","","","","","","","","","","",""
"","","","","","html-keyboard-response","65","501582","0.0-2.0-4.0-0.6","61451e21a303bee08cbb86ea","B2","batch2","spm_show_trial_num","null","<p class=block-text>Trial 31 out of 60</p>","null","","","","","","","","","","","","","","","","","","","","","","","","","",""
"","","","","","image-button-response","66","528613","0.0-2.0-4.0-1.6","61451e21a303bee08cbb86ea","B2","batch2","spm_respsonse","27029.59999999404","img/question_3_7.jpeg","4","mat_31","5","1","1","27029.59999999404","","","","","","","","","","","","","","","","","","","","",""
"","","","","","html-keyboard-response","67","529665","0.0-2.0-4.0-0.7","61451e21a303bee08cbb86ea","B2","batch2","spm_show_trial_num","null","<p class=block-text>Trial 32 out of 60</p>","null","","","","","","","","","","","","","","","","","","","","","","","","","",""
"","","","","","image-button-response","68","562007","0.0-2.0-4.0-1.7","61451e21a303bee08cbb86ea","B2","batch2","spm_respsonse","32339.90000000596","img/question_3_8.jpeg","2","mat_32","1","0","0","32339.90000000596","","","","","","","","","","","","","","","","","","","","",""
"","","","","","html-keyboard-response","69","563060","0.0-2.0-4.0-0.8","61451e21a303bee08cbb86ea","B2","batch2","spm_show_trial_num","null","<p class=block-text>Trial 33 out of 60</p>","null","","","","","","","","","","","","","","","","","","","","","","","","","",""
"","","","","","image-button-response","70","574493","0.0-2.0-4.0-1.8","61451e21a303bee08cbb86ea","B2","batch2","spm_respsonse","11431.699999988079","img/question_3_9.jpeg","6","mat_33","7","1","1","11431.699999988079","","","","","","","","","","","","","","","","","","","","",""
"","","","","","html-keyboard-response","71","575545","0.0-2.0-4.0-0.9","61451e21a303bee08cbb86ea","B2","batch2","spm_show_trial_num","null","<p class=block-text>Trial 34 out of 60</p>","null","","","","","","","","","","","","","","","","","","","","","","","","","",""
"","","","","","image-button-response","72","622383","0.0-2.0-4.0-1.9","61451e21a303bee08cbb86ea","B2","batch2","spm_respsonse","46836.89999997616","img/question_3_10.jpeg","1","mat_34","6","0","0","46836.89999997616","","","","","","","","","","","","","","","","","","","","",""
"","","","","","html-keyboard-response","73","623435","0.0-2.0-4.0-0.10","61451e21a303bee08cbb86ea","B2","batch2","spm_show_trial_num","null","<p class=block-text>Trial 35 out of 60</p>","null","","","","","","","","","","","","","","","","","","","","","","","","","",""
"","","","","","image-button-response","74","656482","0.0-2.0-4.0-1.10","61451e21a303bee08cbb86ea","B2","batch2","spm_respsonse","33045.5","img/question_3_11.jpeg","7","mat_35","1","0","0","33045.5","","","","","","","","","","","","","","","","","","","","",""
"","","","","","html-keyboard-response","75","657534","0.0-2.0-4.0-0.11","61451e21a303bee08cbb86ea","B2","batch2","spm_show_trial_num","null","<p class=block-text>Trial 36 out of 60</p>","null","","","","","","","","","","","","","","","","","","","","","","","","","",""
"","","","","","image-button-response","76","673683","0.0-2.0-4.0-1.11","61451e21a303bee08cbb86ea","B2","batch2","spm_respsonse","16147.5","img/question_3_12.jpeg","2","mat_36","2","0","0","16147.5","","","","","","","","","","","","","","","","","","","","",""
"","","","","","html-keyboard-response","77","674734","0.0-2.0-4.0-0.12","61451e21a303bee08cbb86ea","B2","batch2","spm_show_trial_num","null","<p class=block-text>Trial 37 out of 60</p>","null","","","","","","","","","","","","","","","","","","","","","","","","","",""
"","","","","","image-button-response","78","679091","0.0-2.0-4.0-1.12","61451e21a303bee08cbb86ea","B2","batch2","spm_respsonse","4354.5999999940395","img/question_4_1.jpeg","2","mat_37","3","1","1","4354.5999999940395","","","","","","","","","","","","","","","","","","","","",""
"","","","","","html-keyboard-response","79","680142","0.0-2.0-4.0-0.13","61451e21a303bee08cbb86ea","B2","batch2","spm_show_trial_num","null","<p class=block-text>Trial 38 out of 60</p>","null","","","","","","","","","","","","","","","","","","","","","","","","","",""
"","","","","","image-button-response","80","685883","0.0-2.0-4.0-1.13","61451e21a303bee08cbb86ea","B2","batch2","spm_respsonse","5740.100000023842","img/question_4_2.jpeg","3","mat_38","4","1","1","5740.100000023842","","","","","","","","","","","","","","","","","","","","",""
"","","","","","html-keyboard-response","81","686935","0.0-2.0-4.0-0.14","61451e21a303bee08cbb86ea","B2","batch2","spm_show_trial_num","null","<p class=block-text>Trial 39 out of 60</p>","null","","","","","","","","","","","","","","","","","","","","","","","","","",""
"","","","","","image-button-response","82","703629","0.0-2.0-4.0-1.14","61451e21a303bee08cbb86ea","B2","batch2","spm_respsonse","16692.70000001788","img/question_4_3.jpeg","2","mat_39","3","1","1","16692.70000001788","","","","","","","","","","","","","","","","","","","","",""
"","","","","","html-keyboard-response","83","704681","0.0-2.0-4.0-0.15","61451e21a303bee08cbb86ea","B2","batch2","spm_show_trial_num","null","<p class=block-text>Trial 40 out of 60</p>","null","","","","","","","","","","","","","","","","","","","","","","","","","",""
"","","","","","image-button-response","84","713193","0.0-2.0-4.0-1.15","61451e21a303bee08cbb86ea","B2","batch2","spm_respsonse","8510.5","img/question_4_4.jpeg","6","mat_40","7","1","1","8510.5","","","","","","","","","","","","","","","","","","","","",""
"","","","","","html-keyboard-response","85","714244","0.0-2.0-4.0-0.16","61451e21a303bee08cbb86ea","B2","batch2","spm_show_trial_num","null","<p class=block-text>Trial 41 out of 60</p>","null","","","","","","","","","","","","","","","","","","","","","","","","","",""
"","","","","","image-button-response","86","730384","0.0-2.0-4.0-1.16","61451e21a303bee08cbb86ea","B2","batch2","spm_respsonse","16138.09999999404","img/question_4_5.jpeg","7","mat_41","8","1","1","16138.09999999404","","","","","","","","","","","","","","","","","","","","",""
"","","","","","html-keyboard-response","87","731436","0.0-2.0-4.0-0.17","61451e21a303bee08cbb86ea","B2","batch2","spm_show_trial_num","null","<p class=block-text>Trial 42 out of 60</p>","null","","","","","","","","","","","","","","","","","","","","","","","","","",""
"","","","","","image-button-response","88","743699","0.0-2.0-4.0-1.17","61451e21a303bee08cbb86ea","B2","batch2","spm_respsonse","12260.699999988079","img/question_4_6.jpeg","5","mat_42","6","1","1","12260.699999988079","","","","","","","","","","","","","","","","","","","","",""
"","","","","","html-keyboard-response","89","744751","0.0-2.0-4.0-0.18","61451e21a303bee08cbb86ea","B2","batch2","spm_show_trial_num","null","<p class=block-text>Trial 43 out of 60</p>","null","","","","","","","","","","","","","","","","","","","","","","","","","",""
"","","","","","image-button-response","90","779999","0.0-2.0-4.0-1.18","61451e21a303bee08cbb86ea","B2","batch2","spm_respsonse","35246.70000001788","img/question_4_7.jpeg","7","mat_43","5","0","0","35246.70000001788","","","","","","","","","","","","","","","","","","","","",""
"","","","","","html-keyboard-response","91","781052","0.0-2.0-4.0-0.19","61451e21a303bee08cbb86ea","B2","batch2","spm_show_trial_num","null","<p class=block-text>Trial 44 out of 60</p>","null","","","","","","","","","","","","","","","","","","","","","","","","","",""
"","","","","","image-button-response","92","800358","0.0-2.0-4.0-1.19","61451e21a303bee08cbb86ea","B2","batch2","spm_respsonse","19305.90000000596","img/question_4_8.jpeg","3","mat_44","4","1","1","19305.90000000596","","","","","","","","","","","","","","","","","","","","",""
"","","","","","html-keyboard-response","93","801410","0.0-2.0-4.0-0.20","61451e21a303bee08cbb86ea","B2","batch2","spm_show_trial_num","null","<p class=block-text>Trial 45 out of 60</p>","null","","","","","","","","","","","","","","","","","","","","","","","","","",""
"","","","","","image-button-response","94","828947","0.0-2.0-4.0-1.20","61451e21a303bee08cbb86ea","B2","batch2","spm_respsonse","27535.30000001192","img/question_4_9.jpeg","3","mat_45","1","0","0","27535.30000001192","","","","","","","","","","","","","","","","","","","","",""
"","","","","","html-keyboard-response","95","830000","0.0-2.0-4.0-0.21","61451e21a303bee08cbb86ea","B2","batch2","spm_show_trial_num","null","<p class=block-text>Trial 46 out of 60</p>","null","","","","","","","","","","","","","","","","","","","","","","","","","",""
"","","","","","image-button-response","96","853536","0.0-2.0-4.0-1.21","61451e21a303bee08cbb86ea","B2","batch2","spm_respsonse","23534.5","img/question_4_10.jpeg","7","mat_46","2","0","0","23534.5","","","","","","","","","","","","","","","","","","","","",""
"","","","","","html-keyboard-response","97","854588","0.0-2.0-4.0-0.22","61451e21a303bee08cbb86ea","B2","batch2","spm_show_trial_num","null","<p class=block-text>Trial 47 out of 60</p>","null","","","","","","","","","","","","","","","","","","","","","","","","","",""
"","","","","","image-button-response","98","886985","0.0-2.0-4.0-1.22","61451e21a303bee08cbb86ea","B2","batch2","spm_respsonse","32394.90000000596","img/question_4_11.jpeg","7","mat_47","5","0","0","32394.90000000596","","","","","","","","","","","","","","","","","","","","",""
"","","","","","html-keyboard-response","99","888036","0.0-2.0-4.0-0.23","61451e21a303bee08cbb86ea","B2","batch2","spm_show_trial_num","null","<p class=block-text>Trial 48 out of 60</p>","null","","","","","","","","","","","","","","","","","","","","","","","","","",""
"","","","","","image-button-response","100","907430","0.0-2.0-4.0-1.23","61451e21a303bee08cbb86ea","B2","batch2","spm_respsonse","19392.399999976158","img/question_4_12.jpeg","6","mat_48","6","0","0","19392.399999976158","","","","","","","","","","","","","","","","","","","","",""
"","","","","","html-keyboard-response","101","908482","0.0-2.0-4.0-0.24","61451e21a303bee08cbb86ea","B2","batch2","spm_show_trial_num","null","<p class=block-text>Trial 49 out of 60</p>","null","","","","","","","","","","","","","","","","","","","","","","","","","",""
"","","","","","image-button-response","102","933063","0.0-2.0-4.0-1.24","61451e21a303bee08cbb86ea","B2","batch2","spm_respsonse","24578.90000000596","img/question_5_1.jpeg","4","mat_49","7","0","0","24578.90000000596","","","","","","","","","","","","","","","","","","","","",""
"","","","","","html-keyboard-response","103","934115","0.0-2.0-4.0-0.25","61451e21a303bee08cbb86ea","B2","batch2","spm_show_trial_num","null","<p class=block-text>Trial 50 out of 60</p>","null","","","","","","","","","","","","","","","","","","","","","","","","","",""
"","","","","","image-button-response","104","950324","0.0-2.0-4.0-1.25","61451e21a303bee08cbb86ea","B2","batch2","spm_respsonse","16207.699999988079","img/question_5_2.jpeg","2","mat_50","6","0","0","16207.699999988079","","","","","","","","","","","","","","","","","","","","",""
"","","","","","html-keyboard-response","105","951376","0.0-2.0-4.0-0.26","61451e21a303bee08cbb86ea","B2","batch2","spm_show_trial_num","null","<p class=block-text>Trial 51 out of 60</p>","null","","","","","","","","","","","","","","","","","","","","","","","","","",""
"","","","","","image-button-response","106","976529","0.0-2.0-4.0-1.26","61451e21a303bee08cbb86ea","B2","batch2","spm_respsonse","25151.40000000596","img/question_5_3.jpeg","4","mat_51","8","0","0","25151.40000000596","","","","","","","","","","","","","","","","","","","","",""
"","","","","","html-keyboard-response","107","977582","0.0-2.0-4.0-0.27","61451e21a303bee08cbb86ea","B2","batch2","spm_show_trial_num","null","<p class=block-text>Trial 52 out of 60</p>","null","","","","","","","","","","","","","","","","","","","","","","","","","",""
"","","","","","image-button-response","108","1014273","0.0-2.0-4.0-1.27","61451e21a303bee08cbb86ea","B2","batch2","spm_respsonse","36688.80000001192","img/question_5_4.jpeg","6","mat_52","2","0","0","36688.80000001192","","","","","","","","","","","","","","","","","","","","",""
"","","","","","html-keyboard-response","109","1015326","0.0-2.0-4.0-0.28","61451e21a303bee08cbb86ea","B2","batch2","spm_show_trial_num","null","<p class=block-text>Trial 53 out of 60</p>","null","","","","","","","","","","","","","","","","","","","","","","","","","",""
"","","","","","image-button-response","110","1031870","0.0-2.0-4.0-1.28","61451e21a303bee08cbb86ea","B2","batch2","spm_respsonse","16542.899999976158","img/question_5_5.jpeg","6","mat_53","1","0","0","16542.899999976158","","","","","","","","","","","","","","","","","","","","",""
"","","","","","html-keyboard-response","111","1032922","0.0-2.0-4.0-0.29","61451e21a303bee08cbb86ea","B2","batch2","spm_show_trial_num","null","<p class=block-text>Trial 54 out of 60</p>","null","","","","","","","","","","","","","","","","","","","","","","","","","",""
"","","","","","image-button-response","112","1054846","0.0-2.0-4.0-1.29","61451e21a303bee08cbb86ea","B2","batch2","spm_respsonse","21922.69999998808","img/question_5_6.jpeg","2","mat_54","5","0","0","21922.69999998808","","","","","","","","","","","","","","","","","","","","",""
"","","","","","html-keyboard-response","113","1055899","0.0-2.0-4.0-0.30","61451e21a303bee08cbb86ea","B2","batch2","spm_show_trial_num","null","<p class=block-text>Trial 55 out of 60</p>","null","","","","","","","","","","","","","","","","","","","","","","","","","",""
"","","","","","image-button-response","114","1100661","0.0-2.0-4.0-1.30","61451e21a303bee08cbb86ea","B2","batch2","spm_respsonse","44760.60000002384","img/question_5_7.jpeg","3","mat_55","1","0","0","44760.60000002384","","","","","","","","","","","","","","","","","","","","",""
"","","","","","html-keyboard-response","115","1101712","0.0-2.0-4.0-0.31","61451e21a303bee08cbb86ea","B2","batch2","spm_show_trial_num","null","<p class=block-text>Trial 56 out of 60</p>","null","","","","","","","","","","","","","","","","","","","","","","","","","",""
"","","","","","image-button-response","116","1113666","0.0-2.0-4.0-1.31","61451e21a303bee08cbb86ea","B2","batch2","spm_respsonse","11951.59999999404","img/question_5_8.jpeg","4","mat_56","6","0","0","11951.59999999404","","","","","","","","","","","","","","","","","","","","",""
"","","","","","html-keyboard-response","117","1114717","0.0-2.0-4.0-0.32","61451e21a303bee08cbb86ea","B2","batch2","spm_show_trial_num","null","<p class=block-text>Trial 57 out of 60</p>","null","","","","","","","","","","","","","","","","","","","","","","","","","",""
"","","","","","image-button-response","118","1147798","0.0-2.0-4.0-1.32","61451e21a303bee08cbb86ea","B2","batch2","spm_respsonse","33078.69999998808","img/question_5_9.jpeg","1","mat_57","3","0","0","33078.69999998808","","","","","","","","","","","","","","","","","","","","",""
"","","","","","html-keyboard-response","119","1148850","0.0-2.0-4.0-0.33","61451e21a303bee08cbb86ea","B2","batch2","spm_show_trial_num","null","<p class=block-text>Trial 58 out of 60</p>","null","","","","","","","","","","","","","","","","","","","","","","","","","",""
"","","","","","image-button-response","120","1161597","0.0-2.0-4.0-1.33","61451e21a303bee08cbb86ea","B2","batch2","spm_respsonse","12745.5","img/question_5_10.jpeg","6","mat_58","2","0","0","12745.5","","","","","","","","","","","","","","","","","","","","",""
"","","","","","html-keyboard-response","121","1162649","0.0-2.0-4.0-0.34","61451e21a303bee08cbb86ea","B2","batch2","spm_show_trial_num","null","<p class=block-text>Trial 59 out of 60</p>","null","","","","","","","","","","","","","","","","","","","","","","","","","",""
"","","","","","image-button-response","122","1187668","0.0-2.0-4.0-1.34","61451e21a303bee08cbb86ea","B2","batch2","spm_respsonse","25017.59999999404","img/question_5_11.jpeg","6","mat_59","4","0","0","25017.59999999404","","","","","","","","","","","","","","","","","","","","",""
"","","","","","html-keyboard-response","123","1188720","0.0-2.0-4.0-0.35","61451e21a303bee08cbb86ea","B2","batch2","spm_show_trial_num","null","<p class=block-text>Trial 60 out of 60</p>","null","","","","","","","","","","","","","","","","","","","","","","","","","",""
"","","","","","image-button-response","124","1210037","0.0-2.0-4.0-1.35","61451e21a303bee08cbb86ea","B2","batch2","spm_respsonse","21315.100000023842","img/question_5_12.jpeg","2","mat_60","5","0","0","21315.100000023842","","","","","","","","","","","","","","","","","","","","",""
"","","","","","html-button-response","125","1212546","0.0-2.0-5.0","61451e21a303bee08cbb86ea","B2","batch2","spm_goodbye","2257.0999999940395","<p class= block-text>This concludes the Standard Progressive Matrix game. Thank you for your responses!<br> When you are ready, click the button continue</p>","0","","","","","","","","","","","","","","","","","","","","","","","","","",""
"true","","","","","fullscreen","126","1215357","0.0-3.0-0.0","61451e21a303bee08cbb86ea","B2","batch2","","","","","","","","","","","","","","","","","","","","","","","","","","","","","",""
"","","","","","instructions","127","1314207","0.0-3.0-1.0-0.0-0.0","61451e21a303bee08cbb86ea","B2","batch2","tol-instructions","98849.69999998808","","","","","","","","[{""page_index"":0,""viewing_time"":17157.69999998808},{""page_index"":1,""viewing_time"":6033.800000011921},{""page_index"":2,""viewing_time"":13067},{""page_index"":3,""viewing_time"":21334.09999999404},{""page_index"":4,""viewing_time"":11646},{""page_index"":5,""viewing_time"":22651.80000001192},{""page_index"":6,""viewing_time"":6959.0999999940395}]","","","","","","","","","","","","","","","","","","","",""
"","","","","","html-button-response","128","1315394","0.0-3.0-1.0-1.0-0.0","61451e21a303bee08cbb86ea","B2","batch2","tol_enter_quiz","1186.2000000178814","<p class=block-text> Let's answer a few questions <br>","0","","","","","","","","","","","","","","","","","","","","","","","","","",""
"","","","","","html-button-response","129","1320774","0.0-3.0-1.0-1.0-1.0","61451e21a303bee08cbb86ea","B2","batch2","tol_quiz","5379.200000017881","<p class = block-text>True or False: You can only move the ball on top of a peg. <br></p>","0","","","true","","","","","","","","","","","","","","","","","","","","","","",""
"","","","","","html-button-response","130","1322326","0.0-3.0-1.0-1.0-2.0","61451e21a303bee08cbb86ea","B2","batch2","tol_quiz_feedback","1550.9000000059605","<p class = block-text>Correct! You can only move the ball on top of a peg.</p>","0","","","","","","","","","","","","","","","","","","","","","","","","","",""
"","","","","","html-button-response","131","1324307","0.0-3.0-1.0-1.0-3.0","61451e21a303bee08cbb86ea","B2","batch2","tol_quiz","1980.2000000178814","<p class = block-text>True or False: You should try to match your board with the target board with fewest moves possible. <br></p>","0","","","true","","","","","","","","","","","","","","","","","","","","","","",""
"","","","","","html-button-response","132","1325015","0.0-3.0-1.0-1.0-4.0","61451e21a303bee08cbb86ea","B2","batch2","tol_quiz_feedback","707.3000000119209","<p class = block-text>Correct! </p>","0","","","","","","","","","","","","","","","","","","","","","","","","","",""
"","","","","","html-button-response","133","1327207","0.0-3.0-2.0","61451e21a303bee08cbb86ea","B2","batch2","","2191","<p class=block-text> Now that you've understood the game, let's practice a few easier examples before we start!<br> <br>","0","","","","","","","","","","","","","","","","","","","","","","","","","",""
"","","","","","single-stim-button","134","1330949","0.0-3.0-3.0-0.0","61451e21a303bee08cbb86ea","B2","batch2","tol_practice","3740","","","","","","","","","tol_peg_2","3740","3740","0","[[1,2,0],[0,0],[0]]","1","[[1,2,0],[0,0],[3]]","practice","3740","","","","","","","","","","",""
"","","","","","single-stim-button","135","1333543","0.0-3.0-3.0-1.0","61451e21a303bee08cbb86ea","B2","batch2","tol_practice","2594","","","","","","","","","tol_peg_3","2594","2594","0","[[1,2,0],[0,0],[3]]","1","[[1,2,0],[0,0],[3]]","practice","2594","","","","","","","","","","",""
"","","","","","poldrack-single-stim","136","1334545","0.0-3.0-4.0","61451e21a303bee08cbb86ea","B2","batch2","tol_feedback","-1","","","","","true","","","","","1000","1000","500","","","","","","-1","none","true","","0","","","","","",""
"","","","","","single-stim-button","137","1340307","0.0-3.0-5.0-0.0","61451e21a303bee08cbb86ea","B2","batch2","tol_practice","5761","","","","","","","","","tol_peg_1","5761","5761","0","[[1,0,0],[3,0],[0]]","2","[[0,0,0],[3,1],[2]]","practice","5761","","","","","","","","","","",""
"","","","","","single-stim-button","138","1342122","0.0-3.0-5.0-1.0","61451e21a303bee08cbb86ea","B2","batch2","tol_practice","1814","","","","","","","","","tol_peg_3","1814","1814","0","[[1,0,0],[3,0],[2]]","2","[[0,0,0],[3,1],[2]]","practice","1814","","","","","","","","","","",""
"","","","","","single-stim-button","139","1343133","0.0-3.0-5.1-0.1","61451e21a303bee08cbb86ea","B2","batch2","tol_practice","1010","","","","","","","","","tol_peg_1","1010","1010","0","[[0,0,0],[3,0],[2]]","3","[[0,0,0],[3,1],[2]]","practice","1010","","","","","","","","","","",""
"","","","","","single-stim-button","140","1344280","0.0-3.0-5.1-1.1","61451e21a303bee08cbb86ea","B2","batch2","tol_practice","1146","","","","","","","","","tol_peg_2","1146","1146","0","[[0,0,0],[3,1],[2]]","3","[[0,0,0],[3,1],[2]]","practice","1146","","","","","","","","","","",""
"","","","","","poldrack-single-stim","141","1345282","0.0-3.0-6.0","61451e21a303bee08cbb86ea","B2","batch2","tol_feedback","-1","","","","","true","","","","","1000","1000","500","","","","","","-1","none","true","","0","","","","","",""
"","","","","","single-stim-button","142","1347665","0.0-3.0-7.0-0.0","61451e21a303bee08cbb86ea","B2","batch2","tol_practice","2382","","","","","","","","","tol_peg_1","2382","2382","0","[[1,0,0],[3,0],[0]]","4","[[1,0,0],[2,0],[3]]","practice","2382","","","","","","","","","","",""
"","","","","","single-stim-button","143","1350284","0.0-3.0-7.0-1.0","61451e21a303bee08cbb86ea","B2","batch2","tol_practice","2619","","","","","","","","","tol_peg_1","2619","2619","0","[[1,2,0],[3,0],[0]]","4","[[1,0,0],[2,0],[3]]","practice","2619","","","","","","","","","","",""
"","","","","","single-stim-button","144","1351715","0.0-3.0-7.1-0.1","61451e21a303bee08cbb86ea","B2","batch2","tol_practice","1430","","","","","","","","","tol_peg_2","1430","1430","0","[[1,2,0],[0,0],[0]]","5","[[1,0,0],[2,0],[3]]","practice","1430","","","","","","","","","","",""
"","","","","","single-stim-button","145","1352907","0.0-3.0-7.1-1.1","61451e21a303bee08cbb86ea","B2","batch2","tol_practice","1192","","","","","","","","","tol_peg_3","1192","1192","0","[[1,2,0],[0,0],[3]]","5","[[1,0,0],[2,0],[3]]","practice","1192","","","","","","","","","","",""
"","","","","","single-stim-button","146","1353666","0.0-3.0-7.2-0.2","61451e21a303bee08cbb86ea","B2","batch2","tol_practice","758","","","","","","","","","tol_peg_1","758","758","0","[[1,0,0],[0,0],[3]]","6","[[1,0,0],[2,0],[3]]","practice","758","","","","","","","","","","",""
"","","","","","single-stim-button","147","1354858","0.0-3.0-7.2-1.2","61451e21a303bee08cbb86ea","B2","batch2","tol_practice","1192","","","","","","","","","tol_peg_2","1192","1192","0","[[1,0,0],[2,0],[3]]","6","[[1,0,0],[2,0],[3]]","practice","1192","","","","","","","","","","",""
"","","","","","poldrack-single-stim","148","1355860","0.0-3.0-8.0","61451e21a303bee08cbb86ea","B2","batch2","tol_feedback","-1","","","","","true","","","","","1000","1000","500","","","","","","-1","none","true","","0","","","","","",""
"","","","","","html-button-response","149","1358177","0.0-3.0-9.0","61451e21a303bee08cbb86ea","B2","batch2","tol_instruction","2316.199999988079","<div class = centerbox><p class = center-block-text>Great job! You are done with practice trials<br>You are about to start official trials.<br> <br> Problem <strong>1</strong> out of 25 problems</p></div>","0","","","","","","","","","","","","","","","","","","","","","","","","","",""
"","","","","","single-stim-button","150","1362788","0.0-3.0-10.0-0.0","61451e21a303bee08cbb86ea","B2","batch2","tol_tohand","3609","","","","","","","","","tol_peg_1","3609","3609","0","[[1,0,0],[3,0],[0]]","1","[[1,3,0],[2,0],[0]]","0","0","","","","","","3","","","","",""
"","","","","","single-stim-button","151","1363744","0.0-3.0-10.0-1.0","61451e21a303bee08cbb86ea","B2","batch2","tol_toboard","955","","","","","","","","","tol_peg_3","955","955","0","[[1,0,0],[3,0],[2]]","1","[[1,3,0],[2,0],[0]]","0","0","","","","","","3","","","","",""
"","","","","","single-stim-button","152","1364528","0.0-3.0-10.1-0.1","61451e21a303bee08cbb86ea","B2","batch2","tol_tohand","783","","","","","","","","","tol_peg_2","783","783","0","[[1,0,0],[0,0],[2]]","2","[[1,3,0],[2,0],[0]]","0","0","","","","","","3","","","","",""
"","","","","","single-stim-button","153","1365773","0.0-3.0-10.1-1.1","61451e21a303bee08cbb86ea","B2","batch2","tol_toboard","1244","","","","","","","","","tol_peg_1","1244","1244","0","[[1,3,0],[0,0],[2]]","2","[[1,3,0],[2,0],[0]]","0","0","","","","","","3","","","","",""
"","","","","","single-stim-button","154","1369253","0.0-3.0-10.2-0.2","61451e21a303bee08cbb86ea","B2","batch2","tol_tohand","3479","","","","","","","","","tol_peg_3","3479","3479","0","[[1,3,0],[0,0],[0]]","3","[[1,3,0],[2,0],[0]]","0","0","","","","","","3","","","","",""
"","","","","","single-stim-button","155","1370027","0.0-3.0-10.2-1.2","61451e21a303bee08cbb86ea","B2","batch2","tol_toboard","774","","","","","","","","","tol_peg_2","774","774","0","[[1,3,0],[2,0],[0]]","3","[[1,3,0],[2,0],[0]]","0","0","","","","","","3","","","","",""
"","","","","","poldrack-single-stim","156","1371029","0.0-3.0-11.0","61451e21a303bee08cbb86ea","B2","batch2","tol_feedback","-1","","","","","true","","","","","1000","1000","500","","","","","","-1","none","true","3609","7871","","","","","",""
"","","","","","html-button-response","157","1372029","0.0-3.0-12.0","61451e21a303bee08cbb86ea","B2","batch2","tol_trial_num","999.6999999880791","<div class = centerbox><p class = center-block-text>problem <strong>2</strong> out of 25 problems</p></div>","0","","","","","","","","","","","","","","","","","","","","","","","","","",""
"","","","","","single-stim-button","158","1377137","0.0-3.0-13.0-0.0","61451e21a303bee08cbb86ea","B2","batch2","tol_tohand","5108","","","","","","","","","tol_peg_1","5108","5108","0","[[1,0,0],[3,0],[0]]","1","[[2,1,3],[0,0],[0]]","1","0","","","","","","5","","","","",""
"","","","","","single-stim-button","159","1378013","0.0-3.0-13.0-1.0","61451e21a303bee08cbb86ea","B2","batch2","tol_toboard","875","","","","","","","","","tol_peg_3","875","875","0","[[1,0,0],[3,0],[2]]","1","[[2,1,3],[0,0],[0]]","1","0","","","","","","5","","","","",""
"","","","","","single-stim-button","160","1379478","0.0-3.0-13.1-0.1","61451e21a303bee08cbb86ea","B2","batch2","tol_tohand","1464","","","","","","","","","tol_peg_1","1464","1464","0","[[0,0,0],[3,0],[2]]","2","[[2,1,3],[0,0],[0]]","1","0","","","","","","5","","","","",""
"","","","","","single-stim-button","161","1388062","0.0-3.0-13.1-1.1","61451e21a303bee08cbb86ea","B2","batch2","tol_toboard","8583","","","","","","","","","tol_peg_1","8583","8583","0","[[1,0,0],[3,0],[2]]","2","[[2,1,3],[0,0],[0]]","1","0","","","","","","5","","","","",""
"","","","","","single-stim-button","162","1389270","0.0-3.0-13.2-0.2","61451e21a303bee08cbb86ea","B2","batch2","tol_tohand","1207","","","","","","","","","tol_peg_2","1207","1207","0","[[1,0,0],[0,0],[2]]","3","[[2,1,3],[0,0],[0]]","1","0","","","","","","5","","","","",""
"","","","","","single-stim-button","163","1390219","0.0-3.0-13.2-1.2","61451e21a303bee08cbb86ea","B2","batch2","tol_toboard","948","","","","","","","","","tol_peg_1","948","948","0","[[1,3,0],[0,0],[2]]","3","[[2,1,3],[0,0],[0]]","1","0","","","","","","5","","","","",""
"","","","","","single-stim-button","164","1391183","0.0-3.0-13.3-0.3","61451e21a303bee08cbb86ea","B2","batch2","tol_tohand","964","","","","","","","","","tol_peg_3","964","964","0","[[1,3,0],[0,0],[0]]","4","[[2,1,3],[0,0],[0]]","1","0","","","","","","5","","","","",""
"","","","","","single-stim-button","165","1392601","0.0-3.0-13.3-1.3","61451e21a303bee08cbb86ea","B2","batch2","tol_toboard","1417","","","","","","","","","tol_peg_2","1417","1417","0","[[1,3,0],[2,0],[0]]","4","[[2,1,3],[0,0],[0]]","1","0","","","","","","5","","","","",""
"","","","","","single-stim-button","166","1397893","0.0-3.0-13.4-0.4","61451e21a303bee08cbb86ea","B2","batch2","tol_tohand","5291","","","","","","","","","tol_peg_1","5291","5291","0","[[1,0,0],[2,0],[0]]","5","[[2,1,3],[0,0],[0]]","1","0","","","","","","5","","","","",""
"","","","","","single-stim-button","167","1398794","0.0-3.0-13.4-1.4","61451e21a303bee08cbb86ea","B2","batch2","tol_toboard","901","","","","","","","","","tol_peg_3","901","901","0","[[1,0,0],[2,0],[3]]","5","[[2,1,3],[0,0],[0]]","1","0","","","","","","5","","","","",""
"","","","","","single-stim-button","168","1400074","0.0-3.0-13.5-0.5","61451e21a303bee08cbb86ea","B2","batch2","tol_tohand","1280","","","","","","","","","tol_peg_1","1280","1280","0","[[0,0,0],[2,0],[3]]","6","[[2,1,3],[0,0],[0]]","1","0","","","","","","5","","","","",""
"","","","","","single-stim-button","169","1407514","0.0-3.0-13.5-1.5","61451e21a303bee08cbb86ea","B2","batch2","tol_toboard","7439","","","","","","","","","tol_peg_2","7439","7439","0","[[0,0,0],[2,1],[3]]","6","[[2,1,3],[0,0],[0]]","1","0","","","","","","5","","","","",""
"","","","","","single-stim-button","170","1408692","0.0-3.0-13.6-0.6","61451e21a303bee08cbb86ea","B2","batch2","tol_tohand","1178","","","","","","","","","tol_peg_2","1178","1178","0","[[0,0,0],[2,0],[3]]","7","[[2,1,3],[0,0],[0]]","1","0","","","","","","5","","","","",""
"","","","","","single-stim-button","171","1411993","0.0-3.0-13.6-1.6","61451e21a303bee08cbb86ea","B2","batch2","tol_toboard","3301","","","","","","","","","tol_peg_1","3301","3301","0","[[1,0,0],[2,0],[3]]","7","[[2,1,3],[0,0],[0]]","1","0","","","","","","5","","","","",""
"","","","","","single-stim-button","172","1412921","0.0-3.0-13.7-0.7","61451e21a303bee08cbb86ea","B2","batch2","tol_tohand","928","","","","","","","","","tol_peg_2","928","928","0","[[1,0,0],[0,0],[3]]","8","[[2,1,3],[0,0],[0]]","1","0","","","","","","5","","","","",""
"","","","","","single-stim-button","173","1415780","0.0-3.0-13.7-1.7","61451e21a303bee08cbb86ea","B2","batch2","tol_toboard","2859","","","","","","","","","tol_peg_1","2859","2859","0","[[1,2,0],[0,0],[3]]","8","[[2,1,3],[0,0],[0]]","1","0","","","","","","5","","","","",""
"","","","","","single-stim-button","174","1416710","0.0-3.0-13.8-0.8","61451e21a303bee08cbb86ea","B2","batch2","tol_tohand","930","","","","","","","","","tol_peg_3","930","930","0","[[1,2,0],[0,0],[0]]","9","[[2,1,3],[0,0],[0]]","1","0","","","","","","5","","","","",""
"","","","","","single-stim-button","175","1417355","0.0-3.0-13.8-1.8","61451e21a303bee08cbb86ea","B2","batch2","tol_toboard","644","","","","","","","","","tol_peg_2","644","644","0","[[1,2,0],[3,0],[0]]","9","[[2,1,3],[0,0],[0]]","1","0","","","","","","5","","","","",""
"","","","","","single-stim-button","176","1418190","0.0-3.0-13.9-0.9","61451e21a303bee08cbb86ea","B2","batch2","tol_tohand","834","","","","","","","","","tol_peg_1","834","834","0","[[1,0,0],[3,0],[0]]","10","[[2,1,3],[0,0],[0]]","1","0","","","","","","5","","","","",""
"","","","","","single-stim-button","177","1420577","0.0-3.0-13.9-1.9","61451e21a303bee08cbb86ea","B2","batch2","tol_toboard","2387","","","","","","","","","tol_peg_3","2387","2387","0","[[1,0,0],[3,0],[2]]","10","[[2,1,3],[0,0],[0]]","1","0","","","","","","5","","","","",""
"","","","","","single-stim-button","178","1421293","0.0-3.0-13.10-0.10","61451e21a303bee08cbb86ea","B2","batch2","tol_tohand","716","","","","","","","","","tol_peg_1","716","716","0","[[0,0,0],[3,0],[2]]","11","[[2,1,3],[0,0],[0]]","1","0","","","","","","5","","","","",""
"","","","","","single-stim-button","179","1421878","0.0-3.0-13.10-1.10","61451e21a303bee08cbb86ea","B2","batch2","tol_toboard","585","","","","","","","","","tol_peg_2","585","585","0","[[0,0,0],[3,1],[2]]","11","[[2,1,3],[0,0],[0]]","1","0","","","","","","5","","","","",""
"","","","","","single-stim-button","180","1422615","0.0-3.0-13.11-0.11","61451e21a303bee08cbb86ea","B2","batch2","tol_tohand","737","","","","","","","","","tol_peg_3","737","737","0","[[0,0,0],[3,1],[0]]","12","[[2,1,3],[0,0],[0]]","1","0","","","","","","5","","","","",""
"","","","","","single-stim-button","181","1423563","0.0-3.0-13.11-1.11","61451e21a303bee08cbb86ea","B2","batch2","tol_toboard","948","","","","","","","","","tol_peg_1","948","948","0","[[2,0,0],[3,1],[0]]","12","[[2,1,3],[0,0],[0]]","1","0","","","","","","5","","","","",""
"","","","","","single-stim-button","182","1425243","0.0-3.0-13.12-0.12","61451e21a303bee08cbb86ea","B2","batch2","tol_tohand","1680","","","","","","","","","tol_peg_2","1680","1680","0","[[2,0,0],[3,0],[0]]","13","[[2,1,3],[0,0],[0]]","1","0","","","","","","5","","","","",""
"","","","","","single-stim-button","183","1426219","0.0-3.0-13.12-1.12","61451e21a303bee08cbb86ea","B2","batch2","tol_toboard","976","","","","","","","","","tol_peg_1","976","976","0","[[2,1,0],[3,0],[0]]","13","[[2,1,3],[0,0],[0]]","1","0","","","","","","5","","","","",""
"","","","","","single-stim-button","184","1426773","0.0-3.0-13.13-0.13","61451e21a303bee08cbb86ea","B2","batch2","tol_tohand","554","","","","","","","","","tol_peg_2","554","554","0","[[2,1,0],[0,0],[0]]","14","[[2,1,3],[0,0],[0]]","1","0","","","","","","5","","","","",""
"","","","","","single-stim-button","185","1427842","0.0-3.0-13.13-1.13","61451e21a303bee08cbb86ea","B2","batch2","tol_toboard","1068","","","","","","","","","tol_peg_1","1068","1068","0","[[2,1,3],[0,0],[0]]","14","[[2,1,3],[0,0],[0]]","1","0","","","","","","5","","","","",""
"","","","","","poldrack-single-stim","186","1428843","0.0-3.0-14.0","61451e21a303bee08cbb86ea","B2","batch2","tol_feedback","-1","","","","","true","","","","","1000","1000","500","","","","","","-1","none","true","5108","22871","","","","","",""
"","","","","","html-button-response","187","1429707","0.0-3.0-15.0","61451e21a303bee08cbb86ea","B2","batch2","tol_trial_num","863.1000000238419","<div class = centerbox><p class = center-block-text>problem <strong>3</strong> out of 25 problems</p></div>","0","","","","","","","","","","","","","","","","","","","","","","","","","",""
"","","","","","single-stim-button","188","1434375","0.0-3.0-16.0-0.0","61451e21a303bee08cbb86ea","B2","batch2","tol_tohand","4668","","","","","","","","","tol_peg_1","4668","4668","0","[[2,0,0],[0,0],[1]]","1","[[1,2,0],[3,0],[0]]","2","0","","","","","","4","","","","",""
"","","","","","single-stim-button","189","1435285","0.0-3.0-16.0-1.0","61451e21a303bee08cbb86ea","B2","batch2","tol_toboard","910","","","","","","","","","tol_peg_2","910","910","0","[[2,0,0],[3,0],[1]]","1","[[1,2,0],[3,0],[0]]","2","0","","","","","","4","","","","",""
"","","","","","single-stim-button","190","1437228","0.0-3.0-16.1-0.1","61451e21a303bee08cbb86ea","B2","batch2","tol_tohand","1943","","","","","","","","","tol_peg_1","1943","1943","0","[[0,0,0],[3,0],[1]]","2","[[1,2,0],[3,0],[0]]","2","0","","","","","","4","","","","",""
"","","","","","single-stim-button","191","1438028","0.0-3.0-16.1-1.1","61451e21a303bee08cbb86ea","B2","batch2","tol_toboard","800","","","","","","","","","tol_peg_2","800","800","0","[[0,0,0],[3,2],[1]]","2","[[1,2,0],[3,0],[0]]","2","0","","","","","","4","","","","",""
"","","","","","single-stim-button","192","1438680","0.0-3.0-16.2-0.2","61451e21a303bee08cbb86ea","B2","batch2","tol_tohand","652","","","","","","","","","tol_peg_3","652","652","0","[[0,0,0],[3,2],[0]]","3","[[1,2,0],[3,0],[0]]","2","0","","","","","","4","","","","",""
"","","","","","single-stim-button","193","1439559","0.0-3.0-16.2-1.2","61451e21a303bee08cbb86ea","B2","batch2","tol_toboard","878","","","","","","","","","tol_peg_1","878","878","0","[[1,0,0],[3,2],[0]]","3","[[1,2,0],[3,0],[0]]","2","0","","","","","","4","","","","",""
"","","","","","single-stim-button","194","1440260","0.0-3.0-16.3-0.3","61451e21a303bee08cbb86ea","B2","batch2","tol_tohand","701","","","","","","","","","tol_peg_2","701","701","0","[[1,0,0],[3,0],[0]]","4","[[1,2,0],[3,0],[0]]","2","0","","","","","","4","","","","",""
"","","","","","single-stim-button","195","1441127","0.0-3.0-16.3-1.3","61451e21a303bee08cbb86ea","B2","batch2","tol_toboard","867","","","","","","","","","tol_peg_1","867","867","0","[[1,2,0],[3,0],[0]]","4","[[1,2,0],[3,0],[0]]","2","0","","","","","","4","","","","",""
"","","","","","poldrack-single-stim","196","1442128","0.0-3.0-17.0","61451e21a303bee08cbb86ea","B2","batch2","tol_feedback","-1","","","","","true","","","","","1000","1000","500","","","","","","-1","none","true","4668","7964","","","","","",""
"","","","","","html-button-response","197","1442914","0.0-3.0-18.0","61451e21a303bee08cbb86ea","B2","batch2","tol_trial_num","785.5","<div class = centerbox><p class = center-block-text>problem <strong>4</strong> out of 25 problems</p></div>","0","","","","","","","","","","","","","","","","","","","","","","","","","",""
"","","","","","single-stim-button","198","1449863","0.0-3.0-19.0-0.0","61451e21a303bee08cbb86ea","B2","batch2","tol_tohand","6949","","","","","","","","","tol_peg_2","6949","6949","0","[[3,0,0],[2,0],[0]]","1","[[3,0,0],[1,0],[2]]","3","0","","","","","","3","","","","",""
"","","","","","single-stim-button","199","1450552","0.0-3.0-19.0-1.0","61451e21a303bee08cbb86ea","B2","batch2","tol_toboard","689","","","","","","","","","tol_peg_1","689","689","0","[[3,1,0],[2,0],[0]]","1","[[3,0,0],[1,0],[2]]","3","0","","","","","","3","","","","",""
"","","","","","single-stim-button","200","1451231","0.0-3.0-19.1-0.1","61451e21a303bee08cbb86ea","B2","batch2","tol_tohand","679","","","","","","","","","tol_peg_2","679","679","0","[[3,1,0],[0,0],[0]]","2","[[3,0,0],[1,0],[2]]","3","0","","","","","","3","","","","",""
"","","","","","single-stim-button","201","1451840","0.0-3.0-19.1-1.1","61451e21a303bee08cbb86ea","B2","batch2","tol_toboard","609","","","","","","","","","tol_peg_3","609","609","0","[[3,1,0],[0,0],[2]]","2","[[3,0,0],[1,0],[2]]","3","0","","","","","","3","","","","",""
"","","","","","single-stim-button","202","1452581","0.0-3.0-19.2-0.2","61451e21a303bee08cbb86ea","B2","batch2","tol_tohand","741","","","","","","","","","tol_peg_1","741","741","0","[[3,0,0],[0,0],[2]]","3","[[3,0,0],[1,0],[2]]","3","0","","","","","","3","","","","",""
"","","","","","single-stim-button","203","1453365","0.0-3.0-19.2-1.2","61451e21a303bee08cbb86ea","B2","batch2","tol_toboard","784","","","","","","","","","tol_peg_2","784","784","0","[[3,0,0],[1,0],[2]]","3","[[3,0,0],[1,0],[2]]","3","0","","","","","","3","","","","",""
"","","","","","poldrack-single-stim","204","1454366","0.0-3.0-20.0","61451e21a303bee08cbb86ea","B2","batch2","tol_feedback","-1","","","","","true","","","","","1000","1000","500","","","","","","-1","none","true","6949","8369","","","","","",""
"","","","","","html-button-response","205","1455167","0.0-3.0-21.0","61451e21a303bee08cbb86ea","B2","batch2","tol_trial_num","799.9000000059605","<div class = centerbox><p class = center-block-text>problem <strong>5</strong> out of 25 problems</p></div>","0","","","","","","","","","","","","","","","","","","","","","","","","","",""
"","","","","","single-stim-button","206","1471084","0.0-3.0-22.0-0.0","61451e21a303bee08cbb86ea","B2","batch2","tol_tohand","15917","","","","","","","","","tol_peg_3","15917","15917","0","[[1,0,0],[2,0],[0]]","1","[[0,0,0],[1,2],[3]]","4","0","","","","","","7","","","","",""
"","","","","","single-stim-button","207","1472663","0.0-3.0-22.0-1.0","61451e21a303bee08cbb86ea","B2","batch2","tol_toboard","1578","","","","","","","","","tol_peg_1","1578","1578","0","[[1,3,0],[2,0],[0]]","1","[[0,0,0],[1,2],[3]]","4","0","","","","","","7","","","","",""
"","","","","","single-stim-button","208","1473431","0.0-3.0-22.1-0.1","61451e21a303bee08cbb86ea","B2","batch2","tol_tohand","768","","","","","","","","","tol_peg_2","768","768","0","[[1,3,0],[0,0],[0]]","2","[[0,0,0],[1,2],[3]]","4","0","","","","","","7","","","","",""
"","","","","","single-stim-button","209","1475116","0.0-3.0-22.1-1.1","61451e21a303bee08cbb86ea","B2","batch2","tol_toboard","1685","","","","","","","","","tol_peg_3","1685","1685","0","[[1,3,0],[0,0],[2]]","2","[[0,0,0],[1,2],[3]]","4","0","","","","","","7","","","","",""
"","","","","","single-stim-button","210","1475980","0.0-3.0-22.2-0.2","61451e21a303bee08cbb86ea","B2","batch2","tol_tohand","864","","","","","","","","","tol_peg_1","864","864","0","[[1,0,0],[0,0],[2]]","3","[[0,0,0],[1,2],[3]]","4","0","","","","","","7","","","","",""
"","","","","","single-stim-button","211","1477125","0.0-3.0-22.2-1.2","61451e21a303bee08cbb86ea","B2","batch2","tol_toboard","1144","","","","","","","","","tol_peg_2","1144","1144","0","[[1,0,0],[3,0],[2]]","3","[[0,0,0],[1,2],[3]]","4","0","","","","","","7","","","","",""
"","","","","","single-stim-button","212","1478136","0.0-3.0-22.3-0.3","61451e21a303bee08cbb86ea","B2","batch2","tol_tohand","1010","","","","","","","","","tol_peg_1","1010","1010","0","[[0,0,0],[3,0],[2]]","4","[[0,0,0],[1,2],[3]]","4","0","","","","","","7","","","","",""
"","","","","","single-stim-button","213","1480850","0.0-3.0-22.3-1.3","61451e21a303bee08cbb86ea","B2","batch2","tol_toboard","2713","","","","","","","","","tol_peg_2","2713","2713","0","[[0,0,0],[3,1],[2]]","4","[[0,0,0],[1,2],[3]]","4","0","","","","","","7","","","","",""
"","","","","","single-stim-button","214","1482635","0.0-3.0-22.4-0.4","61451e21a303bee08cbb86ea","B2","batch2","tol_tohand","1784","","","","","","","","","tol_peg_3","1784","1784","0","[[0,0,0],[3,1],[0]]","5","[[0,0,0],[1,2],[3]]","4","0","","","","","","7","","","","",""
"","","","","","single-stim-button","215","1483453","0.0-3.0-22.4-1.4","61451e21a303bee08cbb86ea","B2","batch2","tol_toboard","818","","","","","","","","","tol_peg_1","818","818","0","[[2,0,0],[3,1],[0]]","5","[[0,0,0],[1,2],[3]]","4","0","","","","","","7","","","","",""
"","","","","","single-stim-button","216","1484662","0.0-3.0-22.5-0.5","61451e21a303bee08cbb86ea","B2","batch2","tol_tohand","1209","","","","","","","","","tol_peg_2","1209","1209","0","[[2,0,0],[3,0],[0]]","6","[[0,0,0],[1,2],[3]]","4","0","","","","","","7","","","","",""
"","","","","","single-stim-button","217","1485727","0.0-3.0-22.5-1.5","61451e21a303bee08cbb86ea","B2","batch2","tol_toboard","1065","","","","","","","","","tol_peg_1","1065","1065","0","[[2,1,0],[3,0],[0]]","6","[[0,0,0],[1,2],[3]]","4","0","","","","","","7","","","","",""
"","","","","","single-stim-button","218","1486450","0.0-3.0-22.6-0.6","61451e21a303bee08cbb86ea","B2","batch2","tol_tohand","723","","","","","","","","","tol_peg_2","723","723","0","[[2,1,0],[0,0],[0]]","7","[[0,0,0],[1,2],[3]]","4","0","","","","","","7","","","","",""
"","","","","","single-stim-button","219","1487242","0.0-3.0-22.6-1.6","61451e21a303bee08cbb86ea","B2","batch2","tol_toboard","792","","","","","","","","","tol_peg_3","792","792","0","[[2,1,0],[0,0],[3]]","7","[[0,0,0],[1,2],[3]]","4","0","","","","","","7","","","","",""
"","","","","","single-stim-button","220","1488515","0.0-3.0-22.7-0.7","61451e21a303bee08cbb86ea","B2","batch2","tol_tohand","1272","","","","","","","","","tol_peg_1","1272","1272","0","[[2,0,0],[0,0],[3]]","8","[[0,0,0],[1,2],[3]]","4","0","","","","","","7","","","","",""
"","","","","","single-stim-button","221","1489192","0.0-3.0-22.7-1.7","61451e21a303bee08cbb86ea","B2","batch2","tol_toboard","677","","","","","","","","","tol_peg_2","677","677","0","[[2,0,0],[1,0],[3]]","8","[[0,0,0],[1,2],[3]]","4","0","","","","","","7","","","","",""
"","","","","","single-stim-button","222","1489822","0.0-3.0-22.8-0.8","61451e21a303bee08cbb86ea","B2","batch2","tol_tohand","630","","","","","","","","","tol_peg_1","630","630","0","[[0,0,0],[1,0],[3]]","9","[[0,0,0],[1,2],[3]]","4","0","","","","","","7","","","","",""
"","","","","","single-stim-button","223","1490385","0.0-3.0-22.8-1.8","61451e21a303bee08cbb86ea","B2","batch2","tol_toboard","562","","","","","","","","","tol_peg_2","562","562","0","[[0,0,0],[1,2],[3]]","9","[[0,0,0],[1,2],[3]]","4","0","","","","","","7","","","","",""
"","","","","","poldrack-single-stim","224","1491387","0.0-3.0-23.0","61451e21a303bee08cbb86ea","B2","batch2","tol_feedback","-1","","","","","true","","","","","1000","1000","500","","","","","","-1","none","true","15917","24177","","","","","",""
"","","","","","html-button-response","225","1492041","0.0-3.0-24.0","61451e21a303bee08cbb86ea","B2","batch2","tol_trial_num","653.7000000178814","<div class = centerbox><p class = center-block-text>problem <strong>6</strong> out of 25 problems</p></div>","0","","","","","","","","","","","","","","","","","","","","","","","","","",""
"","","","","","single-stim-button","226","1496401","0.0-3.0-25.0-0.0","61451e21a303bee08cbb86ea","B2","batch2","tol_tohand","4360","","","","","","","","","tol_peg_2","4360","4360","0","[[0,0,0],[1,0],[3]]","1","[[1,0,0],[2,3],[0]]","5","0","","","","","","6","","","","",""
"","","","","","single-stim-button","227","1497572","0.0-3.0-25.0-1.0","61451e21a303bee08cbb86ea","B2","batch2","tol_toboard","1170","","","","","","","","","tol_peg_1","1170","1170","0","[[2,0,0],[1,0],[3]]","1","[[1,0,0],[2,3],[0]]","5","0","","","","","","6","","","","",""
"","","","","","single-stim-button","228","1502383","0.0-3.0-25.1-0.1","61451e21a303bee08cbb86ea","B2","batch2","tol_tohand","4810","","","","","","","","","tol_peg_2","4810","4810","0","[[2,0,0],[0,0],[3]]","2","[[1,0,0],[2,3],[0]]","5","0","","","","","","6","","","","",""
"","","","","","single-stim-button","229","1503275","0.0-3.0-25.1-1.1","61451e21a303bee08cbb86ea","B2","batch2","tol_toboard","891","","","","","","","","","tol_peg_1","891","891","0","[[2,1,0],[0,0],[3]]","2","[[1,0,0],[2,3],[0]]","5","0","","","","","","6","","","","",""
"","","","","","single-stim-button","230","1503908","0.0-3.0-25.2-0.2","61451e21a303bee08cbb86ea","B2","batch2","tol_tohand","632","","","","","","","","","tol_peg_3","632","632","0","[[2,1,0],[0,0],[0]]","3","[[1,0,0],[2,3],[0]]","5","0","","","","","","6","","","","",""
"","","","","","single-stim-button","231","1504488","0.0-3.0-25.2-1.2","61451e21a303bee08cbb86ea","B2","batch2","tol_toboard","580","","","","","","","","","tol_peg_2","580","580","0","[[2,1,0],[3,0],[0]]","3","[[1,0,0],[2,3],[0]]","5","0","","","","","","6","","","","",""
"","","","","","single-stim-button","232","1505850","0.0-3.0-25.3-0.3","61451e21a303bee08cbb86ea","B2","batch2","tol_tohand","1361","","","","","","","","","tol_peg_1","1361","1361","0","[[2,0,0],[3,0],[0]]","4","[[1,0,0],[2,3],[0]]","5","0","","","","","","6","","","","",""
"","","","","","single-stim-button","233","1506693","0.0-3.0-25.3-1.3","61451e21a303bee08cbb86ea","B2","batch2","tol_toboard","842","","","","","","","","","tol_peg_2","842","842","0","[[2,0,0],[3,1],[0]]","4","[[1,0,0],[2,3],[0]]","5","0","","","","","","6","","","","",""
"","","","","","single-stim-button","234","1507496","0.0-3.0-25.4-0.4","61451e21a303bee08cbb86ea","B2","batch2","tol_tohand","802","","","","","","","","","tol_peg_1","802","802","0","[[0,0,0],[3,1],[0]]","5","[[1,0,0],[2,3],[0]]","5","0","","","","","","6","","","","",""
"","","","","","single-stim-button","235","1509768","0.0-3.0-25.4-1.4","61451e21a303bee08cbb86ea","B2","batch2","tol_toboard","2272","","","","","","","","","tol_peg_3","2272","2272","0","[[0,0,0],[3,1],[2]]","5","[[1,0,0],[2,3],[0]]","5","0","","","","","","6","","","","",""
"","","","","","single-stim-button","236","1510548","0.0-3.0-25.5-0.5","61451e21a303bee08cbb86ea","B2","batch2","tol_tohand","779","","","","","","","","","tol_peg_2","779","779","0","[[0,0,0],[3,0],[2]]","6","[[1,0,0],[2,3],[0]]","5","0","","","","","","6","","","","",""
"","","","","","single-stim-button","237","1511128","0.0-3.0-25.5-1.5","61451e21a303bee08cbb86ea","B2","batch2","tol_toboard","579","","","","","","","","","tol_peg_1","579","579","0","[[1,0,0],[3,0],[2]]","6","[[1,0,0],[2,3],[0]]","5","0","","","","","","6","","","","",""
"","","","","","single-stim-button","238","1512141","0.0-3.0-25.6-0.6","61451e21a303bee08cbb86ea","B2","batch2","tol_tohand","1012","","","","","","","","","tol_peg_3","1012","1012","0","[[1,0,0],[3,0],[0]]","7","[[1,0,0],[2,3],[0]]","5","0","","","","","","6","","","","",""
"","","","","","single-stim-button","239","1512723","0.0-3.0-25.6-1.6","61451e21a303bee08cbb86ea","B2","batch2","tol_toboard","581","","","","","","","","","tol_peg_2","581","581","0","[[1,0,0],[3,2],[0]]","7","[[1,0,0],[2,3],[0]]","5","0","","","","","","6","","","","",""
"","","","","","single-stim-button","240","1514697","0.0-3.0-25.7-0.7","61451e21a303bee08cbb86ea","B2","batch2","tol_tohand","1973","","","","","","","","","tol_peg_2","1973","1973","0","[[1,0,0],[3,0],[0]]","8","[[1,0,0],[2,3],[0]]","5","0","","","","","","6","","","","",""
"","","","","","single-stim-button","241","1515357","0.0-3.0-25.7-1.7","61451e21a303bee08cbb86ea","B2","batch2","tol_toboard","659","","","","","","","","","tol_peg_3","659","659","0","[[1,0,0],[3,0],[2]]","8","[[1,0,0],[2,3],[0]]","5","0","","","","","","6","","","","",""
"","","","","","single-stim-button","242","1515861","0.0-3.0-25.8-0.8","61451e21a303bee08cbb86ea","B2","batch2","tol_tohand","504","","","","","","","","","tol_peg_2","504","504","0","[[1,0,0],[0,0],[2]]","9","[[1,0,0],[2,3],[0]]","5","0","","","","","","6","","","","",""
"","","","","","single-stim-button","243","1517185","0.0-3.0-25.8-1.8","61451e21a303bee08cbb86ea","B2","batch2","tol_toboard","1323","","","","","","","","","tol_peg_1","1323","1323","0","[[1,3,0],[0,0],[2]]","9","[[1,0,0],[2,3],[0]]","5","0","","","","","","6","","","","",""
"","","","","","single-stim-button","244","1517852","0.0-3.0-25.9-0.9","61451e21a303bee08cbb86ea","B2","batch2","tol_tohand","667","","","","","","","","","tol_peg_3","667","667","0","[[1,3,0],[0,0],[0]]","10","[[1,0,0],[2,3],[0]]","5","0","","","","","","6","","","","",""
"","","","","","single-stim-button","245","1518300","0.0-3.0-25.9-1.9","61451e21a303bee08cbb86ea","B2","batch2","tol_toboard","448","","","","","","","","","tol_peg_2","448","448","0","[[1,3,0],[2,0],[0]]","10","[[1,0,0],[2,3],[0]]","5","0","","","","","","6","","","","",""
"","","","","","single-stim-button","246","1518923","0.0-3.0-25.10-0.10","61451e21a303bee08cbb86ea","B2","batch2","tol_tohand","622","","","","","","","","","tol_peg_1","622","622","0","[[1,0,0],[2,0],[0]]","11","[[1,0,0],[2,3],[0]]","5","0","","","","","","6","","","","",""
"","","","","","single-stim-button","247","1519417","0.0-3.0-25.10-1.10","61451e21a303bee08cbb86ea","B2","batch2","tol_toboard","494","","","","","","","","","tol_peg_2","494","494","0","[[1,0,0],[2,3],[0]]","11","[[1,0,0],[2,3],[0]]","5","0","","","","","","6","","","","",""
"","","","","","poldrack-single-stim","248","1520418","0.0-3.0-26.0","61451e21a303bee08cbb86ea","B2","batch2","tol_feedback","-1","","","","","true","","","","","1000","1000","500","","","","","","-1","none","true","4360","17522","","","","","",""
"","","","","","html-button-response","249","1521173","0.0-3.0-27.0","61451e21a303bee08cbb86ea","B2","batch2","tol_trial_num","753.9000000059605","<div class = centerbox><p class = center-block-text>problem <strong>7</strong> out of 25 problems</p></div>","0","","","","","","","","","","","","","","","","","","","","","","","","","",""
"","","","","","single-stim-button","250","1525418","0.0-3.0-28.0-0.0","61451e21a303bee08cbb86ea","B2","batch2","tol_tohand","4244","","","","","","","","","tol_peg_1","4244","4244","0","[[2,0,0],[0,0],[3]]","1","[[1,2,0],[3,0],[0]]","6","0","","","","","","5","","","","",""
"","","","","","single-stim-button","251","1527050","0.0-3.0-28.0-1.0","61451e21a303bee08cbb86ea","B2","batch2","tol_toboard","1631","","","","","","","","","tol_peg_2","1631","1631","0","[[2,0,0],[1,0],[3]]","1","[[1,2,0],[3,0],[0]]","6","0","","","","","","5","","","","",""
"","","","","","single-stim-button","252","1528070","0.0-3.0-28.1-0.1","61451e21a303bee08cbb86ea","B2","batch2","tol_tohand","1020","","","","","","","","","tol_peg_1","1020","1020","0","[[0,0,0],[1,0],[3]]","2","[[1,2,0],[3,0],[0]]","6","0","","","","","","5","","","","",""
"","","","","","single-stim-button","253","1530315","0.0-3.0-28.1-1.1","61451e21a303bee08cbb86ea","B2","batch2","tol_toboard","2245","","","","","","","","","tol_peg_1","2245","2245","0","[[2,0,0],[1,0],[3]]","2","[[1,2,0],[3,0],[0]]","6","0","","","","","","5","","","","",""
"","","","","","single-stim-button","254","1531139","0.0-3.0-28.2-0.2","61451e21a303bee08cbb86ea","B2","batch2","tol_tohand","824","","","","","","","","","tol_peg_3","824","824","0","[[2,0,0],[1,0],[0]]","3","[[1,2,0],[3,0],[0]]","6","0","","","","","","5","","","","",""
"","","","","","single-stim-button","255","1531932","0.0-3.0-28.2-1.2","61451e21a303bee08cbb86ea","B2","batch2","tol_toboard","793","","","","","","","","","tol_peg_2","793","793","0","[[2,0,0],[1,3],[0]]","3","[[1,2,0],[3,0],[0]]","6","0","","","","","","5","","","","",""
"","","","","","single-stim-button","256","1533063","0.0-3.0-28.3-0.3","61451e21a303bee08cbb86ea","B2","batch2","tol_tohand","1131","","","","","","","","","tol_peg_1","1131","1131","0","[[0,0,0],[1,3],[0]]","4","[[1,2,0],[3,0],[0]]","6","0","","","","","","5","","","","",""
"","","","","","single-stim-button","257","1534345","0.0-3.0-28.3-1.3","61451e21a303bee08cbb86ea","B2","batch2","tol_toboard","1282","","","","","","","","","tol_peg_3","1282","1282","0","[[0,0,0],[1,3],[2]]","4","[[1,2,0],[3,0],[0]]","6","0","","","","","","5","","","","",""
"","","","","","single-stim-button","258","1536540","0.0-3.0-28.4-0.4","61451e21a303bee08cbb86ea","B2","batch2","tol_tohand","2195","","","","","","","","","tol_peg_2","2195","2195","0","[[0,0,0],[1,0],[2]]","5","[[1,2,0],[3,0],[0]]","6","0","","","","","","5","","","","",""
"","","","","","single-stim-button","259","1539251","0.0-3.0-28.4-1.4","61451e21a303bee08cbb86ea","B2","batch2","tol_toboard","2710","","","","","","","","","tol_peg_2","2710","2710","0","[[0,0,0],[1,3],[2]]","5","[[1,2,0],[3,0],[0]]","6","0","","","","","","5","","","","",""
"","","","","","single-stim-button","260","1543692","0.0-3.0-28.5-0.5","61451e21a303bee08cbb86ea","B2","batch2","tol_tohand","4441","","","","","","","","","tol_peg_3","4441","4441","0","[[0,0,0],[1,3],[0]]","6","[[1,2,0],[3,0],[0]]","6","0","","","","","","5","","","","",""
"","","","","","single-stim-button","261","1544325","0.0-3.0-28.5-1.5","61451e21a303bee08cbb86ea","B2","batch2","tol_toboard","633","","","","","","","","","tol_peg_1","633","633","0","[[2,0,0],[1,3],[0]]","6","[[1,2,0],[3,0],[0]]","6","0","","","","","","5","","","","",""
"","","","","","single-stim-button","262","1545046","0.0-3.0-28.6-0.6","61451e21a303bee08cbb86ea","B2","batch2","tol_tohand","721","","","","","","","","","tol_peg_2","721","721","0","[[2,0,0],[1,0],[0]]","7","[[1,2,0],[3,0],[0]]","6","0","","","","","","5","","","","",""
"","","","","","single-stim-button","263","1545784","0.0-3.0-28.6-1.6","61451e21a303bee08cbb86ea","B2","batch2","tol_toboard","738","","","","","","","","","tol_peg_3","738","738","0","[[2,0,0],[1,0],[3]]","7","[[1,2,0],[3,0],[0]]","6","0","","","","","","5","","","","",""
"","","","","","single-stim-button","264","1550721","0.0-3.0-28.7-0.7","61451e21a303bee08cbb86ea","B2","batch2","tol_tohand","4937","","","","","","","","","tol_peg_3","4937","4937","0","[[2,0,0],[1,0],[0]]","8","[[1,2,0],[3,0],[0]]","6","0","","","","","","5","","","","",""
"","","","","","single-stim-button","265","1551491","0.0-3.0-28.7-1.7","61451e21a303bee08cbb86ea","B2","batch2","tol_toboard","770","","","","","","","","","tol_peg_1","770","770","0","[[2,3,0],[1,0],[0]]","8","[[1,2,0],[3,0],[0]]","6","0","","","","","","5","","","","",""
"","","","","","single-stim-button","266","1552001","0.0-3.0-28.8-0.8","61451e21a303bee08cbb86ea","B2","batch2","tol_tohand","510","","","","","","","","","tol_peg_2","510","510","0","[[2,3,0],[0,0],[0]]","9","[[1,2,0],[3,0],[0]]","6","0","","","","","","5","","","","",""
"","","","","","single-stim-button","267","1552626","0.0-3.0-28.8-1.8","61451e21a303bee08cbb86ea","B2","batch2","tol_toboard","625","","","","","","","","","tol_peg_3","625","625","0","[[2,3,0],[0,0],[1]]","9","[[1,2,0],[3,0],[0]]","6","0","","","","","","5","","","","",""
"","","","","","single-stim-button","268","1553576","0.0-3.0-28.9-0.9","61451e21a303bee08cbb86ea","B2","batch2","tol_tohand","950","","","","","","","","","tol_peg_1","950","950","0","[[2,0,0],[0,0],[1]]","10","[[1,2,0],[3,0],[0]]","6","0","","","","","","5","","","","",""
"","","","","","single-stim-button","269","1554287","0.0-3.0-28.9-1.9","61451e21a303bee08cbb86ea","B2","batch2","tol_toboard","711","","","","","","","","","tol_peg_2","711","711","0","[[2,0,0],[3,0],[1]]","10","[[1,2,0],[3,0],[0]]","6","0","","","","","","5","","","","",""
"","","","","","single-stim-button","270","1555199","0.0-3.0-28.10-0.10","61451e21a303bee08cbb86ea","B2","batch2","tol_tohand","911","","","","","","","","","tol_peg_1","911","911","0","[[0,0,0],[3,0],[1]]","11","[[1,2,0],[3,0],[0]]","6","0","","","","","","5","","","","",""
"","","","","","single-stim-button","271","1555821","0.0-3.0-28.10-1.10","61451e21a303bee08cbb86ea","B2","batch2","tol_toboard","622","","","","","","","","","tol_peg_2","622","622","0","[[0,0,0],[3,2],[1]]","11","[[1,2,0],[3,0],[0]]","6","0","","","","","","5","","","","",""
"","","","","","single-stim-button","272","1556531","0.0-3.0-28.11-0.11","61451e21a303bee08cbb86ea","B2","batch2","tol_tohand","710","","","","","","","","","tol_peg_3","710","710","0","[[0,0,0],[3,2],[0]]","12","[[1,2,0],[3,0],[0]]","6","0","","","","","","5","","","","",""
"","","","","","single-stim-button","273","1557626","0.0-3.0-28.11-1.11","61451e21a303bee08cbb86ea","B2","batch2","tol_toboard","1095","","","","","","","","","tol_peg_1","1095","1095","0","[[1,0,0],[3,2],[0]]","12","[[1,2,0],[3,0],[0]]","6","0","","","","","","5","","","","",""
"","","","","","single-stim-button","274","1558211","0.0-3.0-28.12-0.12","61451e21a303bee08cbb86ea","B2","batch2","tol_tohand","585","","","","","","","","","tol_peg_2","585","585","0","[[1,0,0],[3,0],[0]]","13","[[1,2,0],[3,0],[0]]","6","0","","","","","","5","","","","",""
"","","","","","single-stim-button","275","1559062","0.0-3.0-28.12-1.12","61451e21a303bee08cbb86ea","B2","batch2","tol_toboard","851","","","","","","","","","tol_peg_1","851","851","0","[[1,2,0],[3,0],[0]]","13","[[1,2,0],[3,0],[0]]","6","0","","","","","","5","","","","",""
"","","","","","poldrack-single-stim","276","1560063","0.0-3.0-29.0","61451e21a303bee08cbb86ea","B2","batch2","tol_feedback","-1","","","","","true","","","","","1000","1000","500","","","","","","-1","none","true","4244","23179","","","","","",""
"","","","","","html-button-response","277","1560845","0.0-3.0-30.0","61451e21a303bee08cbb86ea","B2","batch2","tol_trial_num","781.0999999940395","<div class = centerbox><p class = center-block-text>problem <strong>8</strong> out of 25 problems</p></div>","0","","","","","","","","","","","","","","","","","","","","","","","","","",""
"","","","","","single-stim-button","278","1570907","0.0-3.0-31.0-0.0","61451e21a303bee08cbb86ea","B2","batch2","tol_tohand","10061","","","","","","","","","tol_peg_3","10061","10061","0","[[0,0,0],[2,3],[0]]","1","[[1,2,0],[3,0],[0]]","7","0","","","","","","4","","","","",""
"","","","","","single-stim-button","279","1571658","0.0-3.0-31.0-1.0","61451e21a303bee08cbb86ea","B2","batch2","tol_toboard","750","","","","","","","","","tol_peg_1","750","750","0","[[1,0,0],[2,3],[0]]","1","[[1,2,0],[3,0],[0]]","7","0","","","","","","4","","","","",""
"","","","","","single-stim-button","280","1572249","0.0-3.0-31.1-0.1","61451e21a303bee08cbb86ea","B2","batch2","tol_tohand","590","","","","","","","","","tol_peg_2","590","590","0","[[1,0,0],[2,0],[0]]","2","[[1,2,0],[3,0],[0]]","7","0","","","","","","4","","","","",""
"","","","","","single-stim-button","281","1572896","0.0-3.0-31.1-1.1","61451e21a303bee08cbb86ea","B2","batch2","tol_toboard","647","","","","","","","","","tol_peg_3","647","647","0","[[1,0,0],[2,0],[3]]","2","[[1,2,0],[3,0],[0]]","7","0","","","","","","4","","","","",""
"","","","","","single-stim-button","282","1573360","0.0-3.0-31.2-0.2","61451e21a303bee08cbb86ea","B2","batch2","tol_tohand","464","","","","","","","","","tol_peg_2","464","464","0","[[1,0,0],[0,0],[3]]","3","[[1,2,0],[3,0],[0]]","7","0","","","","","","4","","","","",""
"","","","","","single-stim-button","283","1574029","0.0-3.0-31.2-1.2","61451e21a303bee08cbb86ea","B2","batch2","tol_toboard","668","","","","","","","","","tol_peg_1","668","668","0","[[1,2,0],[0,0],[3]]","3","[[1,2,0],[3,0],[0]]","7","0","","","","","","4","","","","",""
"","","","","","single-stim-button","284","1574599","0.0-3.0-31.3-0.3","61451e21a303bee08cbb86ea","B2","batch2","tol_tohand","569","","","","","","","","","tol_peg_3","569","569","0","[[1,2,0],[0,0],[0]]","4","[[1,2,0],[3,0],[0]]","7","0","","","","","","4","","","","",""
"","","","","","single-stim-button","285","1575470","0.0-3.0-31.3-1.3","61451e21a303bee08cbb86ea","B2","batch2","tol_toboard","871","","","","","","","","","tol_peg_2","871","871","0","[[1,2,0],[3,0],[0]]","4","[[1,2,0],[3,0],[0]]","7","0","","","","","","4","","","","",""
"","","","","","poldrack-single-stim","286","1576471","0.0-3.0-32.0","61451e21a303bee08cbb86ea","B2","batch2","tol_feedback","-1","","","","","true","","","","","1000","1000","500","","","","","","-1","none","true","10061","11684","","","","","",""
"","","","","","html-button-response","287","1577316","0.0-3.0-33.0","61451e21a303bee08cbb86ea","B2","batch2","tol_trial_num","844.2999999821186","<div class = centerbox><p class = center-block-text>problem <strong>9</strong> out of 25 problems</p></div>","0","","","","","","","","","","","","","","","","","","","","","","","","","",""
"","","","","","single-stim-button","288","1582612","0.0-3.0-34.0-0.0","61451e21a303bee08cbb86ea","B2","batch2","tol_tohand","5295","","","","","","","","","tol_peg_1","5295","5295","0","[[3,0,0],[0,0],[1]]","1","[[2,1,0],[3,0],[0]]","8","0","","","","","","6","","","","",""
"","","","","","single-stim-button","289","1583270","0.0-3.0-34.0-1.0","61451e21a303bee08cbb86ea","B2","batch2","tol_toboard","657","","","","","","","","","tol_peg_2","657","657","0","[[3,0,0],[2,0],[1]]","1","[[2,1,0],[3,0],[0]]","8","0","","","","","","6","","","","",""
"","","","","","single-stim-button","290","1583797","0.0-3.0-34.1-0.1","61451e21a303bee08cbb86ea","B2","batch2","tol_tohand","526","","","","","","","","","tol_peg_1","526","526","0","[[0,0,0],[2,0],[1]]","2","[[2,1,0],[3,0],[0]]","8","0","","","","","","6","","","","",""
"","","","","","single-stim-button","291","1584360","0.0-3.0-34.1-1.1","61451e21a303bee08cbb86ea","B2","batch2","tol_toboard","562","","","","","","","","","tol_peg_2","562","562","0","[[0,0,0],[2,3],[1]]","2","[[2,1,0],[3,0],[0]]","8","0","","","","","","6","","","","",""
"","","","","","single-stim-button","292","1584828","0.0-3.0-34.2-0.2","61451e21a303bee08cbb86ea","B2","batch2","tol_tohand","467","","","","","","","","","tol_peg_3","467","467","0","[[0,0,0],[2,3],[0]]","3","[[2,1,0],[3,0],[0]]","8","0","","","","","","6","","","","",""
"","","","","","single-stim-button","293","1585643","0.0-3.0-34.2-1.2","61451e21a303bee08cbb86ea","B2","batch2","tol_toboard","814","","","","","","","","","tol_peg_1","814","814","0","[[1,0,0],[2,3],[0]]","3","[[2,1,0],[3,0],[0]]","8","0","","","","","","6","","","","",""
"","","","","","single-stim-button","294","1586691","0.0-3.0-34.3-0.3","61451e21a303bee08cbb86ea","B2","batch2","tol_tohand","1047","","","","","","","","","tol_peg_2","1047","1047","0","[[1,0,0],[2,0],[0]]","4","[[2,1,0],[3,0],[0]]","8","0","","","","","","6","","","","",""
"","","","","","single-stim-button","295","1587182","0.0-3.0-34.3-1.3","61451e21a303bee08cbb86ea","B2","batch2","tol_toboard","490","","","","","","","","","tol_peg_3","490","490","0","[[1,0,0],[2,0],[3]]","4","[[2,1,0],[3,0],[0]]","8","0","","","","","","6","","","","",""
"","","","","","single-stim-button","296","1587691","0.0-3.0-34.4-0.4","61451e21a303bee08cbb86ea","B2","batch2","tol_tohand","508","","","","","","","","","tol_peg_2","508","508","0","[[1,0,0],[0,0],[3]]","5","[[2,1,0],[3,0],[0]]","8","0","","","","","","6","","","","",""
"","","","","","single-stim-button","297","1588233","0.0-3.0-34.4-1.4","61451e21a303bee08cbb86ea","B2","batch2","tol_toboard","542","","","","","","","","","tol_peg_1","542","542","0","[[1,2,0],[0,0],[3]]","5","[[2,1,0],[3,0],[0]]","8","0","","","","","","6","","","","",""
"","","","","","single-stim-button","298","1588796","0.0-3.0-34.5-0.5","61451e21a303bee08cbb86ea","B2","batch2","tol_tohand","562","","","","","","","","","tol_peg_3","562","562","0","[[1,2,0],[0,0],[0]]","6","[[2,1,0],[3,0],[0]]","8","0","","","","","","6","","","","",""
"","","","","","single-stim-button","299","1589301","0.0-3.0-34.5-1.5","61451e21a303bee08cbb86ea","B2","batch2","tol_toboard","504","","","","","","","","","tol_peg_2","504","504","0","[[1,2,0],[3,0],[0]]","6","[[2,1,0],[3,0],[0]]","8","0","","","","","","6","","","","",""
"","","","","","single-stim-button","300","1592219","0.0-3.0-34.6-0.6","61451e21a303bee08cbb86ea","B2","batch2","tol_tohand","2917","","","","","","","","","tol_peg_1","2917","2917","0","[[1,0,0],[3,0],[0]]","7","[[2,1,0],[3,0],[0]]","8","0","","","","","","6","","","","",""
"","","","","","single-stim-button","301","1594548","0.0-3.0-34.6-1.6","61451e21a303bee08cbb86ea","B2","batch2","tol_toboard","2328","","","","","","","","","tol_peg_2","2328","2328","0","[[1,0,0],[3,2],[0]]","7","[[2,1,0],[3,0],[0]]","8","0","","","","","","6","","","","",""
"","","","","","single-stim-button","302","1595422","0.0-3.0-34.7-0.7","61451e21a303bee08cbb86ea","B2","batch2","tol_tohand","873","","","","","","","","","tol_peg_1","873","873","0","[[0,0,0],[3,2],[0]]","8","[[2,1,0],[3,0],[0]]","8","0","","","","","","6","","","","",""
"","","","","","single-stim-button","303","1596309","0.0-3.0-34.7-1.7","61451e21a303bee08cbb86ea","B2","batch2","tol_toboard","886","","","","","","","","","tol_peg_3","886","886","0","[[0,0,0],[3,2],[1]]","8","[[2,1,0],[3,0],[0]]","8","0","","","","","","6","","","","",""
"","","","","","single-stim-button","304","1596823","0.0-3.0-34.8-0.8","61451e21a303bee08cbb86ea","B2","batch2","tol_tohand","513","","","","","","","","","tol_peg_2","513","513","0","[[0,0,0],[3,0],[1]]","9","[[2,1,0],[3,0],[0]]","8","0","","","","","","6","","","","",""
"","","","","","single-stim-button","305","1597529","0.0-3.0-34.8-1.8","61451e21a303bee08cbb86ea","B2","batch2","tol_toboard","705","","","","","","","","","tol_peg_1","705","705","0","[[2,0,0],[3,0],[1]]","9","[[2,1,0],[3,0],[0]]","8","0","","","","","","6","","","","",""
"","","","","","single-stim-button","306","1598253","0.0-3.0-34.9-0.9","61451e21a303bee08cbb86ea","B2","batch2","tol_tohand","723","","","","","","","","","tol_peg_3","723","723","0","[[2,0,0],[3,0],[0]]","10","[[2,1,0],[3,0],[0]]","8","0","","","","","","6","","","","",""
"","","","","","single-stim-button","307","1598868","0.0-3.0-34.9-1.9","61451e21a303bee08cbb86ea","B2","batch2","tol_toboard","614","","","","","","","","","tol_peg_1","614","614","0","[[2,1,0],[3,0],[0]]","10","[[2,1,0],[3,0],[0]]","8","0","","","","","","6","","","","",""
"","","","","","poldrack-single-stim","308","1599870","0.0-3.0-35.0","61451e21a303bee08cbb86ea","B2","batch2","tol_feedback","-1","","","","","true","","","","","1000","1000","500","","","","","","-1","none","true","5295","13431","","","","","",""
"","","","","","html-button-response","309","1600616","0.0-3.0-36.0","61451e21a303bee08cbb86ea","B2","batch2","tol_trial_num","746.3000000119209","<div class = centerbox><p class = center-block-text>problem <strong>10</strong> out of 25 problems</p></div>","0","","","","","","","","","","","","","","","","","","","","","","","","","",""
"","","","","","single-stim-button","310","1604382","0.0-3.0-37.0-0.0","61451e21a303bee08cbb86ea","B2","batch2","tol_tohand","3764","","","","","","","","","tol_peg_2","3764","3764","0","[[3,0,0],[0,0],[2]]","1","[[3,0,0],[2,1],[0]]","9","0","","","","","","3","","","","",""
"","","","","","single-stim-button","311","1605406","0.0-3.0-37.0-1.0","61451e21a303bee08cbb86ea","B2","batch2","tol_toboard","1023","","","","","","","","","tol_peg_1","1023","1023","0","[[3,1,0],[0,0],[2]]","1","[[3,0,0],[2,1],[0]]","9","0","","","","","","3","","","","",""
"","","","","","single-stim-button","312","1606079","0.0-3.0-37.1-0.1","61451e21a303bee08cbb86ea","B2","batch2","tol_tohand","673","","","","","","","","","tol_peg_3","673","673","0","[[3,1,0],[0,0],[0]]","2","[[3,0,0],[2,1],[0]]","9","0","","","","","","3","","","","",""
"","","","","","single-stim-button","313","1606652","0.0-3.0-37.1-1.1","61451e21a303bee08cbb86ea","B2","batch2","tol_toboard","573","","","","","","","","","tol_peg_2","573","573","0","[[3,1,0],[2,0],[0]]","2","[[3,0,0],[2,1],[0]]","9","0","","","","","","3","","","","",""
"","","","","","single-stim-button","314","1607341","0.0-3.0-37.2-0.2","61451e21a303bee08cbb86ea","B2","batch2","tol_tohand","688","","","","","","","","","tol_peg_1","688","688","0","[[3,0,0],[2,0],[0]]","3","[[3,0,0],[2,1],[0]]","9","0","","","","","","3","","","","",""
"","","","","","single-stim-button","315","1607849","0.0-3.0-37.2-1.2","61451e21a303bee08cbb86ea","B2","batch2","tol_toboard","506","","","","","","","","","tol_peg_2","506","506","0","[[3,0,0],[2,1],[0]]","3","[[3,0,0],[2,1],[0]]","9","0","","","","","","3","","","","",""
"","","","","","poldrack-single-stim","316","1608851","0.0-3.0-38.0","61451e21a303bee08cbb86ea","B2","batch2","tol_feedback","-1","","","","","true","","","","","1000","1000","500","","","","","","-1","none","true","3764","5125","","","","","",""
"","","","","","html-button-response","317","1609451","0.0-3.0-39.0","61451e21a303bee08cbb86ea","B2","batch2","tol_trial_num","600.0999999940395","<div class = centerbox><p class = center-block-text>problem <strong>11</strong> out of 25 problems</p></div>","0","","","","","","","","","","","","","","","","","","","","","","","","","",""
"","","","","","single-stim-button","318","1614265","0.0-3.0-40.0-0.0","61451e21a303bee08cbb86ea","B2","batch2","tol_tohand","4813","","","","","","","","","tol_peg_1","4813","4813","0","[[1,0,0],[3,0],[0]]","1","[[2,0,0],[1,3],[0]]","10","0","","","","","","6","","","","",""
"","","","","","single-stim-button","319","1617704","0.0-3.0-40.0-1.0","61451e21a303bee08cbb86ea","B2","batch2","tol_toboard","3438","","","","","","","","","tol_peg_2","3438","3438","0","[[1,0,0],[3,2],[0]]","1","[[2,0,0],[1,3],[0]]","10","0","","","","","","6","","","","",""
"","","","","","single-stim-button","320","1618315","0.0-3.0-40.1-0.1","61451e21a303bee08cbb86ea","B2","batch2","tol_tohand","610","","","","","","","","","tol_peg_1","610","610","0","[[0,0,0],[3,2],[0]]","2","[[2,0,0],[1,3],[0]]","10","0","","","","","","6","","","","",""
"","","","","","single-stim-button","321","1618930","0.0-3.0-40.1-1.1","61451e21a303bee08cbb86ea","B2","batch2","tol_toboard","614","","","","","","","","","tol_peg_3","614","614","0","[[0,0,0],[3,2],[1]]","2","[[2,0,0],[1,3],[0]]","10","0","","","","","","6","","","","",""
"","","","","","single-stim-button","322","1619571","0.0-3.0-40.2-0.2","61451e21a303bee08cbb86ea","B2","batch2","tol_tohand","640","","","","","","","","","tol_peg_2","640","640","0","[[0,0,0],[3,0],[1]]","3","[[2,0,0],[1,3],[0]]","10","0","","","","","","6","","","","",""
"","","","","","single-stim-button","323","1620192","0.0-3.0-40.2-1.2","61451e21a303bee08cbb86ea","B2","batch2","tol_toboard","621","","","","","","","","","tol_peg_1","621","621","0","[[2,0,0],[3,0],[1]]","3","[[2,0,0],[1,3],[0]]","10","0","","","","","","6","","","","",""
"","","","","","single-stim-button","324","1621033","0.0-3.0-40.3-0.3","61451e21a303bee08cbb86ea","B2","batch2","tol_tohand","840","","","","","","","","","tol_peg_2","840","840","0","[[2,0,0],[0,0],[1]]","4","[[2,0,0],[1,3],[0]]","10","0","","","","","","6","","","","",""
"","","","","","single-stim-button","325","1621785","0.0-3.0-40.3-1.3","61451e21a303bee08cbb86ea","B2","batch2","tol_toboard","750","","","","","","","","","tol_peg_1","750","750","0","[[2,3,0],[0,0],[1]]","4","[[2,0,0],[1,3],[0]]","10","0","","","","","","6","","","","",""
"","","","","","single-stim-button","326","1622405","0.0-3.0-40.4-0.4","61451e21a303bee08cbb86ea","B2","batch2","tol_tohand","619","","","","","","","","","tol_peg_3","619","619","0","[[2,3,0],[0,0],[0]]","5","[[2,0,0],[1,3],[0]]","10","0","","","","","","6","","","","",""
"","","","","","single-stim-button","327","1623152","0.0-3.0-40.4-1.4","61451e21a303bee08cbb86ea","B2","batch2","tol_toboard","747","","","","","","","","","tol_peg_2","747","747","0","[[2,3,0],[1,0],[0]]","5","[[2,0,0],[1,3],[0]]","10","0","","","","","","6","","","","",""
"","","","","","single-stim-button","328","1623681","0.0-3.0-40.5-0.5","61451e21a303bee08cbb86ea","B2","batch2","tol_tohand","527","","","","","","","","","tol_peg_1","527","527","0","[[2,0,0],[1,0],[0]]","6","[[2,0,0],[1,3],[0]]","10","0","","","","","","6","","","","",""
"","","","","","single-stim-button","329","1624066","0.0-3.0-40.5-1.5","61451e21a303bee08cbb86ea","B2","batch2","tol_toboard","385","","","","","","","","","tol_peg_2","385","385","0","[[2,0,0],[1,3],[0]]","6","[[2,0,0],[1,3],[0]]","10","0","","","","","","6","","","","",""
"","","","","","poldrack-single-stim","330","1625068","0.0-3.0-41.0","61451e21a303bee08cbb86ea","B2","batch2","tol_feedback","-1","","","","","true","","","","","1000","1000","500","","","","","","-1","none","true","4813","8049","","","","","",""
"","","","","","html-button-response","331","1625876","0.0-3.0-42.0","61451e21a303bee08cbb86ea","B2","batch2","tol_trial_num","807.8000000119209","<div class = centerbox><p class = center-block-text>problem <strong>12</strong> out of 25 problems</p></div>","0","","","","","","","","","","","","","","","","","","","","","","","","","",""
"","","","","","single-stim-button","332","1628627","0.0-3.0-43.0-0.0","61451e21a303bee08cbb86ea","B2","batch2","tol_tohand","2750","","","","","","","","","tol_peg_1","2750","2750","0","[[1,0,0],[3,0],[0]]","1","[[2,3,0],[0,0],[1]]","11","0","","","","","","4","","","","",""
"","","","","","single-stim-button","333","1629356","0.0-3.0-43.0-1.0","61451e21a303bee08cbb86ea","B2","batch2","tol_toboard","728","","","","","","","","","tol_peg_2","728","728","0","[[1,0,0],[3,2],[0]]","1","[[2,3,0],[0,0],[1]]","11","0","","","","","","4","","","","",""
"","","","","","single-stim-button","334","1629955","0.0-3.0-43.1-0.1","61451e21a303bee08cbb86ea","B2","batch2","tol_tohand","598","","","","","","","","","tol_peg_1","598","598","0","[[0,0,0],[3,2],[0]]","2","[[2,3,0],[0,0],[1]]","11","0","","","","","","4","","","","",""
"","","","","","single-stim-button","335","1630585","0.0-3.0-43.1-1.1","61451e21a303bee08cbb86ea","B2","batch2","tol_toboard","628","","","","","","","","","tol_peg_3","628","628","0","[[0,0,0],[3,2],[1]]","2","[[2,3,0],[0,0],[1]]","11","0","","","","","","4","","","","",""
"","","","","","single-stim-button","336","1632187","0.0-3.0-43.2-0.2","61451e21a303bee08cbb86ea","B2","batch2","tol_tohand","1602","","","","","","","","","tol_peg_2","1602","1602","0","[[0,0,0],[3,0],[1]]","3","[[2,3,0],[0,0],[1]]","11","0","","","","","","4","","","","",""
"","","","","","single-stim-button","337","1633057","0.0-3.0-43.2-1.2","61451e21a303bee08cbb86ea","B2","batch2","tol_toboard","869","","","","","","","","","tol_peg_1","869","869","0","[[2,0,0],[3,0],[1]]","3","[[2,3,0],[0,0],[1]]","11","0","","","","","","4","","","","",""
"","","","","","single-stim-button","338","1634916","0.0-3.0-43.3-0.3","61451e21a303bee08cbb86ea","B2","batch2","tol_tohand","1858","","","","","","","","","tol_peg_2","1858","1858","0","[[2,0,0],[0,0],[1]]","4","[[2,3,0],[0,0],[1]]","11","0","","","","","","4","","","","",""
"","","","","","single-stim-button","339","1635746","0.0-3.0-43.3-1.3","61451e21a303bee08cbb86ea","B2","batch2","tol_toboard","830","","","","","","","","","tol_peg_1","830","830","0","[[2,3,0],[0,0],[1]]","4","[[2,3,0],[0,0],[1]]","11","0","","","","","","4","","","","",""
"","","","","","poldrack-single-stim","340","1636748","0.0-3.0-44.0","61451e21a303bee08cbb86ea","B2","batch2","tol_feedback","-1","","","","","true","","","","","1000","1000","500","","","","","","-1","none","true","2750","6808","","","","","",""
"","","","","","html-button-response","341","1638037","0.0-3.0-45.0","61451e21a303bee08cbb86ea","B2","batch2","tol_trial_num","1288.4000000059605","<div class = centerbox><p class = center-block-text>problem <strong>13</strong> out of 25 problems</p></div>","0","","","","","","","","","","","","","","","","","","","","","","","","","",""
"","","","","","single-stim-button","342","1642186","0.0-3.0-46.0-0.0","61451e21a303bee08cbb86ea","B2","batch2","tol_tohand","4149","","","","","","","","","tol_peg_1","4149","4149","0","[[1,0,0],[3,0],[0]]","1","[[0,0,0],[2,3],[1]]","12","0","","","","","","4","","","","",""
"","","","","","single-stim-button","343","1642849","0.0-3.0-46.0-1.0","61451e21a303bee08cbb86ea","B2","batch2","tol_toboard","663","","","","","","","","","tol_peg_3","663","663","0","[[1,0,0],[3,0],[2]]","1","[[0,0,0],[2,3],[1]]","12","0","","","","","","4","","","","",""
"","","","","","single-stim-button","344","1645594","0.0-3.0-46.1-0.1","61451e21a303bee08cbb86ea","B2","batch2","tol_tohand","2745","","","","","","","","","tol_peg_3","2745","2745","0","[[1,0,0],[3,0],[0]]","2","[[0,0,0],[2,3],[1]]","12","0","","","","","","4","","","","",""
"","","","","","single-stim-button","345","1646237","0.0-3.0-46.1-1.1","61451e21a303bee08cbb86ea","B2","batch2","tol_toboard","643","","","","","","","","","tol_peg_1","643","643","0","[[1,2,0],[3,0],[0]]","2","[[0,0,0],[2,3],[1]]","12","0","","","","","","4","","","","",""
"","","","","","single-stim-button","346","1647259","0.0-3.0-46.2-0.2","61451e21a303bee08cbb86ea","B2","batch2","tol_tohand","1022","","","","","","","","","tol_peg_2","1022","1022","0","[[1,2,0],[0,0],[0]]","3","[[0,0,0],[2,3],[1]]","12","0","","","","","","4","","","","",""
"","","","","","single-stim-button","347","1649182","0.0-3.0-46.2-1.2","61451e21a303bee08cbb86ea","B2","batch2","tol_toboard","1923","","","","","","","","","tol_peg_3","1923","1923","0","[[1,2,0],[0,0],[3]]","3","[[0,0,0],[2,3],[1]]","12","0","","","","","","4","","","","",""
"","","","","","single-stim-button","348","1650391","0.0-3.0-46.3-0.3","61451e21a303bee08cbb86ea","B2","batch2","tol_tohand","1209","","","","","","","","","tol_peg_1","1209","1209","0","[[1,0,0],[0,0],[3]]","4","[[0,0,0],[2,3],[1]]","12","0","","","","","","4","","","","",""
"","","","","","single-stim-button","349","1651097","0.0-3.0-46.3-1.3","61451e21a303bee08cbb86ea","B2","batch2","tol_toboard","706","","","","","","","","","tol_peg_2","706","706","0","[[1,0,0],[2,0],[3]]","4","[[0,0,0],[2,3],[1]]","12","0","","","","","","4","","","","",""
"","","","","","single-stim-button","350","1651888","0.0-3.0-46.4-0.4","61451e21a303bee08cbb86ea","B2","batch2","tol_tohand","791","","","","","","","","","tol_peg_3","791","791","0","[[1,0,0],[2,0],[0]]","5","[[0,0,0],[2,3],[1]]","12","0","","","","","","4","","","","",""
"","","","","","single-stim-button","351","1652486","0.0-3.0-46.4-1.4","61451e21a303bee08cbb86ea","B2","batch2","tol_toboard","598","","","","","","","","","tol_peg_2","598","598","0","[[1,0,0],[2,3],[0]]","5","[[0,0,0],[2,3],[1]]","12","0","","","","","","4","","","","",""
"","","","","","single-stim-button","352","1653080","0.0-3.0-46.5-0.5","61451e21a303bee08cbb86ea","B2","batch2","tol_tohand","594","","","","","","","","","tol_peg_1","594","594","0","[[0,0,0],[2,3],[0]]","6","[[0,0,0],[2,3],[1]]","12","0","","","","","","4","","","","",""
"","","","","","single-stim-button","353","1653758","0.0-3.0-46.5-1.5","61451e21a303bee08cbb86ea","B2","batch2","tol_toboard","678","","","","","","","","","tol_peg_3","678","678","0","[[0,0,0],[2,3],[1]]","6","[[0,0,0],[2,3],[1]]","12","0","","","","","","4","","","","",""
"","","","","","poldrack-single-stim","354","1654759","0.0-3.0-47.0","61451e21a303bee08cbb86ea","B2","batch2","tol_feedback","-1","","","","","true","","","","","1000","1000","500","","","","","","-1","none","true","4149","10510","","","","","",""
