"success","timeout","failed_images","failed_audio","failed_video","trial_type","trial_index","time_elapsed","internal_node_id","subject_id","study_id","session_id","view_history","rt","stimulus","response","task","correct","answer","item","fiar_detect_rt","fiar_detect_correct","total_correct_fiar_detect","post_trial_gap","choices","mouse_click","stim_duration","block_duration","timing_post_trial","current_position","tol_num_moves_made","tol_target","tol_problem_id","tol_rt","key_press","possible_responses","tol_correct","preplanning","tol_rt_per_trial","tol_min_moves","spm_correct","spm_rt"
"true","false","[]","[]","[]","preload","0","3248","0.0-0.0","614eb0a92921d8c1e64f4873","F1","batch6","","","","","","","","","","","","","","","","","","","","","","","","","","","","","",""
"true","","","","","fullscreen","1","17710","0.0-1.0-0.0","614eb0a92921d8c1e64f4873","F1","batch6","","","","","","","","","","","","","","","","","","","","","","","","","","","","","",""
"true","","","","","fullscreen","2","23246","0.0-2.0-0.0","614eb0a92921d8c1e64f4873","F1","batch6","","","","","","","","","","","","","","","","","","","","","","","","","","","","","",""
"","","","","","instructions","3","55603","0.0-2.0-1.0-0.0","614eb0a92921d8c1e64f4873","F1","batch6","[{""page_index"":0,""viewing_time"":19795},{""page_index"":1,""viewing_time"":12554.400000000373}]","32353","","","","","","","","","","","","","","","","","","","","","","","","","","","",""
"","","","","","html-button-response","4","58246","0.0-2.0-1.0-1.0-0.0","614eb0a92921d8c1e64f4873","F1","batch6","","2637.9000000003725","<p class=block-text> Let's answer a few questions <br>","0","pattern_enter_quiz","","","","","","","","","","","","","","","","","","","","","","","","",""
"","","","","","html-button-response","5","62515","0.0-2.0-1.0-1.0-1.0","614eb0a92921d8c1e64f4873","F1","batch6","","4264.5999999996275","<p class = block-text>True or False: You will have as much time as you want to make each choice. <br></p>","1","pattern_quiz","true","","","","","","","","","","","","","","","","","","","","","","","",""
"","","","","","html-button-response","6","67573","0.0-2.0-1.0-1.0-2.0","614eb0a92921d8c1e64f4873","F1","batch6","","5049.699999999255","<p class = block-text>Correct! You should make your choice <strong> as fast as you can</strong>.</p>","0","pattern_quiz_feedback","","","","","","","","","","","","","","","","","","","","","","","","",""
"","","","","","html-button-response","7","76304","0.0-2.0-1.0-1.0-3.0","614eb0a92921d8c1e64f4873","F1","batch6","","8724.5","<p class = block-text>True or False: You will look for 4 pieces in black or white color connected in a row either horizontally, vertically or diagonally. <br></p>","0","pattern_quiz","true","","","","","","","","","","","","","","","","","","","","","","","",""
"","","","","","html-button-response","8","78402","0.0-2.0-1.0-1.0-4.0","614eb0a92921d8c1e64f4873","F1","batch6","","2088.4000000003725","<p class = block-text>Correct! </p>","0","pattern_quiz_feedback","","","","","","","","","","","","","","","","","","","","","","","","",""
"","","","","","html-button-response","9","86484","0.0-2.0-2.0","614eb0a92921d8c1e64f4873","F1","batch6","","8072.700000001118","<p class=block-text> Now that you've understood the game, let's do a few practice trials before we start!<br> <br>","0","pattern_enter_practice","","","","","","","","","","","","","","","","","","","","","","","","",""
"","","","","","image-keyboard-response","10","90889","0.0-2.0-3.0-0.0","614eb0a92921d8c1e64f4873","F1","batch6","","4371.800000000745","stim/prac_no_16_1.png","j","pattern_practice","true","j","","","","","","","","","","","","","","","","","","","","","","",""
"","","","","","html-keyboard-response","11","91898","0.0-2.0-3.0-1.0","614eb0a92921d8c1e64f4873","F1","batch6","","null","<p style=""font-size:30px;color:green;"">Correct!</p>","null","pattern_feedback","","","","","","","","","","","","","","","","","","","","","","","","",""
"","","","","","image-keyboard-response","12","93526","0.0-2.0-3.0-0.1","614eb0a92921d8c1e64f4873","F1","batch6","","1617.800000000745","stim/prac_yes_20_dia_b1.png","j","pattern_practice","false","f","","","","","","","","","","","","","","","","","","","","","","",""
"","","","","","html-keyboard-response","13","94533","0.0-2.0-3.0-1.1","614eb0a92921d8c1e64f4873","F1","batch6","","null","<p style=""font-size:30px;color:red;"">Wrong.</p>","null","pattern_feedback","","","","","","","","","","","","","","","","","","","","","","","","",""
"","","","","","image-keyboard-response","14","95388","0.0-2.0-3.0-0.2","614eb0a92921d8c1e64f4873","F1","batch6","","848","stim/prac_yes_16_ver_w1.png","f","pattern_practice","true","f","","","","","","","","","","","","","","","","","","","","","","",""
"","","","","","html-keyboard-response","15","96393","0.0-2.0-3.0-1.2","614eb0a92921d8c1e64f4873","F1","batch6","","null","<p style=""font-size:30px;color:green;"">Correct!</p>","null","pattern_feedback","","","","","","","","","","","","","","","","","","","","","","","","",""
"","","","","","image-keyboard-response","16","97069","0.0-2.0-3.0-0.3","614eb0a92921d8c1e64f4873","F1","batch6","","669.5999999996275","stim/prac_yes_18_hor_w1.png","f","pattern_practice","true","f","","","","","","","","","","","","","","","","","","","","","","",""
"","","","","","html-keyboard-response","17","98074","0.0-2.0-3.0-1.3","614eb0a92921d8c1e64f4873","F1","batch6","","null","<p style=""font-size:30px;color:green;"">Correct!</p>","null","pattern_feedback","","","","","","","","","","","","","","","","","","","","","","","","",""
"","","","","","image-keyboard-response","18","98958","0.0-2.0-3.0-0.4","614eb0a92921d8c1e64f4873","F1","batch6","","876.0999999996275","stim/prac_no_18_1.png","j","pattern_practice","true","j","","","","","","","","","","","","","","","","","","","","","","",""
"","","","","","html-keyboard-response","19","99963","0.0-2.0-3.0-1.4","614eb0a92921d8c1e64f4873","F1","batch6","","null","<p style=""font-size:30px;color:green;"">Correct!</p>","null","pattern_feedback","","","","","","","","","","","","","","","","","","","","","","","","",""
"","","","","","html-button-response","20","108077","0.0-2.0-4.0","614eb0a92921d8c1e64f4873","F1","batch6","","8105.699999999255","<p class=block-text> Good job! You are done with practice trials!<br>
        You responded correctly on 80% of the trials.<br>
        Press the button below to start official trials. Now you won't see any feedback about your response</p>","0","pattern_enter_official_trials","","","","","","","","","","","","","","","","","","","","","","","","",""
"","","","","","html-keyboard-response","21","108882","0.0-2.0-5.0-0.0","614eb0a92921d8c1e64f4873","F1","batch6","","null","<p class=block-text>Trial 1 out of 78</p>","null","pattern_show_trial_num","","","","","","","","","","","","","","","","","","","","","","","","",""
"","","","","","image-keyboard-response","22","110882","0.0-2.0-5.0-1.0","614eb0a92921d8c1e64f4873","F1","batch6","","1988.800000000745","stim/yes_42_dia_w1_w.png","j","pattern_response","false","f","pattern_64","1988.800000000745","false","0","","","","","","","","","","","","","","","","","","",""
"","","","","","html-keyboard-response","23","112187","0.0-2.0-5.0-0.1","614eb0a92921d8c1e64f4873","F1","batch6","","null","<p class=block-text>Trial 2 out of 78</p>","null","pattern_show_trial_num","","","","","","","","","","","","","","","","","","","","","","","","",""
"","","","","","image-keyboard-response","24","114861","0.0-2.0-5.0-1.1","614eb0a92921d8c1e64f4873","F1","batch6","","2664.9000000003725","stim/no_49_2_b.png","j","pattern_response","true","j","pattern_29","2664.9000000003725","true","1","","","","","","","","","","","","","","","","","","",""
"","","","","","html-keyboard-response","25","116163","0.0-2.0-5.0-0.2","614eb0a92921d8c1e64f4873","F1","batch6","","null","<p class=block-text>Trial 3 out of 78</p>","null","pattern_show_trial_num","","","","","","","","","","","","","","","","","","","","","","","","",""
"","","","","","image-keyboard-response","26","116888","0.0-2.0-5.0-1.2","614eb0a92921d8c1e64f4873","F1","batch6","","714","stim/yes_12_hor_w1_w.png","f","pattern_response","true","f","pattern_42","714","true","2","","","","","","","","","","","","","","","","","","",""
"","","","","","html-keyboard-response","27","118192","0.0-2.0-5.0-0.3","614eb0a92921d8c1e64f4873","F1","batch6","","null","<p class=block-text>Trial 4 out of 78</p>","null","pattern_show_trial_num","","","","","","","","","","","","","","","","","","","","","","","","",""
"","","","","","image-keyboard-response","28","121150","0.0-2.0-5.0-1.3","614eb0a92921d8c1e64f4873","F1","batch6","","2949.2000000011176","stim/no_51_1.png","j","pattern_response","true","j","pattern_31","2949.2000000011176","true","3","","","","","","","","","","","","","","","","","","",""
"","","","","","html-keyboard-response","29","122455","0.0-2.0-5.0-0.4","614eb0a92921d8c1e64f4873","F1","batch6","","null","<p class=block-text>Trial 5 out of 78</p>","null","pattern_show_trial_num","","","","","","","","","","","","","","","","","","","","","","","","",""
"","","","","","image-keyboard-response","30","123211","0.0-2.0-5.0-1.4","614eb0a92921d8c1e64f4873","F1","batch6","","743.6999999992549","stim/yes_30_ver_b1_b.png","f","pattern_response","true","f","pattern_54","743.6999999992549","true","4","","","","","","","","","","","","","","","","","","",""
"","","","","","html-keyboard-response","31","124515","0.0-2.0-5.0-0.5","614eb0a92921d8c1e64f4873","F1","batch6","","null","<p class=block-text>Trial 6 out of 78</p>","null","pattern_show_trial_num","","","","","","","","","","","","","","","","","","","","","","","","",""
"","","","","","image-keyboard-response","32","128236","0.0-2.0-5.0-1.5","614eb0a92921d8c1e64f4873","F1","batch6","","3708.9000000003725","stim/no_67_1.png","j","pattern_response","true","j","pattern_39","3708.9000000003725","true","5","","","","","","","","","","","","","","","","","","",""
"","","","","","html-keyboard-response","33","129545","0.0-2.0-5.0-0.6","614eb0a92921d8c1e64f4873","F1","batch6","","null","<p class=block-text>Trial 7 out of 78</p>","null","pattern_show_trial_num","","","","","","","","","","","","","","","","","","","","","","","","",""
"","","","","","image-keyboard-response","34","131298","0.0-2.0-5.0-1.6","614eb0a92921d8c1e64f4873","F1","batch6","","1743.9000000003725","stim/no_36_1_b.png","j","pattern_response","true","j","pattern_17","1743.9000000003725","true","6","","","","","","","","","","","","","","","","","","",""
"","","","","","html-keyboard-response","35","132601","0.0-2.0-5.0-0.7","614eb0a92921d8c1e64f4873","F1","batch6","","null","<p class=block-text>Trial 8 out of 78</p>","null","pattern_show_trial_num","","","","","","","","","","","","","","","","","","","","","","","","",""
"","","","","","image-keyboard-response","36","133521","0.0-2.0-5.0-1.7","614eb0a92921d8c1e64f4873","F1","batch6","","915.3000000007451","stim/no_22_1_b.png","j","pattern_response","true","j","pattern_07","915.3000000007451","true","7","","","","","","","","","","","","","","","","","","",""
"","","","","","html-keyboard-response","37","134825","0.0-2.0-5.0-0.8","614eb0a92921d8c1e64f4873","F1","batch6","","null","<p class=block-text>Trial 9 out of 78</p>","null","pattern_show_trial_num","","","","","","","","","","","","","","","","","","","","","","","","",""
"","","","","","image-keyboard-response","38","135543","0.0-2.0-5.0-1.8","614eb0a92921d8c1e64f4873","F1","batch6","","707.5999999996275","stim/no_15_1_w.png","j","pattern_response","true","j","pattern_03","707.5999999996275","true","8","","","","","","","","","","","","","","","","","","",""
"","","","","","html-keyboard-response","39","136847","0.0-2.0-5.0-0.9","614eb0a92921d8c1e64f4873","F1","batch6","","null","<p class=block-text>Trial 10 out of 78</p>","null","pattern_show_trial_num","","","","","","","","","","","","","","","","","","","","","","","","",""
"","","","","","image-keyboard-response","40","138044","0.0-2.0-5.0-1.9","614eb0a92921d8c1e64f4873","F1","batch6","","1188","stim/no_18_1_b.png","j","pattern_response","true","j","pattern_05","1188","true","9","","","","","","","","","","","","","","","","","","",""
"","","","","","html-keyboard-response","41","139346","0.0-2.0-5.0-0.10","614eb0a92921d8c1e64f4873","F1","batch6","","null","<p class=block-text>Trial 11 out of 78</p>","null","pattern_show_trial_num","","","","","","","","","","","","","","","","","","","","","","","","",""
"","","","","","image-keyboard-response","42","141042","0.0-2.0-5.0-1.10","614eb0a92921d8c1e64f4873","F1","batch6","","1690.199999999255","stim/no_30_1_b.png","j","pattern_response","true","j","pattern_13","1690.199999999255","true","10","","","","","","","","","","","","","","","","","","",""
"","","","","","html-keyboard-response","43","142345","0.0-2.0-5.0-0.11","614eb0a92921d8c1e64f4873","F1","batch6","","null","<p class=block-text>Trial 12 out of 78</p>","null","pattern_show_trial_num","","","","","","","","","","","","","","","","","","","","","","","","",""
"","","","","","image-keyboard-response","44","143195","0.0-2.0-5.0-1.11","614eb0a92921d8c1e64f4873","F1","batch6","","840.7999999988824","stim/yes_46_ver_b1_b.png","f","pattern_response","true","f","pattern_68","840.7999999988824","true","11","","","","","","","","","","","","","","","","","","",""
"","","","","","html-keyboard-response","45","144499","0.0-2.0-5.0-0.12","614eb0a92921d8c1e64f4873","F1","batch6","","null","<p class=block-text>Trial 13 out of 78</p>","null","pattern_show_trial_num","","","","","","","","","","","","","","","","","","","","","","","","",""
"","","","","","image-keyboard-response","46","145144","0.0-2.0-5.0-1.12","614eb0a92921d8c1e64f4873","F1","batch6","","632.8999999985099","stim/yes_29_hor_b1_b.png","f","pattern_response","true","f","pattern_52","632.8999999985099","true","12","","","","","","","","","","","","","","","","","","",""
"","","","","","html-keyboard-response","47","146449","0.0-2.0-5.0-0.13","614eb0a92921d8c1e64f4873","F1","batch6","","null","<p class=block-text>Trial 14 out of 78</p>","null","pattern_show_trial_num","","","","","","","","","","","","","","","","","","","","","","","","",""
"","","","","","image-keyboard-response","48","147858","0.0-2.0-5.0-1.13","614eb0a92921d8c1e64f4873","F1","batch6","","1400.9000000003725","stim/yes_33_dia_w1_w.png","j","pattern_response","false","f","pattern_56","1400.9000000003725","false","12","","","","","","","","","","","","","","","","","","",""
"","","","","","html-keyboard-response","49","149162","0.0-2.0-5.0-0.14","614eb0a92921d8c1e64f4873","F1","batch6","","null","<p class=block-text>Trial 15 out of 78</p>","null","pattern_show_trial_num","","","","","","","","","","","","","","","","","","","","","","","","",""
"","","","","","image-keyboard-response","50","150770","0.0-2.0-5.0-1.14","614eb0a92921d8c1e64f4873","F1","batch6","","1599.300000000745","stim/no_47_1_b.png","j","pattern_response","true","j","pattern_27","1599.300000000745","true","13","","","","","","","","","","","","","","","","","","",""
"","","","","","html-keyboard-response","51","152073","0.0-2.0-5.0-0.15","614eb0a92921d8c1e64f4873","F1","batch6","","null","<p class=block-text>Trial 16 out of 78</p>","null","pattern_show_trial_num","","","","","","","","","","","","","","","","","","","","","","","","",""
"","","","","","image-keyboard-response","52","152683","0.0-2.0-5.0-1.15","614eb0a92921d8c1e64f4873","F1","batch6","","604.3000000007451","stim/yes_36_ver_w1_w.png","f","pattern_response","true","f","pattern_58","604.3000000007451","true","14","","","","","","","","","","","","","","","","","","",""
"","","","","","html-keyboard-response","53","153987","0.0-2.0-5.0-0.16","614eb0a92921d8c1e64f4873","F1","batch6","","null","<p class=block-text>Trial 17 out of 78</p>","null","pattern_show_trial_num","","","","","","","","","","","","","","","","","","","","","","","","",""
"","","","","","image-keyboard-response","54","155652","0.0-2.0-5.0-1.16","614eb0a92921d8c1e64f4873","F1","batch6","","1655.9000000003725","stim/no_45_1_w.png","j","pattern_response","true","j","pattern_25","1655.9000000003725","true","15","","","","","","","","","","","","","","","","","","",""
"","","","","","html-keyboard-response","55","156957","0.0-2.0-5.0-0.17","614eb0a92921d8c1e64f4873","F1","batch6","","null","<p class=block-text>Trial 18 out of 78</p>","null","pattern_show_trial_num","","","","","","","","","","","","","","","","","","","","","","","","",""
"","","","","","image-keyboard-response","56","158873","0.0-2.0-5.0-1.17","614eb0a92921d8c1e64f4873","F1","batch6","","1905.5999999996275","stim/no_39_1_w.png","j","pattern_response","true","j","pattern_21","1905.5999999996275","true","16","","","","","","","","","","","","","","","","","","",""
"","","","","","html-keyboard-response","57","160178","0.0-2.0-5.0-0.18","614eb0a92921d8c1e64f4873","F1","batch6","","null","<p class=block-text>Trial 19 out of 78</p>","null","pattern_show_trial_num","","","","","","","","","","","","","","","","","","","","","","","","",""
"","","","","","image-keyboard-response","58","162262","0.0-2.0-5.0-1.18","614eb0a92921d8c1e64f4873","F1","batch6","","2076.4000000003725","stim/yes_44_ver_w1_w.png","f","pattern_response","true","f","pattern_66","2076.4000000003725","true","17","","","","","","","","","","","","","","","","","","",""
"","","","","","html-keyboard-response","59","163567","0.0-2.0-5.0-0.19","614eb0a92921d8c1e64f4873","F1","batch6","","null","<p class=block-text>Trial 20 out of 78</p>","null","pattern_show_trial_num","","","","","","","","","","","","","","","","","","","","","","","","",""
"","","","","","image-keyboard-response","60","167037","0.0-2.0-5.0-1.19","614eb0a92921d8c1e64f4873","F1","batch6","","3439.89999999851","stim/yes_58_dia_w1_w.png","j","pattern_response","false","f","pattern_76","3439.89999999851","false","17","","","","","","","","","","","","","","","","","","",""
"","","","","","html-keyboard-response","61","168342","0.0-2.0-5.0-0.20","614eb0a92921d8c1e64f4873","F1","batch6","","null","<p class=block-text>Trial 21 out of 78</p>","null","pattern_show_trial_num","","","","","","","","","","","","","","","","","","","","","","","","",""
"","","","","","image-keyboard-response","62","171999","0.0-2.0-5.0-1.20","614eb0a92921d8c1e64f4873","F1","batch6","","3645.2000000011176","stim/no_58_1_w.png","j","pattern_response","true","j","pattern_35","3645.2000000011176","true","18","","","","","","","","","","","","","","","","","","",""
"","","","","","html-keyboard-response","63","173304","0.0-2.0-5.0-0.21","614eb0a92921d8c1e64f4873","F1","batch6","","null","<p class=block-text>Trial 22 out of 78</p>","null","pattern_show_trial_num","","","","","","","","","","","","","","","","","","","","","","","","",""
"","","","","","image-keyboard-response","64","175137","0.0-2.0-5.0-1.21","614eb0a92921d8c1e64f4873","F1","batch6","","1822.5999999996275","stim/yes_53_ver_b1_b.png","f","pattern_response","true","f","pattern_74","1822.5999999996275","true","19","","","","","","","","","","","","","","","","","","",""
"","","","","","html-keyboard-response","65","176441","0.0-2.0-5.0-0.22","614eb0a92921d8c1e64f4873","F1","batch6","","null","<p class=block-text>Trial 23 out of 78</p>","null","pattern_show_trial_num","","","","","","","","","","","","","","","","","","","","","","","","",""
"","","","","","image-keyboard-response","66","177189","0.0-2.0-5.0-1.22","614eb0a92921d8c1e64f4873","F1","batch6","","736.0999999996275","stim/yes_39_hor_w1_w.png","f","pattern_response","true","f","pattern_62","736.0999999996275","true","20","","","","","","","","","","","","","","","","","","",""
"","","","","","html-keyboard-response","67","178492","0.0-2.0-5.0-0.23","614eb0a92921d8c1e64f4873","F1","batch6","","null","<p class=block-text>Trial 24 out of 78</p>","null","pattern_show_trial_num","","","","","","","","","","","","","","","","","","","","","","","","",""
"","","","","","image-keyboard-response","68","180801","0.0-2.0-5.0-1.23","614eb0a92921d8c1e64f4873","F1","batch6","","2302.89999999851","stim/no_37_2_w.png","j","pattern_response","true","j","pattern_19","2302.89999999851","true","21","","","","","","","","","","","","","","","","","","",""
"","","","","","html-keyboard-response","69","182107","0.0-2.0-5.0-0.24","614eb0a92921d8c1e64f4873","F1","batch6","","null","<p class=block-text>Trial 25 out of 78</p>","null","pattern_show_trial_num","","","","","","","","","","","","","","","","","","","","","","","","",""
"","","","","","image-keyboard-response","70","184004","0.0-2.0-5.0-1.24","614eb0a92921d8c1e64f4873","F1","batch6","","1888.0999999996275","stim/no_33_1_b.png","j","pattern_response","true","j","pattern_15","1888.0999999996275","true","22","","","","","","","","","","","","","","","","","","",""
"","","","","","html-keyboard-response","71","185309","0.0-2.0-5.0-0.25","614eb0a92921d8c1e64f4873","F1","batch6","","null","<p class=block-text>Trial 26 out of 78</p>","null","pattern_show_trial_num","","","","","","","","","","","","","","","","","","","","","","","","",""
"","","","","","image-keyboard-response","72","186317","0.0-2.0-5.0-1.25","614eb0a92921d8c1e64f4873","F1","batch6","","995.1999999992549","stim/yes_70_ver_b1.png","f","pattern_response","true","f","pattern_80","995.1999999992549","true","23","","","","","","","","","","","","","","","","","","",""
"","","","","","html-keyboard-response","73","187620","0.0-2.0-5.0-0.26","614eb0a92921d8c1e64f4873","F1","batch6","","null","<p class=block-text>Trial 27 out of 78</p>","null","pattern_show_trial_num","","","","","","","","","","","","","","","","","","","","","","","","",""
"","","","","","image-keyboard-response","74","189273","0.0-2.0-5.0-1.26","614eb0a92921d8c1e64f4873","F1","batch6","","1648.0999999996275","stim/no_43_2_b.png","j","pattern_response","true","j","pattern_23","1648.0999999996275","true","24","","","","","","","","","","","","","","","","","","",""
"","","","","","html-keyboard-response","75","190577","0.0-2.0-5.0-0.27","614eb0a92921d8c1e64f4873","F1","batch6","","null","<p class=block-text>Trial 28 out of 78</p>","null","pattern_show_trial_num","","","","","","","","","","","","","","","","","","","","","","","","",""
"","","","","","image-keyboard-response","76","191409","0.0-2.0-5.0-1.27","614eb0a92921d8c1e64f4873","F1","batch6","","819.3000000007451","stim/yes_37_hor_w1_w.png","f","pattern_response","true","f","pattern_60","819.3000000007451","true","25","","","","","","","","","","","","","","","","","","",""
"","","","","","html-keyboard-response","77","192712","0.0-2.0-5.0-0.28","614eb0a92921d8c1e64f4873","F1","batch6","","null","<p class=block-text>Trial 29 out of 78</p>","null","pattern_show_trial_num","","","","","","","","","","","","","","","","","","","","","","","","",""
"","","","","","image-keyboard-response","78","194370","0.0-2.0-5.0-1.28","614eb0a92921d8c1e64f4873","F1","batch6","","1652.8999999985099","stim/yes_26_dia_w2_w.png","j","pattern_response","false","f","pattern_50","1652.8999999985099","false","25","","","","","","","","","","","","","","","","","","",""
"","","","","","html-keyboard-response","79","195676","0.0-2.0-5.0-0.29","614eb0a92921d8c1e64f4873","F1","batch6","","null","<p class=block-text>Trial 30 out of 78</p>","null","pattern_show_trial_num","","","","","","","","","","","","","","","","","","","","","","","","",""
"","","","","","image-keyboard-response","80","196464","0.0-2.0-5.0-1.29","614eb0a92921d8c1e64f4873","F1","batch6","","782","stim/yes_23_ver_b1.png","f","pattern_response","true","f","pattern_48","782","true","26","","","","","","","","","","","","","","","","","","",""
"","","","","","html-keyboard-response","81","197769","0.0-2.0-5.0-0.30","614eb0a92921d8c1e64f4873","F1","batch6","","null","<p class=block-text>Trial 31 out of 78</p>","null","pattern_show_trial_num","","","","","","","","","","","","","","","","","","","","","","","","",""
"","","","","","image-keyboard-response","82","198458","0.0-2.0-5.0-1.30","614eb0a92921d8c1e64f4873","F1","batch6","","679.0999999996275","stim/yes_49_hor_w1_b.png","f","pattern_response","true","f","pattern_70","679.0999999996275","true","27","","","","","","","","","","","","","","","","","","",""
"","","","","","html-keyboard-response","83","199760","0.0-2.0-5.0-0.31","614eb0a92921d8c1e64f4873","F1","batch6","","null","<p class=block-text>Trial 32 out of 78</p>","null","pattern_show_trial_num","","","","","","","","","","","","","","","","","","","","","","","","",""
"","","","","","image-keyboard-response","84","202503","0.0-2.0-5.0-1.31","614eb0a92921d8c1e64f4873","F1","batch6","","2734.699999999255","stim/no_53_1_b.png","j","pattern_response","true","j","pattern_33","2734.699999999255","true","28","","","","","","","","","","","","","","","","","","",""
"","","","","","html-keyboard-response","85","203806","0.0-2.0-5.0-0.32","614eb0a92921d8c1e64f4873","F1","batch6","","null","<p class=block-text>Trial 33 out of 78</p>","null","pattern_show_trial_num","","","","","","","","","","","","","","","","","","","","","","","","",""
"","","","","","image-keyboard-response","86","207309","0.0-2.0-5.0-1.32","614eb0a92921d8c1e64f4873","F1","batch6","","3492.7999999988824","stim/yes_63_dia_b1.png","j","pattern_response","false","f","pattern_78","3492.7999999988824","false","28","","","","","","","","","","","","","","","","","","",""
"","","","","","html-keyboard-response","87","208614","0.0-2.0-5.0-0.33","614eb0a92921d8c1e64f4873","F1","batch6","","null","<p class=block-text>Trial 34 out of 78</p>","null","pattern_show_trial_num","","","","","","","","","","","","","","","","","","","","","","","","",""
"","","","","","image-keyboard-response","88","209413","0.0-2.0-5.0-1.33","614eb0a92921d8c1e64f4873","F1","batch6","","789.6999999992549","stim/no_12_1.png","j","pattern_response","true","j","pattern_01","789.6999999992549","true","29","","","","","","","","","","","","","","","","","","",""
"","","","","","html-keyboard-response","89","210718","0.0-2.0-5.0-0.34","614eb0a92921d8c1e64f4873","F1","batch6","","null","<p class=block-text>Trial 35 out of 78</p>","null","pattern_show_trial_num","","","","","","","","","","","","","","","","","","","","","","","","",""
"","","","","","image-keyboard-response","90","213120","0.0-2.0-5.0-1.34","614eb0a92921d8c1e64f4873","F1","batch6","","2395.2999999988824","stim/yes_51_dia_b1.png","j","pattern_response","false","f","pattern_72","2395.2999999988824","false","29","","","","","","","","","","","","","","","","","","",""
"","","","","","html-keyboard-response","91","214423","0.0-2.0-5.0-0.35","614eb0a92921d8c1e64f4873","F1","batch6","","null","<p class=block-text>Trial 36 out of 78</p>","null","pattern_show_trial_num","","","","","","","","","","","","","","","","","","","","","","","","",""
"","","","","","image-keyboard-response","92","216069","0.0-2.0-5.0-1.35","614eb0a92921d8c1e64f4873","F1","batch6","","1636.2999999988824","stim/no_25_1_b.png","j","pattern_response","true","j","pattern_09","1636.2999999988824","true","30","","","","","","","","","","","","","","","","","","",""
"","","","","","html-keyboard-response","93","217373","0.0-2.0-5.0-0.36","614eb0a92921d8c1e64f4873","F1","batch6","","null","<p class=block-text>Trial 37 out of 78</p>","null","pattern_show_trial_num","","","","","","","","","","","","","","","","","","","","","","","","",""
"","","","","","image-keyboard-response","94","218021","0.0-2.0-5.0-1.36","614eb0a92921d8c1e64f4873","F1","batch6","","638.5999999996275","stim/yes_17_ver_b1_b.png","f","pattern_response","true","f","pattern_46","638.5999999996275","true","31","","","","","","","","","","","","","","","","","","",""
"","","","","","html-keyboard-response","95","219326","0.0-2.0-5.0-0.37","614eb0a92921d8c1e64f4873","F1","batch6","","null","<p class=block-text>Trial 38 out of 78</p>","null","pattern_show_trial_num","","","","","","","","","","","","","","","","","","","","","","","","",""
"","","","","","image-keyboard-response","96","219975","0.0-2.0-5.0-1.37","614eb0a92921d8c1e64f4873","F1","batch6","","643.3000000007451","stim/yes_15_dia_b1u_b.png","f","pattern_response","true","f","pattern_44","643.3000000007451","true","32","","","","","","","","","","","","","","","","","","",""
"","","","","","html-keyboard-response","97","221279","0.0-2.0-5.0-0.38","614eb0a92921d8c1e64f4873","F1","batch6","","null","<p class=block-text>Trial 39 out of 78</p>","null","pattern_show_trial_num","","","","","","","","","","","","","","","","","","","","","","","","",""
"","","","","","image-keyboard-response","98","222685","0.0-2.0-5.0-1.38","614eb0a92921d8c1e64f4873","F1","batch6","","1402","stim/no_28_2.png","j","pattern_response","true","j","pattern_11","1402","true","33","","","","","","","","","","","","","","","","","","",""
"","","","","","image-keyboard-response","99","224484","0.0-2.0-6.0","614eb0a92921d8c1e64f4873","F1","batch6","","1290.5999999996275","stim/empty_board.png","j","attention_check","true","j","","","","","500","[""f"",""j""]","","","","","","","","","","","","","","","","",""
"","","","","","html-keyboard-response","100","225287","0.0-2.0-7.0-0.0","614eb0a92921d8c1e64f4873","F1","batch6","","null","<p class=block-text>Trial 40 out of 78</p>","null","pattern_show_trial_num","","","","","","","","","","","","","","","","","","","","","","","","",""
"","","","","","image-keyboard-response","101","226370","0.0-2.0-7.0-1.0","614eb0a92921d8c1e64f4873","F1","batch6","","1075.0999999996275","stim/yes_14_hor_b1_w.png","f","pattern_response","true","f","pattern_43","1075.0999999996275","true","34","","","","","","","","","","","","","","","","","","",""
"","","","","","html-keyboard-response","102","227673","0.0-2.0-7.0-0.1","614eb0a92921d8c1e64f4873","F1","batch6","","null","<p class=block-text>Trial 41 out of 78</p>","null","pattern_show_trial_num","","","","","","","","","","","","","","","","","","","","","","","","",""
"","","","","","image-keyboard-response","103","230554","0.0-2.0-7.0-1.1","614eb0a92921d8c1e64f4873","F1","batch6","","2875","stim/yes_50_dia_w1.png","j","pattern_response","false","f","pattern_71","2875","false","34","","","","","","","","","","","","","","","","","","",""
"","","","","","html-keyboard-response","104","231858","0.0-2.0-7.0-0.2","614eb0a92921d8c1e64f4873","F1","batch6","","null","<p class=block-text>Trial 42 out of 78</p>","null","pattern_show_trial_num","","","","","","","","","","","","","","","","","","","","","","","","",""
"","","","","","image-keyboard-response","105","233090","0.0-2.0-7.0-1.2","614eb0a92921d8c1e64f4873","F1","batch6","","1220.7999999988824","stim/yes_55_hor_w1_w.png","f","pattern_response","true","f","pattern_75","1220.7999999988824","true","35","","","","","","","","","","","","","","","","","","",""
"","","","","","html-keyboard-response","106","234393","0.0-2.0-7.0-0.3","614eb0a92921d8c1e64f4873","F1","batch6","","null","<p class=block-text>Trial 43 out of 78</p>","null","pattern_show_trial_num","","","","","","","","","","","","","","","","","","","","","","","","",""
"","","","","","image-keyboard-response","107","237943","0.0-2.0-7.0-1.3","614eb0a92921d8c1e64f4873","F1","batch6","","3542.300000000745","stim/no_62_1_w.png","j","pattern_response","true","j","pattern_36","3542.300000000745","true","36","","","","","","","","","","","","","","","","","","",""
"","","","","","html-keyboard-response","108","239245","0.0-2.0-7.0-0.4","614eb0a92921d8c1e64f4873","F1","batch6","","null","<p class=block-text>Trial 44 out of 78</p>","null","pattern_show_trial_num","","","","","","","","","","","","","","","","","","","","","","","","",""
"","","","","","image-keyboard-response","109","241797","0.0-2.0-7.0-1.4","614eb0a92921d8c1e64f4873","F1","batch6","","2547.5999999996275","stim/no_44_1.png","j","pattern_response","true","j","pattern_24","2547.5999999996275","true","37","","","","","","","","","","","","","","","","","","",""
"","","","","","html-keyboard-response","110","243102","0.0-2.0-7.0-0.5","614eb0a92921d8c1e64f4873","F1","batch6","","null","<p class=block-text>Trial 45 out of 78</p>","null","pattern_show_trial_num","","","","","","","","","","","","","","","","","","","","","","","","",""
"","","","","","image-keyboard-response","111","244355","0.0-2.0-7.0-1.5","614eb0a92921d8c1e64f4873","F1","batch6","","1241.7999999988824","stim/yes_60_ver_b1_b.png","f","pattern_response","true","f","pattern_77","1241.7999999988824","true","38","","","","","","","","","","","","","","","","","","",""
"","","","","","html-keyboard-response","112","245660","0.0-2.0-7.0-0.6","614eb0a92921d8c1e64f4873","F1","batch6","","null","<p class=block-text>Trial 46 out of 78</p>","null","pattern_show_trial_num","","","","","","","","","","","","","","","","","","","","","","","","",""
"","","","","","image-keyboard-response","113","247901","0.0-2.0-7.0-1.6","614eb0a92921d8c1e64f4873","F1","batch6","","2231.7000000011176","stim/no_42_1_w.png","j","pattern_response","true","j","pattern_22","2231.7000000011176","true","39","","","","","","","","","","","","","","","","","","",""
"","","","","","html-keyboard-response","114","249205","0.0-2.0-7.0-0.7","614eb0a92921d8c1e64f4873","F1","batch6","","null","<p class=block-text>Trial 47 out of 78</p>","null","pattern_show_trial_num","","","","","","","","","","","","","","","","","","","","","","","","",""
"","","","","","image-keyboard-response","115","250693","0.0-2.0-7.0-1.7","614eb0a92921d8c1e64f4873","F1","batch6","","1477","stim/yes_31_hor_b1.png","f","pattern_response","true","f","pattern_55","1477","true","40","","","","","","","","","","","","","","","","","","",""
"","","","","","html-keyboard-response","116","251997","0.0-2.0-7.0-0.8","614eb0a92921d8c1e64f4873","F1","batch6","","null","<p class=block-text>Trial 48 out of 78</p>","null","pattern_show_trial_num","","","","","","","","","","","","","","","","","","","","","","","","",""
"","","","","","image-keyboard-response","117","252892","0.0-2.0-7.0-1.8","614eb0a92921d8c1e64f4873","F1","batch6","","886.4000000003725","stim/yes_52_ver_w1.png","f","pattern_response","true","f","pattern_73","886.4000000003725","true","41","","","","","","","","","","","","","","","","","","",""
"","","","","","html-keyboard-response","118","254195","0.0-2.0-7.0-0.9","614eb0a92921d8c1e64f4873","F1","batch6","","null","<p class=block-text>Trial 49 out of 78</p>","null","pattern_show_trial_num","","","","","","","","","","","","","","","","","","","","","","","","",""
"","","","","","image-keyboard-response","119","256143","0.0-2.0-7.0-1.9","614eb0a92921d8c1e64f4873","F1","batch6","","1938.0999999996275","stim/no_38_1_b.png","j","pattern_response","true","j","pattern_20","1938.0999999996275","true","42","","","","","","","","","","","","","","","","","","",""
"","","","","","html-keyboard-response","120","257447","0.0-2.0-7.0-0.10","614eb0a92921d8c1e64f4873","F1","batch6","","null","<p class=block-text>Trial 50 out of 78</p>","null","pattern_show_trial_num","","","","","","","","","","","","","","","","","","","","","","","","",""
"","","","","","image-keyboard-response","121","258575","0.0-2.0-7.0-1.10","614eb0a92921d8c1e64f4873","F1","batch6","","1119.300000000745","stim/no_32_1_w.png","j","pattern_response","true","j","pattern_14","1119.300000000745","true","43","","","","","","","","","","","","","","","","","","",""
"","","","","","html-keyboard-response","122","259877","0.0-2.0-7.0-0.11","614eb0a92921d8c1e64f4873","F1","batch6","","null","<p class=block-text>Trial 51 out of 78</p>","null","pattern_show_trial_num","","","","","","","","","","","","","","","","","","","","","","","","",""
"","","","","","image-keyboard-response","123","261008","0.0-2.0-7.0-1.11","614eb0a92921d8c1e64f4873","F1","batch6","","1121.699999999255","stim/yes_38_hor_b1_b.png","f","pattern_response","true","f","pattern_61","1121.699999999255","true","44","","","","","","","","","","","","","","","","","","",""
"","","","","","html-keyboard-response","124","262311","0.0-2.0-7.0-0.12","614eb0a92921d8c1e64f4873","F1","batch6","","null","<p class=block-text>Trial 52 out of 78</p>","null","pattern_show_trial_num","","","","","","","","","","","","","","","","","","","","","","","","",""
"","","","","","image-keyboard-response","125","263879","0.0-2.0-7.0-1.12","614eb0a92921d8c1e64f4873","F1","batch6","","1556.5999999996275","stim/no_20_1_w.png","j","pattern_response","true","j","pattern_06","1556.5999999996275","true","45","","","","","","","","","","","","","","","","","","",""
"","","","","","html-keyboard-response","126","265182","0.0-2.0-7.0-0.13","614eb0a92921d8c1e64f4873","F1","batch6","","null","<p class=block-text>Trial 53 out of 78</p>","null","pattern_show_trial_num","","","","","","","","","","","","","","","","","","","","","","","","",""
"","","","","","image-keyboard-response","127","265921","0.0-2.0-7.0-1.13","614eb0a92921d8c1e64f4873","F1","batch6","","732.7000000011176","stim/yes_25_hor_b1_b.png","f","pattern_response","true","f","pattern_49","732.7000000011176","true","46","","","","","","","","","","","","","","","","","","",""
"","","","","","html-keyboard-response","128","267225","0.0-2.0-7.0-0.14","614eb0a92921d8c1e64f4873","F1","batch6","","null","<p class=block-text>Trial 54 out of 78</p>","null","pattern_show_trial_num","","","","","","","","","","","","","","","","","","","","","","","","",""
"","","","","","image-keyboard-response","129","269484","0.0-2.0-7.0-1.14","614eb0a92921d8c1e64f4873","F1","batch6","","2249.5","stim/no_50_1.png","j","pattern_response","true","j","pattern_30","2249.5","true","47","","","","","","","","","","","","","","","","","","",""
"","","","","","html-keyboard-response","130","270789","0.0-2.0-7.0-0.15","614eb0a92921d8c1e64f4873","F1","batch6","","null","<p class=block-text>Trial 55 out of 78</p>","null","pattern_show_trial_num","","","","","","","","","","","","","","","","","","","","","","","","",""
"","","","","","image-keyboard-response","131","271735","0.0-2.0-7.0-1.15","614eb0a92921d8c1e64f4873","F1","batch6","","933.1999999992549","stim/no_13_2_b.png","j","pattern_response","true","j","pattern_02","933.1999999992549","true","48","","","","","","","","","","","","","","","","","","",""
"","","","","","html-keyboard-response","132","273038","0.0-2.0-7.0-0.16","614eb0a92921d8c1e64f4873","F1","batch6","","null","<p class=block-text>Trial 56 out of 78</p>","null","pattern_show_trial_num","","","","","","","","","","","","","","","","","","","","","","","","",""
"","","","","","image-keyboard-response","133","275749","0.0-2.0-7.0-1.16","614eb0a92921d8c1e64f4873","F1","batch6","","2703.699999999255","stim/yes_48_dia_w1_w.png","j","pattern_response","false","f","pattern_69","2703.699999999255","false","48","","","","","","","","","","","","","","","","","","",""
"","","","","","html-keyboard-response","134","277053","0.0-2.0-7.0-0.17","614eb0a92921d8c1e64f4873","F1","batch6","","null","<p class=block-text>Trial 57 out of 78</p>","null","pattern_show_trial_num","","","","","","","","","","","","","","","","","","","","","","","","",""
"","","","","","image-keyboard-response","135","278132","0.0-2.0-7.0-1.17","614eb0a92921d8c1e64f4873","F1","batch6","","1069.300000000745","stim/no_23_1.png","j","pattern_response","true","j","pattern_08","1069.300000000745","true","49","","","","","","","","","","","","","","","","","","",""
"","","","","","html-keyboard-response","136","279436","0.0-2.0-7.0-0.18","614eb0a92921d8c1e64f4873","F1","batch6","","null","<p class=block-text>Trial 58 out of 78</p>","null","pattern_show_trial_num","","","","","","","","","","","","","","","","","","","","","","","","",""
"","","","","","image-keyboard-response","137","280413","0.0-2.0-7.0-1.18","614eb0a92921d8c1e64f4873","F1","batch6","","966.4000000003725","stim/yes_45_hor_b2_b.png","f","pattern_response","true","f","pattern_67","966.4000000003725","true","50","","","","","","","","","","","","","","","","","","",""
"","","","","","html-keyboard-response","138","281715","0.0-2.0-7.0-0.19","614eb0a92921d8c1e64f4873","F1","batch6","","null","<p class=block-text>Trial 59 out of 78</p>","null","pattern_show_trial_num","","","","","","","","","","","","","","","","","","","","","","","","",""
"","","","","","image-keyboard-response","139","284183","0.0-2.0-7.0-1.19","614eb0a92921d8c1e64f4873","F1","batch6","","2459.5","stim/no_46_1_b.png","j","pattern_response","true","j","pattern_26","2459.5","true","51","","","","","","","","","","","","","","","","","","",""
"","","","","","html-keyboard-response","140","285486","0.0-2.0-7.0-0.20","614eb0a92921d8c1e64f4873","F1","batch6","","null","<p class=block-text>Trial 60 out of 78</p>","null","pattern_show_trial_num","","","","","","","","","","","","","","","","","","","","","","","","",""
"","","","","","image-keyboard-response","141","287827","0.0-2.0-7.0-1.20","614eb0a92921d8c1e64f4873","F1","batch6","","2331.9000000003725","stim/yes_40_dia_b1_b.png","j","pattern_response","false","f","pattern_63","2331.9000000003725","false","51","","","","","","","","","","","","","","","","","","",""
"","","","","","html-keyboard-response","142","289131","0.0-2.0-7.0-0.21","614eb0a92921d8c1e64f4873","F1","batch6","","null","<p class=block-text>Trial 61 out of 78</p>","null","pattern_show_trial_num","","","","","","","","","","","","","","","","","","","","","","","","",""
"","","","","","image-keyboard-response","143","290473","0.0-2.0-7.0-1.21","614eb0a92921d8c1e64f4873","F1","batch6","","1334.199999999255","stim/yes_67_hor_b1.png","f","pattern_response","true","f","pattern_79","1334.199999999255","true","52","","","","","","","","","","","","","","","","","","",""
"","","","","","html-keyboard-response","144","291776","0.0-2.0-7.0-0.22","614eb0a92921d8c1e64f4873","F1","batch6","","null","<p class=block-text>Trial 62 out of 78</p>","null","pattern_show_trial_num","","","","","","","","","","","","","","","","","","","","","","","","",""
"","","","","","image-keyboard-response","145","292634","0.0-2.0-7.0-1.22","614eb0a92921d8c1e64f4873","F1","batch6","","849.1000000014901","stim/no_17_1_w.png","j","pattern_response","true","j","pattern_04","849.1000000014901","true","53","","","","","","","","","","","","","","","","","","",""
"","","","","","html-keyboard-response","146","293939","0.0-2.0-7.0-0.23","614eb0a92921d8c1e64f4873","F1","batch6","","null","<p class=block-text>Trial 63 out of 78</p>","null","pattern_show_trial_num","","","","","","","","","","","","","","","","","","","","","","","","",""
"","","","","","image-keyboard-response","147","296021","0.0-2.0-7.0-1.23","614eb0a92921d8c1e64f4873","F1","batch6","","2076.5999999996275","stim/no_55_1_w.png","j","pattern_response","true","j","pattern_34","2076.5999999996275","true","54","","","","","","","","","","","","","","","","","","",""
"","","","","","html-keyboard-response","148","297327","0.0-2.0-7.0-0.24","614eb0a92921d8c1e64f4873","F1","batch6","","null","<p class=block-text>Trial 64 out of 78</p>","null","pattern_show_trial_num","","","","","","","","","","","","","","","","","","","","","","","","",""
"","","","","","image-keyboard-response","149","300668","0.0-2.0-7.0-1.24","614eb0a92921d8c1e64f4873","F1","batch6","","3333","stim/no_65_1_b.png","j","pattern_response","true","j","pattern_38","3333","true","55","","","","","","","","","","","","","","","","","","",""
"","","","","","html-keyboard-response","150","301973","0.0-2.0-7.0-0.25","614eb0a92921d8c1e64f4873","F1","batch6","","null","<p class=block-text>Trial 65 out of 78</p>","null","pattern_show_trial_num","","","","","","","","","","","","","","","","","","","","","","","","",""
"","","","","","image-keyboard-response","151","303545","0.0-2.0-7.0-1.25","614eb0a92921d8c1e64f4873","F1","batch6","","1559.5999999996275","stim/no_48_1_w.png","j","pattern_response","true","j","pattern_28","1559.5999999996275","true","56","","","","","","","","","","","","","","","","","","",""
"","","","","","html-keyboard-response","152","304849","0.0-2.0-7.0-0.26","614eb0a92921d8c1e64f4873","F1","batch6","","null","<p class=block-text>Trial 66 out of 78</p>","null","pattern_show_trial_num","","","","","","","","","","","","","","","","","","","","","","","","",""
"","","","","","image-keyboard-response","153","307299","0.0-2.0-7.0-1.26","614eb0a92921d8c1e64f4873","F1","batch6","","2440.699999999255","stim/no_70_2.png","j","pattern_response","true","j","pattern_40","2440.699999999255","true","57","","","","","","","","","","","","","","","","","","",""
"","","","","","html-keyboard-response","154","308605","0.0-2.0-7.0-0.27","614eb0a92921d8c1e64f4873","F1","batch6","","null","<p class=block-text>Trial 67 out of 78</p>","null","pattern_show_trial_num","","","","","","","","","","","","","","","","","","","","","","","","",""
"","","","","","image-keyboard-response","155","309362","0.0-2.0-7.0-1.27","614eb0a92921d8c1e64f4873","F1","batch6","","750","stim/no_29_1_b.png","j","pattern_response","true","j","pattern_12","750","true","58","","","","","","","","","","","","","","","","","","",""
"","","","","","html-keyboard-response","156","310666","0.0-2.0-7.0-0.28","614eb0a92921d8c1e64f4873","F1","batch6","","null","<p class=block-text>Trial 68 out of 78</p>","null","pattern_show_trial_num","","","","","","","","","","","","","","","","","","","","","","","","",""
"","","","","","image-keyboard-response","157","311821","0.0-2.0-7.0-1.28","614eb0a92921d8c1e64f4873","F1","batch6","","1146.699999999255","stim/no_26_1_w.png","j","pattern_response","true","j","pattern_10","1146.699999999255","true","59","","","","","","","","","","","","","","","","","","",""
"","","","","","html-keyboard-response","158","313125","0.0-2.0-7.0-0.29","614eb0a92921d8c1e64f4873","F1","batch6","","null","<p class=block-text>Trial 69 out of 78</p>","null","pattern_show_trial_num","","","","","","","","","","","","","","","","","","","","","","","","",""
"","","","","","image-keyboard-response","159","313895","0.0-2.0-7.0-1.29","614eb0a92921d8c1e64f4873","F1","batch6","","762.8999999985099","stim/yes_28_ver_b1.png","f","pattern_response","true","f","pattern_51","762.8999999985099","true","60","","","","","","","","","","","","","","","","","","",""
"","","","","","html-keyboard-response","160","315197","0.0-2.0-7.0-0.30","614eb0a92921d8c1e64f4873","F1","batch6","","null","<p class=block-text>Trial 70 out of 78</p>","null","pattern_show_trial_num","","","","","","","","","","","","","","","","","","","","","","","","",""
"","","","","","image-keyboard-response","161","317461","0.0-2.0-7.0-1.30","614eb0a92921d8c1e64f4873","F1","batch6","","2260.199999999255","stim/no_52_1.png","j","pattern_response","true","j","pattern_32","2260.199999999255","true","61","","","","","","","","","","","","","","","","","","",""
"","","","","","html-keyboard-response","162","318765","0.0-2.0-7.0-0.31","614eb0a92921d8c1e64f4873","F1","batch6","","null","<p class=block-text>Trial 71 out of 78</p>","null","pattern_show_trial_num","","","","","","","","","","","","","","","","","","","","","","","","",""
"","","","","","image-keyboard-response","163","320046","0.0-2.0-7.0-1.31","614eb0a92921d8c1e64f4873","F1","batch6","","1247.5","stim/yes_35_dia_b1.png","f","pattern_response","true","f","pattern_57","1247.5","true","62","","","","","","","","","","","","","","","","","","",""
"","","","","","html-keyboard-response","164","321350","0.0-2.0-7.0-0.32","614eb0a92921d8c1e64f4873","F1","batch6","","null","<p class=block-text>Trial 72 out of 78</p>","null","pattern_show_trial_num","","","","","","","","","","","","","","","","","","","","","","","","",""
"","","","","","image-keyboard-response","165","322481","0.0-2.0-7.0-1.32","614eb0a92921d8c1e64f4873","F1","batch6","","1121.699999999255","stim/yes_29_ver_w1.png","f","pattern_response","true","f","pattern_53","1121.699999999255","true","63","","","","","","","","","","","","","","","","","","",""
"","","","","","html-keyboard-response","166","323785","0.0-2.0-7.0-0.33","614eb0a92921d8c1e64f4873","F1","batch6","","null","<p class=block-text>Trial 73 out of 78</p>","null","pattern_show_trial_num","","","","","","","","","","","","","","","","","","","","","","","","",""
"","","","","","image-keyboard-response","167","324965","0.0-2.0-7.0-1.33","614eb0a92921d8c1e64f4873","F1","batch6","","1168.699999999255","stim/no_36_2_w.png","j","pattern_response","true","j","pattern_18","1168.699999999255","true","64","","","","","","","","","","","","","","","","","","",""
"","","","","","html-keyboard-response","168","326268","0.0-2.0-7.0-0.34","614eb0a92921d8c1e64f4873","F1","batch6","","null","<p class=block-text>Trial 74 out of 78</p>","null","pattern_show_trial_num","","","","","","","","","","","","","","","","","","","","","","","","",""
"","","","","","image-keyboard-response","169","327090","0.0-2.0-7.0-1.34","614eb0a92921d8c1e64f4873","F1","batch6","","813.4000000003725","stim/yes_43_ver_w1_w.png","f","pattern_response","true","f","pattern_65","813.4000000003725","true","65","","","","","","","","","","","","","","","","","","",""
"","","","","","html-keyboard-response","170","328394","0.0-2.0-7.0-0.35","614eb0a92921d8c1e64f4873","F1","batch6","","null","<p class=block-text>Trial 75 out of 78</p>","null","pattern_show_trial_num","","","","","","","","","","","","","","","","","","","","","","","","",""
"","","","","","image-keyboard-response","171","329093","0.0-2.0-7.0-1.35","614eb0a92921d8c1e64f4873","F1","batch6","","693.6999999992549","stim/yes_22_ver_w1.png","f","pattern_response","true","f","pattern_47","693.6999999992549","true","66","","","","","","","","","","","","","","","","","","",""
"","","","","","html-keyboard-response","172","330396","0.0-2.0-7.0-0.36","614eb0a92921d8c1e64f4873","F1","batch6","","null","<p class=block-text>Trial 76 out of 78</p>","null","pattern_show_trial_num","","","","","","","","","","","","","","","","","","","","","","","","",""
"","","","","","image-keyboard-response","173","331047","0.0-2.0-7.0-1.36","614eb0a92921d8c1e64f4873","F1","batch6","","642.7999999988824","stim/yes_17_dia_w1.png","f","pattern_response","true","f","pattern_45","642.7999999988824","true","67","","","","","","","","","","","","","","","","","","",""
"","","","","","html-keyboard-response","174","332351","0.0-2.0-7.0-0.37","614eb0a92921d8c1e64f4873","F1","batch6","","null","<p class=block-text>Trial 77 out of 78</p>","null","pattern_show_trial_num","","","","","","","","","","","","","","","","","","","","","","","","",""
"","","","","","image-keyboard-response","175","333888","0.0-2.0-7.0-1.37","614eb0a92921d8c1e64f4873","F1","batch6","","1528.2000000011176","stim/yes_37_dia_w1.png","j","pattern_response","false","f","pattern_59","1528.2000000011176","false","67","","","","","","","","","","","","","","","","","","",""
"","","","","","html-keyboard-response","176","335193","0.0-2.0-7.0-0.38","614eb0a92921d8c1e64f4873","F1","batch6","","null","<p class=block-text>Trial 78 out of 78</p>","null","pattern_show_trial_num","","","","","","","","","","","","","","","","","","","","","","","","",""
"","","","","","image-keyboard-response","177","336599","0.0-2.0-7.0-1.38","614eb0a92921d8c1e64f4873","F1","batch6","","1399.5999999996275","stim/no_34_1_b.png","j","pattern_response","true","j","pattern_16","1399.5999999996275","true","68","","","","","","","","","","","","","","","","","","",""
"","","","","","html-button-response","178","345098","0.0-2.0-8.0","614eb0a92921d8c1e64f4873","F1","batch6","","7991.700000001118","<p class = block-text>This concludes the 4-in-a-row detection game.Thank you for your responses!<br>
            You responded correctly on 87% of the trials.<br>
            When you are ready, press ""Continue"" button to continue </p>","0","","","","","","","","","","","","","","","","","","","","","","","","","",""
"true","","","","","fullscreen","179","349472","0.0-3.0-0.0","614eb0a92921d8c1e64f4873","F1","batch6","","","","","","","","","","","","","","","","","","","","","","","","","","","","","",""
"","","","","","instructions","180","443471","0.0-3.0-1.0-0.0-0.0","614eb0a92921d8c1e64f4873","F1","batch6","[{""page_index"":0,""viewing_time"":27041},{""page_index"":1,""viewing_time"":8815.900000000373},{""page_index"":2,""viewing_time"":10054.200000001118},{""page_index"":3,""viewing_time"":11354.199999999255},{""page_index"":4,""viewing_time"":14169.800000000745},{""page_index"":5,""viewing_time"":17104},{""page_index"":6,""viewing_time"":5450}]","93992.5","","","tol-instructions","","","","","","","","","","","","","","","","","","","","","","","","",""
"","","","","","html-button-response","181","445582","0.0-3.0-1.0-1.0-0.0","614eb0a92921d8c1e64f4873","F1","batch6","","2106.199999999255","<p class=block-text> Let's answer a few questions <br>","0","tol_enter_quiz","","","","","","","","","","","","","","","","","","","","","","","","",""
"","","","","","html-button-response","182","454184","0.0-3.0-1.0-1.0-1.0","614eb0a92921d8c1e64f4873","F1","batch6","","8594.800000000745","<p class = block-text>True or False: You can only move the ball on top of a peg. <br></p>","1","tol_quiz","false","","","","","","","","","","","","","","","","","","","","","","","",""
"","","","","","html-button-response","183","457649","0.0-3.0-1.0-1.0-2.0","614eb0a92921d8c1e64f4873","F1","batch6","","3458.7000000011176","<p class = block-text>Incorrect. Remember, you can only move the ball on top of a peg.</p>","0","tol_quiz_feedback","","","","","","","","","","","","","","","","","","","","","","","","",""
"","","","","","html-button-response","184","461606","0.0-3.0-1.0-1.0-3.0","614eb0a92921d8c1e64f4873","F1","batch6","","3952.5999999996275","<p class = block-text>True or False: You should try to match your board with the target board with fewest moves possible. <br></p>","0","tol_quiz","true","","","","","","","","","","","","","","","","","","","","","","","",""
"","","","","","html-button-response","185","462987","0.0-3.0-1.0-1.0-4.0","614eb0a92921d8c1e64f4873","F1","batch6","","1373.5999999996275","<p class = block-text>Correct! </p>","0","tol_quiz_feedback","","","","","","","","","","","","","","","","","","","","","","","","",""
"","","","","","html-button-response","186","467234","0.0-3.0-1.0-2.0-0.0","614eb0a92921d8c1e64f4873","F1","batch6","","4241.300000000745","<p class = block-text>You made too many incorrect choices.</p><p class = block-text>You will now repeat the instructions and quiz</p>","0","","","","","","","","","","","","","","","","","","","","","","","","","",""
"","","","","","instructions","187","512947","0.0-3.0-1.1-0.1-0.1","614eb0a92921d8c1e64f4873","F1","batch6","[{""page_index"":0,""viewing_time"":4542},{""page_index"":1,""viewing_time"":3130.5},{""page_index"":2,""viewing_time"":2614.5},{""page_index"":3,""viewing_time"":8047.199999999255},{""page_index"":4,""viewing_time"":11172.900000000373},{""page_index"":5,""viewing_time"":13146.900000000373},{""page_index"":6,""viewing_time"":3055.0999999996275}]","45710.29999999888","","","tol-instructions","","","","","","","","","","","","","","","","","","","","","","","","",""
"","","","","","html-button-response","188","514422","0.0-3.0-1.1-1.1-0.1","614eb0a92921d8c1e64f4873","F1","batch6","","1468.7999999988824","<p class=block-text> Let's answer a few questions <br>","0","tol_enter_quiz","","","","","","","","","","","","","","","","","","","","","","","","",""
"","","","","","html-button-response","189","519547","0.0-3.0-1.1-1.1-1.1","614eb0a92921d8c1e64f4873","F1","batch6","","5118.5999999996275","<p class = block-text>True or False: You can only move the ball on top of a peg. <br></p>","0","tol_quiz","true","","","","","","","","","","","","","","","","","","","","","","","",""
"","","","","","html-button-response","190","521324","0.0-3.0-1.1-1.1-2.1","614eb0a92921d8c1e64f4873","F1","batch6","","1769.9000000003725","<p class = block-text>Correct! You can only move the ball on top of a peg.</p>","0","tol_quiz_feedback","","","","","","","","","","","","","","","","","","","","","","","","",""
"","","","","","html-button-response","191","524751","0.0-3.0-1.1-1.1-3.1","614eb0a92921d8c1e64f4873","F1","batch6","","3422.5999999996275","<p class = block-text>True or False: You should try to match your board with the target board with fewest moves possible. <br></p>","0","tol_quiz","true","","","","","","","","","","","","","","","","","","","","","","","",""
"","","","","","html-button-response","192","526179","0.0-3.0-1.1-1.1-4.1","614eb0a92921d8c1e64f4873","F1","batch6","","1422.9000000003725","<p class = block-text>Correct! </p>","0","tol_quiz_feedback","","","","","","","","","","","","","","","","","","","","","","","","",""
"","","","","","html-button-response","193","529596","0.0-3.0-2.0","614eb0a92921d8c1e64f4873","F1","batch6","","3410.800000000745","<p class=block-text> Now that you've understood the game, let's practice a few easier examples before we start!<br> <br>","0","","","","","","","","","","","","","","","","","","","","","","","","","",""
"","","","","","single-stim-button","194","532973","0.0-3.0-3.0-0.0","614eb0a92921d8c1e64f4873","F1","batch6","","3368","","","tol_practice","","","","","","","","","tol_peg_2","3368","3368","0","[[1,2,0],[0,0],[0]]","1","[[1,2,0],[0,0],[3]]","practice","3368","","","","","","","",""
"","","","","","single-stim-button","195","534372","0.0-3.0-3.0-1.0","614eb0a92921d8c1e64f4873","F1","batch6","","1395","","","tol_practice","","","","","","","","","tol_peg_3","1395","1395","0","[[1,2,0],[0,0],[3]]","1","[[1,2,0],[0,0],[3]]","practice","1395","","","","","","","",""
"","","","","","poldrack-single-stim","196","535380","0.0-3.0-4.0","614eb0a92921d8c1e64f4873","F1","batch6","","-1","","","tol_feedback","true","","","","","","","","","1000","1000","500","","","","","","-1","none","true","","0","","",""
"","","","","","single-stim-button","197","538794","0.0-3.0-5.0-0.0","614eb0a92921d8c1e64f4873","F1","batch6","","3407","","","tol_practice","","","","","","","","","tol_peg_1","3407","3407","0","[[1,0,0],[3,0],[0]]","2","[[0,0,0],[3,1],[2]]","practice","3407","","","","","","","",""
"","","","","","single-stim-button","198","540535","0.0-3.0-5.0-1.0","614eb0a92921d8c1e64f4873","F1","batch6","","1735","","","tol_practice","","","","","","","","","tol_peg_3","1735","1735","0","[[1,0,0],[3,0],[2]]","2","[[0,0,0],[3,1],[2]]","practice","1735","","","","","","","",""
"","","","","","single-stim-button","199","542697","0.0-3.0-5.1-0.1","614eb0a92921d8c1e64f4873","F1","batch6","","2155","","","tol_practice","","","","","","","","","tol_peg_1","2155","2155","0","[[0,0,0],[3,0],[2]]","3","[[0,0,0],[3,1],[2]]","practice","2155","","","","","","","",""
"","","","","","single-stim-button","200","544020","0.0-3.0-5.1-1.1","614eb0a92921d8c1e64f4873","F1","batch6","","1318","","","tol_practice","","","","","","","","","tol_peg_2","1318","1318","0","[[0,0,0],[3,1],[2]]","3","[[0,0,0],[3,1],[2]]","practice","1318","","","","","","","",""
"","","","","","poldrack-single-stim","201","545026","0.0-3.0-6.0","614eb0a92921d8c1e64f4873","F1","batch6","","-1","","","tol_feedback","true","","","","","","","","","1000","1000","500","","","","","","-1","none","true","","0","","",""
"","","","","","single-stim-button","202","547935","0.0-3.0-7.0-0.0","614eb0a92921d8c1e64f4873","F1","batch6","","2901","","","tol_practice","","","","","","","","","tol_peg_2","2901","2901","0","[[1,2,0],[0,0],[0]]","4","[[1,0,0],[2,0],[3]]","practice","2901","","","","","","","",""
"","","","","","single-stim-button","203","549535","0.0-3.0-7.0-1.0","614eb0a92921d8c1e64f4873","F1","batch6","","1593","","","tol_practice","","","","","","","","","tol_peg_3","1593","1593","0","[[1,2,0],[0,0],[3]]","4","[[1,0,0],[2,0],[3]]","practice","1593","","","","","","","",""
"","","","","","single-stim-button","204","550785","0.0-3.0-7.1-0.1","614eb0a92921d8c1e64f4873","F1","batch6","","1245","","","tol_practice","","","","","","","","","tol_peg_1","1245","1245","0","[[1,0,0],[0,0],[3]]","5","[[1,0,0],[2,0],[3]]","practice","1245","","","","","","","",""
"","","","","","single-stim-button","205","551805","0.0-3.0-7.1-1.1","614eb0a92921d8c1e64f4873","F1","batch6","","1015","","","tol_practice","","","","","","","","","tol_peg_2","1015","1015","0","[[1,0,0],[2,0],[3]]","5","[[1,0,0],[2,0],[3]]","practice","1015","","","","","","","",""
"","","","","","poldrack-single-stim","206","552811","0.0-3.0-8.0","614eb0a92921d8c1e64f4873","F1","batch6","","-1","","","tol_feedback","true","","","","","","","","","1000","1000","500","","","","","","-1","none","true","","0","","",""
"","","","","","html-button-response","207","556176","0.0-3.0-9.0","614eb0a92921d8c1e64f4873","F1","batch6","","3361.39999999851","<div class = centerbox><p class = center-block-text>Great job! You are done with practice trials<br>You are about to start official trials.<br> <br> Problem <strong>1</strong> out of 25 problems</p></div>","0","tol_instruction","","","","","","","","","","","","","","","","","","","","","","","","",""
"","","","","","single-stim-button","208","560233","0.0-3.0-10.0-0.0","614eb0a92921d8c1e64f4873","F1","batch6","","3049","","","tol_tohand","","","","","","","","","tol_peg_1","3049","3049","0","[[1,0,0],[3,0],[0]]","1","[[1,3,0],[2,0],[0]]","0","0","","","","","","3","",""
"","","","","","single-stim-button","209","561699","0.0-3.0-10.0-1.0","614eb0a92921d8c1e64f4873","F1","batch6","","1459","","","tol_toboard","","","","","","","","","tol_peg_2","1459","1459","0","[[1,0,0],[3,2],[0]]","1","[[1,3,0],[2,0],[0]]","0","0","","","","","","3","",""
"","","","","","single-stim-button","210","563162","0.0-3.0-10.1-0.1","614eb0a92921d8c1e64f4873","F1","batch6","","1455","","","tol_tohand","","","","","","","","","tol_peg_2","1455","1455","0","[[1,0,0],[3,0],[0]]","2","[[1,3,0],[2,0],[0]]","0","0","","","","","","3","",""
"","","","","","single-stim-button","211","564014","0.0-3.0-10.1-1.1","614eb0a92921d8c1e64f4873","F1","batch6","","848","","","tol_toboard","","","","","","","","","tol_peg_3","848","848","0","[[1,0,0],[3,0],[2]]","2","[[1,3,0],[2,0],[0]]","0","0","","","","","","3","",""
"","","","","","single-stim-button","212","564996","0.0-3.0-10.2-0.2","614eb0a92921d8c1e64f4873","F1","batch6","","975","","","tol_tohand","","","","","","","","","tol_peg_2","975","975","0","[[1,0,0],[0,0],[2]]","3","[[1,3,0],[2,0],[0]]","0","0","","","","","","3","",""
"","","","","","single-stim-button","213","565889","0.0-3.0-10.2-1.2","614eb0a92921d8c1e64f4873","F1","batch6","","888","","","tol_toboard","","","","","","","","","tol_peg_1","888","888","0","[[1,3,0],[0,0],[2]]","3","[[1,3,0],[2,0],[0]]","0","0","","","","","","3","",""
"","","","","","single-stim-button","214","567381","0.0-3.0-10.3-0.3","614eb0a92921d8c1e64f4873","F1","batch6","","1485","","","tol_tohand","","","","","","","","","tol_peg_3","1485","1485","0","[[1,3,0],[0,0],[0]]","4","[[1,3,0],[2,0],[0]]","0","0","","","","","","3","",""
"","","","","","single-stim-button","215","568333","0.0-3.0-10.3-1.3","614eb0a92921d8c1e64f4873","F1","batch6","","945","","","tol_toboard","","","","","","","","","tol_peg_2","945","945","0","[[1,3,0],[2,0],[0]]","4","[[1,3,0],[2,0],[0]]","0","0","","","","","","3","",""
"","","","","","poldrack-single-stim","216","569337","0.0-3.0-11.0","614eb0a92921d8c1e64f4873","F1","batch6","","-1","","","tol_feedback","true","","","","","","","","","1000","1000","500","","","","","","-1","none","true","3049","6964","","",""
"","","","","","html-button-response","217","570740","0.0-3.0-12.0","614eb0a92921d8c1e64f4873","F1","batch6","","1394.800000000745","<div class = centerbox><p class = center-block-text>problem <strong>2</strong> out of 25 problems</p></div>","0","tol_trial_num","","","","","","","","","","","","","","","","","","","","","","","","",""
"","","","","","single-stim-button","218","580565","0.0-3.0-13.0-0.0","614eb0a92921d8c1e64f4873","F1","batch6","","9815","","","tol_tohand","","","","","","","","","tol_peg_1","9815","9815","0","[[1,0,0],[3,0],[0]]","1","[[2,1,3],[0,0],[0]]","1","0","","","","","","5","",""
"","","","","","single-stim-button","219","582249","0.0-3.0-13.0-1.0","614eb0a92921d8c1e64f4873","F1","batch6","","1680","","","tol_toboard","","","","","","","","","tol_peg_3","1680","1680","0","[[1,0,0],[3,0],[2]]","1","[[2,1,3],[0,0],[0]]","1","0","","","","","","5","",""
"","","","","","single-stim-button","220","584794","0.0-3.0-13.1-0.1","614eb0a92921d8c1e64f4873","F1","batch6","","2536","","","tol_tohand","","","","","","","","","tol_peg_2","2536","2536","0","[[1,0,0],[0,0],[2]]","2","[[2,1,3],[0,0],[0]]","1","0","","","","","","5","",""
"","","","","","single-stim-button","221","592874","0.0-3.0-13.1-1.1","614eb0a92921d8c1e64f4873","F1","batch6","","8072","","","tol_toboard","","","","","","","","","tol_peg_2","8072","8072","0","[[1,0,0],[3,0],[2]]","2","[[2,1,3],[0,0],[0]]","1","0","","","","","","5","",""
"","","","","","single-stim-button","222","594368","0.0-3.0-13.2-0.2","614eb0a92921d8c1e64f4873","F1","batch6","","1489","","","tol_tohand","","","","","","","","","tol_peg_1","1489","1489","0","[[0,0,0],[3,0],[2]]","3","[[2,1,3],[0,0],[0]]","1","0","","","","","","5","",""
"","","","","","single-stim-button","223","597407","0.0-3.0-13.2-1.2","614eb0a92921d8c1e64f4873","F1","batch6","","3030","","","tol_toboard","","","","","","","","","tol_peg_1","3030","3030","0","[[1,0,0],[3,0],[2]]","3","[[2,1,3],[0,0],[0]]","1","0","","","","","","5","",""
"","","","","","single-stim-button","224","599941","0.0-3.0-13.3-0.3","614eb0a92921d8c1e64f4873","F1","batch6","","2529","","","tol_tohand","","","","","","","","","tol_peg_1","2529","2529","0","[[0,0,0],[3,0],[2]]","4","[[2,1,3],[0,0],[0]]","1","0","","","","","","5","",""
"","","","","","single-stim-button","225","601004","0.0-3.0-13.3-1.3","614eb0a92921d8c1e64f4873","F1","batch6","","1061","","","tol_toboard","","","","","","","","","tol_peg_2","1061","1061","0","[[0,0,0],[3,1],[2]]","4","[[2,1,3],[0,0],[0]]","1","0","","","","","","5","",""
"","","","","","single-stim-button","226","602017","0.0-3.0-13.4-0.4","614eb0a92921d8c1e64f4873","F1","batch6","","1008","","","tol_tohand","","","","","","","","","tol_peg_3","1008","1008","0","[[0,0,0],[3,1],[0]]","5","[[2,1,3],[0,0],[0]]","1","0","","","","","","5","",""
"","","","","","single-stim-button","227","603617","0.0-3.0-13.4-1.4","614eb0a92921d8c1e64f4873","F1","batch6","","1595","","","tol_toboard","","","","","","","","","tol_peg_1","1595","1595","0","[[2,0,0],[3,1],[0]]","5","[[2,1,3],[0,0],[0]]","1","0","","","","","","5","",""
"","","","","","single-stim-button","228","604575","0.0-3.0-13.5-0.5","614eb0a92921d8c1e64f4873","F1","batch6","","953","","","tol_tohand","","","","","","","","","tol_peg_2","953","953","0","[[2,0,0],[3,0],[0]]","6","[[2,1,3],[0,0],[0]]","1","0","","","","","","5","",""
"","","","","","single-stim-button","229","605470","0.0-3.0-13.5-1.5","614eb0a92921d8c1e64f4873","F1","batch6","","890","","","tol_toboard","","","","","","","","","tol_peg_1","890","890","0","[[2,1,0],[3,0],[0]]","6","[[2,1,3],[0,0],[0]]","1","0","","","","","","5","",""
"","","","","","single-stim-button","230","606292","0.0-3.0-13.6-0.6","614eb0a92921d8c1e64f4873","F1","batch6","","815","","","tol_tohand","","","","","","","","","tol_peg_2","815","815","0","[[2,1,0],[0,0],[0]]","7","[[2,1,3],[0,0],[0]]","1","0","","","","","","5","",""
"","","","","","single-stim-button","231","607270","0.0-3.0-13.6-1.6","614eb0a92921d8c1e64f4873","F1","batch6","","973","","","tol_toboard","","","","","","","","","tol_peg_1","973","973","0","[[2,1,3],[0,0],[0]]","7","[[2,1,3],[0,0],[0]]","1","0","","","","","","5","",""
"","","","","","poldrack-single-stim","232","608279","0.0-3.0-14.0","614eb0a92921d8c1e64f4873","F1","batch6","","-1","","","tol_feedback","true","","","","","","","","","1000","1000","500","","","","","","-1","none","true","9815","19145","","",""
"","","","","","html-button-response","233","609245","0.0-3.0-15.0","614eb0a92921d8c1e64f4873","F1","batch6","","955.7999999988824","<div class = centerbox><p class = center-block-text>problem <strong>3</strong> out of 25 problems</p></div>","0","tol_trial_num","","","","","","","","","","","","","","","","","","","","","","","","",""
"","","","","","single-stim-button","234","612047","0.0-3.0-16.0-0.0","614eb0a92921d8c1e64f4873","F1","batch6","","2797","","","tol_tohand","","","","","","","","","tol_peg_1","2797","2797","0","[[2,0,0],[0,0],[1]]","1","[[1,2,0],[3,0],[0]]","2","0","","","","","","4","",""
"","","","","","single-stim-button","235","613970","0.0-3.0-16.0-1.0","614eb0a92921d8c1e64f4873","F1","batch6","","1919","","","tol_toboard","","","","","","","","","tol_peg_2","1919","1919","0","[[2,0,0],[3,0],[1]]","1","[[1,2,0],[3,0],[0]]","2","0","","","","","","4","",""
"","","","","","single-stim-button","236","614832","0.0-3.0-16.1-0.1","614eb0a92921d8c1e64f4873","F1","batch6","","856","","","tol_tohand","","","","","","","","","tol_peg_1","856","856","0","[[0,0,0],[3,0],[1]]","2","[[1,2,0],[3,0],[0]]","2","0","","","","","","4","",""
"","","","","","single-stim-button","237","615963","0.0-3.0-16.1-1.1","614eb0a92921d8c1e64f4873","F1","batch6","","1124","","","tol_toboard","","","","","","","","","tol_peg_2","1124","1124","0","[[0,0,0],[3,2],[1]]","2","[[1,2,0],[3,0],[0]]","2","0","","","","","","4","",""
"","","","","","single-stim-button","238","616703","0.0-3.0-16.2-0.2","614eb0a92921d8c1e64f4873","F1","batch6","","732","","","tol_tohand","","","","","","","","","tol_peg_3","732","732","0","[[0,0,0],[3,2],[0]]","3","[[1,2,0],[3,0],[0]]","2","0","","","","","","4","",""
"","","","","","single-stim-button","239","617639","0.0-3.0-16.2-1.2","614eb0a92921d8c1e64f4873","F1","batch6","","932","","","tol_toboard","","","","","","","","","tol_peg_1","932","932","0","[[1,0,0],[3,2],[0]]","3","[[1,2,0],[3,0],[0]]","2","0","","","","","","4","",""
"","","","","","single-stim-button","240","618473","0.0-3.0-16.3-0.3","614eb0a92921d8c1e64f4873","F1","batch6","","826","","","tol_tohand","","","","","","","","","tol_peg_2","826","826","0","[[1,0,0],[3,0],[0]]","4","[[1,2,0],[3,0],[0]]","2","0","","","","","","4","",""
"","","","","","single-stim-button","241","619337","0.0-3.0-16.3-1.3","614eb0a92921d8c1e64f4873","F1","batch6","","859","","","tol_toboard","","","","","","","","","tol_peg_1","859","859","0","[[1,2,0],[3,0],[0]]","4","[[1,2,0],[3,0],[0]]","2","0","","","","","","4","",""
"","","","","","poldrack-single-stim","242","620350","0.0-3.0-17.0","614eb0a92921d8c1e64f4873","F1","batch6","","-1","","","tol_feedback","true","","","","","","","","","1000","1000","500","","","","","","-1","none","true","2797","5211","","",""
"","","","","","html-button-response","243","621475","0.0-3.0-18.0","614eb0a92921d8c1e64f4873","F1","batch6","","1117.7000000011176","<div class = centerbox><p class = center-block-text>problem <strong>4</strong> out of 25 problems</p></div>","0","tol_trial_num","","","","","","","","","","","","","","","","","","","","","","","","",""
"","","","","","single-stim-button","244","624875","0.0-3.0-19.0-0.0","614eb0a92921d8c1e64f4873","F1","batch6","","3391","","","tol_tohand","","","","","","","","","tol_peg_2","3391","3391","0","[[3,0,0],[2,0],[0]]","1","[[3,0,0],[1,0],[2]]","3","0","","","","","","3","",""
"","","","","","single-stim-button","245","625975","0.0-3.0-19.0-1.0","614eb0a92921d8c1e64f4873","F1","batch6","","1095","","","tol_toboard","","","","","","","","","tol_peg_1","1095","1095","0","[[3,1,0],[2,0],[0]]","1","[[3,0,0],[1,0],[2]]","3","0","","","","","","3","",""
"","","","","","single-stim-button","246","626966","0.0-3.0-19.1-0.1","614eb0a92921d8c1e64f4873","F1","batch6","","988","","","tol_tohand","","","","","","","","","tol_peg_2","988","988","0","[[3,1,0],[0,0],[0]]","2","[[3,0,0],[1,0],[2]]","3","0","","","","","","3","",""
"","","","","","single-stim-button","247","627984","0.0-3.0-19.1-1.1","614eb0a92921d8c1e64f4873","F1","batch6","","1014","","","tol_toboard","","","","","","","","","tol_peg_3","1014","1014","0","[[3,1,0],[0,0],[2]]","2","[[3,0,0],[1,0],[2]]","3","0","","","","","","3","",""
"","","","","","single-stim-button","248","628833","0.0-3.0-19.2-0.2","614eb0a92921d8c1e64f4873","F1","batch6","","842","","","tol_tohand","","","","","","","","","tol_peg_1","842","842","0","[[3,0,0],[0,0],[2]]","3","[[3,0,0],[1,0],[2]]","3","0","","","","","","3","",""
"","","","","","single-stim-button","249","629895","0.0-3.0-19.2-1.2","614eb0a92921d8c1e64f4873","F1","batch6","","1058","","","tol_toboard","","","","","","","","","tol_peg_2","1058","1058","0","[[3,0,0],[1,0],[2]]","3","[[3,0,0],[1,0],[2]]","3","0","","","","","","3","",""
"","","","","","poldrack-single-stim","250","630905","0.0-3.0-20.0","614eb0a92921d8c1e64f4873","F1","batch6","","-1","","","tol_feedback","true","","","","","","","","","1000","1000","500","","","","","","-1","none","true","3391","5221","","",""
"","","","","","html-button-response","251","631942","0.0-3.0-21.0","614eb0a92921d8c1e64f4873","F1","batch6","","1026.5999999996275","<div class = centerbox><p class = center-block-text>problem <strong>5</strong> out of 25 problems</p></div>","0","tol_trial_num","","","","","","","","","","","","","","","","","","","","","","","","",""
"","","","","","single-stim-button","252","637914","0.0-3.0-22.0-0.0","614eb0a92921d8c1e64f4873","F1","batch6","","5964","","","tol_tohand","","","","","","","","","tol_peg_3","5964","5964","0","[[1,0,0],[2,0],[0]]","1","[[0,0,0],[1,2],[3]]","4","0","","","","","","7","",""
"","","","","","single-stim-button","253","640036","0.0-3.0-22.0-1.0","614eb0a92921d8c1e64f4873","F1","batch6","","2113","","","tol_toboard","","","","","","","","","tol_peg_1","2113","2113","0","[[1,3,0],[2,0],[0]]","1","[[0,0,0],[1,2],[3]]","4","0","","","","","","7","",""
"","","","","","single-stim-button","254","643147","0.0-3.0-22.1-0.1","614eb0a92921d8c1e64f4873","F1","batch6","","3106","","","tol_tohand","","","","","","","","","tol_peg_2","3106","3106","0","[[1,3,0],[0,0],[0]]","2","[[0,0,0],[1,2],[3]]","4","0","","","","","","7","",""
"","","","","","single-stim-button","255","647126","0.0-3.0-22.1-1.1","614eb0a92921d8c1e64f4873","F1","batch6","","3973","","","tol_toboard","","","","","","","","","tol_peg_3","3973","3973","0","[[1,3,0],[0,0],[2]]","2","[[0,0,0],[1,2],[3]]","4","0","","","","","","7","",""
"","","","","","single-stim-button","256","650210","0.0-3.0-22.2-0.2","614eb0a92921d8c1e64f4873","F1","batch6","","3080","","","tol_tohand","","","","","","","","","tol_peg_1","3080","3080","0","[[1,0,0],[0,0],[2]]","3","[[0,0,0],[1,2],[3]]","4","0","","","","","","7","",""
"","","","","","single-stim-button","257","653985","0.0-3.0-22.2-1.2","614eb0a92921d8c1e64f4873","F1","batch6","","3771","","","tol_toboard","","","","","","","","","tol_peg_2","3771","3771","0","[[1,0,0],[3,0],[2]]","3","[[0,0,0],[1,2],[3]]","4","0","","","","","","7","",""
"","","","","","single-stim-button","258","654919","0.0-3.0-22.3-0.3","614eb0a92921d8c1e64f4873","F1","batch6","","928","","","tol_tohand","","","","","","","","","tol_peg_1","928","928","0","[[0,0,0],[3,0],[2]]","4","[[0,0,0],[1,2],[3]]","4","0","","","","","","7","",""
"","","","","","single-stim-button","259","656027","0.0-3.0-22.3-1.3","614eb0a92921d8c1e64f4873","F1","batch6","","1105","","","tol_toboard","","","","","","","","","tol_peg_2","1105","1105","0","[[0,0,0],[3,1],[2]]","4","[[0,0,0],[1,2],[3]]","4","0","","","","","","7","",""
"","","","","","single-stim-button","260","659595","0.0-3.0-22.4-0.4","614eb0a92921d8c1e64f4873","F1","batch6","","3561","","","tol_tohand","","","","","","","","","tol_peg_3","3561","3561","0","[[0,0,0],[3,1],[0]]","5","[[0,0,0],[1,2],[3]]","4","0","","","","","","7","",""
"","","","","","single-stim-button","261","660684","0.0-3.0-22.4-1.4","614eb0a92921d8c1e64f4873","F1","batch6","","1085","","","tol_toboard","","","","","","","","","tol_peg_1","1085","1085","0","[[2,0,0],[3,1],[0]]","5","[[0,0,0],[1,2],[3]]","4","0","","","","","","7","",""
"","","","","","single-stim-button","262","661984","0.0-3.0-22.5-0.5","614eb0a92921d8c1e64f4873","F1","batch6","","1295","","","tol_tohand","","","","","","","","","tol_peg_2","1295","1295","0","[[2,0,0],[3,0],[0]]","6","[[0,0,0],[1,2],[3]]","4","0","","","","","","7","",""
"","","","","","single-stim-button","263","663211","0.0-3.0-22.5-1.5","614eb0a92921d8c1e64f4873","F1","batch6","","1220","","","tol_toboard","","","","","","","","","tol_peg_1","1220","1220","0","[[2,1,0],[3,0],[0]]","6","[[0,0,0],[1,2],[3]]","4","0","","","","","","7","",""
"","","","","","single-stim-button","264","664072","0.0-3.0-22.6-0.6","614eb0a92921d8c1e64f4873","F1","batch6","","854","","","tol_tohand","","","","","","","","","tol_peg_2","854","854","0","[[2,1,0],[0,0],[0]]","7","[[0,0,0],[1,2],[3]]","4","0","","","","","","7","",""
"","","","","","single-stim-button","265","665001","0.0-3.0-22.6-1.6","614eb0a92921d8c1e64f4873","F1","batch6","","923","","","tol_toboard","","","","","","","","","tol_peg_3","923","923","0","[[2,1,0],[0,0],[3]]","7","[[0,0,0],[1,2],[3]]","4","0","","","","","","7","",""
"","","","","","single-stim-button","266","665911","0.0-3.0-22.7-0.7","614eb0a92921d8c1e64f4873","F1","batch6","","903","","","tol_tohand","","","","","","","","","tol_peg_1","903","903","0","[[2,0,0],[0,0],[3]]","8","[[0,0,0],[1,2],[3]]","4","0","","","","","","7","",""
"","","","","","single-stim-button","267","667046","0.0-3.0-22.7-1.7","614eb0a92921d8c1e64f4873","F1","batch6","","1130","","","tol_toboard","","","","","","","","","tol_peg_2","1130","1130","0","[[2,0,0],[1,0],[3]]","8","[[0,0,0],[1,2],[3]]","4","0","","","","","","7","",""
"","","","","","single-stim-button","268","667988","0.0-3.0-22.8-0.8","614eb0a92921d8c1e64f4873","F1","batch6","","936","","","tol_tohand","","","","","","","","","tol_peg_1","936","936","0","[[0,0,0],[1,0],[3]]","9","[[0,0,0],[1,2],[3]]","4","0","","","","","","7","",""
"","","","","","single-stim-button","269","668942","0.0-3.0-22.8-1.8","614eb0a92921d8c1e64f4873","F1","batch6","","947","","","tol_toboard","","","","","","","","","tol_peg_2","947","947","0","[[0,0,0],[1,2],[3]]","9","[[0,0,0],[1,2],[3]]","4","0","","","","","","7","",""
"","","","","","poldrack-single-stim","270","669952","0.0-3.0-23.0","614eb0a92921d8c1e64f4873","F1","batch6","","-1","","","tol_feedback","true","","","","","","","","","1000","1000","500","","","","","","-1","none","true","5964","20627","","",""
"","","","","","html-button-response","271","671339","0.0-3.0-24.0","614eb0a92921d8c1e64f4873","F1","batch6","","1377.300000000745","<div class = centerbox><p class = center-block-text>problem <strong>6</strong> out of 25 problems</p></div>","0","tol_trial_num","","","","","","","","","","","","","","","","","","","","","","","","",""
"","","","","","single-stim-button","272","678281","0.0-3.0-25.0-0.0","614eb0a92921d8c1e64f4873","F1","batch6","","6931","","","tol_tohand","","","","","","","","","tol_peg_3","6931","6931","0","[[0,0,0],[1,2],[0]]","1","[[1,0,0],[2,3],[0]]","5","0","","","","","","6","",""
"","","","","","single-stim-button","273","679505","0.0-3.0-25.0-1.0","614eb0a92921d8c1e64f4873","F1","batch6","","1217","","","tol_toboard","","","","","","","","","tol_peg_1","1217","1217","0","[[3,0,0],[1,2],[0]]","1","[[1,0,0],[2,3],[0]]","5","0","","","","","","6","",""
"","","","","","single-stim-button","274","680599","0.0-3.0-25.1-0.1","614eb0a92921d8c1e64f4873","F1","batch6","","1090","","","tol_tohand","","","","","","","","","tol_peg_2","1090","1090","0","[[3,0,0],[1,0],[0]]","2","[[1,0,0],[2,3],[0]]","5","0","","","","","","6","",""
"","","","","","single-stim-button","275","681759","0.0-3.0-25.1-1.1","614eb0a92921d8c1e64f4873","F1","batch6","","1157","","","tol_toboard","","","","","","","","","tol_peg_3","1157","1157","0","[[3,0,0],[1,0],[2]]","2","[[1,0,0],[2,3],[0]]","5","0","","","","","","6","",""
"","","","","","single-stim-button","276","685382","0.0-3.0-25.2-0.2","614eb0a92921d8c1e64f4873","F1","batch6","","3619","","","tol_tohand","","","","","","","","","tol_peg_1","3619","3619","0","[[0,0,0],[1,0],[2]]","3","[[1,0,0],[2,3],[0]]","5","0","","","","","","6","",""
"","","","","","single-stim-button","277","686960","0.0-3.0-25.2-1.2","614eb0a92921d8c1e64f4873","F1","batch6","","1572","","","tol_toboard","","","","","","","","","tol_peg_2","1572","1572","0","[[0,0,0],[1,3],[2]]","3","[[1,0,0],[2,3],[0]]","5","0","","","","","","6","",""
"","","","","","single-stim-button","278","689048","0.0-3.0-25.3-0.3","614eb0a92921d8c1e64f4873","F1","batch6","","2080","","","tol_tohand","","","","","","","","","tol_peg_3","2080","2080","0","[[0,0,0],[1,3],[0]]","4","[[1,0,0],[2,3],[0]]","5","0","","","","","","6","",""
"","","","","","single-stim-button","279","690331","0.0-3.0-25.3-1.3","614eb0a92921d8c1e64f4873","F1","batch6","","1275","","","tol_toboard","","","","","","","","","tol_peg_1","1275","1275","0","[[2,0,0],[1,3],[0]]","4","[[1,0,0],[2,3],[0]]","5","0","","","","","","6","",""
"","","","","","single-stim-button","280","691371","0.0-3.0-25.4-0.4","614eb0a92921d8c1e64f4873","F1","batch6","","1034","","","tol_tohand","","","","","","","","","tol_peg_2","1034","1034","0","[[2,0,0],[1,0],[0]]","5","[[1,0,0],[2,3],[0]]","5","0","","","","","","6","",""
"","","","","","single-stim-button","281","692442","0.0-3.0-25.4-1.4","614eb0a92921d8c1e64f4873","F1","batch6","","1066","","","tol_toboard","","","","","","","","","tol_peg_3","1066","1066","0","[[2,0,0],[1,0],[3]]","5","[[1,0,0],[2,3],[0]]","5","0","","","","","","6","",""
"","","","","","single-stim-button","282","693701","0.0-3.0-25.5-0.5","614eb0a92921d8c1e64f4873","F1","batch6","","1251","","","tol_tohand","","","","","","","","","tol_peg_2","1251","1251","0","[[2,0,0],[0,0],[3]]","6","[[1,0,0],[2,3],[0]]","5","0","","","","","","6","",""
"","","","","","single-stim-button","283","694739","0.0-3.0-25.5-1.5","614eb0a92921d8c1e64f4873","F1","batch6","","1034","","","tol_toboard","","","","","","","","","tol_peg_1","1034","1034","0","[[2,1,0],[0,0],[3]]","6","[[1,0,0],[2,3],[0]]","5","0","","","","","","6","",""
"","","","","","single-stim-button","284","698818","0.0-3.0-25.6-0.6","614eb0a92921d8c1e64f4873","F1","batch6","","4072","","","tol_tohand","","","","","","","","","tol_peg_3","4072","4072","0","[[2,1,0],[0,0],[0]]","7","[[1,0,0],[2,3],[0]]","5","0","","","","","","6","",""
"","","","","","single-stim-button","285","699824","0.0-3.0-25.6-1.6","614eb0a92921d8c1e64f4873","F1","batch6","","998","","","tol_toboard","","","","","","","","","tol_peg_2","998","998","0","[[2,1,0],[3,0],[0]]","7","[[1,0,0],[2,3],[0]]","5","0","","","","","","6","",""
"","","","","","single-stim-button","286","700614","0.0-3.0-25.7-0.7","614eb0a92921d8c1e64f4873","F1","batch6","","783","","","tol_tohand","","","","","","","","","tol_peg_1","783","783","0","[[2,0,0],[3,0],[0]]","8","[[1,0,0],[2,3],[0]]","5","0","","","","","","6","",""
"","","","","","single-stim-button","287","701691","0.0-3.0-25.7-1.7","614eb0a92921d8c1e64f4873","F1","batch6","","1073","","","tol_toboard","","","","","","","","","tol_peg_3","1073","1073","0","[[2,0,0],[3,0],[1]]","8","[[1,0,0],[2,3],[0]]","5","0","","","","","","6","",""
"","","","","","single-stim-button","288","702848","0.0-3.0-25.8-0.8","614eb0a92921d8c1e64f4873","F1","batch6","","1153","","","tol_tohand","","","","","","","","","tol_peg_1","1153","1153","0","[[0,0,0],[3,0],[1]]","9","[[1,0,0],[2,3],[0]]","5","0","","","","","","6","",""
"","","","","","single-stim-button","289","703955","0.0-3.0-25.8-1.8","614eb0a92921d8c1e64f4873","F1","batch6","","1100","","","tol_toboard","","","","","","","","","tol_peg_2","1100","1100","0","[[0,0,0],[3,2],[1]]","9","[[1,0,0],[2,3],[0]]","5","0","","","","","","6","",""
"","","","","","single-stim-button","290","704752","0.0-3.0-25.9-0.9","614eb0a92921d8c1e64f4873","F1","batch6","","791","","","tol_tohand","","","","","","","","","tol_peg_3","791","791","0","[[0,0,0],[3,2],[0]]","10","[[1,0,0],[2,3],[0]]","5","0","","","","","","6","",""
"","","","","","single-stim-button","291","705934","0.0-3.0-25.9-1.9","614eb0a92921d8c1e64f4873","F1","batch6","","1175","","","tol_toboard","","","","","","","","","tol_peg_1","1175","1175","0","[[1,0,0],[3,2],[0]]","10","[[1,0,0],[2,3],[0]]","5","0","","","","","","6","",""
"","","","","","single-stim-button","292","707134","0.0-3.0-25.10-0.10","614eb0a92921d8c1e64f4873","F1","batch6","","1195","","","tol_tohand","","","","","","","","","tol_peg_2","1195","1195","0","[[1,0,0],[3,0],[0]]","11","[[1,0,0],[2,3],[0]]","5","0","","","","","","6","",""
"","","","","","single-stim-button","293","709035","0.0-3.0-25.10-1.10","614eb0a92921d8c1e64f4873","F1","batch6","","1895","","","tol_toboard","","","","","","","","","tol_peg_1","1895","1895","0","[[1,2,0],[3,0],[0]]","11","[[1,0,0],[2,3],[0]]","5","0","","","","","","6","",""
"","","","","","single-stim-button","294","710043","0.0-3.0-25.11-0.11","614eb0a92921d8c1e64f4873","F1","batch6","","1005","","","tol_tohand","","","","","","","","","tol_peg_2","1005","1005","0","[[1,2,0],[0,0],[0]]","12","[[1,0,0],[2,3],[0]]","5","0","","","","","","6","",""
"","","","","","single-stim-button","295","711198","0.0-3.0-25.11-1.11","614eb0a92921d8c1e64f4873","F1","batch6","","1150","","","tol_toboard","","","","","","","","","tol_peg_3","1150","1150","0","[[1,2,0],[0,0],[3]]","12","[[1,0,0],[2,3],[0]]","5","0","","","","","","6","",""
"","","","","","single-stim-button","296","712077","0.0-3.0-25.12-0.12","614eb0a92921d8c1e64f4873","F1","batch6","","871","","","tol_tohand","","","","","","","","","tol_peg_1","871","871","0","[[1,0,0],[0,0],[3]]","13","[[1,0,0],[2,3],[0]]","5","0","","","","","","6","",""
"","","","","","single-stim-button","297","713019","0.0-3.0-25.12-1.12","614eb0a92921d8c1e64f4873","F1","batch6","","938","","","tol_toboard","","","","","","","","","tol_peg_2","938","938","0","[[1,0,0],[2,0],[3]]","13","[[1,0,0],[2,3],[0]]","5","0","","","","","","6","",""
"","","","","","single-stim-button","298","713761","0.0-3.0-25.13-0.13","614eb0a92921d8c1e64f4873","F1","batch6","","738","","","tol_tohand","","","","","","","","","tol_peg_3","738","738","0","[[1,0,0],[2,0],[0]]","14","[[1,0,0],[2,3],[0]]","5","0","","","","","","6","",""
"","","","","","single-stim-button","299","714602","0.0-3.0-25.13-1.13","614eb0a92921d8c1e64f4873","F1","batch6","","839","","","tol_toboard","","","","","","","","","tol_peg_2","839","839","0","[[1,0,0],[2,3],[0]]","14","[[1,0,0],[2,3],[0]]","5","0","","","","","","6","",""
"","","","","","poldrack-single-stim","300","715610","0.0-3.0-26.0","614eb0a92921d8c1e64f4873","F1","batch6","","-1","","","tol_feedback","true","","","","","","","","","1000","1000","500","","","","","","-1","none","true","6931","26613","","",""
"","","","","","html-button-response","301","717242","0.0-3.0-27.0","614eb0a92921d8c1e64f4873","F1","batch6","","1623.5","<div class = centerbox><p class = center-block-text>problem <strong>7</strong> out of 25 problems</p></div>","0","tol_trial_num","","","","","","","","","","","","","","","","","","","","","","","","",""
"","","","","","single-stim-button","302","721216","0.0-3.0-28.0-0.0","614eb0a92921d8c1e64f4873","F1","batch6","","3966","","","tol_tohand","","","","","","","","","tol_peg_3","3966","3966","0","[[2,1,0],[0,0],[0]]","1","[[1,2,0],[3,0],[0]]","6","0","","","","","","5","",""
"","","","","","single-stim-button","303","722318","0.0-3.0-28.0-1.0","614eb0a92921d8c1e64f4873","F1","batch6","","1095","","","tol_toboard","","","","","","","","","tol_peg_2","1095","1095","0","[[2,1,0],[3,0],[0]]","1","[[1,2,0],[3,0],[0]]","6","0","","","","","","5","",""
"","","","","","single-stim-button","304","723549","0.0-3.0-28.1-0.1","614eb0a92921d8c1e64f4873","F1","batch6","","1226","","","tol_tohand","","","","","","","","","tol_peg_1","1226","1226","0","[[2,0,0],[3,0],[0]]","2","[[1,2,0],[3,0],[0]]","6","0","","","","","","5","",""
"","","","","","single-stim-button","305","724500","0.0-3.0-28.1-1.1","614eb0a92921d8c1e64f4873","F1","batch6","","942","","","tol_toboard","","","","","","","","","tol_peg_3","942","942","0","[[2,0,0],[3,0],[1]]","2","[[1,2,0],[3,0],[0]]","6","0","","","","","","5","",""
"","","","","","single-stim-button","306","725636","0.0-3.0-28.2-0.2","614eb0a92921d8c1e64f4873","F1","batch6","","1129","","","tol_tohand","","","","","","","","","tol_peg_1","1129","1129","0","[[0,0,0],[3,0],[1]]","3","[[1,2,0],[3,0],[0]]","6","0","","","","","","5","",""
"","","","","","single-stim-button","307","726916","0.0-3.0-28.2-1.2","614eb0a92921d8c1e64f4873","F1","batch6","","1275","","","tol_toboard","","","","","","","","","tol_peg_2","1275","1275","0","[[0,0,0],[3,2],[1]]","3","[[1,2,0],[3,0],[0]]","6","0","","","","","","5","",""
"","","","","","single-stim-button","308","727842","0.0-3.0-28.3-0.3","614eb0a92921d8c1e64f4873","F1","batch6","","919","","","tol_tohand","","","","","","","","","tol_peg_3","919","919","0","[[0,0,0],[3,2],[0]]","4","[[1,2,0],[3,0],[0]]","6","0","","","","","","5","",""
"","","","","","single-stim-button","309","728994","0.0-3.0-28.3-1.3","614eb0a92921d8c1e64f4873","F1","batch6","","1145","","","tol_toboard","","","","","","","","","tol_peg_1","1145","1145","0","[[1,0,0],[3,2],[0]]","4","[[1,2,0],[3,0],[0]]","6","0","","","","","","5","",""
"","","","","","single-stim-button","310","729983","0.0-3.0-28.4-0.4","614eb0a92921d8c1e64f4873","F1","batch6","","983","","","tol_tohand","","","","","","","","","tol_peg_2","983","983","0","[[1,0,0],[3,0],[0]]","5","[[1,2,0],[3,0],[0]]","6","0","","","","","","5","",""
"","","","","","single-stim-button","311","730770","0.0-3.0-28.4-1.4","614eb0a92921d8c1e64f4873","F1","batch6","","782","","","tol_toboard","","","","","","","","","tol_peg_1","782","782","0","[[1,2,0],[3,0],[0]]","5","[[1,2,0],[3,0],[0]]","6","0","","","","","","5","",""
"","","","","","poldrack-single-stim","312","731777","0.0-3.0-29.0","614eb0a92921d8c1e64f4873","F1","batch6","","-1","","","tol_feedback","true","","","","","","","","","1000","1000","500","","","","","","-1","none","true","3966","8223","","",""
"","","","","","html-button-response","313","733789","0.0-3.0-30.0","614eb0a92921d8c1e64f4873","F1","batch6","","2006.1000000014901","<div class = centerbox><p class = center-block-text>problem <strong>8</strong> out of 25 problems</p></div>","0","tol_trial_num","","","","","","","","","","","","","","","","","","","","","","","","",""
"","","","","","single-stim-button","314","739234","0.0-3.0-31.0-0.0","614eb0a92921d8c1e64f4873","F1","batch6","","5439","","","tol_tohand","","","","","","","","","tol_peg_2","5439","5439","0","[[0,0,0],[2,0],[1]]","1","[[1,2,0],[3,0],[0]]","7","0","","","","","","4","",""
"","","","","","single-stim-button","315","740785","0.0-3.0-31.0-1.0","614eb0a92921d8c1e64f4873","F1","batch6","","1544","","","tol_toboard","","","","","","","","","tol_peg_1","1544","1544","0","[[3,0,0],[2,0],[1]]","1","[[1,2,0],[3,0],[0]]","7","0","","","","","","4","",""
"","","","","","single-stim-button","316","744225","0.0-3.0-31.1-0.1","614eb0a92921d8c1e64f4873","F1","batch6","","3435","","","tol_tohand","","","","","","","","","tol_peg_3","3435","3435","0","[[3,0,0],[2,0],[0]]","2","[[1,2,0],[3,0],[0]]","7","0","","","","","","4","",""
"","","","","","single-stim-button","317","745189","0.0-3.0-31.1-1.1","614eb0a92921d8c1e64f4873","F1","batch6","","960","","","tol_toboard","","","","","","","","","tol_peg_2","960","960","0","[[3,0,0],[2,1],[0]]","2","[[1,2,0],[3,0],[0]]","7","0","","","","","","4","",""
"","","","","","single-stim-button","318","745998","0.0-3.0-31.2-0.2","614eb0a92921d8c1e64f4873","F1","batch6","","803","","","tol_tohand","","","","","","","","","tol_peg_1","803","803","0","[[0,0,0],[2,1],[0]]","3","[[1,2,0],[3,0],[0]]","7","0","","","","","","4","",""
"","","","","","single-stim-button","319","747193","0.0-3.0-31.2-1.2","614eb0a92921d8c1e64f4873","F1","batch6","","1190","","","tol_toboard","","","","","","","","","tol_peg_3","1190","1190","0","[[0,0,0],[2,1],[3]]","3","[[1,2,0],[3,0],[0]]","7","0","","","","","","4","",""
"","","","","","single-stim-button","320","748041","0.0-3.0-31.3-0.3","614eb0a92921d8c1e64f4873","F1","batch6","","842","","","tol_tohand","","","","","","","","","tol_peg_2","842","842","0","[[0,0,0],[2,0],[3]]","4","[[1,2,0],[3,0],[0]]","7","0","","","","","","4","",""
"","","","","","single-stim-button","321","749042","0.0-3.0-31.3-1.3","614eb0a92921d8c1e64f4873","F1","batch6","","995","","","tol_toboard","","","","","","","","","tol_peg_1","995","995","0","[[1,0,0],[2,0],[3]]","4","[[1,2,0],[3,0],[0]]","7","0","","","","","","4","",""
"","","","","","single-stim-button","322","750011","0.0-3.0-31.4-0.4","614eb0a92921d8c1e64f4873","F1","batch6","","965","","","tol_tohand","","","","","","","","","tol_peg_2","965","965","0","[[1,0,0],[0,0],[3]]","5","[[1,2,0],[3,0],[0]]","7","0","","","","","","4","",""
"","","","","","single-stim-button","323","751018","0.0-3.0-31.4-1.4","614eb0a92921d8c1e64f4873","F1","batch6","","1000","","","tol_toboard","","","","","","","","","tol_peg_1","1000","1000","0","[[1,2,0],[0,0],[3]]","5","[[1,2,0],[3,0],[0]]","7","0","","","","","","4","",""
"","","","","","single-stim-button","324","752024","0.0-3.0-31.5-0.5","614eb0a92921d8c1e64f4873","F1","batch6","","1000","","","tol_tohand","","","","","","","","","tol_peg_3","1000","1000","0","[[1,2,0],[0,0],[0]]","6","[[1,2,0],[3,0],[0]]","7","0","","","","","","4","",""
"","","","","","single-stim-button","325","752971","0.0-3.0-31.5-1.5","614eb0a92921d8c1e64f4873","F1","batch6","","943","","","tol_toboard","","","","","","","","","tol_peg_2","943","943","0","[[1,2,0],[3,0],[0]]","6","[[1,2,0],[3,0],[0]]","7","0","","","","","","4","",""
"","","","","","poldrack-single-stim","326","753974","0.0-3.0-32.0","614eb0a92921d8c1e64f4873","F1","batch6","","-1","","","tol_feedback","true","","","","","","","","","1000","1000","500","","","","","","-1","none","true","5439","12484","","",""
"","","","","","html-button-response","327","755268","0.0-3.0-33.0","614eb0a92921d8c1e64f4873","F1","batch6","","1288.7000000011176","<div class = centerbox><p class = center-block-text>problem <strong>9</strong> out of 25 problems</p></div>","0","tol_trial_num","","","","","","","","","","","","","","","","","","","","","","","","",""
"","","","","","single-stim-button","328","762425","0.0-3.0-34.0-0.0","614eb0a92921d8c1e64f4873","F1","batch6","","7149","","","tol_tohand","","","","","","","","","tol_peg_1","7149","7149","0","[[3,0,0],[0,0],[1]]","1","[[2,1,0],[3,0],[0]]","8","0","","","","","","6","",""
"","","","","","single-stim-button","329","763578","0.0-3.0-34.0-1.0","614eb0a92921d8c1e64f4873","F1","batch6","","1146","","","tol_toboard","","","","","","","","","tol_peg_2","1146","1146","0","[[3,0,0],[2,0],[1]]","1","[[2,1,0],[3,0],[0]]","8","0","","","","","","6","",""
"","","","","","single-stim-button","330","764631","0.0-3.0-34.1-0.1","614eb0a92921d8c1e64f4873","F1","batch6","","1048","","","tol_tohand","","","","","","","","","tol_peg_3","1048","1048","0","[[3,0,0],[2,0],[0]]","2","[[2,1,0],[3,0],[0]]","8","0","","","","","","6","",""
"","","","","","single-stim-button","331","766006","0.0-3.0-34.1-1.1","614eb0a92921d8c1e64f4873","F1","batch6","","1369","","","tol_toboard","","","","","","","","","tol_peg_2","1369","1369","0","[[3,0,0],[2,1],[0]]","2","[[2,1,0],[3,0],[0]]","8","0","","","","","","6","",""
"","","","","","single-stim-button","332","766966","0.0-3.0-34.2-0.2","614eb0a92921d8c1e64f4873","F1","batch6","","957","","","tol_tohand","","","","","","","","","tol_peg_1","957","957","0","[[0,0,0],[2,1],[0]]","3","[[2,1,0],[3,0],[0]]","8","0","","","","","","6","",""
"","","","","","single-stim-button","333","768471","0.0-3.0-34.2-1.2","614eb0a92921d8c1e64f4873","F1","batch6","","1500","","","tol_toboard","","","","","","","","","tol_peg_3","1500","1500","0","[[0,0,0],[2,1],[3]]","3","[[2,1,0],[3,0],[0]]","8","0","","","","","","6","",""
"","","","","","single-stim-button","334","772484","0.0-3.0-34.3-0.3","614eb0a92921d8c1e64f4873","F1","batch6","","4003","","","tol_tohand","","","","","","","","","tol_peg_3","4003","4003","0","[[0,0,0],[2,1],[0]]","4","[[2,1,0],[3,0],[0]]","8","0","","","","","","6","",""
"","","","","","single-stim-button","335","774527","0.0-3.0-34.3-1.3","614eb0a92921d8c1e64f4873","F1","batch6","","2037","","","tol_toboard","","","","","","","","","tol_peg_1","2037","2037","0","[[3,0,0],[2,1],[0]]","4","[[2,1,0],[3,0],[0]]","8","0","","","","","","6","",""
"","","","","","single-stim-button","336","775590","0.0-3.0-34.4-0.4","614eb0a92921d8c1e64f4873","F1","batch6","","1059","","","tol_tohand","","","","","","","","","tol_peg_2","1059","1059","0","[[3,0,0],[2,0],[0]]","5","[[2,1,0],[3,0],[0]]","8","0","","","","","","6","",""
"","","","","","single-stim-button","337","776461","0.0-3.0-34.4-1.4","614eb0a92921d8c1e64f4873","F1","batch6","","865","","","tol_toboard","","","","","","","","","tol_peg_3","865","865","0","[[3,0,0],[2,0],[1]]","5","[[2,1,0],[3,0],[0]]","8","0","","","","","","6","",""
"","","","","","single-stim-button","338","777580","0.0-3.0-34.5-0.5","614eb0a92921d8c1e64f4873","F1","batch6","","1114","","","tol_tohand","","","","","","","","","tol_peg_1","1114","1114","0","[[0,0,0],[2,0],[1]]","6","[[2,1,0],[3,0],[0]]","8","0","","","","","","6","",""
"","","","","","single-stim-button","339","778454","0.0-3.0-34.5-1.5","614eb0a92921d8c1e64f4873","F1","batch6","","864","","","tol_toboard","","","","","","","","","tol_peg_2","864","864","0","[[0,0,0],[2,3],[1]]","6","[[2,1,0],[3,0],[0]]","8","0","","","","","","6","",""
"","","","","","single-stim-button","340","783745","0.0-3.0-34.6-0.6","614eb0a92921d8c1e64f4873","F1","batch6","","5287","","","tol_tohand","","","","","","","","","tol_peg_3","5287","5287","0","[[0,0,0],[2,3],[0]]","7","[[2,1,0],[3,0],[0]]","8","0","","","","","","6","",""
"","","","","","single-stim-button","341","785107","0.0-3.0-34.6-1.6","614eb0a92921d8c1e64f4873","F1","batch6","","1351","","","tol_toboard","","","","","","","","","tol_peg_1","1351","1351","0","[[1,0,0],[2,3],[0]]","7","[[2,1,0],[3,0],[0]]","8","0","","","","","","6","",""
"","","","","","single-stim-button","342","786286","0.0-3.0-34.7-0.7","614eb0a92921d8c1e64f4873","F1","batch6","","1172","","","tol_tohand","","","","","","","","","tol_peg_2","1172","1172","0","[[1,0,0],[2,0],[0]]","8","[[2,1,0],[3,0],[0]]","8","0","","","","","","6","",""
"","","","","","single-stim-button","343","787253","0.0-3.0-34.7-1.7","614eb0a92921d8c1e64f4873","F1","batch6","","962","","","tol_toboard","","","","","","","","","tol_peg_1","962","962","0","[[1,3,0],[2,0],[0]]","8","[[2,1,0],[3,0],[0]]","8","0","","","","","","6","",""
"","","","","","single-stim-button","344","788238","0.0-3.0-34.8-0.8","614eb0a92921d8c1e64f4873","F1","batch6","","977","","","tol_tohand","","","","","","","","","tol_peg_2","977","977","0","[[1,3,0],[0,0],[0]]","9","[[2,1,0],[3,0],[0]]","8","0","","","","","","6","",""
"","","","","","single-stim-button","345","789391","0.0-3.0-34.8-1.8","614eb0a92921d8c1e64f4873","F1","batch6","","1144","","","tol_toboard","","","","","","","","","tol_peg_3","1144","1144","0","[[1,3,0],[0,0],[2]]","9","[[2,1,0],[3,0],[0]]","8","0","","","","","","6","",""
"","","","","","single-stim-button","346","790302","0.0-3.0-34.9-0.9","614eb0a92921d8c1e64f4873","F1","batch6","","905","","","tol_tohand","","","","","","","","","tol_peg_1","905","905","0","[[1,0,0],[0,0],[2]]","10","[[2,1,0],[3,0],[0]]","8","0","","","","","","6","",""
