"success","timeout","failed_images","failed_audio","failed_video","trial_type","trial_index","time_elapsed","internal_node_id","subject_id","study_id","session_id","view_history","rt","stimulus","response","task","correct","answer","item","fiar_detect_rt","fiar_detect_correct","total_correct_fiar_detect","post_trial_gap","choices","spm_correct","spm_rt","mouse_click","stim_duration","block_duration","timing_post_trial","current_position","tol_num_moves_made","tol_target","tol_problem_id","tol_rt","key_press","possible_responses","tol_correct","preplanning","tol_rt_per_trial","tol_min_moves"
"true","false","[]","[]","[]","preload","0","3711","0.0-0.0","614f39b82ccdbdd51c76cc50","E1","batch5","","","","","","","","","","","","","","","","","","","","","","","","","","","","","",""
"true","","","","","fullscreen","1","15489","0.0-1.0-0.0","614f39b82ccdbdd51c76cc50","E1","batch5","","","","","","","","","","","","","","","","","","","","","","","","","","","","","",""
"true","","","","","fullscreen","2","20029","0.0-2.0-0.0","614f39b82ccdbdd51c76cc50","E1","batch5","","","","","","","","","","","","","","","","","","","","","","","","","","","","","",""
"","","","","","instructions","3","46364","0.0-2.0-1.0-0.0","614f39b82ccdbdd51c76cc50","E1","batch5","[{""page_index"":0,""viewing_time"":14254.900000095367},{""page_index"":1,""viewing_time"":12076.599999904633}]","26332.299999952316","","","","","","","","","","","","","","","","","","","","","","","","","","","",""
"","","","","","html-button-response","4","47736","0.0-2.0-1.0-1.0-0.0","614f39b82ccdbdd51c76cc50","E1","batch5","","1369.0999999046326","<p class=block-text> Let's answer a few questions <br>","0","pattern_enter_quiz","","","","","","","","","","","","","","","","","","","","","","","","",""
"","","","","","html-button-response","5","52594","0.0-2.0-1.0-1.0-1.0","614f39b82ccdbdd51c76cc50","E1","batch5","","4856.299999952316","<p class = block-text>True or False: You will have as much time as you want to make each choice. <br></p>","1","pattern_quiz","true","","","","","","","","","","","","","","","","","","","","","","","",""
"","","","","","html-button-response","6","54388","0.0-2.0-1.0-1.0-2.0","614f39b82ccdbdd51c76cc50","E1","batch5","","1791.2000000476837","<p class = block-text>Correct! You should make your choice <strong> as fast as you can</strong>.</p>","0","pattern_quiz_feedback","","","","","","","","","","","","","","","","","","","","","","","","",""
"","","","","","html-button-response","7","58858","0.0-2.0-1.0-1.0-3.0","614f39b82ccdbdd51c76cc50","E1","batch5","","4468.200000047684","<p class = block-text>True or False: You will look for 4 pieces in black or white color connected in a row either horizontally, vertically or diagonally. <br></p>","0","pattern_quiz","true","","","","","","","","","","","","","","","","","","","","","","","",""
"","","","","","html-button-response","8","59799","0.0-2.0-1.0-1.0-4.0","614f39b82ccdbdd51c76cc50","E1","batch5","","939.0999999046326","<p class = block-text>Correct! </p>","0","pattern_quiz_feedback","","","","","","","","","","","","","","","","","","","","","","","","",""
"","","","","","html-button-response","9","62023","0.0-2.0-2.0","614f39b82ccdbdd51c76cc50","E1","batch5","","2220.899999856949","<p class=block-text> Now that you've understood the game, let's do a few practice trials before we start!<br> <br>","0","pattern_enter_practice","","","","","","","","","","","","","","","","","","","","","","","","",""
"","","","","","image-keyboard-response","10","63279","0.0-2.0-3.0-0.0","614f39b82ccdbdd51c76cc50","E1","batch5","","1245","stim/prac_yes_18_hor_w1.png","f","pattern_practice","true","f","","","","","","","","","","","","","","","","","","","","","","",""
"","","","","","html-keyboard-response","11","64312","0.0-2.0-3.0-1.0","614f39b82ccdbdd51c76cc50","E1","batch5","","null","<p style=""font-size:30px;color:green;"">Correct!</p>","null","pattern_feedback","","","","","","","","","","","","","","","","","","","","","","","","",""
"","","","","","image-keyboard-response","12","65605","0.0-2.0-3.0-0.1","614f39b82ccdbdd51c76cc50","E1","batch5","","1289.2999999523163","stim/prac_no_16_1.png","j","pattern_practice","true","j","","","","","","","","","","","","","","","","","","","","","","",""
"","","","","","html-keyboard-response","13","66628","0.0-2.0-3.0-1.1","614f39b82ccdbdd51c76cc50","E1","batch5","","null","<p style=""font-size:30px;color:green;"">Correct!</p>","null","pattern_feedback","","","","","","","","","","","","","","","","","","","","","","","","",""
"","","","","","image-keyboard-response","14","67334","0.0-2.0-3.0-0.2","614f39b82ccdbdd51c76cc50","E1","batch5","","701.2000000476837","stim/prac_yes_16_ver_w1.png","f","pattern_practice","true","f","","","","","","","","","","","","","","","","","","","","","","",""
"","","","","","html-keyboard-response","15","68346","0.0-2.0-3.0-1.2","614f39b82ccdbdd51c76cc50","E1","batch5","","null","<p style=""font-size:30px;color:green;"">Correct!</p>","null","pattern_feedback","","","","","","","","","","","","","","","","","","","","","","","","",""
"","","","","","image-keyboard-response","16","69462","0.0-2.0-3.0-0.3","614f39b82ccdbdd51c76cc50","E1","batch5","","1113.2999999523163","stim/prac_yes_20_dia_b1.png","j","pattern_practice","false","f","","","","","","","","","","","","","","","","","","","","","","",""
"","","","","","html-keyboard-response","17","70494","0.0-2.0-3.0-1.3","614f39b82ccdbdd51c76cc50","E1","batch5","","null","<p style=""font-size:30px;color:red;"">Wrong.</p>","null","pattern_feedback","","","","","","","","","","","","","","","","","","","","","","","","",""
"","","","","","image-keyboard-response","18","71533","0.0-2.0-3.0-0.4","614f39b82ccdbdd51c76cc50","E1","batch5","","1034.7000000476837","stim/prac_no_18_1.png","j","pattern_practice","true","j","","","","","","","","","","","","","","","","","","","","","","",""
"","","","","","html-keyboard-response","19","72561","0.0-2.0-3.0-1.4","614f39b82ccdbdd51c76cc50","E1","batch5","","null","<p style=""font-size:30px;color:green;"">Correct!</p>","null","pattern_feedback","","","","","","","","","","","","","","","","","","","","","","","","",""
"","","","","","html-button-response","20","75219","0.0-2.0-4.0","614f39b82ccdbdd51c76cc50","E1","batch5","","2656.100000143051","<p class=block-text> Good job! You are done with practice trials!<br>
        You responded correctly on 80% of the trials.<br>
        Press the button below to start official trials. Now you won't see any feedback about your response</p>","0","pattern_enter_official_trials","","","","","","","","","","","","","","","","","","","","","","","","",""
"","","","","","html-keyboard-response","21","76025","0.0-2.0-5.0-0.0","614f39b82ccdbdd51c76cc50","E1","batch5","","null","<p class=block-text>Trial 1 out of 78</p>","null","pattern_show_trial_num","","","","","","","","","","","","","","","","","","","","","","","","",""
"","","","","","image-keyboard-response","22","79925","0.0-2.0-5.0-1.0","614f39b82ccdbdd51c76cc50","E1","batch5","","3895.2000000476837","stim/yes_63_dia_b1.png","j","pattern_response","false","f","pattern_78","3895.2000000476837","false","0","","","","","","","","","","","","","","","","","","",""
"","","","","","html-keyboard-response","23","81242","0.0-2.0-5.0-0.1","614f39b82ccdbdd51c76cc50","E1","batch5","","null","<p class=block-text>Trial 2 out of 78</p>","null","pattern_show_trial_num","","","","","","","","","","","","","","","","","","","","","","","","",""
"","","","","","image-keyboard-response","24","82020","0.0-2.0-5.0-1.1","614f39b82ccdbdd51c76cc50","E1","batch5","","773.5","stim/yes_17_ver_b1_b.png","f","pattern_response","true","f","pattern_46","773.5","true","1","","","","","","","","","","","","","","","","","","",""
"","","","","","html-keyboard-response","25","83334","0.0-2.0-5.0-0.2","614f39b82ccdbdd51c76cc50","E1","batch5","","null","<p class=block-text>Trial 3 out of 78</p>","null","pattern_show_trial_num","","","","","","","","","","","","","","","","","","","","","","","","",""
"","","","","","image-keyboard-response","26","84235","0.0-2.0-5.0-1.2","614f39b82ccdbdd51c76cc50","E1","batch5","","896.9000000953674","stim/yes_36_ver_w1_w.png","f","pattern_response","true","f","pattern_58","896.9000000953674","true","2","","","","","","","","","","","","","","","","","","",""
"","","","","","html-keyboard-response","27","85556","0.0-2.0-5.0-0.3","614f39b82ccdbdd51c76cc50","E1","batch5","","null","<p class=block-text>Trial 4 out of 78</p>","null","pattern_show_trial_num","","","","","","","","","","","","","","","","","","","","","","","","",""
"","","","","","image-keyboard-response","28","87330","0.0-2.0-5.0-1.3","614f39b82ccdbdd51c76cc50","E1","batch5","","1770.6000001430511","stim/no_28_2.png","j","pattern_response","true","j","pattern_11","1770.6000001430511","true","3","","","","","","","","","","","","","","","","","","",""
"","","","","","html-keyboard-response","29","88642","0.0-2.0-5.0-0.4","614f39b82ccdbdd51c76cc50","E1","batch5","","null","<p class=block-text>Trial 5 out of 78</p>","null","pattern_show_trial_num","","","","","","","","","","","","","","","","","","","","","","","","",""
"","","","","","image-keyboard-response","30","90931","0.0-2.0-5.0-1.4","614f39b82ccdbdd51c76cc50","E1","batch5","","2284.5","stim/yes_53_ver_b1_b.png","f","pattern_response","true","f","pattern_74","2284.5","true","4","","","","","","","","","","","","","","","","","","",""
"","","","","","html-keyboard-response","31","92258","0.0-2.0-5.0-0.5","614f39b82ccdbdd51c76cc50","E1","batch5","","null","<p class=block-text>Trial 6 out of 78</p>","null","pattern_show_trial_num","","","","","","","","","","","","","","","","","","","","","","","","",""
"","","","","","image-keyboard-response","32","93258","0.0-2.0-5.0-1.5","614f39b82ccdbdd51c76cc50","E1","batch5","","995.1000001430511","stim/no_12_1.png","j","pattern_response","true","j","pattern_01","995.1000001430511","true","5","","","","","","","","","","","","","","","","","","",""
"","","","","","html-keyboard-response","33","94574","0.0-2.0-5.0-0.6","614f39b82ccdbdd51c76cc50","E1","batch5","","null","<p class=block-text>Trial 7 out of 78</p>","null","pattern_show_trial_num","","","","","","","","","","","","","","","","","","","","","","","","",""
"","","","","","image-keyboard-response","34","95674","0.0-2.0-5.0-1.6","614f39b82ccdbdd51c76cc50","E1","batch5","","1095.5","stim/yes_49_hor_w1_b.png","f","pattern_response","true","f","pattern_70","1095.5","true","6","","","","","","","","","","","","","","","","","","",""
"","","","","","html-keyboard-response","35","96991","0.0-2.0-5.0-0.7","614f39b82ccdbdd51c76cc50","E1","batch5","","null","<p class=block-text>Trial 8 out of 78</p>","null","pattern_show_trial_num","","","","","","","","","","","","","","","","","","","","","","","","",""
"","","","","","image-keyboard-response","36","98961","0.0-2.0-5.0-1.7","614f39b82ccdbdd51c76cc50","E1","batch5","","1965.2000000476837","stim/no_33_1_b.png","j","pattern_response","true","j","pattern_15","1965.2000000476837","true","7","","","","","","","","","","","","","","","","","","",""
"","","","","","html-keyboard-response","37","100285","0.0-2.0-5.0-0.8","614f39b82ccdbdd51c76cc50","E1","batch5","","null","<p class=block-text>Trial 9 out of 78</p>","null","pattern_show_trial_num","","","","","","","","","","","","","","","","","","","","","","","","",""
"","","","","","image-keyboard-response","38","101074","0.0-2.0-5.0-1.8","614f39b82ccdbdd51c76cc50","E1","batch5","","785","stim/yes_70_ver_b1.png","f","pattern_response","true","f","pattern_80","785","true","8","","","","","","","","","","","","","","","","","","",""
"","","","","","html-keyboard-response","39","102391","0.0-2.0-5.0-0.9","614f39b82ccdbdd51c76cc50","E1","batch5","","null","<p class=block-text>Trial 10 out of 78</p>","null","pattern_show_trial_num","","","","","","","","","","","","","","","","","","","","","","","","",""
"","","","","","image-keyboard-response","40","103641","0.0-2.0-5.0-1.9","614f39b82ccdbdd51c76cc50","E1","batch5","","1245.7000000476837","stim/yes_37_hor_w1_w.png","f","pattern_response","true","f","pattern_60","1245.7000000476837","true","9","","","","","","","","","","","","","","","","","","",""
"","","","","","html-keyboard-response","41","104958","0.0-2.0-5.0-0.10","614f39b82ccdbdd51c76cc50","E1","batch5","","null","<p class=block-text>Trial 11 out of 78</p>","null","pattern_show_trial_num","","","","","","","","","","","","","","","","","","","","","","","","",""
"","","","","","image-keyboard-response","42","105937","0.0-2.0-5.0-1.10","614f39b82ccdbdd51c76cc50","E1","batch5","","973.7999999523163","stim/yes_26_dia_w2_w.png","f","pattern_response","true","f","pattern_50","973.7999999523163","true","10","","","","","","","","","","","","","","","","","","",""
"","","","","","html-keyboard-response","43","107258","0.0-2.0-5.0-0.11","614f39b82ccdbdd51c76cc50","E1","batch5","","null","<p class=block-text>Trial 12 out of 78</p>","null","pattern_show_trial_num","","","","","","","","","","","","","","","","","","","","","","","","",""
"","","","","","image-keyboard-response","44","108760","0.0-2.0-5.0-1.11","614f39b82ccdbdd51c76cc50","E1","batch5","","1497.7999999523163","stim/yes_23_ver_b1.png","f","pattern_response","true","f","pattern_48","1497.7999999523163","true","11","","","","","","","","","","","","","","","","","","",""
"","","","","","html-keyboard-response","45","110075","0.0-2.0-5.0-0.12","614f39b82ccdbdd51c76cc50","E1","batch5","","null","<p class=block-text>Trial 13 out of 78</p>","null","pattern_show_trial_num","","","","","","","","","","","","","","","","","","","","","","","","",""
"","","","","","image-keyboard-response","46","111177","0.0-2.0-5.0-1.12","614f39b82ccdbdd51c76cc50","E1","batch5","","1098.7000000476837","stim/no_22_1_b.png","j","pattern_response","true","j","pattern_07","1098.7000000476837","true","12","","","","","","","","","","","","","","","","","","",""
"","","","","","html-keyboard-response","47","112491","0.0-2.0-5.0-0.13","614f39b82ccdbdd51c76cc50","E1","batch5","","null","<p class=block-text>Trial 14 out of 78</p>","null","pattern_show_trial_num","","","","","","","","","","","","","","","","","","","","","","","","",""
"","","","","","image-keyboard-response","48","115103","0.0-2.0-5.0-1.13","614f39b82ccdbdd51c76cc50","E1","batch5","","2607.7999999523163","stim/yes_42_dia_w1_w.png","f","pattern_response","true","f","pattern_64","2607.7999999523163","true","13","","","","","","","","","","","","","","","","","","",""
"","","","","","html-keyboard-response","49","116425","0.0-2.0-5.0-0.14","614f39b82ccdbdd51c76cc50","E1","batch5","","null","<p class=block-text>Trial 15 out of 78</p>","null","pattern_show_trial_num","","","","","","","","","","","","","","","","","","","","","","","","",""
"","","","","","image-keyboard-response","50","120287","0.0-2.0-5.0-1.14","614f39b82ccdbdd51c76cc50","E1","batch5","","3856.9000000953674","stim/no_67_1.png","j","pattern_response","true","j","pattern_39","3856.9000000953674","true","14","","","","","","","","","","","","","","","","","","",""
"","","","","","html-keyboard-response","51","121608","0.0-2.0-5.0-0.15","614f39b82ccdbdd51c76cc50","E1","batch5","","null","<p class=block-text>Trial 16 out of 78</p>","null","pattern_show_trial_num","","","","","","","","","","","","","","","","","","","","","","","","",""
"","","","","","image-keyboard-response","52","122552","0.0-2.0-5.0-1.15","614f39b82ccdbdd51c76cc50","E1","batch5","","938.5999999046326","stim/no_18_1_b.png","j","pattern_response","true","j","pattern_05","938.5999999046326","true","15","","","","","","","","","","","","","","","","","","",""
"","","","","","html-keyboard-response","53","123875","0.0-2.0-5.0-0.16","614f39b82ccdbdd51c76cc50","E1","batch5","","null","<p class=block-text>Trial 17 out of 78</p>","null","pattern_show_trial_num","","","","","","","","","","","","","","","","","","","","","","","","",""
"","","","","","image-keyboard-response","54","124919","0.0-2.0-5.0-1.16","614f39b82ccdbdd51c76cc50","E1","batch5","","1039.1000001430511","stim/yes_30_ver_b1_b.png","j","pattern_response","false","f","pattern_54","1039.1000001430511","false","15","","","","","","","","","","","","","","","","","","",""
"","","","","","html-keyboard-response","55","126241","0.0-2.0-5.0-0.17","614f39b82ccdbdd51c76cc50","E1","batch5","","null","<p class=block-text>Trial 18 out of 78</p>","null","pattern_show_trial_num","","","","","","","","","","","","","","","","","","","","","","","","",""
"","","","","","image-keyboard-response","56","128950","0.0-2.0-5.0-1.17","614f39b82ccdbdd51c76cc50","E1","batch5","","2704.5","stim/no_39_1_w.png","j","pattern_response","true","j","pattern_21","2704.5","true","16","","","","","","","","","","","","","","","","","","",""
"","","","","","html-keyboard-response","57","130270","0.0-2.0-5.0-0.18","614f39b82ccdbdd51c76cc50","E1","batch5","","null","<p class=block-text>Trial 19 out of 78</p>","null","pattern_show_trial_num","","","","","","","","","","","","","","","","","","","","","","","","",""
"","","","","","image-keyboard-response","58","134294","0.0-2.0-5.0-1.18","614f39b82ccdbdd51c76cc50","E1","batch5","","4019.2000000476837","stim/yes_58_dia_w1_w.png","j","pattern_response","false","f","pattern_76","4019.2000000476837","false","16","","","","","","","","","","","","","","","","","","",""
"","","","","","html-keyboard-response","59","135608","0.0-2.0-5.0-0.19","614f39b82ccdbdd51c76cc50","E1","batch5","","null","<p class=block-text>Trial 20 out of 78</p>","null","pattern_show_trial_num","","","","","","","","","","","","","","","","","","","","","","","","",""
"","","","","","image-keyboard-response","60","136445","0.0-2.0-5.0-1.19","614f39b82ccdbdd51c76cc50","E1","batch5","","831.8999998569489","stim/no_15_1_w.png","j","pattern_response","true","j","pattern_03","831.8999998569489","true","17","","","","","","","","","","","","","","","","","","",""
"","","","","","html-keyboard-response","61","137774","0.0-2.0-5.0-0.20","614f39b82ccdbdd51c76cc50","E1","batch5","","null","<p class=block-text>Trial 21 out of 78</p>","null","pattern_show_trial_num","","","","","","","","","","","","","","","","","","","","","","","","",""
"","","","","","image-keyboard-response","62","139421","0.0-2.0-5.0-1.20","614f39b82ccdbdd51c76cc50","E1","batch5","","1642.8999998569489","stim/no_25_1_b.png","j","pattern_response","true","j","pattern_09","1642.8999998569489","true","18","","","","","","","","","","","","","","","","","","",""
"","","","","","html-keyboard-response","63","140742","0.0-2.0-5.0-0.21","614f39b82ccdbdd51c76cc50","E1","batch5","","null","<p class=block-text>Trial 22 out of 78</p>","null","pattern_show_trial_num","","","","","","","","","","","","","","","","","","","","","","","","",""
"","","","","","image-keyboard-response","64","142748","0.0-2.0-5.0-1.21","614f39b82ccdbdd51c76cc50","E1","batch5","","2001.8999998569489","stim/yes_51_dia_b1.png","f","pattern_response","true","f","pattern_72","2001.8999998569489","true","19","","","","","","","","","","","","","","","","","","",""
"","","","","","html-keyboard-response","65","144075","0.0-2.0-5.0-0.22","614f39b82ccdbdd51c76cc50","E1","batch5","","null","<p class=block-text>Trial 23 out of 78</p>","null","pattern_show_trial_num","","","","","","","","","","","","","","","","","","","","","","","","",""
"","","","","","image-keyboard-response","66","146555","0.0-2.0-5.0-1.22","614f39b82ccdbdd51c76cc50","E1","batch5","","2477.2999999523163","stim/no_36_1_b.png","j","pattern_response","true","j","pattern_17","2477.2999999523163","true","20","","","","","","","","","","","","","","","","","","",""
"","","","","","html-keyboard-response","67","147876","0.0-2.0-5.0-0.23","614f39b82ccdbdd51c76cc50","E1","batch5","","null","<p class=block-text>Trial 24 out of 78</p>","null","pattern_show_trial_num","","","","","","","","","","","","","","","","","","","","","","","","",""
"","","","","","image-keyboard-response","68","151154","0.0-2.0-5.0-1.23","614f39b82ccdbdd51c76cc50","E1","batch5","","3274.5","stim/no_37_2_w.png","j","pattern_response","true","j","pattern_19","3274.5","true","21","","","","","","","","","","","","","","","","","","",""
"","","","","","html-keyboard-response","69","152467","0.0-2.0-5.0-0.24","614f39b82ccdbdd51c76cc50","E1","batch5","","null","<p class=block-text>Trial 25 out of 78</p>","null","pattern_show_trial_num","","","","","","","","","","","","","","","","","","","","","","","","",""
"","","","","","image-keyboard-response","70","153241","0.0-2.0-5.0-1.24","614f39b82ccdbdd51c76cc50","E1","batch5","","771.4000000953674","stim/yes_12_hor_w1_w.png","f","pattern_response","true","f","pattern_42","771.4000000953674","true","22","","","","","","","","","","","","","","","","","","",""
"","","","","","html-keyboard-response","71","154558","0.0-2.0-5.0-0.25","614f39b82ccdbdd51c76cc50","E1","batch5","","null","<p class=block-text>Trial 26 out of 78</p>","null","pattern_show_trial_num","","","","","","","","","","","","","","","","","","","","","","","","",""
"","","","","","image-keyboard-response","72","159075","0.0-2.0-5.0-1.25","614f39b82ccdbdd51c76cc50","E1","batch5","","4514.5","stim/no_47_1_b.png","j","pattern_response","true","j","pattern_27","4514.5","true","23","","","","","","","","","","","","","","","","","","",""
"","","","","","html-keyboard-response","73","160392","0.0-2.0-5.0-0.26","614f39b82ccdbdd51c76cc50","E1","batch5","","null","<p class=block-text>Trial 27 out of 78</p>","null","pattern_show_trial_num","","","","","","","","","","","","","","","","","","","","","","","","",""
"","","","","","image-keyboard-response","74","161353","0.0-2.0-5.0-1.26","614f39b82ccdbdd51c76cc50","E1","batch5","","956.2999999523163","stim/yes_39_hor_w1_w.png","f","pattern_response","true","f","pattern_62","956.2999999523163","true","24","","","","","","","","","","","","","","","","","","",""
"","","","","","html-keyboard-response","75","162676","0.0-2.0-5.0-0.27","614f39b82ccdbdd51c76cc50","E1","batch5","","null","<p class=block-text>Trial 28 out of 78</p>","null","pattern_show_trial_num","","","","","","","","","","","","","","","","","","","","","","","","",""
"","","","","","image-keyboard-response","76","165561","0.0-2.0-5.0-1.27","614f39b82ccdbdd51c76cc50","E1","batch5","","2880.9000000953674","stim/no_45_1_w.png","j","pattern_response","true","j","pattern_25","2880.9000000953674","true","25","","","","","","","","","","","","","","","","","","",""
"","","","","","html-keyboard-response","77","166875","0.0-2.0-5.0-0.28","614f39b82ccdbdd51c76cc50","E1","batch5","","null","<p class=block-text>Trial 29 out of 78</p>","null","pattern_show_trial_num","","","","","","","","","","","","","","","","","","","","","","","","",""
"","","","","","image-keyboard-response","78","170577","0.0-2.0-5.0-1.28","614f39b82ccdbdd51c76cc50","E1","batch5","","3697.0999999046326","stim/no_43_2_b.png","j","pattern_response","true","j","pattern_23","3697.0999999046326","true","26","","","","","","","","","","","","","","","","","","",""
"","","","","","html-keyboard-response","79","171892","0.0-2.0-5.0-0.29","614f39b82ccdbdd51c76cc50","E1","batch5","","null","<p class=block-text>Trial 30 out of 78</p>","null","pattern_show_trial_num","","","","","","","","","","","","","","","","","","","","","","","","",""
"","","","","","image-keyboard-response","80","174848","0.0-2.0-5.0-1.29","614f39b82ccdbdd51c76cc50","E1","batch5","","2951.2999999523163","stim/no_53_1_b.png","j","pattern_response","true","j","pattern_33","2951.2999999523163","true","27","","","","","","","","","","","","","","","","","","",""
"","","","","","html-keyboard-response","81","176157","0.0-2.0-5.0-0.30","614f39b82ccdbdd51c76cc50","E1","batch5","","null","<p class=block-text>Trial 31 out of 78</p>","null","pattern_show_trial_num","","","","","","","","","","","","","","","","","","","","","","","","",""
"","","","","","image-keyboard-response","82","176864","0.0-2.0-5.0-1.30","614f39b82ccdbdd51c76cc50","E1","batch5","","701.9000000953674","stim/yes_15_dia_b1u_b.png","f","pattern_response","true","f","pattern_44","701.9000000953674","true","28","","","","","","","","","","","","","","","","","","",""
"","","","","","html-keyboard-response","83","178192","0.0-2.0-5.0-0.31","614f39b82ccdbdd51c76cc50","E1","batch5","","null","<p class=block-text>Trial 32 out of 78</p>","null","pattern_show_trial_num","","","","","","","","","","","","","","","","","","","","","","","","",""
"","","","","","image-keyboard-response","84","183776","0.0-2.0-5.0-1.31","614f39b82ccdbdd51c76cc50","E1","batch5","","5579.5","stim/yes_44_ver_w1_w.png","j","pattern_response","false","f","pattern_66","5579.5","false","28","","","","","","","","","","","","","","","","","","",""
"","","","","","html-keyboard-response","85","185092","0.0-2.0-5.0-0.32","614f39b82ccdbdd51c76cc50","E1","batch5","","null","<p class=block-text>Trial 33 out of 78</p>","null","pattern_show_trial_num","","","","","","","","","","","","","","","","","","","","","","","","",""
"","","","","","image-keyboard-response","86","186118","0.0-2.0-5.0-1.32","614f39b82ccdbdd51c76cc50","E1","batch5","","1021.7000000476837","stim/yes_29_hor_b1_b.png","f","pattern_response","true","f","pattern_52","1021.7000000476837","true","29","","","","","","","","","","","","","","","","","","",""
"","","","","","html-keyboard-response","87","187441","0.0-2.0-5.0-0.33","614f39b82ccdbdd51c76cc50","E1","batch5","","null","<p class=block-text>Trial 34 out of 78</p>","null","pattern_show_trial_num","","","","","","","","","","","","","","","","","","","","","","","","",""
"","","","","","image-keyboard-response","88","189854","0.0-2.0-5.0-1.33","614f39b82ccdbdd51c76cc50","E1","batch5","","2407.7999999523163","stim/no_30_1_b.png","j","pattern_response","true","j","pattern_13","2407.7999999523163","true","30","","","","","","","","","","","","","","","","","","",""
"","","","","","html-keyboard-response","89","191175","0.0-2.0-5.0-0.34","614f39b82ccdbdd51c76cc50","E1","batch5","","null","<p class=block-text>Trial 35 out of 78</p>","null","pattern_show_trial_num","","","","","","","","","","","","","","","","","","","","","","","","",""
"","","","","","image-keyboard-response","90","194478","0.0-2.0-5.0-1.34","614f39b82ccdbdd51c76cc50","E1","batch5","","3299.0999999046326","stim/no_58_1_w.png","j","pattern_response","true","j","pattern_35","3299.0999999046326","true","31","","","","","","","","","","","","","","","","","","",""
"","","","","","html-keyboard-response","91","195808","0.0-2.0-5.0-0.35","614f39b82ccdbdd51c76cc50","E1","batch5","","null","<p class=block-text>Trial 36 out of 78</p>","null","pattern_show_trial_num","","","","","","","","","","","","","","","","","","","","","","","","",""
"","","","","","image-keyboard-response","92","198676","0.0-2.0-5.0-1.35","614f39b82ccdbdd51c76cc50","E1","batch5","","2863.5999999046326","stim/yes_46_ver_b1_b.png","j","pattern_response","false","f","pattern_68","2863.5999999046326","false","31","","","","","","","","","","","","","","","","","","",""
"","","","","","html-keyboard-response","93","199992","0.0-2.0-5.0-0.36","614f39b82ccdbdd51c76cc50","E1","batch5","","null","<p class=block-text>Trial 37 out of 78</p>","null","pattern_show_trial_num","","","","","","","","","","","","","","","","","","","","","","","","",""
"","","","","","image-keyboard-response","94","201387","0.0-2.0-5.0-1.36","614f39b82ccdbdd51c76cc50","E1","batch5","","1390.9000000953674","stim/yes_33_dia_w1_w.png","f","pattern_response","true","f","pattern_56","1390.9000000953674","true","32","","","","","","","","","","","","","","","","","","",""
"","","","","","html-keyboard-response","95","202708","0.0-2.0-5.0-0.37","614f39b82ccdbdd51c76cc50","E1","batch5","","null","<p class=block-text>Trial 38 out of 78</p>","null","pattern_show_trial_num","","","","","","","","","","","","","","","","","","","","","","","","",""
"","","","","","image-keyboard-response","96","205749","0.0-2.0-5.0-1.37","614f39b82ccdbdd51c76cc50","E1","batch5","","3036.699999809265","stim/no_49_2_b.png","j","pattern_response","true","j","pattern_29","3036.699999809265","true","33","","","","","","","","","","","","","","","","","","",""
"","","","","","html-keyboard-response","97","207075","0.0-2.0-5.0-0.38","614f39b82ccdbdd51c76cc50","E1","batch5","","null","<p class=block-text>Trial 39 out of 78</p>","null","pattern_show_trial_num","","","","","","","","","","","","","","","","","","","","","","","","",""
"","","","","","image-keyboard-response","98","209627","0.0-2.0-5.0-1.38","614f39b82ccdbdd51c76cc50","E1","batch5","","2548.5","stim/no_51_1.png","f","pattern_response","false","j","pattern_31","2548.5","false","33","","","","","","","","","","","","","","","","","","",""
"","","","","","image-keyboard-response","99","212027","0.0-2.0-6.0","614f39b82ccdbdd51c76cc50","E1","batch5","","1893.7000000476837","stim/empty_board.png","j","attention_check","true","j","","","","","500","[""f"",""j""]","","","","","","","","","","","","","","","","",""
"","","","","","html-keyboard-response","100","212842","0.0-2.0-7.0-0.0","614f39b82ccdbdd51c76cc50","E1","batch5","","null","<p class=block-text>Trial 40 out of 78</p>","null","pattern_show_trial_num","","","","","","","","","","","","","","","","","","","","","","","","",""
"","","","","","image-keyboard-response","101","218723","0.0-2.0-7.0-1.0","614f39b82ccdbdd51c76cc50","E1","batch5","","5876.700000047684","stim/no_50_1.png","j","pattern_response","true","j","pattern_30","5876.700000047684","true","34","","","","","","","","","","","","","","","","","","",""
"","","","","","html-keyboard-response","102","220042","0.0-2.0-7.0-0.1","614f39b82ccdbdd51c76cc50","E1","batch5","","null","<p class=block-text>Trial 41 out of 78</p>","null","pattern_show_trial_num","","","","","","","","","","","","","","","","","","","","","","","","",""
"","","","","","image-keyboard-response","103","222209","0.0-2.0-7.0-1.1","614f39b82ccdbdd51c76cc50","E1","batch5","","2163.2999999523163","stim/no_32_1_w.png","j","pattern_response","true","j","pattern_14","2163.2999999523163","true","35","","","","","","","","","","","","","","","","","","",""
"","","","","","html-keyboard-response","104","223525","0.0-2.0-7.0-0.2","614f39b82ccdbdd51c76cc50","E1","batch5","","null","<p class=block-text>Trial 42 out of 78</p>","null","pattern_show_trial_num","","","","","","","","","","","","","","","","","","","","","","","","",""
"","","","","","image-keyboard-response","105","225577","0.0-2.0-7.0-1.2","614f39b82ccdbdd51c76cc50","E1","batch5","","2047.7000000476837","stim/yes_43_ver_w1_w.png","f","pattern_response","true","f","pattern_65","2047.7000000476837","true","36","","","","","","","","","","","","","","","","","","",""
"","","","","","html-keyboard-response","106","226892","0.0-2.0-7.0-0.3","614f39b82ccdbdd51c76cc50","E1","batch5","","null","<p class=block-text>Trial 43 out of 78</p>","null","pattern_show_trial_num","","","","","","","","","","","","","","","","","","","","","","","","",""
"","","","","","image-keyboard-response","107","232713","0.0-2.0-7.0-1.3","614f39b82ccdbdd51c76cc50","E1","batch5","","5816.400000095367","stim/no_70_2.png","j","pattern_response","true","j","pattern_40","5816.400000095367","true","37","","","","","","","","","","","","","","","","","","",""
"","","","","","html-keyboard-response","108","234042","0.0-2.0-7.0-0.4","614f39b82ccdbdd51c76cc50","E1","batch5","","null","<p class=block-text>Trial 44 out of 78</p>","null","pattern_show_trial_num","","","","","","","","","","","","","","","","","","","","","","","","",""
"","","","","","image-keyboard-response","109","238319","0.0-2.0-7.0-1.4","614f39b82ccdbdd51c76cc50","E1","batch5","","4273.299999952316","stim/no_42_1_w.png","j","pattern_response","true","j","pattern_22","4273.299999952316","true","38","","","","","","","","","","","","","","","","","","",""
"","","","","","html-keyboard-response","110","239642","0.0-2.0-7.0-0.5","614f39b82ccdbdd51c76cc50","E1","batch5","","null","<p class=block-text>Trial 45 out of 78</p>","null","pattern_show_trial_num","","","","","","","","","","","","","","","","","","","","","","","","",""
"","","","","","image-keyboard-response","111","241606","0.0-2.0-7.0-1.5","614f39b82ccdbdd51c76cc50","E1","batch5","","1959.5999999046326","stim/no_23_1.png","f","pattern_response","false","j","pattern_08","1959.5999999046326","false","38","","","","","","","","","","","","","","","","","","",""
"","","","","","html-keyboard-response","112","242926","0.0-2.0-7.0-0.6","614f39b82ccdbdd51c76cc50","E1","batch5","","null","<p class=block-text>Trial 46 out of 78</p>","null","pattern_show_trial_num","","","","","","","","","","","","","","","","","","","","","","","","",""
"","","","","","image-keyboard-response","113","244047","0.0-2.0-7.0-1.6","614f39b82ccdbdd51c76cc50","E1","batch5","","1117.7999999523163","stim/yes_45_hor_b2_b.png","f","pattern_response","true","f","pattern_67","1117.7999999523163","true","39","","","","","","","","","","","","","","","","","","",""
"","","","","","html-keyboard-response","114","245375","0.0-2.0-7.0-0.7","614f39b82ccdbdd51c76cc50","E1","batch5","","null","<p class=block-text>Trial 47 out of 78</p>","null","pattern_show_trial_num","","","","","","","","","","","","","","","","","","","","","","","","",""
"","","","","","image-keyboard-response","115","248214","0.0-2.0-7.0-1.7","614f39b82ccdbdd51c76cc50","E1","batch5","","2834.7000000476837","stim/no_34_1_b.png","j","pattern_response","true","j","pattern_16","2834.7000000476837","true","40","","","","","","","","","","","","","","","","","","",""
"","","","","","html-keyboard-response","116","249541","0.0-2.0-7.0-0.8","614f39b82ccdbdd51c76cc50","E1","batch5","","null","<p class=block-text>Trial 48 out of 78</p>","null","pattern_show_trial_num","","","","","","","","","","","","","","","","","","","","","","","","",""
"","","","","","image-keyboard-response","117","252117","0.0-2.0-7.0-1.8","614f39b82ccdbdd51c76cc50","E1","batch5","","2570.899999856949","stim/yes_38_hor_b1_b.png","f","pattern_response","true","f","pattern_61","2570.899999856949","true","41","","","","","","","","","","","","","","","","","","",""
"","","","","","html-keyboard-response","118","253445","0.0-2.0-7.0-0.9","614f39b82ccdbdd51c76cc50","E1","batch5","","null","<p class=block-text>Trial 49 out of 78</p>","null","pattern_show_trial_num","","","","","","","","","","","","","","","","","","","","","","","","",""
"","","","","","image-keyboard-response","119","257078","0.0-2.0-7.0-1.9","614f39b82ccdbdd51c76cc50","E1","batch5","","3628.800000190735","stim/no_48_1_w.png","j","pattern_response","true","j","pattern_28","3628.800000190735","true","42","","","","","","","","","","","","","","","","","","",""
"","","","","","html-keyboard-response","120","258391","0.0-2.0-7.0-0.10","614f39b82ccdbdd51c76cc50","E1","batch5","","null","<p class=block-text>Trial 50 out of 78</p>","null","pattern_show_trial_num","","","","","","","","","","","","","","","","","","","","","","","","",""
"","","","","","image-keyboard-response","121","262196","0.0-2.0-7.0-1.10","614f39b82ccdbdd51c76cc50","E1","batch5","","3800.100000143051","stim/yes_40_dia_b1_b.png","j","pattern_response","false","f","pattern_63","3800.100000143051","false","42","","","","","","","","","","","","","","","","","","",""
"","","","","","html-keyboard-response","122","263525","0.0-2.0-7.0-0.11","614f39b82ccdbdd51c76cc50","E1","batch5","","null","<p class=block-text>Trial 51 out of 78</p>","null","pattern_show_trial_num","","","","","","","","","","","","","","","","","","","","","","","","",""
"","","","","","image-keyboard-response","123","265156","0.0-2.0-7.0-1.11","614f39b82ccdbdd51c76cc50","E1","batch5","","1625.6000001430511","stim/yes_37_dia_w1.png","f","pattern_response","true","f","pattern_59","1625.6000001430511","true","43","","","","","","","","","","","","","","","","","","",""
"","","","","","html-keyboard-response","124","266475","0.0-2.0-7.0-0.12","614f39b82ccdbdd51c76cc50","E1","batch5","","null","<p class=block-text>Trial 52 out of 78</p>","null","pattern_show_trial_num","","","","","","","","","","","","","","","","","","","","","","","","",""
"","","","","","image-keyboard-response","125","272259","0.0-2.0-7.0-1.12","614f39b82ccdbdd51c76cc50","E1","batch5","","5780.399999856949","stim/no_65_1_b.png","j","pattern_response","true","j","pattern_38","5780.399999856949","true","44","","","","","","","","","","","","","","","","","","",""
"","","","","","html-keyboard-response","126","273567","0.0-2.0-7.0-0.13","614f39b82ccdbdd51c76cc50","E1","batch5","","null","<p class=block-text>Trial 53 out of 78</p>","null","pattern_show_trial_num","","","","","","","","","","","","","","","","","","","","","","","","",""
"","","","","","image-keyboard-response","127","279897","0.0-2.0-7.0-1.13","614f39b82ccdbdd51c76cc50","E1","batch5","","6325.400000095367","stim/yes_50_dia_w1.png","j","pattern_response","false","f","pattern_71","6325.400000095367","false","44","","","","","","","","","","","","","","","","","","",""
"","","","","","html-keyboard-response","128","281225","0.0-2.0-7.0-0.14","614f39b82ccdbdd51c76cc50","E1","batch5","","null","<p class=block-text>Trial 54 out of 78</p>","null","pattern_show_trial_num","","","","","","","","","","","","","","","","","","","","","","","","",""
"","","","","","image-keyboard-response","129","287130","0.0-2.0-7.0-1.14","614f39b82ccdbdd51c76cc50","E1","batch5","","5900.299999952316","stim/no_55_1_w.png","j","pattern_response","true","j","pattern_34","5900.299999952316","true","45","","","","","","","","","","","","","","","","","","",""
"","","","","","html-keyboard-response","130","288459","0.0-2.0-7.0-0.15","614f39b82ccdbdd51c76cc50","E1","batch5","","null","<p class=block-text>Trial 55 out of 78</p>","null","pattern_show_trial_num","","","","","","","","","","","","","","","","","","","","","","","","",""
"","","","","","image-keyboard-response","131","289400","0.0-2.0-7.0-1.15","614f39b82ccdbdd51c76cc50","E1","batch5","","937","stim/yes_28_ver_b1.png","f","pattern_response","true","f","pattern_51","937","true","46","","","","","","","","","","","","","","","","","","",""
"","","","","","html-keyboard-response","132","290725","0.0-2.0-7.0-0.16","614f39b82ccdbdd51c76cc50","E1","batch5","","null","<p class=block-text>Trial 56 out of 78</p>","null","pattern_show_trial_num","","","","","","","","","","","","","","","","","","","","","","","","",""
"","","","","","image-keyboard-response","133","292360","0.0-2.0-7.0-1.16","614f39b82ccdbdd51c76cc50","E1","batch5","","1631.0999999046326","stim/no_17_1_w.png","j","pattern_response","true","j","pattern_04","1631.0999999046326","true","47","","","","","","","","","","","","","","","","","","",""
"","","","","","html-keyboard-response","134","293676","0.0-2.0-7.0-0.17","614f39b82ccdbdd51c76cc50","E1","batch5","","null","<p class=block-text>Trial 57 out of 78</p>","null","pattern_show_trial_num","","","","","","","","","","","","","","","","","","","","","","","","",""
"","","","","","image-keyboard-response","135","295616","0.0-2.0-7.0-1.17","614f39b82ccdbdd51c76cc50","E1","batch5","","1934.5999999046326","stim/yes_29_ver_w1.png","f","pattern_response","true","f","pattern_53","1934.5999999046326","true","48","","","","","","","","","","","","","","","","","","",""
"","","","","","html-keyboard-response","136","296942","0.0-2.0-7.0-0.18","614f39b82ccdbdd51c76cc50","E1","batch5","","null","<p class=block-text>Trial 58 out of 78</p>","null","pattern_show_trial_num","","","","","","","","","","","","","","","","","","","","","","","","",""
"","","","","","image-keyboard-response","137","298896","0.0-2.0-7.0-1.18","614f39b82ccdbdd51c76cc50","E1","batch5","","1950","stim/no_29_1_b.png","j","pattern_response","true","j","pattern_12","1950","true","49","","","","","","","","","","","","","","","","","","",""
"","","","","","html-keyboard-response","138","300225","0.0-2.0-7.0-0.19","614f39b82ccdbdd51c76cc50","E1","batch5","","null","<p class=block-text>Trial 59 out of 78</p>","null","pattern_show_trial_num","","","","","","","","","","","","","","","","","","","","","","","","",""
"","","","","","image-keyboard-response","139","304606","0.0-2.0-7.0-1.19","614f39b82ccdbdd51c76cc50","E1","batch5","","4376.799999952316","stim/no_36_2_w.png","j","pattern_response","true","j","pattern_18","4376.799999952316","true","50","","","","","","","","","","","","","","","","","","",""
"","","","","","html-keyboard-response","140","305925","0.0-2.0-7.0-0.20","614f39b82ccdbdd51c76cc50","E1","batch5","","null","<p class=block-text>Trial 60 out of 78</p>","null","pattern_show_trial_num","","","","","","","","","","","","","","","","","","","","","","","","",""
"","","","","","image-keyboard-response","141","311215","0.0-2.0-7.0-1.20","614f39b82ccdbdd51c76cc50","E1","batch5","","5284.299999952316","stim/no_38_1_b.png","j","pattern_response","true","j","pattern_20","5284.299999952316","true","51","","","","","","","","","","","","","","","","","","",""
"","","","","","html-keyboard-response","142","312541","0.0-2.0-7.0-0.21","614f39b82ccdbdd51c76cc50","E1","batch5","","null","<p class=block-text>Trial 61 out of 78</p>","null","pattern_show_trial_num","","","","","","","","","","","","","","","","","","","","","","","","",""
"","","","","","image-keyboard-response","143","314229","0.0-2.0-7.0-1.21","614f39b82ccdbdd51c76cc50","E1","batch5","","1683.5","stim/no_26_1_w.png","j","pattern_response","true","j","pattern_10","1683.5","true","52","","","","","","","","","","","","","","","","","","",""
"","","","","","html-keyboard-response","144","315558","0.0-2.0-7.0-0.22","614f39b82ccdbdd51c76cc50","E1","batch5","","null","<p class=block-text>Trial 62 out of 78</p>","null","pattern_show_trial_num","","","","","","","","","","","","","","","","","","","","","","","","",""
"","","","","","image-keyboard-response","145","318413","0.0-2.0-7.0-1.22","614f39b82ccdbdd51c76cc50","E1","batch5","","2849.899999856949","stim/yes_31_hor_b1.png","f","pattern_response","true","f","pattern_55","2849.899999856949","true","53","","","","","","","","","","","","","","","","","","",""
"","","","","","html-keyboard-response","146","319743","0.0-2.0-7.0-0.23","614f39b82ccdbdd51c76cc50","E1","batch5","","null","<p class=block-text>Trial 63 out of 78</p>","null","pattern_show_trial_num","","","","","","","","","","","","","","","","","","","","","","","","",""
"","","","","","image-keyboard-response","147","321629","0.0-2.0-7.0-1.23","614f39b82ccdbdd51c76cc50","E1","batch5","","1883","stim/no_13_2_b.png","j","pattern_response","true","j","pattern_02","1883","true","54","","","","","","","","","","","","","","","","","","",""
"","","","","","html-keyboard-response","148","322958","0.0-2.0-7.0-0.24","614f39b82ccdbdd51c76cc50","E1","batch5","","null","<p class=block-text>Trial 64 out of 78</p>","null","pattern_show_trial_num","","","","","","","","","","","","","","","","","","","","","","","","",""
"","","","","","image-keyboard-response","149","324236","0.0-2.0-7.0-1.24","614f39b82ccdbdd51c76cc50","E1","batch5","","1273.0999999046326","stim/yes_17_dia_w1.png","f","pattern_response","true","f","pattern_45","1273.0999999046326","true","55","","","","","","","","","","","","","","","","","","",""
"","","","","","html-keyboard-response","150","325552","0.0-2.0-7.0-0.25","614f39b82ccdbdd51c76cc50","E1","batch5","","null","<p class=block-text>Trial 65 out of 78</p>","null","pattern_show_trial_num","","","","","","","","","","","","","","","","","","","","","","","","",""
"","","","","","image-keyboard-response","151","328259","0.0-2.0-7.0-1.25","614f39b82ccdbdd51c76cc50","E1","batch5","","2703.4000000953674","stim/no_20_1_w.png","j","pattern_response","true","j","pattern_06","2703.4000000953674","true","56","","","","","","","","","","","","","","","","","","",""
"","","","","","html-keyboard-response","152","329575","0.0-2.0-7.0-0.26","614f39b82ccdbdd51c76cc50","E1","batch5","","null","<p class=block-text>Trial 66 out of 78</p>","null","pattern_show_trial_num","","","","","","","","","","","","","","","","","","","","","","","","",""
"","","","","","image-keyboard-response","153","330483","0.0-2.0-7.0-1.26","614f39b82ccdbdd51c76cc50","E1","batch5","","902.7999999523163","stim/yes_55_hor_w1_w.png","f","pattern_response","true","f","pattern_75","902.7999999523163","true","57","","","","","","","","","","","","","","","","","","",""
"","","","","","html-keyboard-response","154","331809","0.0-2.0-7.0-0.27","614f39b82ccdbdd51c76cc50","E1","batch5","","null","<p class=block-text>Trial 67 out of 78</p>","null","pattern_show_trial_num","","","","","","","","","","","","","","","","","","","","","","","","",""
"","","","","","image-keyboard-response","155","337971","0.0-2.0-7.0-1.27","614f39b82ccdbdd51c76cc50","E1","batch5","","6157.400000095367","stim/no_62_1_w.png","j","pattern_response","true","j","pattern_36","6157.400000095367","true","58","","","","","","","","","","","","","","","","","","",""
"","","","","","html-keyboard-response","156","339291","0.0-2.0-7.0-0.28","614f39b82ccdbdd51c76cc50","E1","batch5","","null","<p class=block-text>Trial 68 out of 78</p>","null","pattern_show_trial_num","","","","","","","","","","","","","","","","","","","","","","","","",""
"","","","","","image-keyboard-response","157","340216","0.0-2.0-7.0-1.28","614f39b82ccdbdd51c76cc50","E1","batch5","","920.7000000476837","stim/yes_25_hor_b1_b.png","f","pattern_response","true","f","pattern_49","920.7000000476837","true","59","","","","","","","","","","","","","","","","","","",""
"","","","","","html-keyboard-response","158","341541","0.0-2.0-7.0-0.29","614f39b82ccdbdd51c76cc50","E1","batch5","","null","<p class=block-text>Trial 69 out of 78</p>","null","pattern_show_trial_num","","","","","","","","","","","","","","","","","","","","","","","","",""
"","","","","","image-keyboard-response","159","346417","0.0-2.0-7.0-1.29","614f39b82ccdbdd51c76cc50","E1","batch5","","4871.299999952316","stim/yes_60_ver_b1_b.png","f","pattern_response","true","f","pattern_77","4871.299999952316","true","60","","","","","","","","","","","","","","","","","","",""
"","","","","","html-keyboard-response","160","347742","0.0-2.0-7.0-0.30","614f39b82ccdbdd51c76cc50","E1","batch5","","null","<p class=block-text>Trial 70 out of 78</p>","null","pattern_show_trial_num","","","","","","","","","","","","","","","","","","","","","","","","",""
"","","","","","image-keyboard-response","161","352953","0.0-2.0-7.0-1.30","614f39b82ccdbdd51c76cc50","E1","batch5","","5206.5","stim/no_44_1.png","j","pattern_response","true","j","pattern_24","5206.5","true","61","","","","","","","","","","","","","","","","","","",""
"","","","","","html-keyboard-response","162","354276","0.0-2.0-7.0-0.31","614f39b82ccdbdd51c76cc50","E1","batch5","","null","<p class=block-text>Trial 71 out of 78</p>","null","pattern_show_trial_num","","","","","","","","","","","","","","","","","","","","","","","","",""
"","","","","","image-keyboard-response","163","358983","0.0-2.0-7.0-1.31","614f39b82ccdbdd51c76cc50","E1","batch5","","4702.900000095367","stim/no_52_1.png","j","pattern_response","true","j","pattern_32","4702.900000095367","true","62","","","","","","","","","","","","","","","","","","",""
"","","","","","html-keyboard-response","164","360308","0.0-2.0-7.0-0.32","614f39b82ccdbdd51c76cc50","E1","batch5","","null","<p class=block-text>Trial 72 out of 78</p>","null","pattern_show_trial_num","","","","","","","","","","","","","","","","","","","","","","","","",""
"","","","","","image-keyboard-response","165","361887","0.0-2.0-7.0-1.32","614f39b82ccdbdd51c76cc50","E1","batch5","","1574.0999999046326","stim/yes_48_dia_w1_w.png","f","pattern_response","true","f","pattern_69","1574.0999999046326","true","63","","","","","","","","","","","","","","","","","","",""
"","","","","","html-keyboard-response","166","363208","0.0-2.0-7.0-0.33","614f39b82ccdbdd51c76cc50","E1","batch5","","null","<p class=block-text>Trial 73 out of 78</p>","null","pattern_show_trial_num","","","","","","","","","","","","","","","","","","","","","","","","",""
"","","","","","image-keyboard-response","167","364359","0.0-2.0-7.0-1.33","614f39b82ccdbdd51c76cc50","E1","batch5","","1147.4000000953674","stim/yes_35_dia_b1.png","f","pattern_response","true","f","pattern_57","1147.4000000953674","true","64","","","","","","","","","","","","","","","","","","",""
"","","","","","html-keyboard-response","168","365675","0.0-2.0-7.0-0.34","614f39b82ccdbdd51c76cc50","E1","batch5","","null","<p class=block-text>Trial 74 out of 78</p>","null","pattern_show_trial_num","","","","","","","","","","","","","","","","","","","","","","","","",""
"","","","","","image-keyboard-response","169","366477","0.0-2.0-7.0-1.34","614f39b82ccdbdd51c76cc50","E1","batch5","","797.7999999523163","stim/yes_14_hor_b1_w.png","f","pattern_response","true","f","pattern_43","797.7999999523163","true","65","","","","","","","","","","","","","","","","","","",""
"","","","","","html-keyboard-response","170","367791","0.0-2.0-7.0-0.35","614f39b82ccdbdd51c76cc50","E1","batch5","","null","<p class=block-text>Trial 75 out of 78</p>","null","pattern_show_trial_num","","","","","","","","","","","","","","","","","","","","","","","","",""
"","","","","","image-keyboard-response","171","368670","0.0-2.0-7.0-1.35","614f39b82ccdbdd51c76cc50","E1","batch5","","874.2999999523163","stim/yes_67_hor_b1.png","f","pattern_response","true","f","pattern_79","874.2999999523163","true","66","","","","","","","","","","","","","","","","","","",""
"","","","","","html-keyboard-response","172","369986","0.0-2.0-7.0-0.36","614f39b82ccdbdd51c76cc50","E1","batch5","","null","<p class=block-text>Trial 76 out of 78</p>","null","pattern_show_trial_num","","","","","","","","","","","","","","","","","","","","","","","","",""
"","","","","","image-keyboard-response","173","371301","0.0-2.0-7.0-1.36","614f39b82ccdbdd51c76cc50","E1","batch5","","1310.5","stim/yes_52_ver_w1.png","f","pattern_response","true","f","pattern_73","1310.5","true","67","","","","","","","","","","","","","","","","","","",""
"","","","","","html-keyboard-response","174","372625","0.0-2.0-7.0-0.37","614f39b82ccdbdd51c76cc50","E1","batch5","","null","<p class=block-text>Trial 77 out of 78</p>","null","pattern_show_trial_num","","","","","","","","","","","","","","","","","","","","","","","","",""
"","","","","","image-keyboard-response","175","373429","0.0-2.0-7.0-1.37","614f39b82ccdbdd51c76cc50","E1","batch5","","799.5","stim/yes_22_ver_w1.png","f","pattern_response","true","f","pattern_47","799.5","true","68","","","","","","","","","","","","","","","","","","",""
"","","","","","html-keyboard-response","176","374758","0.0-2.0-7.0-0.38","614f39b82ccdbdd51c76cc50","E1","batch5","","null","<p class=block-text>Trial 78 out of 78</p>","null","pattern_show_trial_num","","","","","","","","","","","","","","","","","","","","","","","","",""
"","","","","","image-keyboard-response","177","378853","0.0-2.0-7.0-1.38","614f39b82ccdbdd51c76cc50","E1","batch5","","4091.0999999046326","stim/no_46_1_b.png","j","pattern_response","true","j","pattern_26","4091.0999999046326","true","69","","","","","","","","","","","","","","","","","","",""
"","","","","","html-button-response","178","384485","0.0-2.0-8.0","614f39b82ccdbdd51c76cc50","E1","batch5","","5121.599999904633","<p class = block-text>This concludes the 4-in-a-row detection game.Thank you for your responses!<br>
            You responded correctly on 88% of the trials.<br>
            When you are ready, press ""Continue"" button to continue </p>","0","","","","","","","","","","","","","","","","","","","","","","","","","",""
"true","","","","","fullscreen","179","388662","0.0-3.0-0.0","614f39b82ccdbdd51c76cc50","E1","batch5","","","","","spm_fullscreen","","","","","","","","","","","","","","","","","","","","","","","","",""
"","","","","","html-button-response","180","401192","0.0-3.0-1.0","614f39b82ccdbdd51c76cc50","E1","batch5","","12526.799999952316","<p class = block-text><b>Instructions</b> <br>This is a widely used intelligence test in research. <br>In this test, a figure with a missing piece will be presented.<br>Below the figure are alternative pieces to complete the figure, only one of which is correct.<br> Different figures might involve different principles for obtaining the missing piece<br>Your job is to select the most logical piece to complete the figure.</p>","0","","","","","","","","","","","","","","","","","","","","","","","","","",""
"","","","","","html-keyboard-response","181","402000","0.0-3.0-2.0-0.0","614f39b82ccdbdd51c76cc50","E1","batch5","","null","<p class=block-text>Trial 1 out of 60</p>","null","spm_show_trial_num","","","","","","","","","","","","","","","","","","","","","","","","",""
"","","","","","image-button-response","182","411318","0.0-3.0-2.0-1.0","614f39b82ccdbdd51c76cc50","E1","batch5","","9311","img/question_1_1.jpeg","3","spm_respsonse","1","4","mat_01","","","","","","1","9311","","","","","","","","","","","","","","",""
"","","","","","html-keyboard-response","183","412393","0.0-3.0-2.0-0.1","614f39b82ccdbdd51c76cc50","E1","batch5","","null","<p class=block-text>Trial 2 out of 60</p>","null","spm_show_trial_num","","","","","","","","","","","","","","","","","","","","","","","","",""
"","","","","","image-button-response","184","415121","0.0-3.0-2.0-1.1","614f39b82ccdbdd51c76cc50","E1","batch5","","2723","img/question_1_2.jpeg","4","spm_respsonse","1","5","mat_02","","","","","","1","2723","","","","","","","","","","","","","","",""
"","","","","","html-keyboard-response","185","416192","0.0-3.0-2.0-0.2","614f39b82ccdbdd51c76cc50","E1","batch5","","null","<p class=block-text>Trial 3 out of 60</p>","null","spm_show_trial_num","","","","","","","","","","","","","","","","","","","","","","","","",""
"","","","","","image-button-response","186","419755","0.0-3.0-2.0-1.2","614f39b82ccdbdd51c76cc50","E1","batch5","","3557.7999999523163","img/question_1_3.jpeg","0","spm_respsonse","1","1","mat_03","","","","","","1","3557.7999999523163","","","","","","","","","","","","","","",""
"","","","","","html-keyboard-response","187","420826","0.0-3.0-2.0-0.3","614f39b82ccdbdd51c76cc50","E1","batch5","","null","<p class=block-text>Trial 4 out of 60</p>","null","spm_show_trial_num","","","","","","","","","","","","","","","","","","","","","","","","",""
"","","","","","image-button-response","188","425294","0.0-3.0-2.0-1.3","614f39b82ccdbdd51c76cc50","E1","batch5","","4463.299999952316","img/question_1_4.jpeg","1","spm_respsonse","1","2","mat_04","","","","","","1","4463.299999952316","","","","","","","","","","","","","","",""
"","","","","","html-keyboard-response","189","426357","0.0-3.0-2.0-0.4","614f39b82ccdbdd51c76cc50","E1","batch5","","null","<p class=block-text>Trial 5 out of 60</p>","null","spm_show_trial_num","","","","","","","","","","","","","","","","","","","","","","","","",""
"","","","","","image-button-response","190","431751","0.0-3.0-2.0-1.4","614f39b82ccdbdd51c76cc50","E1","batch5","","5387.799999952316","img/question_1_5.jpeg","5","spm_respsonse","1","6","mat_05","","","","","","1","5387.799999952316","","","","","","","","","","","","","","",""
"","","","","","html-keyboard-response","191","432824","0.0-3.0-2.0-0.5","614f39b82ccdbdd51c76cc50","E1","batch5","","null","<p class=block-text>Trial 6 out of 60</p>","null","spm_show_trial_num","","","","","","","","","","","","","","","","","","","","","","","","",""
"","","","","","image-button-response","192","435612","0.0-3.0-2.0-1.5","614f39b82ccdbdd51c76cc50","E1","batch5","","2783.7000000476837","img/question_1_6.jpeg","2","spm_respsonse","1","3","mat_06","","","","","","1","2783.7000000476837","","","","","","","","","","","","","","",""
"","","","","","html-keyboard-response","193","436691","0.0-3.0-2.0-0.6","614f39b82ccdbdd51c76cc50","E1","batch5","","null","<p class=block-text>Trial 7 out of 60</p>","null","spm_show_trial_num","","","","","","","","","","","","","","","","","","","","","","","","",""
"","","","","","image-button-response","194","442829","0.0-3.0-2.0-1.6","614f39b82ccdbdd51c76cc50","E1","batch5","","6132.300000190735","img/question_1_7.jpeg","5","spm_respsonse","1","6","mat_07","","","","","","1","6132.300000190735","","","","","","","","","","","","","","",""
"","","","","","html-keyboard-response","195","443908","0.0-3.0-2.0-0.7","614f39b82ccdbdd51c76cc50","E1","batch5","","null","<p class=block-text>Trial 8 out of 60</p>","null","spm_show_trial_num","","","","","","","","","","","","","","","","","","","","","","","","",""
"","","","","","image-button-response","196","451220","0.0-3.0-2.0-1.7","614f39b82ccdbdd51c76cc50","E1","batch5","","7306.700000047684","img/question_1_8.jpeg","1","spm_respsonse","1","2","mat_08","","","","","","1","7306.700000047684","","","","","","","","","","","","","","",""
"","","","","","html-keyboard-response","197","452292","0.0-3.0-2.0-0.8","614f39b82ccdbdd51c76cc50","E1","batch5","","null","<p class=block-text>Trial 9 out of 60</p>","null","spm_show_trial_num","","","","","","","","","","","","","","","","","","","","","","","","",""
"","","","","","image-button-response","198","455112","0.0-3.0-2.0-1.8","614f39b82ccdbdd51c76cc50","E1","batch5","","2814.7999999523163","img/question_1_9.jpeg","0","spm_respsonse","1","1","mat_09","","","","","","1","2814.7999999523163","","","","","","","","","","","","","","",""
"","","","","","html-keyboard-response","199","456174","0.0-3.0-2.0-0.9","614f39b82ccdbdd51c76cc50","E1","batch5","","null","<p class=block-text>Trial 10 out of 60</p>","null","spm_show_trial_num","","","","","","","","","","","","","","","","","","","","","","","","",""
"","","","","","image-button-response","200","461760","0.0-3.0-2.0-1.9","614f39b82ccdbdd51c76cc50","E1","batch5","","5580.200000047684","img/question_1_10.jpeg","2","spm_respsonse","1","3","mat_10","","","","","","1","5580.200000047684","","","","","","","","","","","","","","",""
"","","","","","html-keyboard-response","201","462821","0.0-3.0-2.0-0.10","614f39b82ccdbdd51c76cc50","E1","batch5","","null","<p class=block-text>Trial 11 out of 60</p>","null","spm_show_trial_num","","","","","","","","","","","","","","","","","","","","","","","","",""
"","","","","","image-button-response","202","468967","0.0-3.0-2.0-1.10","614f39b82ccdbdd51c76cc50","E1","batch5","","6140.700000047684","img/question_1_11.jpeg","4","spm_respsonse","0","4","mat_11","","","","","","0","6140.700000047684","","","","","","","","","","","","","","",""
"","","","","","html-keyboard-response","203","470042","0.0-3.0-2.0-0.11","614f39b82ccdbdd51c76cc50","E1","batch5","","null","<p class=block-text>Trial 12 out of 60</p>","null","spm_show_trial_num","","","","","","","","","","","","","","","","","","","","","","","","",""
"","","","","","image-button-response","204","480198","0.0-3.0-2.0-1.11","614f39b82ccdbdd51c76cc50","E1","batch5","","10151.200000047684","img/question_1_12.jpeg","4","spm_respsonse","1","5","mat_12","","","","","","1","10151.200000047684","","","","","","","","","","","","","","",""
"","","","","","html-keyboard-response","205","481264","0.0-3.0-2.0-0.12","614f39b82ccdbdd51c76cc50","E1","batch5","","null","<p class=block-text>Trial 13 out of 60</p>","null","spm_show_trial_num","","","","","","","","","","","","","","","","","","","","","","","","",""
"","","","","","image-button-response","206","483426","0.0-3.0-2.0-1.12","614f39b82ccdbdd51c76cc50","E1","batch5","","2157.2000000476837","img/question_2_1.jpeg","1","spm_respsonse","1","2","mat_13","","","","","","1","2157.2000000476837","","","","","","","","","","","","","","",""
"","","","","","html-keyboard-response","207","484491","0.0-3.0-2.0-0.13","614f39b82ccdbdd51c76cc50","E1","batch5","","null","<p class=block-text>Trial 14 out of 60</p>","null","spm_show_trial_num","","","","","","","","","","","","","","","","","","","","","","","","",""
"","","","","","image-button-response","208","489300","0.0-3.0-2.0-1.13","614f39b82ccdbdd51c76cc50","E1","batch5","","4803.799999952316","img/question_2_2.jpeg","5","spm_respsonse","1","6","mat_14","","","","","","1","4803.799999952316","","","","","","","","","","","","","","",""
"","","","","","html-keyboard-response","209","490372","0.0-3.0-2.0-0.14","614f39b82ccdbdd51c76cc50","E1","batch5","","null","<p class=block-text>Trial 15 out of 60</p>","null","spm_show_trial_num","","","","","","","","","","","","","","","","","","","","","","","","",""
"","","","","","image-button-response","210","492786","0.0-3.0-2.0-1.14","614f39b82ccdbdd51c76cc50","E1","batch5","","2409.2000000476837","img/question_2_3.jpeg","0","spm_respsonse","1","1","mat_15","","","","","","1","2409.2000000476837","","","","","","","","","","","","","","",""
"","","","","","html-keyboard-response","211","493858","0.0-3.0-2.0-0.15","614f39b82ccdbdd51c76cc50","E1","batch5","","null","<p class=block-text>Trial 16 out of 60</p>","null","spm_show_trial_num","","","","","","","","","","","","","","","","","","","","","","","","",""
"","","","","","image-button-response","212","497201","0.0-3.0-2.0-1.15","614f39b82ccdbdd51c76cc50","E1","batch5","","3337.699999809265","img/question_2_4.jpeg","1","spm_respsonse","1","2","mat_16","","","","","","1","3337.699999809265","","","","","","","","","","","","","","",""
"","","","","","html-keyboard-response","213","498262","0.0-3.0-2.0-0.16","614f39b82ccdbdd51c76cc50","E1","batch5","","null","<p class=block-text>Trial 17 out of 60</p>","null","spm_show_trial_num","","","","","","","","","","","","","","","","","","","","","","","","",""
"","","","","","image-button-response","214","502466","0.0-3.0-2.0-1.16","614f39b82ccdbdd51c76cc50","E1","batch5","","4198.5","img/question_2_5.jpeg","0","spm_respsonse","1","1","mat_17","","","","","","1","4198.5","","","","","","","","","","","","","","",""
"","","","","","html-keyboard-response","215","503541","0.0-3.0-2.0-0.17","614f39b82ccdbdd51c76cc50","E1","batch5","","null","<p class=block-text>Trial 18 out of 60</p>","null","spm_show_trial_num","","","","","","","","","","","","","","","","","","","","","","","","",""
"","","","","","image-button-response","216","508356","0.0-3.0-2.0-1.17","614f39b82ccdbdd51c76cc50","E1","batch5","","4810.700000047684","img/question_2_6.jpeg","2","spm_respsonse","1","3","mat_18","","","","","","1","4810.700000047684","","","","","","","","","","","","","","",""
"","","","","","html-keyboard-response","217","509424","0.0-3.0-2.0-0.18","614f39b82ccdbdd51c76cc50","E1","batch5","","null","<p class=block-text>Trial 19 out of 60</p>","null","spm_show_trial_num","","","","","","","","","","","","","","","","","","","","","","","","",""
"","","","","","image-button-response","218","511677","0.0-3.0-2.0-1.18","614f39b82ccdbdd51c76cc50","E1","batch5","","2247.5999999046326","img/question_2_7.jpeg","0","spm_respsonse","0","5","mat_19","","","","","","0","2247.5999999046326","","","","","","","","","","","","","","",""
"","","","","","html-keyboard-response","219","512735","0.0-3.0-2.0-0.19","614f39b82ccdbdd51c76cc50","E1","batch5","","null","<p class=block-text>Trial 20 out of 60</p>","null","spm_show_trial_num","","","","","","","","","","","","","","","","","","","","","","","","",""
"","","","","","image-button-response","220","517098","0.0-3.0-2.0-1.19","614f39b82ccdbdd51c76cc50","E1","batch5","","4358.399999856949","img/question_2_8.jpeg","2","spm_respsonse","0","6","mat_20","","","","","","0","4358.399999856949","","","","","","","","","","","","","","",""
"","","","","","html-keyboard-response","221","518174","0.0-3.0-2.0-0.20","614f39b82ccdbdd51c76cc50","E1","batch5","","null","<p class=block-text>Trial 21 out of 60</p>","null","spm_show_trial_num","","","","","","","","","","","","","","","","","","","","","","","","",""
"","","","","","image-button-response","222","529485","0.0-3.0-2.0-1.20","614f39b82ccdbdd51c76cc50","E1","batch5","","11305.300000190735","img/question_2_9.jpeg","4","spm_respsonse","0","4","mat_21","","","","","","0","11305.300000190735","","","","","","","","","","","","","","",""
"","","","","","html-keyboard-response","223","530540","0.0-3.0-2.0-0.21","614f39b82ccdbdd51c76cc50","E1","batch5","","null","<p class=block-text>Trial 22 out of 60</p>","null","spm_show_trial_num","","","","","","","","","","","","","","","","","","","","","","","","",""
"","","","","","image-button-response","224","536084","0.0-3.0-2.0-1.21","614f39b82ccdbdd51c76cc50","E1","batch5","","5537.600000143051","img/question_2_10.jpeg","2","spm_respsonse","1","3","mat_22","","","","","","1","5537.600000143051","","","","","","","","","","","","","","",""
"","","","","","html-keyboard-response","225","537148","0.0-3.0-2.0-0.22","614f39b82ccdbdd51c76cc50","E1","batch5","","null","<p class=block-text>Trial 23 out of 60</p>","null","spm_show_trial_num","","","","","","","","","","","","","","","","","","","","","","","","",""
"","","","","","image-button-response","226","542433","0.0-3.0-2.0-1.22","614f39b82ccdbdd51c76cc50","E1","batch5","","5279.700000047684","img/question_2_11.jpeg","2","spm_respsonse","0","4","mat_23","","","","","","0","5279.700000047684","","","","","","","","","","","","","","",""
"","","","","","html-keyboard-response","227","543507","0.0-3.0-2.0-0.23","614f39b82ccdbdd51c76cc50","E1","batch5","","null","<p class=block-text>Trial 24 out of 60</p>","null","spm_show_trial_num","","","","","","","","","","","","","","","","","","","","","","","","",""
"","","","","","image-button-response","228","579180","0.0-3.0-2.0-1.23","614f39b82ccdbdd51c76cc50","E1","batch5","","35667.5","img/question_2_12.jpeg","4","spm_respsonse","1","5","mat_24","","","","","","1","35667.5","","","","","","","","","","","","","","",""
"","","","","","html-button-response","229","581113","0.0-3.0-3.0","614f39b82ccdbdd51c76cc50","E1","batch5","","1679.6000001430511","<p class = block-text>Attention check: Please choose 1<br></p>","0","attention_check","true","","","","","","","","","","","","","","","","","","","","","","","",""
"","","","","","html-keyboard-response","230","581920","0.0-3.0-4.0-0.0","614f39b82ccdbdd51c76cc50","E1","batch5","","null","<p class=block-text>Trial 25 out of 60</p>","null","spm_show_trial_num","","","","","","","","","","","","","","","","","","","","","","","","",""
"","","","","","image-button-response","231","594895","0.0-3.0-4.0-1.0","614f39b82ccdbdd51c76cc50","E1","batch5","","12970.099999904633","img/question_3_1.jpeg","7","spm_respsonse","1","8","mat_25","","","","","","1","12970.099999904633","","","","","","","","","","","","","","",""
"","","","","","html-keyboard-response","232","595957","0.0-3.0-4.0-0.1","614f39b82ccdbdd51c76cc50","E1","batch5","","null","<p class=block-text>Trial 26 out of 60</p>","null","spm_show_trial_num","","","","","","","","","","","","","","","","","","","","","","","","",""
"","","","","","image-button-response","233","601851","0.0-3.0-4.0-1.1","614f39b82ccdbdd51c76cc50","E1","batch5","","5889.600000143051","img/question_3_2.jpeg","1","spm_respsonse","1","2","mat_26","","","","","","1","5889.600000143051","","","","","","","","","","","","","","",""
"","","","","","html-keyboard-response","234","602913","0.0-3.0-4.0-0.2","614f39b82ccdbdd51c76cc50","E1","batch5","","null","<p class=block-text>Trial 27 out of 60</p>","null","spm_show_trial_num","","","","","","","","","","","","","","","","","","","","","","","","",""
"","","","","","image-button-response","235","617876","0.0-3.0-4.0-1.2","614f39b82ccdbdd51c76cc50","E1","batch5","","14957.599999904633","img/question_3_3.jpeg","2","spm_respsonse","1","3","mat_27","","","","","","1","14957.599999904633","","","","","","","","","","","","","","",""
"","","","","","html-keyboard-response","236","618942","0.0-3.0-4.0-0.3","614f39b82ccdbdd51c76cc50","E1","batch5","","null","<p class=block-text>Trial 28 out of 60</p>","null","spm_show_trial_num","","","","","","","","","","","","","","","","","","","","","","","","",""
"","","","","","image-button-response","237","639401","0.0-3.0-4.0-1.3","614f39b82ccdbdd51c76cc50","E1","batch5","","20454.800000190735","img/question_3_4.jpeg","7","spm_respsonse","1","8","mat_28","","","","","","1","20454.800000190735","","","","","","","","","","","","","","",""
"","","","","","html-keyboard-response","238","640456","0.0-3.0-4.0-0.4","614f39b82ccdbdd51c76cc50","E1","batch5","","null","<p class=block-text>Trial 29 out of 60</p>","null","spm_show_trial_num","","","","","","","","","","","","","","","","","","","","","","","","",""
"","","","","","image-button-response","239","652584","0.0-3.0-4.0-1.4","614f39b82ccdbdd51c76cc50","E1","batch5","","12123","img/question_3_5.jpeg","6","spm_respsonse","1","7","mat_29","","","","","","1","12123","","","","","","","","","","","","","","",""
"","","","","","html-keyboard-response","240","653643","0.0-3.0-4.0-0.5","614f39b82ccdbdd51c76cc50","E1","batch5","","null","<p class=block-text>Trial 30 out of 60</p>","null","spm_show_trial_num","","","","","","","","","","","","","","","","","","","","","","","","",""
"","","","","","image-button-response","241","661553","0.0-3.0-4.0-1.5","614f39b82ccdbdd51c76cc50","E1","batch5","","7905.299999952316","img/question_3_6.jpeg","3","spm_respsonse","1","4","mat_30","","","","","","1","7905.299999952316","","","","","","","","","","","","","","",""
"","","","","","html-keyboard-response","242","662608","0.0-3.0-4.0-0.6","614f39b82ccdbdd51c76cc50","E1","batch5","","null","<p class=block-text>Trial 31 out of 60</p>","null","spm_show_trial_num","","","","","","","","","","","","","","","","","","","","","","","","",""
"","","","","","image-button-response","243","668057","0.0-3.0-4.0-1.6","614f39b82ccdbdd51c76cc50","E1","batch5","","5442.899999856949","img/question_3_7.jpeg","4","spm_respsonse","1","5","mat_31","","","","","","1","5442.899999856949","","","","","","","","","","","","","","",""
"","","","","","html-keyboard-response","244","669119","0.0-3.0-4.0-0.7","614f39b82ccdbdd51c76cc50","E1","batch5","","null","<p class=block-text>Trial 32 out of 60</p>","null","spm_show_trial_num","","","","","","","","","","","","","","","","","","","","","","","","",""
"","","","","","image-button-response","245","687103","0.0-3.0-4.0-1.7","614f39b82ccdbdd51c76cc50","E1","batch5","","17978.5","img/question_3_8.jpeg","0","spm_respsonse","1","1","mat_32","","","","","","1","17978.5","","","","","","","","","","","","","","",""
"","","","","","html-keyboard-response","246","688167","0.0-3.0-4.0-0.8","614f39b82ccdbdd51c76cc50","E1","batch5","","null","<p class=block-text>Trial 33 out of 60</p>","null","spm_show_trial_num","","","","","","","","","","","","","","","","","","","","","","","","",""
"","","","","","image-button-response","247","694716","0.0-3.0-4.0-1.8","614f39b82ccdbdd51c76cc50","E1","batch5","","6544.599999904633","img/question_3_9.jpeg","0","spm_respsonse","0","7","mat_33","","","","","","0","6544.599999904633","","","","","","","","","","","","","","",""
"","","","","","html-keyboard-response","248","695778","0.0-3.0-4.0-0.9","614f39b82ccdbdd51c76cc50","E1","batch5","","null","<p class=block-text>Trial 34 out of 60</p>","null","spm_show_trial_num","","","","","","","","","","","","","","","","","","","","","","","","",""
"","","","","","image-button-response","249","734161","0.0-3.0-4.0-1.9","614f39b82ccdbdd51c76cc50","E1","batch5","","38377.90000009537","img/question_3_10.jpeg","3","spm_respsonse","0","6","mat_34","","","","","","0","38377.90000009537","","","","","","","","","","","","","","",""
"","","","","","html-keyboard-response","250","735215","0.0-3.0-4.0-0.10","614f39b82ccdbdd51c76cc50","E1","batch5","","null","<p class=block-text>Trial 35 out of 60</p>","null","spm_show_trial_num","","","","","","","","","","","","","","","","","","","","","","","","",""
"","","","","","image-button-response","251","751397","0.0-3.0-4.0-1.10","614f39b82ccdbdd51c76cc50","E1","batch5","","16176.599999904633","img/question_3_11.jpeg","4","spm_respsonse","0","1","mat_35","","","","","","0","16176.599999904633","","","","","","","","","","","","","","",""
"","","","","","html-keyboard-response","252","752456","0.0-3.0-4.0-0.11","614f39b82ccdbdd51c76cc50","E1","batch5","","null","<p class=block-text>Trial 36 out of 60</p>","null","spm_show_trial_num","","","","","","","","","","","","","","","","","","","","","","","","",""
"","","","","","image-button-response","253","769490","0.0-3.0-4.0-1.11","614f39b82ccdbdd51c76cc50","E1","batch5","","17029","img/question_3_12.jpeg","1","spm_respsonse","1","2","mat_36","","","","","","1","17029","","","","","","","","","","","","","","",""
"","","","","","html-keyboard-response","254","770542","0.0-3.0-4.0-0.12","614f39b82ccdbdd51c76cc50","E1","batch5","","null","<p class=block-text>Trial 37 out of 60</p>","null","spm_show_trial_num","","","","","","","","","","","","","","","","","","","","","","","","",""
"","","","","","image-button-response","255","774567","0.0-3.0-4.0-1.12","614f39b82ccdbdd51c76cc50","E1","batch5","","4019.7999999523163","img/question_4_1.jpeg","2","spm_respsonse","1","3","mat_37","","","","","","1","4019.7999999523163","","","","","","","","","","","","","","",""
"","","","","","html-keyboard-response","256","775624","0.0-3.0-4.0-0.13","614f39b82ccdbdd51c76cc50","E1","batch5","","null","<p class=block-text>Trial 38 out of 60</p>","null","spm_show_trial_num","","","","","","","","","","","","","","","","","","","","","","","","",""
"","","","","","image-button-response","257","781321","0.0-3.0-4.0-1.13","614f39b82ccdbdd51c76cc50","E1","batch5","","5691","img/question_4_2.jpeg","3","spm_respsonse","1","4","mat_38","","","","","","1","5691","","","","","","","","","","","","","","",""
"","","","","","html-keyboard-response","258","782374","0.0-3.0-4.0-0.14","614f39b82ccdbdd51c76cc50","E1","batch5","","null","<p class=block-text>Trial 39 out of 60</p>","null","spm_show_trial_num","","","","","","","","","","","","","","","","","","","","","","","","",""
"","","","","","image-button-response","259","799955","0.0-3.0-4.0-1.14","614f39b82ccdbdd51c76cc50","E1","batch5","","17576.200000047684","img/question_4_3.jpeg","2","spm_respsonse","1","3","mat_39","","","","","","1","17576.200000047684","","","","","","","","","","","","","","",""
"","","","","","html-keyboard-response","260","801009","0.0-3.0-4.0-0.15","614f39b82ccdbdd51c76cc50","E1","batch5","","null","<p class=block-text>Trial 40 out of 60</p>","null","spm_show_trial_num","","","","","","","","","","","","","","","","","","","","","","","","",""
"","","","","","image-button-response","261","809469","0.0-3.0-4.0-1.15","614f39b82ccdbdd51c76cc50","E1","batch5","","8454.299999952316","img/question_4_4.jpeg","6","spm_respsonse","1","7","mat_40","","","","","","1","8454.299999952316","","","","","","","","","","","","","","",""
"","","","","","html-keyboard-response","262","810522","0.0-3.0-4.0-0.16","614f39b82ccdbdd51c76cc50","E1","batch5","","null","<p class=block-text>Trial 41 out of 60</p>","null","spm_show_trial_num","","","","","","","","","","","","","","","","","","","","","","","","",""
"","","","","","image-button-response","263","821952","0.0-3.0-4.0-1.16","614f39b82ccdbdd51c76cc50","E1","batch5","","11425","img/question_4_5.jpeg","7","spm_respsonse","1","8","mat_41","","","","","","1","11425","","","","","","","","","","","","","","",""
"","","","","","html-keyboard-response","264","823014","0.0-3.0-4.0-0.17","614f39b82ccdbdd51c76cc50","E1","batch5","","null","<p class=block-text>Trial 42 out of 60</p>","null","spm_show_trial_num","","","","","","","","","","","","","","","","","","","","","","","","",""
"","","","","","image-button-response","265","838538","0.0-3.0-4.0-1.17","614f39b82ccdbdd51c76cc50","E1","batch5","","15518.100000143051","img/question_4_6.jpeg","5","spm_respsonse","1","6","mat_42","","","","","","1","15518.100000143051","","","","","","","","","","","","","","",""
"","","","","","html-keyboard-response","266","839598","0.0-3.0-4.0-0.18","614f39b82ccdbdd51c76cc50","E1","batch5","","null","<p class=block-text>Trial 43 out of 60</p>","null","spm_show_trial_num","","","","","","","","","","","","","","","","","","","","","","","","",""
"","","","","","image-button-response","267","884558","0.0-3.0-4.0-1.18","614f39b82ccdbdd51c76cc50","E1","batch5","","44954.300000190735","img/question_4_7.jpeg","4","spm_respsonse","1","5","mat_43","","","","","","1","44954.300000190735","","","","","","","","","","","","","","",""
"","","","","","html-keyboard-response","268","885626","0.0-3.0-4.0-0.19","614f39b82ccdbdd51c76cc50","E1","batch5","","null","<p class=block-text>Trial 44 out of 60</p>","null","spm_show_trial_num","","","","","","","","","","","","","","","","","","","","","","","","",""
"","","","","","image-button-response","269","911660","0.0-3.0-4.0-1.19","614f39b82ccdbdd51c76cc50","E1","batch5","","26028.700000047684","img/question_4_8.jpeg","3","spm_respsonse","1","4","mat_44","","","","","","1","26028.700000047684","","","","","","","","","","","","","","",""
"","","","","","html-keyboard-response","270","912725","0.0-3.0-4.0-0.20","614f39b82ccdbdd51c76cc50","E1","batch5","","null","<p class=block-text>Trial 45 out of 60</p>","null","spm_show_trial_num","","","","","","","","","","","","","","","","","","","","","","","","",""
"","","","","","image-button-response","271","940445","0.0-3.0-4.0-1.20","614f39b82ccdbdd51c76cc50","E1","batch5","","27713.39999985695","img/question_4_9.jpeg","3","spm_respsonse","0","1","mat_45","","","","","","0","27713.39999985695","","","","","","","","","","","","","","",""
"","","","","","html-keyboard-response","272","941513","0.0-3.0-4.0-0.21","614f39b82ccdbdd51c76cc50","E1","batch5","","null","<p class=block-text>Trial 46 out of 60</p>","null","spm_show_trial_num","","","","","","","","","","","","","","","","","","","","","","","","",""
"","","","","","image-button-response","273","977360","0.0-3.0-4.0-1.21","614f39b82ccdbdd51c76cc50","E1","batch5","","35842.09999990463","img/question_4_10.jpeg","1","spm_respsonse","1","2","mat_46","","","","","","1","35842.09999990463","","","","","","","","","","","","","","",""
"","","","","","html-keyboard-response","274","978425","0.0-3.0-4.0-0.22","614f39b82ccdbdd51c76cc50","E1","batch5","","null","<p class=block-text>Trial 47 out of 60</p>","null","spm_show_trial_num","","","","","","","","","","","","","","","","","","","","","","","","",""
"","","","","","image-button-response","275","1025502","0.0-3.0-4.0-1.22","614f39b82ccdbdd51c76cc50","E1","batch5","","47071.59999990463","img/question_4_11.jpeg","2","spm_respsonse","0","5","mat_47","","","","","","0","47071.59999990463","","","","","","","","","","","","","","",""
"","","","","","html-keyboard-response","276","1026559","0.0-3.0-4.0-0.23","614f39b82ccdbdd51c76cc50","E1","batch5","","null","<p class=block-text>Trial 48 out of 60</p>","null","spm_show_trial_num","","","","","","","","","","","","","","","","","","","","","","","","",""
"","","","","","image-button-response","277","1047788","0.0-3.0-4.0-1.23","614f39b82ccdbdd51c76cc50","E1","batch5","","21223.099999904633","img/question_4_12.jpeg","1","spm_respsonse","0","6","mat_48","","","","","","0","21223.099999904633","","","","","","","","","","","","","","",""
"","","","","","html-keyboard-response","278","1048850","0.0-3.0-4.0-0.24","614f39b82ccdbdd51c76cc50","E1","batch5","","null","<p class=block-text>Trial 49 out of 60</p>","null","spm_show_trial_num","","","","","","","","","","","","","","","","","","","","","","","","",""
"","","","","","image-button-response","279","1065628","0.0-3.0-4.0-1.24","614f39b82ccdbdd51c76cc50","E1","batch5","","16772.5","img/question_5_1.jpeg","6","spm_respsonse","1","7","mat_49","","","","","","1","16772.5","","","","","","","","","","","","","","",""
"","","","","","html-keyboard-response","280","1066683","0.0-3.0-4.0-0.25","614f39b82ccdbdd51c76cc50","E1","batch5","","null","<p class=block-text>Trial 50 out of 60</p>","null","spm_show_trial_num","","","","","","","","","","","","","","","","","","","","","","","","",""
"","","","","","image-button-response","281","1087532","0.0-3.0-4.0-1.25","614f39b82ccdbdd51c76cc50","E1","batch5","","20844.299999952316","img/question_5_2.jpeg","5","spm_respsonse","1","6","mat_50","","","","","","1","20844.299999952316","","","","","","","","","","","","","","",""
"","","","","","html-keyboard-response","282","1088591","0.0-3.0-4.0-0.26","614f39b82ccdbdd51c76cc50","E1","batch5","","null","<p class=block-text>Trial 51 out of 60</p>","null","spm_show_trial_num","","","","","","","","","","","","","","","","","","","","","","","","",""
"","","","","","image-button-response","283","1103121","0.0-3.0-4.0-1.26","614f39b82ccdbdd51c76cc50","E1","batch5","","14524","img/question_5_3.jpeg","7","spm_respsonse","1","8","mat_51","","","","","","1","14524","","","","","","","","","","","","","","",""
"","","","","","html-keyboard-response","284","1104188","0.0-3.0-4.0-0.27","614f39b82ccdbdd51c76cc50","E1","batch5","","null","<p class=block-text>Trial 52 out of 60</p>","null","spm_show_trial_num","","","","","","","","","","","","","","","","","","","","","","","","",""
"","","","","","image-button-response","285","1125407","0.0-3.0-4.0-1.27","614f39b82ccdbdd51c76cc50","E1","batch5","","21213.700000047684","img/question_5_4.jpeg","2","spm_respsonse","0","2","mat_52","","","","","","0","21213.700000047684","","","","","","","","","","","","","","",""
"","","","","","html-keyboard-response","286","1126468","0.0-3.0-4.0-0.28","614f39b82ccdbdd51c76cc50","E1","batch5","","null","<p class=block-text>Trial 53 out of 60</p>","null","spm_show_trial_num","","","","","","","","","","","","","","","","","","","","","","","","",""
"","","","","","image-button-response","287","1142068","0.0-3.0-4.0-1.28","614f39b82ccdbdd51c76cc50","E1","batch5","","15594","img/question_5_5.jpeg","0","spm_respsonse","1","1","mat_53","","","","","","1","15594","","","","","","","","","","","","","","",""
"","","","","","html-keyboard-response","288","1143121","0.0-3.0-4.0-0.29","614f39b82ccdbdd51c76cc50","E1","batch5","","null","<p class=block-text>Trial 54 out of 60</p>","null","spm_show_trial_num","","","","","","","","","","","","","","","","","","","","","","","","",""
"","","","","","image-button-response","289","1163556","0.0-3.0-4.0-1.29","614f39b82ccdbdd51c76cc50","E1","batch5","","20429.099999904633","img/question_5_6.jpeg","4","spm_respsonse","1","5","mat_54","","","","","","1","20429.099999904633","","","","","","","","","","","","","","",""
"","","","","","html-keyboard-response","290","1164611","0.0-3.0-4.0-0.30","614f39b82ccdbdd51c76cc50","E1","batch5","","null","<p class=block-text>Trial 55 out of 60</p>","null","spm_show_trial_num","","","","","","","","","","","","","","","","","","","","","","","","",""
"","","","","","image-button-response","291","1210351","0.0-3.0-4.0-1.30","614f39b82ccdbdd51c76cc50","E1","batch5","","45734.200000047684","img/question_5_7.jpeg","3","spm_respsonse","0","1","mat_55","","","","","","0","45734.200000047684","","","","","","","","","","","","","","",""
"","","","","","html-keyboard-response","292","1211415","0.0-3.0-4.0-0.31","614f39b82ccdbdd51c76cc50","E1","batch5","","null","<p class=block-text>Trial 56 out of 60</p>","null","spm_show_trial_num","","","","","","","","","","","","","","","","","","","","","","","","",""
"","","","","","image-button-response","293","1236082","0.0-3.0-4.0-1.31","614f39b82ccdbdd51c76cc50","E1","batch5","","24661.099999904633","img/question_5_8.jpeg","1","spm_respsonse","0","6","mat_56","","","","","","0","24661.099999904633","","","","","","","","","","","","","","",""
"","","","","","html-keyboard-response","294","1237137","0.0-3.0-4.0-0.32","614f39b82ccdbdd51c76cc50","E1","batch5","","null","<p class=block-text>Trial 57 out of 60</p>","null","spm_show_trial_num","","","","","","","","","","","","","","","","","","","","","","","","",""
"","","","","","image-button-response","295","1246352","0.0-3.0-4.0-1.32","614f39b82ccdbdd51c76cc50","E1","batch5","","9209.799999952316","img/question_5_9.jpeg","1","spm_respsonse","0","3","mat_57","","","","","","0","9209.799999952316","","","","","","","","","","","","","","",""
"","","","","","html-keyboard-response","296","1247409","0.0-3.0-4.0-0.33","614f39b82ccdbdd51c76cc50","E1","batch5","","null","<p class=block-text>Trial 58 out of 60</p>","null","spm_show_trial_num","","","","","","","","","","","","","","","","","","","","","","","","",""
"","","","","","image-button-response","297","1291051","0.0-3.0-4.0-1.33","614f39b82ccdbdd51c76cc50","E1","batch5","","43638.299999952316","img/question_5_10.jpeg","6","spm_respsonse","0","2","mat_58","","","","","","0","43638.299999952316","","","","","","","","","","","","","","",""
"","","","","","html-keyboard-response","298","1292109","0.0-3.0-4.0-0.34","614f39b82ccdbdd51c76cc50","E1","batch5","","null","<p class=block-text>Trial 59 out of 60</p>","null","spm_show_trial_num","","","","","","","","","","","","","","","","","","","","","","","","",""
"","","","","","image-button-response","299","1318760","0.0-3.0-4.0-1.34","614f39b82ccdbdd51c76cc50","E1","batch5","","26645","img/question_5_11.jpeg","3","spm_respsonse","1","4","mat_59","","","","","","1","26645","","","","","","","","","","","","","","",""
"","","","","","html-keyboard-response","300","1319812","0.0-3.0-4.0-0.35","614f39b82ccdbdd51c76cc50","E1","batch5","","null","<p class=block-text>Trial 60 out of 60</p>","null","spm_show_trial_num","","","","","","","","","","","","","","","","","","","","","","","","",""
"","","","","","image-button-response","301","1328523","0.0-3.0-4.0-1.35","614f39b82ccdbdd51c76cc50","E1","batch5","","8705.400000095367","img/question_5_12.jpeg","2","spm_respsonse","0","5","mat_60","","","","","","0","8705.400000095367","","","","","","","","","","","","","","",""
"","","","","","html-button-response","302","1334339","0.0-3.0-5.0","614f39b82ccdbdd51c76cc50","E1","batch5","","5558.299999952316","<p class= block-text>This concludes the Standard Progressive Matrix game. Thank you for your responses!<br> When you are ready, click the button continue</p>","0","spm_goodbye","","","","","","","","","","","","","","","","","","","","","","","","",""
"true","","","","","fullscreen","303","1338174","0.0-4.0-0.0","614f39b82ccdbdd51c76cc50","E1","batch5","","","","","","","","","","","","","","","","","","","","","","","","","","","","","",""
"","","","","","instructions","304","1396859","0.0-4.0-1.0-0.0-0.0","614f39b82ccdbdd51c76cc50","E1","batch5","[{""page_index"":0,""viewing_time"":9505.100000143051},{""page_index"":1,""viewing_time"":6957.5},{""page_index"":2,""viewing_time"":3633.5999999046326},{""page_index"":3,""viewing_time"":21314.200000047684},{""page_index"":4,""viewing_time"":4375.099999904633},{""page_index"":5,""viewing_time"":10565.700000047684},{""page_index"":6,""viewing_time"":2331.5999999046326}]","58683.799999952316","","","tol-instructions","","","","","","","","","","","","","","","","","","","","","","","","",""
"","","","","","html-button-response","305","1398301","0.0-4.0-1.0-1.0-0.0","614f39b82ccdbdd51c76cc50","E1","batch5","","1439.7999999523163","<p class=block-text> Let's answer a few questions <br>","0","tol_enter_quiz","","","","","","","","","","","","","","","","","","","","","","","","",""
"","","","","","html-button-response","306","1401421","0.0-4.0-1.0-1.0-1.0","614f39b82ccdbdd51c76cc50","E1","batch5","","3117.2999999523163","<p class = block-text>True or False: You can only move the ball on top of a peg. <br></p>","1","tol_quiz","false","","","","","","","","","","","","","","","","","","","","","","","",""
"","","","","","html-button-response","307","1404077","0.0-4.0-1.0-1.0-2.0","614f39b82ccdbdd51c76cc50","E1","batch5","","2653.600000143051","<p class = block-text>Incorrect. Remember, you can only move the ball on top of a peg.</p>","0","tol_quiz_feedback","","","","","","","","","","","","","","","","","","","","","","","","",""
"","","","","","html-button-response","308","1407074","0.0-4.0-1.0-1.0-3.0","614f39b82ccdbdd51c76cc50","E1","batch5","","2994.399999856949","<p class = block-text>True or False: You should try to match your board with the target board with fewest moves possible. <br></p>","0","tol_quiz","true","","","","","","","","","","","","","","","","","","","","","","","",""
"","","","","","html-button-response","309","1408001","0.0-4.0-1.0-1.0-4.0","614f39b82ccdbdd51c76cc50","E1","batch5","","924.5","<p class = block-text>Correct! </p>","0","tol_quiz_feedback","","","","","","","","","","","","","","","","","","","","","","","","",""
"","","","","","html-button-response","310","1410363","0.0-4.0-1.0-2.0-0.0","614f39b82ccdbdd51c76cc50","E1","batch5","","2359.5","<p class = block-text>You made too many incorrect choices.</p><p class = block-text>You will now repeat the instructions and quiz</p>","0","","","","","","","","","","","","","","","","","","","","","","","","","",""
"","","","","","instructions","311","1423970","0.0-4.0-1.1-0.1-0.1","614f39b82ccdbdd51c76cc50","E1","batch5","[{""page_index"":0,""viewing_time"":3007.199999809265},{""page_index"":1,""viewing_time"":1419.9000000953674},{""page_index"":2,""viewing_time"":1355.9000000953674},{""page_index"":3,""viewing_time"":1894.0999999046326},{""page_index"":4,""viewing_time"":1574.5999999046326},{""page_index"":5,""viewing_time"":921.8000001907349},{""page_index"":6,""viewing_time"":3430.2999999523163}]","13604.299999952316","","","tol-instructions","","","","","","","","","","","","","","","","","","","","","","","","",""
"","","","","","html-button-response","312","1424920","0.0-4.0-1.1-1.1-0.1","614f39b82ccdbdd51c76cc50","E1","batch5","","948.9000000953674","<p class=block-text> Let's answer a few questions <br>","0","tol_enter_quiz","","","","","","","","","","","","","","","","","","","","","","","","",""
"","","","","","html-button-response","313","1427784","0.0-4.0-1.1-1.1-1.1","614f39b82ccdbdd51c76cc50","E1","batch5","","2861.600000143051","<p class = block-text>True or False: You can only move the ball on top of a peg. <br></p>","0","tol_quiz","true","","","","","","","","","","","","","","","","","","","","","","","",""
"","","","","","html-button-response","314","1429249","0.0-4.0-1.1-1.1-2.1","614f39b82ccdbdd51c76cc50","E1","batch5","","1463.6999998092651","<p class = block-text>Correct! You can only move the ball on top of a peg.</p>","0","tol_quiz_feedback","","","","","","","","","","","","","","","","","","","","","","","","",""
"","","","","","html-button-response","315","1431487","0.0-4.0-1.1-1.1-3.1","614f39b82ccdbdd51c76cc50","E1","batch5","","2235.5","<p class = block-text>True or False: You should try to match your board with the target board with fewest moves possible. <br></p>","0","tol_quiz","true","","","","","","","","","","","","","","","","","","","","","","","",""
"","","","","","html-button-response","316","1432439","0.0-4.0-1.1-1.1-4.1","614f39b82ccdbdd51c76cc50","E1","batch5","","950.2999999523163","<p class = block-text>Correct! </p>","0","tol_quiz_feedback","","","","","","","","","","","","","","","","","","","","","","","","",""
"","","","","","html-button-response","317","1433951","0.0-4.0-2.0","614f39b82ccdbdd51c76cc50","E1","batch5","","1509.6000001430511","<p class=block-text> Now that you've understood the game, let's practice a few easier examples before we start!<br> <br>","0","","","","","","","","","","","","","","","","","","","","","","","","","",""
"","","","","","single-stim-button","318","1437479","0.0-4.0-3.0-0.0","614f39b82ccdbdd51c76cc50","E1","batch5","","3524","","","tol_practice","","","","","","","","","","","tol_peg_2","3524","3524","0","[[1,2,0],[0,0],[0]]","1","[[1,2,0],[0,0],[3]]","practice","3524","","","","","",""
"","","","","","single-stim-button","319","1439353","0.0-4.0-3.0-1.0","614f39b82ccdbdd51c76cc50","E1","batch5","","1872","","","tol_practice","","","","","","","","","","","tol_peg_3","1872","1872","0","[[1,2,0],[0,0],[3]]","1","[[1,2,0],[0,0],[3]]","practice","1872","","","","","",""
"","","","","","poldrack-single-stim","320","1440356","0.0-4.0-4.0","614f39b82ccdbdd51c76cc50","E1","batch5","","-1","","","tol_feedback","true","","","","","","","","","","","1000","1000","500","","","","","","-1","none","true","","0",""
"","","","","","single-stim-button","321","1446170","0.0-4.0-5.0-0.0","614f39b82ccdbdd51c76cc50","E1","batch5","","5812","","","tol_practice","","","","","","","","","","","tol_peg_1","5812","5812","0","[[1,0,0],[3,0],[0]]","2","[[0,0,0],[3,1],[2]]","practice","5812","","","","","",""
"","","","","","single-stim-button","322","1448283","0.0-4.0-5.0-1.0","614f39b82ccdbdd51c76cc50","E1","batch5","","2113","","","tol_practice","","","","","","","","","","","tol_peg_3","2113","2113","0","[[1,0,0],[3,0],[2]]","2","[[0,0,0],[3,1],[2]]","practice","2113","","","","","",""
"","","","","","single-stim-button","323","1449350","0.0-4.0-5.1-0.1","614f39b82ccdbdd51c76cc50","E1","batch5","","1065","","","tol_practice","","","","","","","","","","","tol_peg_1","1065","1065","0","[[0,0,0],[3,0],[2]]","3","[[0,0,0],[3,1],[2]]","practice","1065","","","","","",""
"","","","","","single-stim-button","324","1450707","0.0-4.0-5.1-1.1","614f39b82ccdbdd51c76cc50","E1","batch5","","1356","","","tol_practice","","","","","","","","","","","tol_peg_2","1356","1356","0","[[0,0,0],[3,1],[2]]","3","[[0,0,0],[3,1],[2]]","practice","1356","","","","","",""
"","","","","","poldrack-single-stim","325","1451721","0.0-4.0-6.0","614f39b82ccdbdd51c76cc50","E1","batch5","","-1","","","tol_feedback","true","","","","","","","","","","","1000","1000","500","","","","","","-1","none","true","","0",""
"","","","","","single-stim-button","326","1456196","0.0-4.0-7.0-0.0","614f39b82ccdbdd51c76cc50","E1","batch5","","4473","","","tol_practice","","","","","","","","","","","tol_peg_2","4473","4473","0","[[1,2,0],[0,0],[0]]","4","[[1,0,0],[2,0],[3]]","practice","4473","","","","","",""
"","","","","","single-stim-button","327","1457000","0.0-4.0-7.0-1.0","614f39b82ccdbdd51c76cc50","E1","batch5","","802","","","tol_practice","","","","","","","","","","","tol_peg_3","802","802","0","[[1,2,0],[0,0],[3]]","4","[[1,0,0],[2,0],[3]]","practice","802","","","","","",""
"","","","","","single-stim-button","328","1458605","0.0-4.0-7.1-0.1","614f39b82ccdbdd51c76cc50","E1","batch5","","1603","","","tol_practice","","","","","","","","","","","tol_peg_1","1603","1603","0","[[1,0,0],[0,0],[3]]","5","[[1,0,0],[2,0],[3]]","practice","1603","","","","","",""
"","","","","","single-stim-button","329","1459488","0.0-4.0-7.1-1.1","614f39b82ccdbdd51c76cc50","E1","batch5","","881","","","tol_practice","","","","","","","","","","","tol_peg_2","881","881","0","[[1,0,0],[2,0],[3]]","5","[[1,0,0],[2,0],[3]]","practice","881","","","","","",""
"","","","","","poldrack-single-stim","330","1460502","0.0-4.0-8.0","614f39b82ccdbdd51c76cc50","E1","batch5","","-1","","","tol_feedback","true","","","","","","","","","","","1000","1000","500","","","","","","-1","none","true","","0",""
"","","","","","html-button-response","331","1462099","0.0-4.0-9.0","614f39b82ccdbdd51c76cc50","E1","batch5","","1594.5999999046326","<div class = centerbox><p class = center-block-text>Great job! You are done with practice trials<br>You are about to start official trials.<br> <br> Problem <strong>1</strong> out of 25 problems</p></div>","0","tol_instruction","","","","","","","","","","","","","","","","","","","","","","","","",""
"","","","","","single-stim-button","332","1472108","0.0-4.0-10.0-0.0","614f39b82ccdbdd51c76cc50","E1","batch5","","9006","","","tol_tohand","","","","","","","","","","","tol_peg_1","9006","9006","0","[[1,0,0],[3,0],[0]]","1","[[1,3,0],[2,0],[0]]","0","0","","","","","","3"
"","","","","","single-stim-button","333","1476765","0.0-4.0-10.0-1.0","614f39b82ccdbdd51c76cc50","E1","batch5","","4655","","","tol_toboard","","","","","","","","","","","tol_peg_3","4655","4655","0","[[1,0,0],[3,0],[2]]","1","[[1,3,0],[2,0],[0]]","0","0","","","","","","3"
"","","","","","single-stim-button","334","1477824","0.0-4.0-10.1-0.1","614f39b82ccdbdd51c76cc50","E1","batch5","","1057","","","tol_tohand","","","","","","","","","","","tol_peg_2","1057","1057","0","[[1,0,0],[0,0],[2]]","2","[[1,3,0],[2,0],[0]]","0","0","","","","","","3"
"","","","","","single-stim-button","335","1478801","0.0-4.0-10.1-1.1","614f39b82ccdbdd51c76cc50","E1","batch5","","975","","","tol_toboard","","","","","","","","","","","tol_peg_1","975","975","0","[[1,3,0],[0,0],[2]]","2","[[1,3,0],[2,0],[0]]","0","0","","","","","","3"
"","","","","","single-stim-button","336","1479743","0.0-4.0-10.2-0.2","614f39b82ccdbdd51c76cc50","E1","batch5","","941","","","tol_tohand","","","","","","","","","","","tol_peg_3","941","941","0","[[1,3,0],[0,0],[0]]","3","[[1,3,0],[2,0],[0]]","0","0","","","","","","3"
"","","","","","single-stim-button","337","1480405","0.0-4.0-10.2-1.2","614f39b82ccdbdd51c76cc50","E1","batch5","","661","","","tol_toboard","","","","","","","","","","","tol_peg_2","661","661","0","[[1,3,0],[2,0],[0]]","3","[[1,3,0],[2,0],[0]]","0","0","","","","","","3"
"","","","","","poldrack-single-stim","338","1481413","0.0-4.0-11.0","614f39b82ccdbdd51c76cc50","E1","batch5","","-1","","","tol_feedback","true","","","","","","","","","","","1000","1000","500","","","","","","-1","none","true","9006","11004",""
"","","","","","html-button-response","339","1482550","0.0-4.0-12.0","614f39b82ccdbdd51c76cc50","E1","batch5","","1134.5","<div class = centerbox><p class = center-block-text>problem <strong>2</strong> out of 25 problems</p></div>","0","tol_trial_num","","","","","","","","","","","","","","","","","","","","","","","","",""
"","","","","","single-stim-button","340","1490197","0.0-4.0-13.0-0.0","614f39b82ccdbdd51c76cc50","E1","batch5","","7646","","","tol_tohand","","","","","","","","","","","tol_peg_1","7646","7646","0","[[1,0,0],[3,0],[0]]","1","[[2,1,3],[0,0],[0]]","1","0","","","","","","5"
"","","","","","single-stim-button","341","1492786","0.0-4.0-13.0-1.0","614f39b82ccdbdd51c76cc50","E1","batch5","","2588","","","tol_toboard","","","","","","","","","","","tol_peg_3","2588","2588","0","[[1,0,0],[3,0],[2]]","1","[[2,1,3],[0,0],[0]]","1","0","","","","","","5"
"","","","","","single-stim-button","342","1494354","0.0-4.0-13.1-0.1","614f39b82ccdbdd51c76cc50","E1","batch5","","1565","","","tol_tohand","","","","","","","","","","","tol_peg_1","1565","1565","0","[[0,0,0],[3,0],[2]]","2","[[2,1,3],[0,0],[0]]","1","0","","","","","","5"
"","","","","","single-stim-button","343","1495856","0.0-4.0-13.1-1.1","614f39b82ccdbdd51c76cc50","E1","batch5","","1501","","","tol_toboard","","","","","","","","","","","tol_peg_2","1501","1501","0","[[0,0,0],[3,1],[2]]","2","[[2,1,3],[0,0],[0]]","1","0","","","","","","5"
"","","","","","single-stim-button","344","1496966","0.0-4.0-13.2-0.2","614f39b82ccdbdd51c76cc50","E1","batch5","","1107","","","tol_tohand","","","","","","","","","","","tol_peg_3","1107","1107","0","[[0,0,0],[3,1],[0]]","3","[[2,1,3],[0,0],[0]]","1","0","","","","","","5"
"","","","","","single-stim-button","345","1498057","0.0-4.0-13.2-1.2","614f39b82ccdbdd51c76cc50","E1","batch5","","1090","","","tol_toboard","","","","","","","","","","","tol_peg_1","1090","1090","0","[[2,0,0],[3,1],[0]]","3","[[2,1,3],[0,0],[0]]","1","0","","","","","","5"
