"success","timeout","failed_images","failed_audio","failed_video","trial_type","trial_index","time_elapsed","internal_node_id","subject_id","study_id","session_id","task","rt","stimulus","response","item","answer","correct","spm_correct","spm_rt","view_history","fiar_detect_rt","fiar_detect_correct","total_correct_fiar_detect","post_trial_gap","choices","mouse_click","stim_duration","block_duration","timing_post_trial","current_position","tol_num_moves_made","tol_target","tol_problem_id","tol_rt","key_press","possible_responses","tol_correct","preplanning","tol_rt_per_trial","tol_min_moves"
"true","false","[]","[]","[]","preload","0","8557","0.0-0.0","615081c7ccbaea1db00d8e0c","E1","batch5","","","","","","","","","","","","","","","","","","","","","","","","","","","","","",""
"true","","","","","fullscreen","1","165050","0.0-1.0-0.0","615081c7ccbaea1db00d8e0c","E1","batch5","","","","","","","","","","","","","","","","","","","","","","","","","","","","","",""
"true","","","","","fullscreen","2","169237","0.0-2.0-0.0","615081c7ccbaea1db00d8e0c","E1","batch5","spm_fullscreen","","","","","","","","","","","","","","","","","","","","","","","","","","","","",""
"","","","","","html-button-response","3","181527","0.0-2.0-1.0","615081c7ccbaea1db00d8e0c","E1","batch5","","12288.100000023842","<p class = block-text><b>Instructions</b> <br>This is a widely used intelligence test in research. <br>In this test, a figure with a missing piece will be presented.<br>Below the figure are alternative pieces to complete the figure, only one of which is correct.<br> Different figures might involve different principles for obtaining the missing piece<br>Your job is to select the most logical piece to complete the figure.</p>","0","","","","","","","","","","","","","","","","","","","","","","","","","",""
"","","","","","html-keyboard-response","4","182334","0.0-2.0-2.0-0.0","615081c7ccbaea1db00d8e0c","E1","batch5","spm_show_trial_num","null","<p class=block-text>Trial 1 out of 60</p>","null","","","","","","","","","","","","","","","","","","","","","","","","","",""
"","","","","","image-button-response","5","205660","0.0-2.0-2.0-1.0","615081c7ccbaea1db00d8e0c","E1","batch5","spm_respsonse","23323.100000023842","img/question_1_1.jpeg","3","mat_01","4","1","1","23323.100000023842","","","","","","","","","","","","","","","","","","","","",""
"","","","","","html-keyboard-response","6","206741","0.0-2.0-2.0-0.1","615081c7ccbaea1db00d8e0c","E1","batch5","spm_show_trial_num","null","<p class=block-text>Trial 2 out of 60</p>","null","","","","","","","","","","","","","","","","","","","","","","","","","",""
"","","","","","image-button-response","7","210576","0.0-2.0-2.0-1.1","615081c7ccbaea1db00d8e0c","E1","batch5","spm_respsonse","3833.600000023842","img/question_1_2.jpeg","4","mat_02","5","1","1","3833.600000023842","","","","","","","","","","","","","","","","","","","","",""
"","","","","","html-keyboard-response","8","211645","0.0-2.0-2.0-0.2","615081c7ccbaea1db00d8e0c","E1","batch5","spm_show_trial_num","null","<p class=block-text>Trial 3 out of 60</p>","null","","","","","","","","","","","","","","","","","","","","","","","","","",""
"","","","","","image-button-response","9","216604","0.0-2.0-2.0-1.2","615081c7ccbaea1db00d8e0c","E1","batch5","spm_respsonse","4956.600000023842","img/question_1_3.jpeg","0","mat_03","1","1","1","4956.600000023842","","","","","","","","","","","","","","","","","","","","",""
"","","","","","html-keyboard-response","10","217684","0.0-2.0-2.0-0.3","615081c7ccbaea1db00d8e0c","E1","batch5","spm_show_trial_num","null","<p class=block-text>Trial 4 out of 60</p>","null","","","","","","","","","","","","","","","","","","","","","","","","","",""
"","","","","","image-button-response","11","220298","0.0-2.0-2.0-1.3","615081c7ccbaea1db00d8e0c","E1","batch5","spm_respsonse","2611.600000023842","img/question_1_4.jpeg","1","mat_04","2","1","1","2611.600000023842","","","","","","","","","","","","","","","","","","","","",""
"","","","","","html-keyboard-response","12","221355","0.0-2.0-2.0-0.4","615081c7ccbaea1db00d8e0c","E1","batch5","spm_show_trial_num","null","<p class=block-text>Trial 5 out of 60</p>","null","","","","","","","","","","","","","","","","","","","","","","","","","",""
"","","","","","image-button-response","13","224957","0.0-2.0-2.0-1.4","615081c7ccbaea1db00d8e0c","E1","batch5","spm_respsonse","3599.399999976158","img/question_1_5.jpeg","5","mat_05","6","1","1","3599.399999976158","","","","","","","","","","","","","","","","","","","","",""
"","","","","","html-keyboard-response","14","226028","0.0-2.0-2.0-0.5","615081c7ccbaea1db00d8e0c","E1","batch5","spm_show_trial_num","null","<p class=block-text>Trial 6 out of 60</p>","null","","","","","","","","","","","","","","","","","","","","","","","","","",""
"","","","","","image-button-response","15","231435","0.0-2.0-2.0-1.5","615081c7ccbaea1db00d8e0c","E1","batch5","spm_respsonse","5405.399999976158","img/question_1_6.jpeg","2","mat_06","3","1","1","5405.399999976158","","","","","","","","","","","","","","","","","","","","",""
"","","","","","html-keyboard-response","16","232518","0.0-2.0-2.0-0.6","615081c7ccbaea1db00d8e0c","E1","batch5","spm_show_trial_num","null","<p class=block-text>Trial 7 out of 60</p>","null","","","","","","","","","","","","","","","","","","","","","","","","","",""
"","","","","","image-button-response","17","236949","0.0-2.0-2.0-1.6","615081c7ccbaea1db00d8e0c","E1","batch5","spm_respsonse","4429.299999952316","img/question_1_7.jpeg","5","mat_07","6","1","1","4429.299999952316","","","","","","","","","","","","","","","","","","","","",""
"","","","","","html-keyboard-response","18","238006","0.0-2.0-2.0-0.7","615081c7ccbaea1db00d8e0c","E1","batch5","spm_show_trial_num","null","<p class=block-text>Trial 8 out of 60</p>","null","","","","","","","","","","","","","","","","","","","","","","","","","",""
"","","","","","image-button-response","19","241531","0.0-2.0-2.0-1.7","615081c7ccbaea1db00d8e0c","E1","batch5","spm_respsonse","3522.7000000476837","img/question_1_8.jpeg","1","mat_08","2","1","1","3522.7000000476837","","","","","","","","","","","","","","","","","","","","",""
"","","","","","html-keyboard-response","20","242607","0.0-2.0-2.0-0.8","615081c7ccbaea1db00d8e0c","E1","batch5","spm_show_trial_num","null","<p class=block-text>Trial 9 out of 60</p>","null","","","","","","","","","","","","","","","","","","","","","","","","","",""
"","","","","","image-button-response","21","245403","0.0-2.0-2.0-1.8","615081c7ccbaea1db00d8e0c","E1","batch5","spm_respsonse","2794.2000000476837","img/question_1_9.jpeg","0","mat_09","1","1","1","2794.2000000476837","","","","","","","","","","","","","","","","","","","","",""
"","","","","","html-keyboard-response","22","246480","0.0-2.0-2.0-0.9","615081c7ccbaea1db00d8e0c","E1","batch5","spm_show_trial_num","null","<p class=block-text>Trial 10 out of 60</p>","null","","","","","","","","","","","","","","","","","","","","","","","","","",""
"","","","","","image-button-response","23","260871","0.0-2.0-2.0-1.9","615081c7ccbaea1db00d8e0c","E1","batch5","spm_respsonse","14388.600000023842","img/question_1_10.jpeg","2","mat_10","3","1","1","14388.600000023842","","","","","","","","","","","","","","","","","","","","",""
"","","","","","html-keyboard-response","24","261946","0.0-2.0-2.0-0.10","615081c7ccbaea1db00d8e0c","E1","batch5","spm_show_trial_num","null","<p class=block-text>Trial 11 out of 60</p>","null","","","","","","","","","","","","","","","","","","","","","","","","","",""
"","","","","","image-button-response","25","271143","0.0-2.0-2.0-1.10","615081c7ccbaea1db00d8e0c","E1","batch5","spm_respsonse","9194.799999952316","img/question_1_11.jpeg","3","mat_11","4","1","1","9194.799999952316","","","","","","","","","","","","","","","","","","","","",""
"","","","","","html-keyboard-response","26","272206","0.0-2.0-2.0-0.11","615081c7ccbaea1db00d8e0c","E1","batch5","spm_show_trial_num","null","<p class=block-text>Trial 12 out of 60</p>","null","","","","","","","","","","","","","","","","","","","","","","","","","",""
"","","","","","image-button-response","27","287657","0.0-2.0-2.0-1.11","615081c7ccbaea1db00d8e0c","E1","batch5","spm_respsonse","15449","img/question_1_12.jpeg","4","mat_12","5","1","1","15449","","","","","","","","","","","","","","","","","","","","",""
"","","","","","html-keyboard-response","28","288724","0.0-2.0-2.0-0.12","615081c7ccbaea1db00d8e0c","E1","batch5","spm_show_trial_num","null","<p class=block-text>Trial 13 out of 60</p>","null","","","","","","","","","","","","","","","","","","","","","","","","","",""
"","","","","","image-button-response","29","293225","0.0-2.0-2.0-1.12","615081c7ccbaea1db00d8e0c","E1","batch5","spm_respsonse","4499.399999976158","img/question_2_1.jpeg","1","mat_13","2","1","1","4499.399999976158","","","","","","","","","","","","","","","","","","","","",""
"","","","","","html-keyboard-response","30","294295","0.0-2.0-2.0-0.13","615081c7ccbaea1db00d8e0c","E1","batch5","spm_show_trial_num","null","<p class=block-text>Trial 14 out of 60</p>","null","","","","","","","","","","","","","","","","","","","","","","","","","",""
"","","","","","image-button-response","31","298645","0.0-2.0-2.0-1.13","615081c7ccbaea1db00d8e0c","E1","batch5","spm_respsonse","4347","img/question_2_2.jpeg","5","mat_14","6","1","1","4347","","","","","","","","","","","","","","","","","","","","",""
"","","","","","html-keyboard-response","32","299717","0.0-2.0-2.0-0.14","615081c7ccbaea1db00d8e0c","E1","batch5","spm_show_trial_num","null","<p class=block-text>Trial 15 out of 60</p>","null","","","","","","","","","","","","","","","","","","","","","","","","","",""
"","","","","","image-button-response","33","301897","0.0-2.0-2.0-1.14","615081c7ccbaea1db00d8e0c","E1","batch5","spm_respsonse","2177.100000023842","img/question_2_3.jpeg","0","mat_15","1","1","1","2177.100000023842","","","","","","","","","","","","","","","","","","","","",""
"","","","","","html-keyboard-response","34","302954","0.0-2.0-2.0-0.15","615081c7ccbaea1db00d8e0c","E1","batch5","spm_show_trial_num","null","<p class=block-text>Trial 16 out of 60</p>","null","","","","","","","","","","","","","","","","","","","","","","","","","",""
"","","","","","image-button-response","35","306399","0.0-2.0-2.0-1.15","615081c7ccbaea1db00d8e0c","E1","batch5","spm_respsonse","3443.100000023842","img/question_2_4.jpeg","1","mat_16","2","1","1","3443.100000023842","","","","","","","","","","","","","","","","","","","","",""
"","","","","","html-keyboard-response","36","307459","0.0-2.0-2.0-0.16","615081c7ccbaea1db00d8e0c","E1","batch5","spm_show_trial_num","null","<p class=block-text>Trial 17 out of 60</p>","null","","","","","","","","","","","","","","","","","","","","","","","","","",""
"","","","","","image-button-response","37","311214","0.0-2.0-2.0-1.16","615081c7ccbaea1db00d8e0c","E1","batch5","spm_respsonse","3752.3000000715256","img/question_2_5.jpeg","0","mat_17","1","1","1","3752.3000000715256","","","","","","","","","","","","","","","","","","","","",""
"","","","","","html-keyboard-response","38","312297","0.0-2.0-2.0-0.17","615081c7ccbaea1db00d8e0c","E1","batch5","spm_show_trial_num","null","<p class=block-text>Trial 18 out of 60</p>","null","","","","","","","","","","","","","","","","","","","","","","","","","",""
"","","","","","image-button-response","39","323593","0.0-2.0-2.0-1.17","615081c7ccbaea1db00d8e0c","E1","batch5","spm_respsonse","11294.100000023842","img/question_2_6.jpeg","2","mat_18","3","1","1","11294.100000023842","","","","","","","","","","","","","","","","","","","","",""
"","","","","","html-keyboard-response","40","324675","0.0-2.0-2.0-0.18","615081c7ccbaea1db00d8e0c","E1","batch5","spm_show_trial_num","null","<p class=block-text>Trial 19 out of 60</p>","null","","","","","","","","","","","","","","","","","","","","","","","","","",""
"","","","","","image-button-response","41","333671","0.0-2.0-2.0-1.18","615081c7ccbaea1db00d8e0c","E1","batch5","spm_respsonse","8992.899999976158","img/question_2_7.jpeg","4","mat_19","5","1","1","8992.899999976158","","","","","","","","","","","","","","","","","","","","",""
"","","","","","html-keyboard-response","42","334753","0.0-2.0-2.0-0.19","615081c7ccbaea1db00d8e0c","E1","batch5","spm_show_trial_num","null","<p class=block-text>Trial 20 out of 60</p>","null","","","","","","","","","","","","","","","","","","","","","","","","","",""
"","","","","","image-button-response","43","340281","0.0-2.0-2.0-1.19","615081c7ccbaea1db00d8e0c","E1","batch5","spm_respsonse","5526","img/question_2_8.jpeg","4","mat_20","6","0","0","5526","","","","","","","","","","","","","","","","","","","","",""
"","","","","","html-keyboard-response","44","341358","0.0-2.0-2.0-0.20","615081c7ccbaea1db00d8e0c","E1","batch5","spm_show_trial_num","null","<p class=block-text>Trial 21 out of 60</p>","null","","","","","","","","","","","","","","","","","","","","","","","","","",""
"","","","","","image-button-response","45","344595","0.0-2.0-2.0-1.20","615081c7ccbaea1db00d8e0c","E1","batch5","spm_respsonse","3234.600000023842","img/question_2_9.jpeg","3","mat_21","4","1","1","3234.600000023842","","","","","","","","","","","","","","","","","","","","",""
"","","","","","html-keyboard-response","46","345673","0.0-2.0-2.0-0.21","615081c7ccbaea1db00d8e0c","E1","batch5","spm_show_trial_num","null","<p class=block-text>Trial 22 out of 60</p>","null","","","","","","","","","","","","","","","","","","","","","","","","","",""
"","","","","","image-button-response","47","351741","0.0-2.0-2.0-1.21","615081c7ccbaea1db00d8e0c","E1","batch5","spm_respsonse","6066.100000023842","img/question_2_10.jpeg","2","mat_22","3","1","1","6066.100000023842","","","","","","","","","","","","","","","","","","","","",""
"","","","","","html-keyboard-response","48","352820","0.0-2.0-2.0-0.22","615081c7ccbaea1db00d8e0c","E1","batch5","spm_show_trial_num","null","<p class=block-text>Trial 23 out of 60</p>","null","","","","","","","","","","","","","","","","","","","","","","","","","",""
"","","","","","image-button-response","49","357519","0.0-2.0-2.0-1.22","615081c7ccbaea1db00d8e0c","E1","batch5","spm_respsonse","4696.299999952316","img/question_2_11.jpeg","3","mat_23","4","1","1","4696.299999952316","","","","","","","","","","","","","","","","","","","","",""
"","","","","","html-keyboard-response","50","358577","0.0-2.0-2.0-0.23","615081c7ccbaea1db00d8e0c","E1","batch5","spm_show_trial_num","null","<p class=block-text>Trial 24 out of 60</p>","null","","","","","","","","","","","","","","","","","","","","","","","","","",""
"","","","","","image-button-response","51","445253","0.0-2.0-2.0-1.23","615081c7ccbaea1db00d8e0c","E1","batch5","spm_respsonse","86674.19999992847","img/question_2_12.jpeg","4","mat_24","5","1","1","86674.19999992847","","","","","","","","","","","","","","","","","","","","",""
"","","","","","html-button-response","52","447445","0.0-2.0-3.0","615081c7ccbaea1db00d8e0c","E1","batch5","attention_check","1930.7999999523163","<p class = block-text>Attention check: Please choose 1<br></p>","0","","","true","","","","","","","","","","","","","","","","","","","","","","",""
"","","","","","html-keyboard-response","53","448247","0.0-2.0-4.0-0.0","615081c7ccbaea1db00d8e0c","E1","batch5","spm_show_trial_num","null","<p class=block-text>Trial 25 out of 60</p>","null","","","","","","","","","","","","","","","","","","","","","","","","","",""
"","","","","","image-button-response","54","488997","0.0-2.0-4.0-1.0","615081c7ccbaea1db00d8e0c","E1","batch5","spm_respsonse","40748.89999997616","img/question_3_1.jpeg","7","mat_25","8","1","1","40748.89999997616","","","","","","","","","","","","","","","","","","","","",""
"","","","","","html-keyboard-response","55","490051","0.0-2.0-4.0-0.1","615081c7ccbaea1db00d8e0c","E1","batch5","spm_show_trial_num","null","<p class=block-text>Trial 26 out of 60</p>","null","","","","","","","","","","","","","","","","","","","","","","","","","",""
"","","","","","image-button-response","56","502091","0.0-2.0-4.0-1.1","615081c7ccbaea1db00d8e0c","E1","batch5","spm_respsonse","12039","img/question_3_2.jpeg","1","mat_26","2","1","1","12039","","","","","","","","","","","","","","","","","","","","",""
"","","","","","html-keyboard-response","57","503144","0.0-2.0-4.0-0.2","615081c7ccbaea1db00d8e0c","E1","batch5","spm_show_trial_num","null","<p class=block-text>Trial 27 out of 60</p>","null","","","","","","","","","","","","","","","","","","","","","","","","","",""
"","","","","","image-button-response","58","534545","0.0-2.0-4.0-1.2","615081c7ccbaea1db00d8e0c","E1","batch5","spm_respsonse","31399.700000047684","img/question_3_3.jpeg","2","mat_27","3","1","1","31399.700000047684","","","","","","","","","","","","","","","","","","","","",""
"","","","","","html-keyboard-response","59","535599","0.0-2.0-4.0-0.3","615081c7ccbaea1db00d8e0c","E1","batch5","spm_show_trial_num","null","<p class=block-text>Trial 28 out of 60</p>","null","","","","","","","","","","","","","","","","","","","","","","","","","",""
"","","","","","image-button-response","60","567693","0.0-2.0-4.0-1.3","615081c7ccbaea1db00d8e0c","E1","batch5","spm_respsonse","32092.100000023842","img/question_3_4.jpeg","7","mat_28","8","1","1","32092.100000023842","","","","","","","","","","","","","","","","","","","","",""
"","","","","","html-keyboard-response","61","568750","0.0-2.0-4.0-0.4","615081c7ccbaea1db00d8e0c","E1","batch5","spm_show_trial_num","null","<p class=block-text>Trial 29 out of 60</p>","null","","","","","","","","","","","","","","","","","","","","","","","","","",""
"","","","","","image-button-response","62","587415","0.0-2.0-4.0-1.4","615081c7ccbaea1db00d8e0c","E1","batch5","spm_respsonse","18663.400000095367","img/question_3_5.jpeg","6","mat_29","7","1","1","18663.400000095367","","","","","","","","","","","","","","","","","","","","",""
"","","","","","html-keyboard-response","63","588474","0.0-2.0-4.0-0.5","615081c7ccbaea1db00d8e0c","E1","batch5","spm_show_trial_num","null","<p class=block-text>Trial 30 out of 60</p>","null","","","","","","","","","","","","","","","","","","","","","","","","","",""
"","","","","","image-button-response","64","600955","0.0-2.0-4.0-1.5","615081c7ccbaea1db00d8e0c","E1","batch5","spm_respsonse","12479.600000023842","img/question_3_6.jpeg","3","mat_30","4","1","1","12479.600000023842","","","","","","","","","","","","","","","","","","","","",""
"","","","","","html-keyboard-response","65","602021","0.0-2.0-4.0-0.6","615081c7ccbaea1db00d8e0c","E1","batch5","spm_show_trial_num","null","<p class=block-text>Trial 31 out of 60</p>","null","","","","","","","","","","","","","","","","","","","","","","","","","",""
"","","","","","image-button-response","66","611489","0.0-2.0-4.0-1.6","615081c7ccbaea1db00d8e0c","E1","batch5","spm_respsonse","9466.300000071526","img/question_3_7.jpeg","4","mat_31","5","1","1","9466.300000071526","","","","","","","","","","","","","","","","","","","","",""
"","","","","","html-keyboard-response","67","612564","0.0-2.0-4.0-0.7","615081c7ccbaea1db00d8e0c","E1","batch5","spm_show_trial_num","null","<p class=block-text>Trial 32 out of 60</p>","null","","","","","","","","","","","","","","","","","","","","","","","","","",""
"","","","","","image-button-response","68","639935","0.0-2.0-4.0-1.7","615081c7ccbaea1db00d8e0c","E1","batch5","spm_respsonse","27369.800000071526","img/question_3_8.jpeg","0","mat_32","1","1","1","27369.800000071526","","","","","","","","","","","","","","","","","","","","",""
"","","","","","html-keyboard-response","69","640993","0.0-2.0-4.0-0.8","615081c7ccbaea1db00d8e0c","E1","batch5","spm_show_trial_num","null","<p class=block-text>Trial 33 out of 60</p>","null","","","","","","","","","","","","","","","","","","","","","","","","","",""
"","","","","","image-button-response","70","650967","0.0-2.0-4.0-1.8","615081c7ccbaea1db00d8e0c","E1","batch5","spm_respsonse","9972.899999976158","img/question_3_9.jpeg","0","mat_33","7","0","0","9972.899999976158","","","","","","","","","","","","","","","","","","","","",""
"","","","","","html-keyboard-response","71","652036","0.0-2.0-4.0-0.9","615081c7ccbaea1db00d8e0c","E1","batch5","spm_show_trial_num","null","<p class=block-text>Trial 34 out of 60</p>","null","","","","","","","","","","","","","","","","","","","","","","","","","",""
"","","","","","image-button-response","72","696930","0.0-2.0-4.0-1.9","615081c7ccbaea1db00d8e0c","E1","batch5","spm_respsonse","44891.10000002384","img/question_3_10.jpeg","5","mat_34","6","1","1","44891.10000002384","","","","","","","","","","","","","","","","","","","","",""
"","","","","","html-keyboard-response","73","698000","0.0-2.0-4.0-0.10","615081c7ccbaea1db00d8e0c","E1","batch5","spm_show_trial_num","null","<p class=block-text>Trial 35 out of 60</p>","null","","","","","","","","","","","","","","","","","","","","","","","","","",""
"","","","","","image-button-response","74","945482","0.0-2.0-4.0-1.10","615081c7ccbaea1db00d8e0c","E1","batch5","spm_respsonse","247479.29999995232","img/question_3_11.jpeg","0","mat_35","1","1","1","247479.29999995232","","","","","","","","","","","","","","","","","","","","",""
"","","","","","html-keyboard-response","75","946566","0.0-2.0-4.0-0.11","615081c7ccbaea1db00d8e0c","E1","batch5","spm_show_trial_num","null","<p class=block-text>Trial 36 out of 60</p>","null","","","","","","","","","","","","","","","","","","","","","","","","","",""
"","","","","","image-button-response","76","975924","0.0-2.0-4.0-1.11","615081c7ccbaea1db00d8e0c","E1","batch5","spm_respsonse","29356.699999928474","img/question_3_12.jpeg","1","mat_36","2","1","1","29356.699999928474","","","","","","","","","","","","","","","","","","","","",""
"","","","","","html-keyboard-response","77","976980","0.0-2.0-4.0-0.12","615081c7ccbaea1db00d8e0c","E1","batch5","spm_show_trial_num","null","<p class=block-text>Trial 37 out of 60</p>","null","","","","","","","","","","","","","","","","","","","","","","","","","",""
"","","","","","image-button-response","78","986162","0.0-2.0-4.0-1.12","615081c7ccbaea1db00d8e0c","E1","batch5","spm_respsonse","9180.700000047684","img/question_4_1.jpeg","2","mat_37","3","1","1","9180.700000047684","","","","","","","","","","","","","","","","","","","","",""
"","","","","","html-keyboard-response","79","987239","0.0-2.0-4.0-0.13","615081c7ccbaea1db00d8e0c","E1","batch5","spm_show_trial_num","null","<p class=block-text>Trial 38 out of 60</p>","null","","","","","","","","","","","","","","","","","","","","","","","","","",""
"","","","","","image-button-response","80","998764","0.0-2.0-4.0-1.13","615081c7ccbaea1db00d8e0c","E1","batch5","spm_respsonse","11523.199999928474","img/question_4_2.jpeg","3","mat_38","4","1","1","11523.199999928474","","","","","","","","","","","","","","","","","","","","",""
"","","","","","html-keyboard-response","81","999836","0.0-2.0-4.0-0.14","615081c7ccbaea1db00d8e0c","E1","batch5","spm_show_trial_num","null","<p class=block-text>Trial 39 out of 60</p>","null","","","","","","","","","","","","","","","","","","","","","","","","","",""
"","","","","","image-button-response","82","1012099","0.0-2.0-4.0-1.14","615081c7ccbaea1db00d8e0c","E1","batch5","spm_respsonse","12260.300000071526","img/question_4_3.jpeg","2","mat_39","3","1","1","12260.300000071526","","","","","","","","","","","","","","","","","","","","",""
"","","","","","html-keyboard-response","83","1013166","0.0-2.0-4.0-0.15","615081c7ccbaea1db00d8e0c","E1","batch5","spm_show_trial_num","null","<p class=block-text>Trial 40 out of 60</p>","null","","","","","","","","","","","","","","","","","","","","","","","","","",""
"","","","","","image-button-response","84","1022818","0.0-2.0-4.0-1.15","615081c7ccbaea1db00d8e0c","E1","batch5","spm_respsonse","9650.300000071526","img/question_4_4.jpeg","6","mat_40","7","1","1","9650.300000071526","","","","","","","","","","","","","","","","","","","","",""
"","","","","","html-keyboard-response","85","1023877","0.0-2.0-4.0-0.16","615081c7ccbaea1db00d8e0c","E1","batch5","spm_show_trial_num","null","<p class=block-text>Trial 41 out of 60</p>","null","","","","","","","","","","","","","","","","","","","","","","","","","",""
"","","","","","image-button-response","86","1034734","0.0-2.0-4.0-1.16","615081c7ccbaea1db00d8e0c","E1","batch5","spm_respsonse","10855.299999952316","img/question_4_5.jpeg","7","mat_41","8","1","1","10855.299999952316","","","","","","","","","","","","","","","","","","","","",""
"","","","","","html-keyboard-response","87","1035805","0.0-2.0-4.0-0.17","615081c7ccbaea1db00d8e0c","E1","batch5","spm_show_trial_num","null","<p class=block-text>Trial 42 out of 60</p>","null","","","","","","","","","","","","","","","","","","","","","","","","","",""
"","","","","","image-button-response","88","1058399","0.0-2.0-4.0-1.17","615081c7ccbaea1db00d8e0c","E1","batch5","spm_respsonse","22591.399999976158","img/question_4_6.jpeg","5","mat_42","6","1","1","22591.399999976158","","","","","","","","","","","","","","","","","","","","",""
"","","","","","html-keyboard-response","89","1059462","0.0-2.0-4.0-0.18","615081c7ccbaea1db00d8e0c","E1","batch5","spm_show_trial_num","null","<p class=block-text>Trial 43 out of 60</p>","null","","","","","","","","","","","","","","","","","","","","","","","","","",""
"","","","","","image-button-response","90","1094936","0.0-2.0-4.0-1.18","615081c7ccbaea1db00d8e0c","E1","batch5","spm_respsonse","35472.90000009537","img/question_4_7.jpeg","4","mat_43","5","1","1","35472.90000009537","","","","","","","","","","","","","","","","","","","","",""
"","","","","","html-keyboard-response","91","1096004","0.0-2.0-4.0-0.19","615081c7ccbaea1db00d8e0c","E1","batch5","spm_show_trial_num","null","<p class=block-text>Trial 44 out of 60</p>","null","","","","","","","","","","","","","","","","","","","","","","","","","",""
"","","","","","image-button-response","92","1130503","0.0-2.0-4.0-1.19","615081c7ccbaea1db00d8e0c","E1","batch5","spm_respsonse","34496.700000047684","img/question_4_8.jpeg","3","mat_44","4","1","1","34496.700000047684","","","","","","","","","","","","","","","","","","","","",""
"","","","","","html-keyboard-response","93","1131554","0.0-2.0-4.0-0.20","615081c7ccbaea1db00d8e0c","E1","batch5","spm_show_trial_num","null","<p class=block-text>Trial 45 out of 60</p>","null","","","","","","","","","","","","","","","","","","","","","","","","","",""
"","","","","","image-button-response","94","1164267","0.0-2.0-4.0-1.20","615081c7ccbaea1db00d8e0c","E1","batch5","spm_respsonse","32711.299999952316","img/question_4_9.jpeg","0","mat_45","1","1","1","32711.299999952316","","","","","","","","","","","","","","","","","","","","",""
"","","","","","html-keyboard-response","95","1165333","0.0-2.0-4.0-0.21","615081c7ccbaea1db00d8e0c","E1","batch5","spm_show_trial_num","null","<p class=block-text>Trial 46 out of 60</p>","null","","","","","","","","","","","","","","","","","","","","","","","","","",""
"","","","","","image-button-response","96","1202918","0.0-2.0-4.0-1.21","615081c7ccbaea1db00d8e0c","E1","batch5","spm_respsonse","37582.89999997616","img/question_4_10.jpeg","1","mat_46","2","1","1","37582.89999997616","","","","","","","","","","","","","","","","","","","","",""
"","","","","","html-keyboard-response","97","1203982","0.0-2.0-4.0-0.22","615081c7ccbaea1db00d8e0c","E1","batch5","spm_show_trial_num","null","<p class=block-text>Trial 47 out of 60</p>","null","","","","","","","","","","","","","","","","","","","","","","","","","",""
"","","","","","image-button-response","98","1426405","0.0-2.0-4.0-1.22","615081c7ccbaea1db00d8e0c","E1","batch5","spm_respsonse","222420.39999997616","img/question_4_11.jpeg","4","mat_47","5","1","1","222420.39999997616","","","","","","","","","","","","","","","","","","","","",""
"","","","","","html-keyboard-response","99","1427462","0.0-2.0-4.0-0.23","615081c7ccbaea1db00d8e0c","E1","batch5","spm_show_trial_num","null","<p class=block-text>Trial 48 out of 60</p>","null","","","","","","","","","","","","","","","","","","","","","","","","","",""
"","","","","","image-button-response","100","1587863","0.0-2.0-4.0-1.23","615081c7ccbaea1db00d8e0c","E1","batch5","spm_respsonse","160398.30000007153","img/question_4_12.jpeg","4","mat_48","6","0","0","160398.30000007153","","","","","","","","","","","","","","","","","","","","",""
"","","","","","html-keyboard-response","101","1588926","0.0-2.0-4.0-0.24","615081c7ccbaea1db00d8e0c","E1","batch5","spm_show_trial_num","null","<p class=block-text>Trial 49 out of 60</p>","null","","","","","","","","","","","","","","","","","","","","","","","","","",""
"","","","","","image-button-response","102","1777694","0.0-2.0-4.0-1.24","615081c7ccbaea1db00d8e0c","E1","batch5","spm_respsonse","188765.90000009537","img/question_5_1.jpeg","6","mat_49","7","1","1","188765.90000009537","","","","","","","","","","","","","","","","","","","","",""
"","","","","","html-keyboard-response","103","1778756","0.0-2.0-4.0-0.25","615081c7ccbaea1db00d8e0c","E1","batch5","spm_show_trial_num","null","<p class=block-text>Trial 50 out of 60</p>","null","","","","","","","","","","","","","","","","","","","","","","","","","",""
"","","","","","image-button-response","104","1808401","0.0-2.0-4.0-1.25","615081c7ccbaea1db00d8e0c","E1","batch5","spm_respsonse","29643.100000023842","img/question_5_2.jpeg","5","mat_50","6","1","1","29643.100000023842","","","","","","","","","","","","","","","","","","","","",""
"","","","","","html-keyboard-response","105","1809471","0.0-2.0-4.0-0.26","615081c7ccbaea1db00d8e0c","E1","batch5","spm_show_trial_num","null","<p class=block-text>Trial 51 out of 60</p>","null","","","","","","","","","","","","","","","","","","","","","","","","","",""
"","","","","","image-button-response","106","1834472","0.0-2.0-4.0-1.26","615081c7ccbaea1db00d8e0c","E1","batch5","spm_respsonse","24997","img/question_5_3.jpeg","7","mat_51","8","1","1","24997","","","","","","","","","","","","","","","","","","","","",""
"","","","","","html-keyboard-response","107","1835531","0.0-2.0-4.0-0.27","615081c7ccbaea1db00d8e0c","E1","batch5","spm_show_trial_num","null","<p class=block-text>Trial 52 out of 60</p>","null","","","","","","","","","","","","","","","","","","","","","","","","","",""
"","","","","","image-button-response","108","1895943","0.0-2.0-4.0-1.27","615081c7ccbaea1db00d8e0c","E1","batch5","spm_respsonse","60410","img/question_5_4.jpeg","1","mat_52","2","1","1","60410","","","","","","","","","","","","","","","","","","","","",""
"","","","","","html-keyboard-response","109","1896995","0.0-2.0-4.0-0.28","615081c7ccbaea1db00d8e0c","E1","batch5","spm_show_trial_num","null","<p class=block-text>Trial 53 out of 60</p>","null","","","","","","","","","","","","","","","","","","","","","","","","","",""
"","","","","","image-button-response","110","2011226","0.0-2.0-4.0-1.28","615081c7ccbaea1db00d8e0c","E1","batch5","spm_respsonse","114228.10000002384","img/question_5_5.jpeg","0","mat_53","1","1","1","114228.10000002384","","","","","","","","","","","","","","","","","","","","",""
"","","","","","html-keyboard-response","111","2012299","0.0-2.0-4.0-0.29","615081c7ccbaea1db00d8e0c","E1","batch5","spm_show_trial_num","null","<p class=block-text>Trial 54 out of 60</p>","null","","","","","","","","","","","","","","","","","","","","","","","","","",""
"","","","","","image-button-response","112","2034002","0.0-2.0-4.0-1.29","615081c7ccbaea1db00d8e0c","E1","batch5","spm_respsonse","21700.799999952316","img/question_5_6.jpeg","4","mat_54","5","1","1","21700.799999952316","","","","","","","","","","","","","","","","","","","","",""
"","","","","","html-keyboard-response","113","2035055","0.0-2.0-4.0-0.30","615081c7ccbaea1db00d8e0c","E1","batch5","spm_show_trial_num","null","<p class=block-text>Trial 55 out of 60</p>","null","","","","","","","","","","","","","","","","","","","","","","","","","",""
"","","","","","image-button-response","114","2078554","0.0-2.0-4.0-1.30","615081c7ccbaea1db00d8e0c","E1","batch5","spm_respsonse","43497","img/question_5_7.jpeg","0","mat_55","1","1","1","43497","","","","","","","","","","","","","","","","","","","","",""
"","","","","","html-keyboard-response","115","2079616","0.0-2.0-4.0-0.31","615081c7ccbaea1db00d8e0c","E1","batch5","spm_show_trial_num","null","<p class=block-text>Trial 56 out of 60</p>","null","","","","","","","","","","","","","","","","","","","","","","","","","",""
"","","","","","image-button-response","116","2127550","0.0-2.0-4.0-1.31","615081c7ccbaea1db00d8e0c","E1","batch5","spm_respsonse","47931.90000009537","img/question_5_8.jpeg","5","mat_56","6","1","1","47931.90000009537","","","","","","","","","","","","","","","","","","","","",""
"","","","","","html-keyboard-response","117","2128615","0.0-2.0-4.0-0.32","615081c7ccbaea1db00d8e0c","E1","batch5","spm_show_trial_num","null","<p class=block-text>Trial 57 out of 60</p>","null","","","","","","","","","","","","","","","","","","","","","","","","","",""
"","","","","","image-button-response","118","2171714","0.0-2.0-4.0-1.32","615081c7ccbaea1db00d8e0c","E1","batch5","spm_respsonse","43097.60000002384","img/question_5_9.jpeg","2","mat_57","3","1","1","43097.60000002384","","","","","","","","","","","","","","","","","","","","",""
"","","","","","html-keyboard-response","119","2172767","0.0-2.0-4.0-0.33","615081c7ccbaea1db00d8e0c","E1","batch5","spm_show_trial_num","null","<p class=block-text>Trial 58 out of 60</p>","null","","","","","","","","","","","","","","","","","","","","","","","","","",""
"","","","","","image-button-response","120","2409200","0.0-2.0-4.0-1.33","615081c7ccbaea1db00d8e0c","E1","batch5","spm_respsonse","236430.39999997616","img/question_5_10.jpeg","5","mat_58","2","0","0","236430.39999997616","","","","","","","","","","","","","","","","","","","","",""
"","","","","","html-keyboard-response","121","2410259","0.0-2.0-4.0-0.34","615081c7ccbaea1db00d8e0c","E1","batch5","spm_show_trial_num","null","<p class=block-text>Trial 59 out of 60</p>","null","","","","","","","","","","","","","","","","","","","","","","","","","",""
"","","","","","image-button-response","122","2718695","0.0-2.0-4.0-1.34","615081c7ccbaea1db00d8e0c","E1","batch5","spm_respsonse","308432.2999999523","img/question_5_11.jpeg","3","mat_59","4","1","1","308432.2999999523","","","","","","","","","","","","","","","","","","","","",""
"","","","","","html-keyboard-response","123","2719775","0.0-2.0-4.0-0.35","615081c7ccbaea1db00d8e0c","E1","batch5","spm_show_trial_num","null","<p class=block-text>Trial 60 out of 60</p>","null","","","","","","","","","","","","","","","","","","","","","","","","","",""
"","","","","","image-button-response","124","2863236","0.0-2.0-4.0-1.35","615081c7ccbaea1db00d8e0c","E1","batch5","spm_respsonse","143456.79999995232","img/question_5_12.jpeg","4","mat_60","5","1","1","143456.79999995232","","","","","","","","","","","","","","","","","","","","",""
"","","","","","html-button-response","125","2865808","0.0-2.0-5.0","615081c7ccbaea1db00d8e0c","E1","batch5","spm_goodbye","2304.2000000476837","<p class= block-text>This concludes the Standard Progressive Matrix game. Thank you for your responses!<br> When you are ready, click the button continue</p>","0","","","","","","","","","","","","","","","","","","","","","","","","","",""
"true","","","","","fullscreen","126","2869322","0.0-3.0-0.0","615081c7ccbaea1db00d8e0c","E1","batch5","","","","","","","","","","","","","","","","","","","","","","","","","","","","","",""
"","","","","","instructions","127","2939752","0.0-3.0-1.0-0.0","615081c7ccbaea1db00d8e0c","E1","batch5","","70428.10000002384","","","","","","","","[{""page_index"":0,""viewing_time"":54252},{""page_index"":1,""viewing_time"":16175.800000071526}]","","","","","","","","","","","","","","","","","","","",""
"","","","","","html-button-response","128","2941608","0.0-3.0-1.0-1.0-0.0","615081c7ccbaea1db00d8e0c","E1","batch5","pattern_enter_quiz","1855.1000000238419","<p class=block-text> Let's answer a few questions <br>","0","","","","","","","","","","","","","","","","","","","","","","","","","",""
"","","","","","html-button-response","129","2946690","0.0-3.0-1.0-1.0-1.0","615081c7ccbaea1db00d8e0c","E1","batch5","pattern_quiz","5080.5","<p class = block-text>True or False: You will have as much time as you want to make each choice. <br></p>","1","","","true","","","","","","","","","","","","","","","","","","","","","","",""
"","","","","","html-button-response","130","2948026","0.0-3.0-1.0-1.0-2.0","615081c7ccbaea1db00d8e0c","E1","batch5","pattern_quiz_feedback","1334.7000000476837","<p class = block-text>Correct! You should make your choice <strong> as fast as you can</strong>.</p>","0","","","","","","","","","","","","","","","","","","","","","","","","","",""
"","","","","","html-button-response","131","2952424","0.0-3.0-1.0-1.0-3.0","615081c7ccbaea1db00d8e0c","E1","batch5","pattern_quiz","4397.299999952316","<p class = block-text>True or False: You will look for 4 pieces in black or white color connected in a row either horizontally, vertically or diagonally. <br></p>","0","","","true","","","","","","","","","","","","","","","","","","","","","","",""
"","","","","","html-button-response","132","2953148","0.0-3.0-1.0-1.0-4.0","615081c7ccbaea1db00d8e0c","E1","batch5","pattern_quiz_feedback","722.7999999523163","<p class = block-text>Correct! </p>","0","","","","","","","","","","","","","","","","","","","","","","","","","",""
"","","","","","html-button-response","133","2955322","0.0-3.0-2.0","615081c7ccbaea1db00d8e0c","E1","batch5","pattern_enter_practice","2172.5","<p class=block-text> Now that you've understood the game, let's do a few practice trials before we start!<br> <br>","0","","","","","","","","","","","","","","","","","","","","","","","","","",""
"","","","","","image-keyboard-response","134","2957127","0.0-3.0-3.0-0.0","615081c7ccbaea1db00d8e0c","E1","batch5","pattern_practice","1803.1000000238419","stim/prac_yes_18_hor_w1.png","f","","f","true","","","","","","","","","","","","","","","","","","","","","","",""
"","","","","","html-keyboard-response","135","2958147","0.0-3.0-3.0-1.0","615081c7ccbaea1db00d8e0c","E1","batch5","pattern_feedback","null","<p style=""font-size:30px;color:green;"">Correct!</p>","null","","","","","","","","","","","","","","","","","","","","","","","","","",""
"","","","","","image-keyboard-response","136","2959286","0.0-3.0-3.0-0.1","615081c7ccbaea1db00d8e0c","E1","batch5","pattern_practice","1136.8000000715256","stim/prac_yes_20_dia_b1.png","f","","f","true","","","","","","","","","","","","","","","","","","","","","","",""
"","","","","","html-keyboard-response","137","2960299","0.0-3.0-3.0-1.1","615081c7ccbaea1db00d8e0c","E1","batch5","pattern_feedback","null","<p style=""font-size:30px;color:green;"">Correct!</p>","null","","","","","","","","","","","","","","","","","","","","","","","","","",""
"","","","","","image-keyboard-response","138","2961582","0.0-3.0-3.0-0.2","615081c7ccbaea1db00d8e0c","E1","batch5","pattern_practice","1281.2000000476837","stim/prac_no_16_1.png","j","","j","true","","","","","","","","","","","","","","","","","","","","","","",""
"","","","","","html-keyboard-response","139","2962602","0.0-3.0-3.0-1.2","615081c7ccbaea1db00d8e0c","E1","batch5","pattern_feedback","null","<p style=""font-size:30px;color:green;"">Correct!</p>","null","","","","","","","","","","","","","","","","","","","","","","","","","",""
"","","","","","image-keyboard-response","140","2963542","0.0-3.0-3.0-0.3","615081c7ccbaea1db00d8e0c","E1","batch5","pattern_practice","939.2999999523163","stim/prac_no_18_1.png","j","","j","true","","","","","","","","","","","","","","","","","","","","","","",""
"","","","","","html-keyboard-response","141","2964555","0.0-3.0-3.0-1.3","615081c7ccbaea1db00d8e0c","E1","batch5","pattern_feedback","null","<p style=""font-size:30px;color:green;"">Correct!</p>","null","","","","","","","","","","","","","","","","","","","","","","","","","",""
"","","","","","image-keyboard-response","142","2965430","0.0-3.0-3.0-0.4","615081c7ccbaea1db00d8e0c","E1","batch5","pattern_practice","874.2000000476837","stim/prac_yes_16_ver_w1.png","f","","f","true","","","","","","","","","","","","","","","","","","","","","","",""
"","","","","","html-keyboard-response","143","2966448","0.0-3.0-3.0-1.4","615081c7ccbaea1db00d8e0c","E1","batch5","pattern_feedback","null","<p style=""font-size:30px;color:green;"">Correct!</p>","null","","","","","","","","","","","","","","","","","","","","","","","","","",""
"","","","","","html-button-response","144","2972928","0.0-3.0-4.0","615081c7ccbaea1db00d8e0c","E1","batch5","pattern_enter_official_trials","6479.100000023842","<p class=block-text> Good job! You are done with practice trials!<br>
        You responded correctly on 100% of the trials.<br>
        Press the button below to start official trials. Now you won't see any feedback about your response</p>","0","","","","","","","","","","","","","","","","","","","","","","","","","",""
"","","","","","html-keyboard-response","145","2973747","0.0-3.0-5.0-0.0","615081c7ccbaea1db00d8e0c","E1","batch5","pattern_show_trial_num","null","<p class=block-text>Trial 1 out of 78</p>","null","","","","","","","","","","","","","","","","","","","","","","","","","",""
"","","","","","image-keyboard-response","146","2974527","0.0-3.0-5.0-1.0","615081c7ccbaea1db00d8e0c","E1","batch5","pattern_response","777.9000000953674","stim/yes_12_hor_w1_w.png","f","pattern_42","f","true","","","","777.9000000953674","true","1","","","","","","","","","","","","","","","","",""
"","","","","","html-keyboard-response","147","2975831","0.0-3.0-5.0-0.1","615081c7ccbaea1db00d8e0c","E1","batch5","pattern_show_trial_num","null","<p class=block-text>Trial 2 out of 78</p>","null","","","","","","","","","","","","","","","","","","","","","","","","","",""
"","","","","","image-keyboard-response","148","2976822","0.0-3.0-5.0-1.1","615081c7ccbaea1db00d8e0c","E1","batch5","pattern_response","989.5","stim/yes_30_ver_b1_b.png","j","pattern_54","f","false","","","","989.5","false","1","","","","","","","","","","","","","","","","",""
"","","","","","html-keyboard-response","149","2978152","0.0-3.0-5.0-0.2","615081c7ccbaea1db00d8e0c","E1","batch5","pattern_show_trial_num","null","<p class=block-text>Trial 3 out of 78</p>","null","","","","","","","","","","","","","","","","","","","","","","","","","",""
"","","","","","image-keyboard-response","150","2979271","0.0-3.0-5.0-1.2","615081c7ccbaea1db00d8e0c","E1","batch5","pattern_response","1117.7999999523163","stim/yes_49_hor_w1_b.png","f","pattern_70","f","true","","","","1117.7999999523163","true","2","","","","","","","","","","","","","","","","",""
"","","","","","html-keyboard-response","151","2980603","0.0-3.0-5.0-0.3","615081c7ccbaea1db00d8e0c","E1","batch5","pattern_show_trial_num","null","<p class=block-text>Trial 4 out of 78</p>","null","","","","","","","","","","","","","","","","","","","","","","","","","",""
"","","","","","image-keyboard-response","152","2981374","0.0-3.0-5.0-1.3","615081c7ccbaea1db00d8e0c","E1","batch5","pattern_response","769.8999999761581","stim/yes_36_ver_w1_w.png","f","pattern_58","f","true","","","","769.8999999761581","true","3","","","","","","","","","","","","","","","","",""
"","","","","","html-keyboard-response","153","2982706","0.0-3.0-5.0-0.4","615081c7ccbaea1db00d8e0c","E1","batch5","pattern_show_trial_num","null","<p class=block-text>Trial 5 out of 78</p>","null","","","","","","","","","","","","","","","","","","","","","","","","","",""
"","","","","","image-keyboard-response","154","2983798","0.0-3.0-5.0-1.4","615081c7ccbaea1db00d8e0c","E1","batch5","pattern_response","1091.1999999284744","stim/no_30_1_b.png","j","pattern_13","j","true","","","","1091.1999999284744","true","4","","","","","","","","","","","","","","","","",""
"","","","","","html-keyboard-response","155","2985124","0.0-3.0-5.0-0.5","615081c7ccbaea1db00d8e0c","E1","batch5","pattern_show_trial_num","null","<p class=block-text>Trial 6 out of 78</p>","null","","","","","","","","","","","","","","","","","","","","","","","","","",""
"","","","","","image-keyboard-response","156","2986119","0.0-3.0-5.0-1.5","615081c7ccbaea1db00d8e0c","E1","batch5","pattern_response","993.1000000238419","stim/no_22_1_b.png","j","pattern_07","j","true","","","","993.1000000238419","true","5","","","","","","","","","","","","","","","","",""
"","","","","","html-keyboard-response","157","2987426","0.0-3.0-5.0-0.6","615081c7ccbaea1db00d8e0c","E1","batch5","pattern_show_trial_num","null","<p class=block-text>Trial 7 out of 78</p>","null","","","","","","","","","","","","","","","","","","","","","","","","","",""
"","","","","","image-keyboard-response","158","2990758","0.0-3.0-5.0-1.6","615081c7ccbaea1db00d8e0c","E1","batch5","pattern_response","3330.5","stim/yes_63_dia_b1.png","j","pattern_78","f","false","","","","3330.5","false","5","","","","","","","","","","","","","","","","",""
"","","","","","html-keyboard-response","159","2992095","0.0-3.0-5.0-0.7","615081c7ccbaea1db00d8e0c","E1","batch5","pattern_show_trial_num","null","<p class=block-text>Trial 8 out of 78</p>","null","","","","","","","","","","","","","","","","","","","","","","","","","",""
"","","","","","image-keyboard-response","160","2993678","0.0-3.0-5.0-1.7","615081c7ccbaea1db00d8e0c","E1","batch5","pattern_response","1581.2999999523163","stim/no_37_2_w.png","j","pattern_19","j","true","","","","1581.2999999523163","true","6","","","","","","","","","","","","","","","","",""
"","","","","","html-keyboard-response","161","2994984","0.0-3.0-5.0-0.8","615081c7ccbaea1db00d8e0c","E1","batch5","pattern_show_trial_num","null","<p class=block-text>Trial 9 out of 78</p>","null","","","","","","","","","","","","","","","","","","","","","","","","","",""
"","","","","","image-keyboard-response","162","2995704","0.0-3.0-5.0-1.8","615081c7ccbaea1db00d8e0c","E1","batch5","pattern_response","718","stim/yes_17_ver_b1_b.png","f","pattern_46","f","true","","","","718","true","7","","","","","","","","","","","","","","","","",""
"","","","","","html-keyboard-response","163","2997036","0.0-3.0-5.0-0.9","615081c7ccbaea1db00d8e0c","E1","batch5","pattern_show_trial_num","null","<p class=block-text>Trial 10 out of 78</p>","null","","","","","","","","","","","","","","","","","","","","","","","","","",""
"","","","","","image-keyboard-response","164","2999615","0.0-3.0-5.0-1.9","615081c7ccbaea1db00d8e0c","E1","batch5","pattern_response","2577.1999999284744","stim/yes_51_dia_b1.png","f","pattern_72","f","true","","","","2577.1999999284744","true","8","","","","","","","","","","","","","","","","",""
"","","","","","html-keyboard-response","165","3000923","0.0-3.0-5.0-0.10","615081c7ccbaea1db00d8e0c","E1","batch5","pattern_show_trial_num","null","<p class=block-text>Trial 11 out of 78</p>","null","","","","","","","","","","","","","","","","","","","","","","","","","",""
"","","","","","image-keyboard-response","166","3002591","0.0-3.0-5.0-1.10","615081c7ccbaea1db00d8e0c","E1","batch5","pattern_response","1665.2000000476837","stim/no_51_1.png","j","pattern_31","j","true","","","","1665.2000000476837","true","9","","","","","","","","","","","","","","","","",""
"","","","","","html-keyboard-response","167","3003893","0.0-3.0-5.0-0.11","615081c7ccbaea1db00d8e0c","E1","batch5","pattern_show_trial_num","null","<p class=block-text>Trial 12 out of 78</p>","null","","","","","","","","","","","","","","","","","","","","","","","","","",""
"","","","","","image-keyboard-response","168","3006767","0.0-3.0-5.0-1.11","615081c7ccbaea1db00d8e0c","E1","batch5","pattern_response","2872","stim/yes_44_ver_w1_w.png","f","pattern_66","f","true","","","","2872","true","10","","","","","","","","","","","","","","","","",""
"","","","","","html-keyboard-response","169","3008098","0.0-3.0-5.0-0.12","615081c7ccbaea1db00d8e0c","E1","batch5","pattern_show_trial_num","null","<p class=block-text>Trial 13 out of 78</p>","null","","","","","","","","","","","","","","","","","","","","","","","","","",""
"","","","","","image-keyboard-response","170","3009719","0.0-3.0-5.0-1.12","615081c7ccbaea1db00d8e0c","E1","batch5","pattern_response","1619.8999999761581","stim/no_25_1_b.png","j","pattern_09","j","true","","","","1619.8999999761581","true","11","","","","","","","","","","","","","","","","",""
"","","","","","html-keyboard-response","171","3011034","0.0-3.0-5.0-0.13","615081c7ccbaea1db00d8e0c","E1","batch5","pattern_show_trial_num","null","<p class=block-text>Trial 14 out of 78</p>","null","","","","","","","","","","","","","","","","","","","","","","","","","",""
"","","","","","image-keyboard-response","172","3011919","0.0-3.0-5.0-1.13","615081c7ccbaea1db00d8e0c","E1","batch5","pattern_response","883.6000000238419","stim/yes_39_hor_w1_w.png","f","pattern_62","f","true","","","","883.6000000238419","true","12","","","","","","","","","","","","","","","","",""
"","","","","","html-keyboard-response","173","3013237","0.0-3.0-5.0-0.14","615081c7ccbaea1db00d8e0c","E1","batch5","pattern_show_trial_num","null","<p class=block-text>Trial 15 out of 78</p>","null","","","","","","","","","","","","","","","","","","","","","","","","","",""
"","","","","","image-keyboard-response","174","3014455","0.0-3.0-5.0-1.14","615081c7ccbaea1db00d8e0c","E1","batch5","pattern_response","1216.8999999761581","stim/yes_46_ver_b1_b.png","f","pattern_68","f","true","","","","1216.8999999761581","true","13","","","","","","","","","","","","","","","","",""
"","","","","","html-keyboard-response","175","3015789","0.0-3.0-5.0-0.15","615081c7ccbaea1db00d8e0c","E1","batch5","pattern_show_trial_num","null","<p class=block-text>Trial 16 out of 78</p>","null","","","","","","","","","","","","","","","","","","","","","","","","","",""
"","","","","","image-keyboard-response","176","3016624","0.0-3.0-5.0-1.15","615081c7ccbaea1db00d8e0c","E1","batch5","pattern_response","833.1000000238419","stim/no_15_1_w.png","j","pattern_03","j","true","","","","833.1000000238419","true","14","","","","","","","","","","","","","","","","",""
"","","","","","html-keyboard-response","177","3017940","0.0-3.0-5.0-0.16","615081c7ccbaea1db00d8e0c","E1","batch5","pattern_show_trial_num","null","<p class=block-text>Trial 17 out of 78</p>","null","","","","","","","","","","","","","","","","","","","","","","","","","",""
"","","","","","image-keyboard-response","178","3020487","0.0-3.0-5.0-1.16","615081c7ccbaea1db00d8e0c","E1","batch5","pattern_response","2545.2000000476837","stim/no_43_2_b.png","j","pattern_23","j","true","","","","2545.2000000476837","true","15","","","","","","","","","","","","","","","","",""
"","","","","","html-keyboard-response","179","3021811","0.0-3.0-5.0-0.17","615081c7ccbaea1db00d8e0c","E1","batch5","pattern_show_trial_num","null","<p class=block-text>Trial 18 out of 78</p>","null","","","","","","","","","","","","","","","","","","","","","","","","","",""
"","","","","","image-keyboard-response","180","3024711","0.0-3.0-5.0-1.17","615081c7ccbaea1db00d8e0c","E1","batch5","pattern_response","2898.5","stim/no_49_2_b.png","j","pattern_29","j","true","","","","2898.5","true","16","","","","","","","","","","","","","","","","",""
"","","","","","html-keyboard-response","181","3026032","0.0-3.0-5.0-0.18","615081c7ccbaea1db00d8e0c","E1","batch5","pattern_show_trial_num","null","<p class=block-text>Trial 19 out of 78</p>","null","","","","","","","","","","","","","","","","","","","","","","","","","",""
"","","","","","image-keyboard-response","182","3027823","0.0-3.0-5.0-1.18","615081c7ccbaea1db00d8e0c","E1","batch5","pattern_response","1789.6000000238419","stim/yes_42_dia_w1_w.png","f","pattern_64","f","true","","","","1789.6000000238419","true","17","","","","","","","","","","","","","","","","",""
"","","","","","html-keyboard-response","183","3029152","0.0-3.0-5.0-0.19","615081c7ccbaea1db00d8e0c","E1","batch5","pattern_show_trial_num","null","<p class=block-text>Trial 20 out of 78</p>","null","","","","","","","","","","","","","","","","","","","","","","","","","",""
"","","","","","image-keyboard-response","184","3030375","0.0-3.0-5.0-1.19","615081c7ccbaea1db00d8e0c","E1","batch5","pattern_response","1221.2999999523163","stim/no_12_1.png","j","pattern_01","j","true","","","","1221.2999999523163","true","18","","","","","","","","","","","","","","","","",""
"","","","","","html-keyboard-response","185","3031688","0.0-3.0-5.0-0.20","615081c7ccbaea1db00d8e0c","E1","batch5","pattern_show_trial_num","null","<p class=block-text>Trial 21 out of 78</p>","null","","","","","","","","","","","","","","","","","","","","","","","","","",""
"","","","","","image-keyboard-response","186","3035839","0.0-3.0-5.0-1.20","615081c7ccbaea1db00d8e0c","E1","batch5","pattern_response","4149.799999952316","stim/yes_53_ver_b1_b.png","f","pattern_74","f","true","","","","4149.799999952316","true","19","","","","","","","","","","","","","","","","",""
"","","","","","html-keyboard-response","187","3037159","0.0-3.0-5.0-0.21","615081c7ccbaea1db00d8e0c","E1","batch5","pattern_show_trial_num","null","<p class=block-text>Trial 22 out of 78</p>","null","","","","","","","","","","","","","","","","","","","","","","","","","",""
"","","","","","image-keyboard-response","188","3040623","0.0-3.0-5.0-1.21","615081c7ccbaea1db00d8e0c","E1","batch5","pattern_response","3461.9000000953674","stim/no_47_1_b.png","j","pattern_27","j","true","","","","3461.9000000953674","true","20","","","","","","","","","","","","","","","","",""
"","","","","","html-keyboard-response","189","3041948","0.0-3.0-5.0-0.22","615081c7ccbaea1db00d8e0c","E1","batch5","pattern_show_trial_num","null","<p class=block-text>Trial 23 out of 78</p>","null","","","","","","","","","","","","","","","","","","","","","","","","","",""
"","","","","","image-keyboard-response","190","3042943","0.0-3.0-5.0-1.22","615081c7ccbaea1db00d8e0c","E1","batch5","pattern_response","993.6999999284744","stim/yes_23_ver_b1.png","f","pattern_48","f","true","","","","993.6999999284744","true","21","","","","","","","","","","","","","","","","",""
"","","","","","html-keyboard-response","191","3044267","0.0-3.0-5.0-0.23","615081c7ccbaea1db00d8e0c","E1","batch5","pattern_show_trial_num","null","<p class=block-text>Trial 24 out of 78</p>","null","","","","","","","","","","","","","","","","","","","","","","","","","",""
"","","","","","image-keyboard-response","192","3045023","0.0-3.0-5.0-1.23","615081c7ccbaea1db00d8e0c","E1","batch5","pattern_response","755.1999999284744","stim/yes_15_dia_b1u_b.png","f","pattern_44","f","true","","","","755.1999999284744","true","22","","","","","","","","","","","","","","","","",""
"","","","","","html-keyboard-response","193","3046335","0.0-3.0-5.0-0.24","615081c7ccbaea1db00d8e0c","E1","batch5","pattern_show_trial_num","null","<p class=block-text>Trial 25 out of 78</p>","null","","","","","","","","","","","","","","","","","","","","","","","","","",""
"","","","","","image-keyboard-response","194","3048416","0.0-3.0-5.0-1.24","615081c7ccbaea1db00d8e0c","E1","batch5","pattern_response","2078.8000000715256","stim/no_28_2.png","j","pattern_11","j","true","","","","2078.8000000715256","true","23","","","","","","","","","","","","","","","","",""
"","","","","","html-keyboard-response","195","3049740","0.0-3.0-5.0-0.25","615081c7ccbaea1db00d8e0c","E1","batch5","pattern_show_trial_num","null","<p class=block-text>Trial 26 out of 78</p>","null","","","","","","","","","","","","","","","","","","","","","","","","","",""
"","","","","","image-keyboard-response","196","3051359","0.0-3.0-5.0-1.25","615081c7ccbaea1db00d8e0c","E1","batch5","pattern_response","1618.6000000238419","stim/yes_26_dia_w2_w.png","f","pattern_50","f","true","","","","1618.6000000238419","true","24","","","","","","","","","","","","","","","","",""
"","","","","","html-keyboard-response","197","3052675","0.0-3.0-5.0-0.26","615081c7ccbaea1db00d8e0c","E1","batch5","pattern_show_trial_num","null","<p class=block-text>Trial 27 out of 78</p>","null","","","","","","","","","","","","","","","","","","","","","","","","","",""
"","","","","","image-keyboard-response","198","3053983","0.0-3.0-5.0-1.26","615081c7ccbaea1db00d8e0c","E1","batch5","pattern_response","1307.2000000476837","stim/no_18_1_b.png","j","pattern_05","j","true","","","","1307.2000000476837","true","25","","","","","","","","","","","","","","","","",""
"","","","","","html-keyboard-response","199","3055311","0.0-3.0-5.0-0.27","615081c7ccbaea1db00d8e0c","E1","batch5","pattern_show_trial_num","null","<p class=block-text>Trial 28 out of 78</p>","null","","","","","","","","","","","","","","","","","","","","","","","","","",""
"","","","","","image-keyboard-response","200","3059840","0.0-3.0-5.0-1.27","615081c7ccbaea1db00d8e0c","E1","batch5","pattern_response","4527.300000071526","stim/no_53_1_b.png","j","pattern_33","j","true","","","","4527.300000071526","true","26","","","","","","","","","","","","","","","","",""
"","","","","","html-keyboard-response","201","3061167","0.0-3.0-5.0-0.28","615081c7ccbaea1db00d8e0c","E1","batch5","pattern_show_trial_num","null","<p class=block-text>Trial 29 out of 78</p>","null","","","","","","","","","","","","","","","","","","","","","","","","","",""
"","","","","","image-keyboard-response","202","3062240","0.0-3.0-5.0-1.28","615081c7ccbaea1db00d8e0c","E1","batch5","pattern_response","1070.6000000238419","stim/yes_29_hor_b1_b.png","f","pattern_52","f","true","","","","1070.6000000238419","true","27","","","","","","","","","","","","","","","","",""
"","","","","","html-keyboard-response","203","3063553","0.0-3.0-5.0-0.29","615081c7ccbaea1db00d8e0c","E1","batch5","pattern_show_trial_num","null","<p class=block-text>Trial 30 out of 78</p>","null","","","","","","","","","","","","","","","","","","","","","","","","","",""
"","","","","","image-keyboard-response","204","3069816","0.0-3.0-5.0-1.29","615081c7ccbaea1db00d8e0c","E1","batch5","pattern_response","6261.300000071526","stim/no_67_1.png","j","pattern_39","j","true","","","","6261.300000071526","true","28","","","","","","","","","","","","","","","","",""
"","","","","","html-keyboard-response","205","3071138","0.0-3.0-5.0-0.30","615081c7ccbaea1db00d8e0c","E1","batch5","pattern_show_trial_num","null","<p class=block-text>Trial 31 out of 78</p>","null","","","","","","","","","","","","","","","","","","","","","","","","","",""
"","","","","","image-keyboard-response","206","3075535","0.0-3.0-5.0-1.30","615081c7ccbaea1db00d8e0c","E1","batch5","pattern_response","4396.699999928474","stim/no_45_1_w.png","j","pattern_25","j","true","","","","4396.699999928474","true","29","","","","","","","","","","","","","","","","",""
"","","","","","html-keyboard-response","207","3076865","0.0-3.0-5.0-0.31","615081c7ccbaea1db00d8e0c","E1","batch5","pattern_show_trial_num","null","<p class=block-text>Trial 32 out of 78</p>","null","","","","","","","","","","","","","","","","","","","","","","","","","",""
"","","","","","image-keyboard-response","208","3079359","0.0-3.0-5.0-1.31","615081c7ccbaea1db00d8e0c","E1","batch5","pattern_response","2492","stim/no_39_1_w.png","j","pattern_21","j","true","","","","2492","true","30","","","","","","","","","","","","","","","","",""
"","","","","","html-keyboard-response","209","3080683","0.0-3.0-5.0-0.32","615081c7ccbaea1db00d8e0c","E1","batch5","pattern_show_trial_num","null","<p class=block-text>Trial 33 out of 78</p>","null","","","","","","","","","","","","","","","","","","","","","","","","","",""
"","","","","","image-keyboard-response","210","3083519","0.0-3.0-5.0-1.32","615081c7ccbaea1db00d8e0c","E1","batch5","pattern_response","2834.399999976158","stim/no_33_1_b.png","j","pattern_15","j","true","","","","2834.399999976158","true","31","","","","","","","","","","","","","","","","",""
"","","","","","html-keyboard-response","211","3084839","0.0-3.0-5.0-0.33","615081c7ccbaea1db00d8e0c","E1","batch5","pattern_show_trial_num","null","<p class=block-text>Trial 34 out of 78</p>","null","","","","","","","","","","","","","","","","","","","","","","","","","",""
"","","","","","image-keyboard-response","212","3089096","0.0-3.0-5.0-1.33","615081c7ccbaea1db00d8e0c","E1","batch5","pattern_response","4254.5","stim/no_58_1_w.png","j","pattern_35","j","true","","","","4254.5","true","32","","","","","","","","","","","","","","","","",""
"","","","","","html-keyboard-response","213","3090426","0.0-3.0-5.0-0.34","615081c7ccbaea1db00d8e0c","E1","batch5","pattern_show_trial_num","null","<p class=block-text>Trial 35 out of 78</p>","null","","","","","","","","","","","","","","","","","","","","","","","","","",""
"","","","","","image-keyboard-response","214","3091359","0.0-3.0-5.0-1.34","615081c7ccbaea1db00d8e0c","E1","batch5","pattern_response","930.7000000476837","stim/yes_37_hor_w1_w.png","f","pattern_60","f","true","","","","930.7000000476837","true","33","","","","","","","","","","","","","","","","",""
"","","","","","html-keyboard-response","215","3092681","0.0-3.0-5.0-0.35","615081c7ccbaea1db00d8e0c","E1","batch5","pattern_show_trial_num","null","<p class=block-text>Trial 36 out of 78</p>","null","","","","","","","","","","","","","","","","","","","","","","","","","",""
"","","","","","image-keyboard-response","216","3094623","0.0-3.0-5.0-1.35","615081c7ccbaea1db00d8e0c","E1","batch5","pattern_response","1940.8999999761581","stim/yes_33_dia_w1_w.png","f","pattern_56","f","true","","","","1940.8999999761581","true","34","","","","","","","","","","","","","","","","",""
"","","","","","html-keyboard-response","217","3095935","0.0-3.0-5.0-0.36","615081c7ccbaea1db00d8e0c","E1","batch5","pattern_show_trial_num","null","<p class=block-text>Trial 37 out of 78</p>","null","","","","","","","","","","","","","","","","","","","","","","","","","",""
"","","","","","image-keyboard-response","218","3097607","0.0-3.0-5.0-1.36","615081c7ccbaea1db00d8e0c","E1","batch5","pattern_response","1671.2000000476837","stim/yes_70_ver_b1.png","f","pattern_80","f","true","","","","1671.2000000476837","true","35","","","","","","","","","","","","","","","","",""
"","","","","","html-keyboard-response","219","3098938","0.0-3.0-5.0-0.37","615081c7ccbaea1db00d8e0c","E1","batch5","pattern_show_trial_num","null","<p class=block-text>Trial 38 out of 78</p>","null","","","","","","","","","","","","","","","","","","","","","","","","","",""
"","","","","","image-keyboard-response","220","3103639","0.0-3.0-5.0-1.37","615081c7ccbaea1db00d8e0c","E1","batch5","pattern_response","4700.199999928474","stim/no_36_1_b.png","j","pattern_17","j","true","","","","4700.199999928474","true","36","","","","","","","","","","","","","","","","",""
"","","","","","html-keyboard-response","221","3104960","0.0-3.0-5.0-0.38","615081c7ccbaea1db00d8e0c","E1","batch5","pattern_show_trial_num","null","<p class=block-text>Trial 39 out of 78</p>","null","","","","","","","","","","","","","","","","","","","","","","","","","",""
"","","","","","image-keyboard-response","222","3111016","0.0-3.0-5.0-1.38","615081c7ccbaea1db00d8e0c","E1","batch5","pattern_response","6054.299999952316","stim/yes_58_dia_w1_w.png","j","pattern_76","f","false","","","","6054.299999952316","false","36","","","","","","","","","","","","","","","","",""
"","","","","","image-keyboard-response","223","3113752","0.0-3.0-6.0","615081c7ccbaea1db00d8e0c","E1","batch5","attention_check","2233.600000023842","stim/empty_board.png","j","","j","true","","","","","","","500","[""f"",""j""]","","","","","","","","","","","","","","",""
"","","","","","html-keyboard-response","224","3114568","0.0-3.0-7.0-0.0","615081c7ccbaea1db00d8e0c","E1","batch5","pattern_show_trial_num","null","<p class=block-text>Trial 40 out of 78</p>","null","","","","","","","","","","","","","","","","","","","","","","","","","",""
"","","","","","image-keyboard-response","225","3117624","0.0-3.0-7.0-1.0","615081c7ccbaea1db00d8e0c","E1","batch5","pattern_response","3053.3000000715256","stim/yes_50_dia_w1.png","f","pattern_71","f","true","","","","3053.3000000715256","true","37","","","","","","","","","","","","","","","","",""
"","","","","","html-keyboard-response","226","3118958","0.0-3.0-7.0-0.1","615081c7ccbaea1db00d8e0c","E1","batch5","pattern_show_trial_num","null","<p class=block-text>Trial 41 out of 78</p>","null","","","","","","","","","","","","","","","","","","","","","","","","","",""
"","","","","","image-keyboard-response","227","3121976","0.0-3.0-7.0-1.1","615081c7ccbaea1db00d8e0c","E1","batch5","pattern_response","3016.5","stim/no_34_1_b.png","j","pattern_16","j","true","","","","3016.5","true","38","","","","","","","","","","","","","","","","",""
"","","","","","html-keyboard-response","228","3123295","0.0-3.0-7.0-0.2","615081c7ccbaea1db00d8e0c","E1","batch5","pattern_show_trial_num","null","<p class=block-text>Trial 42 out of 78</p>","null","","","","","","","","","","","","","","","","","","","","","","","","","",""
"","","","","","image-keyboard-response","229","3128688","0.0-3.0-7.0-1.2","615081c7ccbaea1db00d8e0c","E1","batch5","pattern_response","5391.5","stim/no_55_1_w.png","j","pattern_34","j","true","","","","5391.5","true","39","","","","","","","","","","","","","","","","",""
"","","","","","html-keyboard-response","230","3130002","0.0-3.0-7.0-0.3","615081c7ccbaea1db00d8e0c","E1","batch5","pattern_show_trial_num","null","<p class=block-text>Trial 43 out of 78</p>","null","","","","","","","","","","","","","","","","","","","","","","","","","",""
"","","","","","image-keyboard-response","231","3130976","0.0-3.0-7.0-1.3","615081c7ccbaea1db00d8e0c","E1","batch5","pattern_response","971.2000000476837","stim/yes_25_hor_b1_b.png","f","pattern_49","f","true","","","","971.2000000476837","true","40","","","","","","","","","","","","","","","","",""
"","","","","","html-keyboard-response","232","3132288","0.0-3.0-7.0-0.4","615081c7ccbaea1db00d8e0c","E1","batch5","pattern_show_trial_num","null","<p class=block-text>Trial 44 out of 78</p>","null","","","","","","","","","","","","","","","","","","","","","","","","","",""
"","","","","","image-keyboard-response","233","3138257","0.0-3.0-7.0-1.4","615081c7ccbaea1db00d8e0c","E1","batch5","pattern_response","5966.800000071526","stim/no_70_2.png","j","pattern_40","j","true","","","","5966.800000071526","true","41","","","","","","","","","","","","","","","","",""
"","","","","","html-keyboard-response","234","3139563","0.0-3.0-7.0-0.5","615081c7ccbaea1db00d8e0c","E1","batch5","pattern_show_trial_num","null","<p class=block-text>Trial 45 out of 78</p>","null","","","","","","","","","","","","","","","","","","","","","","","","","",""
"","","","","","image-keyboard-response","235","3145403","0.0-3.0-7.0-1.5","615081c7ccbaea1db00d8e0c","E1","batch5","pattern_response","5837.799999952316","stim/yes_67_hor_b1.png","f","pattern_79","f","true","","","","5837.799999952316","true","42","","","","","","","","","","","","","","","","",""
"","","","","","html-keyboard-response","236","3146737","0.0-3.0-7.0-0.6","615081c7ccbaea1db00d8e0c","E1","batch5","pattern_show_trial_num","null","<p class=block-text>Trial 46 out of 78</p>","null","","","","","","","","","","","","","","","","","","","","","","","","","",""
"","","","","","image-keyboard-response","237","3151097","0.0-3.0-7.0-1.6","615081c7ccbaea1db00d8e0c","E1","batch5","pattern_response","4358.899999976158","stim/no_36_2_w.png","j","pattern_18","j","true","","","","4358.899999976158","true","43","","","","","","","","","","","","","","","","",""
"","","","","","html-keyboard-response","238","3152408","0.0-3.0-7.0-0.7","615081c7ccbaea1db00d8e0c","E1","batch5","pattern_show_trial_num","null","<p class=block-text>Trial 47 out of 78</p>","null","","","","","","","","","","","","","","","","","","","","","","","","","",""
"","","","","","image-keyboard-response","239","3157626","0.0-3.0-7.0-1.7","615081c7ccbaea1db00d8e0c","E1","batch5","pattern_response","5215.600000023842","stim/no_46_1_b.png","j","pattern_26","j","true","","","","5215.600000023842","true","44","","","","","","","","","","","","","","","","",""
"","","","","","html-keyboard-response","240","3158947","0.0-3.0-7.0-0.8","615081c7ccbaea1db00d8e0c","E1","batch5","pattern_show_trial_num","null","<p class=block-text>Trial 48 out of 78</p>","null","","","","","","","","","","","","","","","","","","","","","","","","","",""
"","","","","","image-keyboard-response","241","3161986","0.0-3.0-7.0-1.8","615081c7ccbaea1db00d8e0c","E1","batch5","pattern_response","3036.7000000476837","stim/no_29_1_b.png","j","pattern_12","j","true","","","","3036.7000000476837","true","45","","","","","","","","","","","","","","","","",""
"","","","","","html-keyboard-response","242","3163318","0.0-3.0-7.0-0.9","615081c7ccbaea1db00d8e0c","E1","batch5","pattern_show_trial_num","null","<p class=block-text>Trial 49 out of 78</p>","null","","","","","","","","","","","","","","","","","","","","","","","","","",""
"","","","","","image-keyboard-response","243","3166369","0.0-3.0-7.0-1.9","615081c7ccbaea1db00d8e0c","E1","batch5","pattern_response","3050.100000023842","stim/no_32_1_w.png","j","pattern_14","j","true","","","","3050.100000023842","true","46","","","","","","","","","","","","","","","","",""
"","","","","","html-keyboard-response","244","3167690","0.0-3.0-7.0-0.10","615081c7ccbaea1db00d8e0c","E1","batch5","pattern_show_trial_num","null","<p class=block-text>Trial 50 out of 78</p>","null","","","","","","","","","","","","","","","","","","","","","","","","","",""
"","","","","","image-keyboard-response","245","3174194","0.0-3.0-7.0-1.10","615081c7ccbaea1db00d8e0c","E1","batch5","pattern_response","6502.100000023842","stim/no_65_1_b.png","j","pattern_38","j","true","","","","6502.100000023842","true","47","","","","","","","","","","","","","","","","",""
"","","","","","html-keyboard-response","246","3175515","0.0-3.0-7.0-0.11","615081c7ccbaea1db00d8e0c","E1","batch5","pattern_show_trial_num","null","<p class=block-text>Trial 51 out of 78</p>","null","","","","","","","","","","","","","","","","","","","","","","","","","",""
"","","","","","image-keyboard-response","247","3176618","0.0-3.0-7.0-1.11","615081c7ccbaea1db00d8e0c","E1","batch5","pattern_response","1101.3000000715256","stim/yes_31_hor_b1.png","f","pattern_55","f","true","","","","1101.3000000715256","true","48","","","","","","","","","","","","","","","","",""
"","","","","","html-keyboard-response","248","3177952","0.0-3.0-7.0-0.12","615081c7ccbaea1db00d8e0c","E1","batch5","pattern_show_trial_num","null","<p class=block-text>Trial 52 out of 78</p>","null","","","","","","","","","","","","","","","","","","","","","","","","","",""
"","","","","","image-keyboard-response","249","3181339","0.0-3.0-7.0-1.12","615081c7ccbaea1db00d8e0c","E1","batch5","pattern_response","3385.899999976158","stim/no_42_1_w.png","j","pattern_22","j","true","","","","3385.899999976158","true","49","","","","","","","","","","","","","","","","",""
"","","","","","html-keyboard-response","250","3182656","0.0-3.0-7.0-0.13","615081c7ccbaea1db00d8e0c","E1","batch5","pattern_show_trial_num","null","<p class=block-text>Trial 53 out of 78</p>","null","","","","","","","","","","","","","","","","","","","","","","","","","",""
"","","","","","image-keyboard-response","251","3184826","0.0-3.0-7.0-1.13","615081c7ccbaea1db00d8e0c","E1","batch5","pattern_response","2168.399999976158","stim/yes_35_dia_b1.png","f","pattern_57","f","true","","","","2168.399999976158","true","50","","","","","","","","","","","","","","","","",""
"","","","","","html-keyboard-response","252","3186143","0.0-3.0-7.0-0.14","615081c7ccbaea1db00d8e0c","E1","batch5","pattern_show_trial_num","null","<p class=block-text>Trial 54 out of 78</p>","null","","","","","","","","","","","","","","","","","","","","","","","","","",""
"","","","","","image-keyboard-response","253","3187786","0.0-3.0-7.0-1.14","615081c7ccbaea1db00d8e0c","E1","batch5","pattern_response","1641.3999999761581","stim/yes_55_hor_w1_w.png","j","pattern_75","f","false","","","","1641.3999999761581","false","50","","","","","","","","","","","","","","","","",""
"","","","","","html-keyboard-response","254","3189096","0.0-3.0-7.0-0.15","615081c7ccbaea1db00d8e0c","E1","batch5","pattern_show_trial_num","null","<p class=block-text>Trial 55 out of 78</p>","null","","","","","","","","","","","","","","","","","","","","","","","","","",""
"","","","","","image-keyboard-response","255","3192210","0.0-3.0-7.0-1.15","615081c7ccbaea1db00d8e0c","E1","batch5","pattern_response","3113.100000023842","stim/no_13_2_b.png","j","pattern_02","j","true","","","","3113.100000023842","true","51","","","","","","","","","","","","","","","","",""
"","","","","","html-keyboard-response","256","3193517","0.0-3.0-7.0-0.16","615081c7ccbaea1db00d8e0c","E1","batch5","pattern_show_trial_num","null","<p class=block-text>Trial 56 out of 78</p>","null","","","","","","","","","","","","","","","","","","","","","","","","","",""
"","","","","","image-keyboard-response","257","3195810","0.0-3.0-7.0-1.16","615081c7ccbaea1db00d8e0c","E1","batch5","pattern_response","2291.6999999284744","stim/no_23_1.png","j","pattern_08","j","true","","","","2291.6999999284744","true","52","","","","","","","","","","","","","","","","",""
"","","","","","html-keyboard-response","258","3197121","0.0-3.0-7.0-0.17","615081c7ccbaea1db00d8e0c","E1","batch5","pattern_show_trial_num","null","<p class=block-text>Trial 57 out of 78</p>","null","","","","","","","","","","","","","","","","","","","","","","","","","",""
"","","","","","image-keyboard-response","259","3198258","0.0-3.0-7.0-1.17","615081c7ccbaea1db00d8e0c","E1","batch5","pattern_response","1136","stim/yes_52_ver_w1.png","f","pattern_73","f","true","","","","1136","true","53","","","","","","","","","","","","","","","","",""
"","","","","","html-keyboard-response","260","3199589","0.0-3.0-7.0-0.18","615081c7ccbaea1db00d8e0c","E1","batch5","pattern_show_trial_num","null","<p class=block-text>Trial 58 out of 78</p>","null","","","","","","","","","","","","","","","","","","","","","","","","","",""
"","","","","","image-keyboard-response","261","3202682","0.0-3.0-7.0-1.18","615081c7ccbaea1db00d8e0c","E1","batch5","pattern_response","3091.899999976158","stim/yes_37_dia_w1.png","j","pattern_59","f","false","","","","3091.899999976158","false","53","","","","","","","","","","","","","","","","",""
"","","","","","html-keyboard-response","262","3203994","0.0-3.0-7.0-0.19","615081c7ccbaea1db00d8e0c","E1","batch5","pattern_show_trial_num","null","<p class=block-text>Trial 59 out of 78</p>","null","","","","","","","","","","","","","","","","","","","","","","","","","",""
"","","","","","image-keyboard-response","263","3204874","0.0-3.0-7.0-1.19","615081c7ccbaea1db00d8e0c","E1","batch5","pattern_response","878.7000000476837","stim/yes_22_ver_w1.png","f","pattern_47","f","true","","","","878.7000000476837","true","54","","","","","","","","","","","","","","","","",""
"","","","","","html-keyboard-response","264","3206180","0.0-3.0-7.0-0.20","615081c7ccbaea1db00d8e0c","E1","batch5","pattern_show_trial_num","null","<p class=block-text>Trial 60 out of 78</p>","null","","","","","","","","","","","","","","","","","","","","","","","","","",""
"","","","","","image-keyboard-response","265","3208547","0.0-3.0-7.0-1.20","615081c7ccbaea1db00d8e0c","E1","batch5","pattern_response","2365.600000023842","stim/yes_40_dia_b1_b.png","f","pattern_63","f","true","","","","2365.600000023842","true","55","","","","","","","","","","","","","","","","",""
"","","","","","html-keyboard-response","266","3209866","0.0-3.0-7.0-0.21","615081c7ccbaea1db00d8e0c","E1","batch5","pattern_show_trial_num","null","<p class=block-text>Trial 61 out of 78</p>","null","","","","","","","","","","","","","","","","","","","","","","","","","",""
"","","","","","image-keyboard-response","267","3211035","0.0-3.0-7.0-1.21","615081c7ccbaea1db00d8e0c","E1","batch5","pattern_response","1167.2000000476837","stim/yes_38_hor_b1_b.png","f","pattern_61","f","true","","","","1167.2000000476837","true","56","","","","","","","","","","","","","","","","",""
"","","","","","html-keyboard-response","268","3212352","0.0-3.0-7.0-0.22","615081c7ccbaea1db00d8e0c","E1","batch5","pattern_show_trial_num","null","<p class=block-text>Trial 62 out of 78</p>","null","","","","","","","","","","","","","","","","","","","","","","","","","",""
"","","","","","image-keyboard-response","269","3214794","0.0-3.0-7.0-1.22","615081c7ccbaea1db00d8e0c","E1","batch5","pattern_response","2441.1999999284744","stim/yes_43_ver_w1_w.png","f","pattern_65","f","true","","","","2441.1999999284744","true","57","","","","","","","","","","","","","","","","",""
"","","","","","html-keyboard-response","270","3216122","0.0-3.0-7.0-0.23","615081c7ccbaea1db00d8e0c","E1","batch5","pattern_show_trial_num","null","<p class=block-text>Trial 63 out of 78</p>","null","","","","","","","","","","","","","","","","","","","","","","","","","",""
"","","","","","image-keyboard-response","271","3216899","0.0-3.0-7.0-1.23","615081c7ccbaea1db00d8e0c","E1","batch5","pattern_response","774","stim/yes_14_hor_b1_w.png","f","pattern_43","f","true","","","","774","true","58","","","","","","","","","","","","","","","","",""
"","","","","","html-keyboard-response","272","3218223","0.0-3.0-7.0-0.24","615081c7ccbaea1db00d8e0c","E1","batch5","pattern_show_trial_num","null","<p class=block-text>Trial 64 out of 78</p>","null","","","","","","","","","","","","","","","","","","","","","","","","","",""
"","","","","","image-keyboard-response","273","3222123","0.0-3.0-7.0-1.24","615081c7ccbaea1db00d8e0c","E1","batch5","pattern_response","3898.600000023842","stim/no_44_1.png","j","pattern_24","j","true","","","","3898.600000023842","true","59","","","","","","","","","","","","","","","","",""
"","","","","","html-keyboard-response","274","3223430","0.0-3.0-7.0-0.25","615081c7ccbaea1db00d8e0c","E1","batch5","pattern_show_trial_num","null","<p class=block-text>Trial 65 out of 78</p>","null","","","","","","","","","","","","","","","","","","","","","","","","","",""
"","","","","","image-keyboard-response","275","3226771","0.0-3.0-7.0-1.25","615081c7ccbaea1db00d8e0c","E1","batch5","pattern_response","3338.600000023842","stim/yes_48_dia_w1_w.png","f","pattern_69","f","true","","","","3338.600000023842","true","60","","","","","","","","","","","","","","","","",""
"","","","","","html-keyboard-response","276","3228085","0.0-3.0-7.0-0.26","615081c7ccbaea1db00d8e0c","E1","batch5","pattern_show_trial_num","null","<p class=block-text>Trial 66 out of 78</p>","null","","","","","","","","","","","","","","","","","","","","","","","","","",""
"","","","","","image-keyboard-response","277","3229178","0.0-3.0-7.0-1.26","615081c7ccbaea1db00d8e0c","E1","batch5","pattern_response","1091.5","stim/yes_28_ver_b1.png","f","pattern_51","f","true","","","","1091.5","true","61","","","","","","","","","","","","","","","","",""
"","","","","","html-keyboard-response","278","3230487","0.0-3.0-7.0-0.27","615081c7ccbaea1db00d8e0c","E1","batch5","pattern_show_trial_num","null","<p class=block-text>Trial 67 out of 78</p>","null","","","","","","","","","","","","","","","","","","","","","","","","","",""
"","","","","","image-keyboard-response","279","3235099","0.0-3.0-7.0-1.27","615081c7ccbaea1db00d8e0c","E1","batch5","pattern_response","4610.399999976158","stim/no_62_1_w.png","j","pattern_36","j","true","","","","4610.399999976158","true","62","","","","","","","","","","","","","","","","",""
"","","","","","html-keyboard-response","280","3236410","0.0-3.0-7.0-0.28","615081c7ccbaea1db00d8e0c","E1","batch5","pattern_show_trial_num","null","<p class=block-text>Trial 68 out of 78</p>","null","","","","","","","","","","","","","","","","","","","","","","","","","",""
"","","","","","image-keyboard-response","281","3240459","0.0-3.0-7.0-1.28","615081c7ccbaea1db00d8e0c","E1","batch5","pattern_response","4047.3000000715256","stim/no_38_1_b.png","j","pattern_20","j","true","","","","4047.3000000715256","true","63","","","","","","","","","","","","","","","","",""
"","","","","","html-keyboard-response","282","3241778","0.0-3.0-7.0-0.29","615081c7ccbaea1db00d8e0c","E1","batch5","pattern_show_trial_num","null","<p class=block-text>Trial 69 out of 78</p>","null","","","","","","","","","","","","","","","","","","","","","","","","","",""
"","","","","","image-keyboard-response","283","3243059","0.0-3.0-7.0-1.29","615081c7ccbaea1db00d8e0c","E1","batch5","pattern_response","1279.5","stim/yes_45_hor_b2_b.png","f","pattern_67","f","true","","","","1279.5","true","64","","","","","","","","","","","","","","","","",""
"","","","","","html-keyboard-response","284","3244384","0.0-3.0-7.0-0.30","615081c7ccbaea1db00d8e0c","E1","batch5","pattern_show_trial_num","null","<p class=block-text>Trial 70 out of 78</p>","null","","","","","","","","","","","","","","","","","","","","","","","","","",""
"","","","","","image-keyboard-response","285","3245187","0.0-3.0-7.0-1.30","615081c7ccbaea1db00d8e0c","E1","batch5","pattern_response","797.6000000238419","stim/yes_29_ver_w1.png","f","pattern_53","f","true","","","","797.6000000238419","true","65","","","","","","","","","","","","","","","","",""
"","","","","","html-keyboard-response","286","3246503","0.0-3.0-7.0-0.31","615081c7ccbaea1db00d8e0c","E1","batch5","pattern_show_trial_num","null","<p class=block-text>Trial 71 out of 78</p>","null","","","","","","","","","","","","","","","","","","","","","","","","","",""
"","","","","","image-keyboard-response","287","3247755","0.0-3.0-7.0-1.31","615081c7ccbaea1db00d8e0c","E1","batch5","pattern_response","1251.2999999523163","stim/yes_17_dia_w1.png","f","pattern_45","f","true","","","","1251.2999999523163","true","66","","","","","","","","","","","","","","","","",""
"","","","","","html-keyboard-response","288","3249088","0.0-3.0-7.0-0.32","615081c7ccbaea1db00d8e0c","E1","batch5","pattern_show_trial_num","null","<p class=block-text>Trial 72 out of 78</p>","null","","","","","","","","","","","","","","","","","","","","","","","","","",""
"","","","","","image-keyboard-response","289","3254491","0.0-3.0-7.0-1.32","615081c7ccbaea1db00d8e0c","E1","batch5","pattern_response","5401","stim/no_52_1.png","j","pattern_32","j","true","","","","5401","true","67","","","","","","","","","","","","","","","","",""
"","","","","","html-keyboard-response","290","3255813","0.0-3.0-7.0-0.33","615081c7ccbaea1db00d8e0c","E1","batch5","pattern_show_trial_num","null","<p class=block-text>Trial 73 out of 78</p>","null","","","","","","","","","","","","","","","","","","","","","","","","","",""
"","","","","","image-keyboard-response","291","3259252","0.0-3.0-7.0-1.33","615081c7ccbaea1db00d8e0c","E1","batch5","pattern_response","3437.7000000476837","stim/no_26_1_w.png","j","pattern_10","j","true","","","","3437.7000000476837","true","68","","","","","","","","","","","","","","","","",""
"","","","","","html-keyboard-response","292","3260583","0.0-3.0-7.0-0.34","615081c7ccbaea1db00d8e0c","E1","batch5","pattern_show_trial_num","null","<p class=block-text>Trial 74 out of 78</p>","null","","","","","","","","","","","","","","","","","","","","","","","","","",""
"","","","","","image-keyboard-response","293","3264796","0.0-3.0-7.0-1.34","615081c7ccbaea1db00d8e0c","E1","batch5","pattern_response","4210.200000047684","stim/no_48_1_w.png","j","pattern_28","j","true","","","","4210.200000047684","true","69","","","","","","","","","","","","","","","","",""
"","","","","","html-keyboard-response","294","3266107","0.0-3.0-7.0-0.35","615081c7ccbaea1db00d8e0c","E1","batch5","pattern_show_trial_num","null","<p class=block-text>Trial 75 out of 78</p>","null","","","","","","","","","","","","","","","","","","","","","","","","","",""
"","","","","","image-keyboard-response","295","3267348","0.0-3.0-7.0-1.35","615081c7ccbaea1db00d8e0c","E1","batch5","pattern_response","1239.6000000238419","stim/no_20_1_w.png","j","pattern_06","j","true","","","","1239.6000000238419","true","70","","","","","","","","","","","","","","","","",""
"","","","","","html-keyboard-response","296","3268675","0.0-3.0-7.0-0.36","615081c7ccbaea1db00d8e0c","E1","batch5","pattern_show_trial_num","null","<p class=block-text>Trial 76 out of 78</p>","null","","","","","","","","","","","","","","","","","","","","","","","","","",""
"","","","","","image-keyboard-response","297","3274244","0.0-3.0-7.0-1.36","615081c7ccbaea1db00d8e0c","E1","batch5","pattern_response","5567.699999928474","stim/no_50_1.png","j","pattern_30","j","true","","","","5567.699999928474","true","71","","","","","","","","","","","","","","","","",""
"","","","","","html-keyboard-response","298","3275549","0.0-3.0-7.0-0.37","615081c7ccbaea1db00d8e0c","E1","batch5","pattern_show_trial_num","null","<p class=block-text>Trial 77 out of 78</p>","null","","","","","","","","","","","","","","","","","","","","","","","","","",""
"","","","","","image-keyboard-response","299","3276900","0.0-3.0-7.0-1.37","615081c7ccbaea1db00d8e0c","E1","batch5","pattern_response","1349.1999999284744","stim/yes_60_ver_b1_b.png","f","pattern_77","f","true","","","","1349.1999999284744","true","72","","","","","","","","","","","","","","","","",""
"","","","","","html-keyboard-response","300","3278236","0.0-3.0-7.0-0.38","615081c7ccbaea1db00d8e0c","E1","batch5","pattern_show_trial_num","null","<p class=block-text>Trial 78 out of 78</p>","null","","","","","","","","","","","","","","","","","","","","","","","","","",""
"","","","","","image-keyboard-response","301","3280836","0.0-3.0-7.0-1.38","615081c7ccbaea1db00d8e0c","E1","batch5","pattern_response","2599.100000023842","stim/no_17_1_w.png","j","pattern_04","j","true","","","","2599.100000023842","true","73","","","","","","","","","","","","","","","","",""
"","","","","","html-button-response","302","3287223","0.0-3.0-8.0","615081c7ccbaea1db00d8e0c","E1","batch5","","5883.300000071526","<p class = block-text>This concludes the 4-in-a-row detection game.Thank you for your responses!<br>
            You responded correctly on 94% of the trials.<br>
            When you are ready, press ""Continue"" button to continue </p>","0","","","","","","","","","","","","","","","","","","","","","","","","","",""
"true","","","","","fullscreen","303","3290398","0.0-4.0-0.0","615081c7ccbaea1db00d8e0c","E1","batch5","","","","","","","","","","","","","","","","","","","","","","","","","","","","","",""
"","","","","","instructions","304","3365199","0.0-4.0-1.0-0.0-0.0","615081c7ccbaea1db00d8e0c","E1","batch5","tol-instructions","74800.30000007153","","","","","","","","[{""page_index"":0,""viewing_time"":9990.400000095367},{""page_index"":1,""viewing_time"":7446.599999904633},{""page_index"":2,""viewing_time"":13583.200000047684},{""page_index"":3,""viewing_time"":9878.5},{""page_index"":4,""viewing_time"":18467.700000047684},{""page_index"":5,""viewing_time"":12628},{""page_index"":6,""viewing_time"":2805.6999999284744}]","","","","","","","","","","","","","","","","","","","",""
"","","","","","html-button-response","305","3366117","0.0-4.0-1.0-1.0-0.0","615081c7ccbaea1db00d8e0c","E1","batch5","tol_enter_quiz","917.3000000715256","<p class=block-text> Let's answer a few questions <br>","0","","","","","","","","","","","","","","","","","","","","","","","","","",""
"","","","","","html-button-response","306","3372769","0.0-4.0-1.0-1.0-1.0","615081c7ccbaea1db00d8e0c","E1","batch5","tol_quiz","6650.899999976158","<p class = block-text>True or False: You can only move the ball on top of a peg. <br></p>","0","","","true","","","","","","","","","","","","","","","","","","","","","","",""
"","","","","","html-button-response","307","3374379","0.0-4.0-1.0-1.0-2.0","615081c7ccbaea1db00d8e0c","E1","batch5","tol_quiz_feedback","1609.0999999046326","<p class = block-text>Correct! You can only move the ball on top of a peg.</p>","0","","","","","","","","","","","","","","","","","","","","","","","","","",""
"","","","","","html-button-response","308","3377541","0.0-4.0-1.0-1.0-3.0","615081c7ccbaea1db00d8e0c","E1","batch5","tol_quiz","3161.100000023842","<p class = block-text>True or False: You should try to match your board with the target board with fewest moves possible. <br></p>","0","","","true","","","","","","","","","","","","","","","","","","","","","","",""
"","","","","","html-button-response","309","3378288","0.0-4.0-1.0-1.0-4.0","615081c7ccbaea1db00d8e0c","E1","batch5","tol_quiz_feedback","745.0999999046326","<p class = block-text>Correct! </p>","0","","","","","","","","","","","","","","","","","","","","","","","","","",""
"","","","","","html-button-response","310","3384622","0.0-4.0-2.0","615081c7ccbaea1db00d8e0c","E1","batch5","","6332.600000023842","<p class=block-text> Now that you've understood the game, let's practice a few easier examples before we start!<br> <br>","0","","","","","","","","","","","","","","","","","","","","","","","","","",""
"","","","","","single-stim-button","311","3387251","0.0-4.0-3.0-0.0","615081c7ccbaea1db00d8e0c","E1","batch5","tol_practice","2627","","","","","","","","","","","","","","tol_peg_2","2627","2627","0","[[1,2,0],[0,0],[0]]","1","[[1,2,0],[0,0],[3]]","practice","2627","","","","","",""
"","","","","","single-stim-button","312","3390934","0.0-4.0-3.0-1.0","615081c7ccbaea1db00d8e0c","E1","batch5","tol_practice","3682","","","","","","","","","","","","","","tol_peg_3","3682","3682","0","[[1,2,0],[0,0],[3]]","1","[[1,2,0],[0,0],[3]]","practice","3682","","","","","",""
"","","","","","poldrack-single-stim","313","3391950","0.0-4.0-4.0","615081c7ccbaea1db00d8e0c","E1","batch5","tol_feedback","-1","","","","","true","","","","","","","","","","1000","1000","500","","","","","","-1","none","true","","0",""
"","","","","","single-stim-button","314","3398107","0.0-4.0-5.0-0.0","615081c7ccbaea1db00d8e0c","E1","batch5","tol_practice","6155","","","","","","","","","","","","","","tol_peg_1","6155","6155","0","[[1,0,0],[3,0],[0]]","2","[[0,0,0],[3,1],[2]]","practice","6155","","","","","",""
"","","","","","single-stim-button","315","3399832","0.0-4.0-5.0-1.0","615081c7ccbaea1db00d8e0c","E1","batch5","tol_practice","1723","","","","","","","","","","","","","","tol_peg_3","1723","1723","0","[[1,0,0],[3,0],[2]]","2","[[0,0,0],[3,1],[2]]","practice","1723","","","","","",""
"","","","","","single-stim-button","316","3402024","0.0-4.0-5.1-0.1","615081c7ccbaea1db00d8e0c","E1","batch5","tol_practice","2191","","","","","","","","","","","","","","tol_peg_1","2191","2191","0","[[0,0,0],[3,0],[2]]","3","[[0,0,0],[3,1],[2]]","practice","2191","","","","","",""
"","","","","","single-stim-button","317","3402684","0.0-4.0-5.1-1.1","615081c7ccbaea1db00d8e0c","E1","batch5","tol_practice","659","","","","","","","","","","","","","","tol_peg_2","659","659","0","[[0,0,0],[3,1],[2]]","3","[[0,0,0],[3,1],[2]]","practice","659","","","","","",""
"","","","","","poldrack-single-stim","318","3403685","0.0-4.0-6.0","615081c7ccbaea1db00d8e0c","E1","batch5","tol_feedback","-1","","","","","true","","","","","","","","","","1000","1000","500","","","","","","-1","none","true","","0",""
"","","","","","single-stim-button","319","3408450","0.0-4.0-7.0-0.0","615081c7ccbaea1db00d8e0c","E1","batch5","tol_practice","4765","","","","","","","","","","","","","","tol_peg_2","4765","4765","0","[[1,2,0],[0,0],[0]]","4","[[1,0,0],[2,0],[3]]","practice","4765","","","","","",""
"","","","","","single-stim-button","320","3409064","0.0-4.0-7.0-1.0","615081c7ccbaea1db00d8e0c","E1","batch5","tol_practice","612","","","","","","","","","","","","","","tol_peg_3","612","612","0","[[1,2,0],[0,0],[3]]","4","[[1,0,0],[2,0],[3]]","practice","612","","","","","",""
"","","","","","single-stim-button","321","3409554","0.0-4.0-7.1-0.1","615081c7ccbaea1db00d8e0c","E1","batch5","tol_practice","490","","","","","","","","","","","","","","tol_peg_1","490","490","0","[[1,0,0],[0,0],[3]]","5","[[1,0,0],[2,0],[3]]","practice","490","","","","","",""
"","","","","","single-stim-button","322","3410044","0.0-4.0-7.1-1.1","615081c7ccbaea1db00d8e0c","E1","batch5","tol_practice","489","","","","","","","","","","","","","","tol_peg_2","489","489","0","[[1,0,0],[2,0],[3]]","5","[[1,0,0],[2,0],[3]]","practice","489","","","","","",""
"","","","","","poldrack-single-stim","323","3411052","0.0-4.0-8.0","615081c7ccbaea1db00d8e0c","E1","batch5","tol_feedback","-1","","","","","true","","","","","","","","","","1000","1000","500","","","","","","-1","none","true","","0",""
"","","","","","html-button-response","324","3414045","0.0-4.0-9.0","615081c7ccbaea1db00d8e0c","E1","batch5","tol_instruction","2992.5","<div class = centerbox><p class = center-block-text>Great job! You are done with practice trials<br>You are about to start official trials.<br> <br> Problem <strong>1</strong> out of 25 problems</p></div>","0","","","","","","","","","","","","","","","","","","","","","","","","","",""
"","","","","","single-stim-button","325","3422540","0.0-4.0-10.0-0.0","615081c7ccbaea1db00d8e0c","E1","batch5","tol_tohand","7482","","","","","","","","","","","","","","tol_peg_1","7482","7482","0","[[1,0,0],[3,0],[0]]","1","[[1,3,0],[2,0],[0]]","0","0","","","","","","3"
"","","","","","single-stim-button","326","3423324","0.0-4.0-10.0-1.0","615081c7ccbaea1db00d8e0c","E1","batch5","tol_toboard","783","","","","","","","","","","","","","","tol_peg_3","783","783","0","[[1,0,0],[3,0],[2]]","1","[[1,3,0],[2,0],[0]]","0","0","","","","","","3"
"","","","","","single-stim-button","327","3423900","0.0-4.0-10.1-0.1","615081c7ccbaea1db00d8e0c","E1","batch5","tol_tohand","575","","","","","","","","","","","","","","tol_peg_2","575","575","0","[[1,0,0],[0,0],[2]]","2","[[1,3,0],[2,0],[0]]","0","0","","","","","","3"
"","","","","","single-stim-button","328","3425260","0.0-4.0-10.1-1.1","615081c7ccbaea1db00d8e0c","E1","batch5","tol_toboard","1360","","","","","","","","","","","","","","tol_peg_1","1360","1360","0","[[1,3,0],[0,0],[2]]","2","[[1,3,0],[2,0],[0]]","0","0","","","","","","3"
"","","","","","single-stim-button","329","3425890","0.0-4.0-10.2-0.2","615081c7ccbaea1db00d8e0c","E1","batch5","tol_tohand","630","","","","","","","","","","","","","","tol_peg_3","630","630","0","[[1,3,0],[0,0],[0]]","3","[[1,3,0],[2,0],[0]]","0","0","","","","","","3"
"","","","","","single-stim-button","330","3426649","0.0-4.0-10.2-1.2","615081c7ccbaea1db00d8e0c","E1","batch5","tol_toboard","759","","","","","","","","","","","","","","tol_peg_2","759","759","0","[[1,3,0],[2,0],[0]]","3","[[1,3,0],[2,0],[0]]","0","0","","","","","","3"
"","","","","","poldrack-single-stim","331","3427652","0.0-4.0-11.0","615081c7ccbaea1db00d8e0c","E1","batch5","tol_feedback","-1","","","","","true","","","","","","","","","","1000","1000","500","","","","","","-1","none","true","7482","8687",""
"","","","","","html-button-response","332","3428461","0.0-4.0-12.0","615081c7ccbaea1db00d8e0c","E1","batch5","tol_trial_num","808.2999999523163","<div class = centerbox><p class = center-block-text>problem <strong>2</strong> out of 25 problems</p></div>","0","","","","","","","","","","","","","","","","","","","","","","","","","",""
"","","","","","single-stim-button","333","3439086","0.0-4.0-13.0-0.0","615081c7ccbaea1db00d8e0c","E1","batch5","tol_tohand","10623","","","","","","","","","","","","","","tol_peg_1","10623","10623","0","[[1,0,0],[3,0],[0]]","1","[[2,1,3],[0,0],[0]]","1","0","","","","","","5"
"","","","","","single-stim-button","334","3442452","0.0-4.0-13.0-1.0","615081c7ccbaea1db00d8e0c","E1","batch5","tol_toboard","3366","","","","","","","","","","","","","","tol_peg_3","3366","3366","0","[[1,0,0],[3,0],[2]]","1","[[2,1,3],[0,0],[0]]","1","0","","","","","","5"
"","","","","","single-stim-button","335","3445700","0.0-4.0-13.1-0.1","615081c7ccbaea1db00d8e0c","E1","batch5","tol_tohand","3247","","","","","","","","","","","","","","tol_peg_1","3247","3247","0","[[0,0,0],[3,0],[2]]","2","[[2,1,3],[0,0],[0]]","1","0","","","","","","5"
"","","","","","single-stim-button","336","3446198","0.0-4.0-13.1-1.1","615081c7ccbaea1db00d8e0c","E1","batch5","tol_toboard","497","","","","","","","","","","","","","","tol_peg_2","497","497","0","[[0,0,0],[3,1],[2]]","2","[[2,1,3],[0,0],[0]]","1","0","","","","","","5"
"","","","","","single-stim-button","337","3446780","0.0-4.0-13.2-0.2","615081c7ccbaea1db00d8e0c","E1","batch5","tol_tohand","581","","","","","","","","","","","","","","tol_peg_3","581","581","0","[[0,0,0],[3,1],[0]]","3","[[2,1,3],[0,0],[0]]","1","0","","","","","","5"
"","","","","","single-stim-button","338","3448282","0.0-4.0-13.2-1.2","615081c7ccbaea1db00d8e0c","E1","batch5","tol_toboard","1501","","","","","","","","","","","","","","tol_peg_1","1501","1501","0","[[2,0,0],[3,1],[0]]","3","[[2,1,3],[0,0],[0]]","1","0","","","","","","5"
"","","","","","single-stim-button","339","3449540","0.0-4.0-13.3-0.3","615081c7ccbaea1db00d8e0c","E1","batch5","tol_tohand","1257","","","","","","","","","","","","","","tol_peg_2","1257","1257","0","[[2,0,0],[3,0],[0]]","4","[[2,1,3],[0,0],[0]]","1","0","","","","","","5"
"","","","","","single-stim-button","340","3450373","0.0-4.0-13.3-1.3","615081c7ccbaea1db00d8e0c","E1","batch5","tol_toboard","831","","","","","","","","","","","","","","tol_peg_1","831","831","0","[[2,1,0],[3,0],[0]]","4","[[2,1,3],[0,0],[0]]","1","0","","","","","","5"
"","","","","","single-stim-button","341","3451102","0.0-4.0-13.4-0.4","615081c7ccbaea1db00d8e0c","E1","batch5","tol_tohand","729","","","","","","","","","","","","","","tol_peg_2","729","729","0","[[2,1,0],[0,0],[0]]","5","[[2,1,3],[0,0],[0]]","1","0","","","","","","5"
"","","","","","single-stim-button","342","3451880","0.0-4.0-13.4-1.4","615081c7ccbaea1db00d8e0c","E1","batch5","tol_toboard","777","","","","","","","","","","","","","","tol_peg_1","777","777","0","[[2,1,3],[0,0],[0]]","5","[[2,1,3],[0,0],[0]]","1","0","","","","","","5"
"","","","","","poldrack-single-stim","343","3452882","0.0-4.0-14.0","615081c7ccbaea1db00d8e0c","E1","batch5","tol_feedback","-1","","","","","true","","","","","","","","","","1000","1000","500","","","","","","-1","none","true","10623","16437",""
"","","","","","html-button-response","344","3453847","0.0-4.0-15.0","615081c7ccbaea1db00d8e0c","E1","batch5","tol_trial_num","964.2999999523163","<div class = centerbox><p class = center-block-text>problem <strong>3</strong> out of 25 problems</p></div>","0","","","","","","","","","","","","","","","","","","","","","","","","","",""
"","","","","","single-stim-button","345","3469048","0.0-4.0-16.0-0.0","615081c7ccbaea1db00d8e0c","E1","batch5","tol_tohand","15200","","","","","","","","","","","","","","tol_peg_1","15200","15200","0","[[2,0,0],[0,0],[1]]","1","[[1,2,0],[3,0],[0]]","2","0","","","","","","4"
"","","","","","single-stim-button","346","3469864","0.0-4.0-16.0-1.0","615081c7ccbaea1db00d8e0c","E1","batch5","tol_toboard","815","","","","","","","","","","","","","","tol_peg_2","815","815","0","[[2,0,0],[3,0],[1]]","1","[[1,2,0],[3,0],[0]]","2","0","","","","","","4"
