"success","timeout","failed_images","failed_audio","failed_video","trial_type","trial_index","time_elapsed","internal_node_id","subject_id","study_id","session_id","view_history","rt","task","stimulus","response","correct","mouse_click","stim_duration","block_duration","timing_post_trial","current_position","tol_num_moves_made","tol_target","tol_problem_id","tol_rt","key_press","possible_responses","tol_correct","preplanning","tol_rt_per_trial","tol_min_moves","item","answer","spm_correct","spm_rt","fiar_detect_rt","fiar_detect_correct","total_correct_fiar_detect","post_trial_gap","choices"
"true","false","[]","[]","[]","preload","0","1705","0.0-0.0","615224b6fec95dfc43439c28","A3","batch1","","","","","","","","","","","","","","","","","","","","","","","","","","","","","",""
"true","","","","","fullscreen","1","16279","0.0-1.0-0.0","615224b6fec95dfc43439c28","A3","batch1","","","","","","","","","","","","","","","","","","","","","","","","","","","","","",""
"true","","","","","fullscreen","2","21292","0.0-2.0-0.0","615224b6fec95dfc43439c28","A3","batch1","","","","","","","","","","","","","","","","","","","","","","","","","","","","","",""
"","","","","","instructions","3","110854","0.0-2.0-1.0-0.0-0.0","615224b6fec95dfc43439c28","A3","batch1","[{""page_index"":0,""viewing_time"":17083.70000000298},{""page_index"":1,""viewing_time"":9016.40000000596},{""page_index"":2,""viewing_time"":11483.79999999702},{""page_index"":3,""viewing_time"":9673},{""page_index"":4,""viewing_time"":15412.90000000596},{""page_index"":5,""viewing_time"":21922.5},{""page_index"":6,""viewing_time"":4968}]","89560.70000000298","tol-instructions","","","","","","","","","","","","","","","","","","","","","","","","","","",""
"","","","","","html-button-response","4","112698","0.0-2.0-1.0-1.0-0.0","615224b6fec95dfc43439c28","A3","batch1","","1841.7999999970198","tol_enter_quiz","<p class=block-text> Let's answer a few questions <br>","0","","","","","","","","","","","","","","","","","","","","","","","","",""
"","","","","","html-button-response","5","118690","0.0-2.0-1.0-1.0-1.0","615224b6fec95dfc43439c28","A3","batch1","","5990.79999999702","tol_quiz","<p class = block-text>True or False: You can only move the ball on top of a peg. <br></p>","0","true","","","","","","","","","","","","","","","","","","","","","","","",""
"","","","","","html-button-response","6","121518","0.0-2.0-1.0-1.0-2.0","615224b6fec95dfc43439c28","A3","batch1","","2826.7999999970198","tol_quiz_feedback","<p class = block-text>Correct! You can only move the ball on top of a peg.</p>","0","","","","","","","","","","","","","","","","","","","","","","","","",""
"","","","","","html-button-response","7","125423","0.0-2.0-1.0-1.0-3.0","615224b6fec95dfc43439c28","A3","batch1","","3904","tol_quiz","<p class = block-text>True or False: You should try to match your board with the target board with fewest moves possible. <br></p>","0","true","","","","","","","","","","","","","","","","","","","","","","","",""
"","","","","","html-button-response","8","127104","0.0-2.0-1.0-1.0-4.0","615224b6fec95dfc43439c28","A3","batch1","","1679.0999999940395","tol_quiz_feedback","<p class = block-text>Correct! </p>","0","","","","","","","","","","","","","","","","","","","","","","","","",""
"","","","","","html-button-response","9","130901","0.0-2.0-2.0","615224b6fec95dfc43439c28","A3","batch1","","3795.3999999910593","","<p class=block-text> Now that you've understood the game, let's practice a few easier examples before we start!<br> <br>","0","","","","","","","","","","","","","","","","","","","","","","","","",""
"","","","","","single-stim-button","10","134950","0.0-2.0-3.0-0.0","615224b6fec95dfc43439c28","A3","batch1","","4047","tol_practice","","","","tol_peg_2","4047","4047","0","[[1,2,0],[0,0],[0]]","1","[[1,2,0],[0,0],[3]]","practice","4047","","","","","","","","","","","","","","",""
"","","","","","single-stim-button","11","138471","0.0-2.0-3.0-1.0","615224b6fec95dfc43439c28","A3","batch1","","3520","tol_practice","","","","tol_peg_3","3520","3520","0","[[1,2,0],[0,0],[3]]","1","[[1,2,0],[0,0],[3]]","practice","3520","","","","","","","","","","","","","","",""
"","","","","","poldrack-single-stim","12","139473","0.0-2.0-4.0","615224b6fec95dfc43439c28","A3","batch1","","-1","tol_feedback","","","true","","1000","1000","500","","","","","","-1","none","true","","0","","","","","","","","","",""
"","","","","","single-stim-button","13","147120","0.0-2.0-5.0-0.0","615224b6fec95dfc43439c28","A3","batch1","","7647","tol_practice","","","","tol_peg_1","7647","7647","0","[[1,0,0],[3,0],[0]]","2","[[0,0,0],[3,1],[2]]","practice","7647","","","","","","","","","","","","","","",""
"","","","","","single-stim-button","14","149152","0.0-2.0-5.0-1.0","615224b6fec95dfc43439c28","A3","batch1","","2031","tol_practice","","","","tol_peg_3","2031","2031","0","[[1,0,0],[3,0],[2]]","2","[[0,0,0],[3,1],[2]]","practice","2031","","","","","","","","","","","","","","",""
"","","","","","single-stim-button","15","151510","0.0-2.0-5.1-0.1","615224b6fec95dfc43439c28","A3","batch1","","2356","tol_practice","","","","tol_peg_1","2356","2356","0","[[0,0,0],[3,0],[2]]","3","[[0,0,0],[3,1],[2]]","practice","2356","","","","","","","","","","","","","","",""
"","","","","","single-stim-button","16","153386","0.0-2.0-5.1-1.1","615224b6fec95dfc43439c28","A3","batch1","","1875","tol_practice","","","","tol_peg_2","1875","1875","0","[[0,0,0],[3,1],[2]]","3","[[0,0,0],[3,1],[2]]","practice","1875","","","","","","","","","","","","","","",""
"","","","","","poldrack-single-stim","17","154388","0.0-2.0-6.0","615224b6fec95dfc43439c28","A3","batch1","","-1","tol_feedback","","","true","","1000","1000","500","","","","","","-1","none","true","","0","","","","","","","","","",""
"","","","","","single-stim-button","18","160284","0.0-2.0-7.0-0.0","615224b6fec95dfc43439c28","A3","batch1","","5895","tol_practice","","","","tol_peg_2","5895","5895","0","[[1,2,0],[0,0],[0]]","4","[[1,0,0],[2,0],[3]]","practice","5895","","","","","","","","","","","","","","",""
"","","","","","single-stim-button","19","162198","0.0-2.0-7.0-1.0","615224b6fec95dfc43439c28","A3","batch1","","1913","tol_practice","","","","tol_peg_3","1913","1913","0","[[1,2,0],[0,0],[3]]","4","[[1,0,0],[2,0],[3]]","practice","1913","","","","","","","","","","","","","","",""
"","","","","","single-stim-button","20","163596","0.0-2.0-7.1-0.1","615224b6fec95dfc43439c28","A3","batch1","","1397","tol_practice","","","","tol_peg_1","1397","1397","0","[[1,0,0],[0,0],[3]]","5","[[1,0,0],[2,0],[3]]","practice","1397","","","","","","","","","","","","","","",""
"","","","","","single-stim-button","21","165166","0.0-2.0-7.1-1.1","615224b6fec95dfc43439c28","A3","batch1","","1570","tol_practice","","","","tol_peg_2","1570","1570","0","[[1,0,0],[2,0],[3]]","5","[[1,0,0],[2,0],[3]]","practice","1570","","","","","","","","","","","","","","",""
"","","","","","poldrack-single-stim","22","166169","0.0-2.0-8.0","615224b6fec95dfc43439c28","A3","batch1","","-1","tol_feedback","","","true","","1000","1000","500","","","","","","-1","none","true","","0","","","","","","","","","",""
"","","","","","html-button-response","23","170941","0.0-2.0-9.0","615224b6fec95dfc43439c28","A3","batch1","","4770.5","tol_instruction","<div class = centerbox><p class = center-block-text>Great job! You are done with practice trials<br>You are about to start official trials.<br> <br> Problem <strong>1</strong> out of 25 problems</p></div>","0","","","","","","","","","","","","","","","","","","","","","","","","",""
"","","","","","single-stim-button","24","184706","0.0-2.0-10.0-0.0","615224b6fec95dfc43439c28","A3","batch1","","12760","tol_tohand","","","","tol_peg_1","12760","12760","0","[[1,0,0],[3,0],[0]]","1","[[1,3,0],[2,0],[0]]","0","0","","","","","","3","","","","","","","","",""
"","","","","","single-stim-button","25","191480","0.0-2.0-10.0-1.0","615224b6fec95dfc43439c28","A3","batch1","","6772","tol_toboard","","","","tol_peg_3","6772","6772","0","[[1,0,0],[3,0],[2]]","1","[[1,3,0],[2,0],[0]]","0","0","","","","","","3","","","","","","","","",""
"","","","","","single-stim-button","26","193144","0.0-2.0-10.1-0.1","615224b6fec95dfc43439c28","A3","batch1","","1663","tol_tohand","","","","tol_peg_2","1663","1663","0","[[1,0,0],[0,0],[2]]","2","[[1,3,0],[2,0],[0]]","0","0","","","","","","3","","","","","","","","",""
"","","","","","single-stim-button","27","194916","0.0-2.0-10.1-1.1","615224b6fec95dfc43439c28","A3","batch1","","1770","tol_toboard","","","","tol_peg_1","1770","1770","0","[[1,3,0],[0,0],[2]]","2","[[1,3,0],[2,0],[0]]","0","0","","","","","","3","","","","","","","","",""
"","","","","","single-stim-button","28","197276","0.0-2.0-10.2-0.2","615224b6fec95dfc43439c28","A3","batch1","","2359","tol_tohand","","","","tol_peg_3","2359","2359","0","[[1,3,0],[0,0],[0]]","3","[[1,3,0],[2,0],[0]]","0","0","","","","","","3","","","","","","","","",""
"","","","","","single-stim-button","29","198588","0.0-2.0-10.2-1.2","615224b6fec95dfc43439c28","A3","batch1","","1311","tol_toboard","","","","tol_peg_2","1311","1311","0","[[1,3,0],[2,0],[0]]","3","[[1,3,0],[2,0],[0]]","0","0","","","","","","3","","","","","","","","",""
"","","","","","poldrack-single-stim","30","199590","0.0-2.0-11.0","615224b6fec95dfc43439c28","A3","batch1","","-1","tol_feedback","","","true","","1000","1000","500","","","","","","-1","none","true","12760","16782","","","","","","","","","",""
"","","","","","html-button-response","31","201902","0.0-2.0-12.0","615224b6fec95dfc43439c28","A3","batch1","","2309.8999999910593","tol_trial_num","<div class = centerbox><p class = center-block-text>problem <strong>2</strong> out of 25 problems</p></div>","0","","","","","","","","","","","","","","","","","","","","","","","","",""
"","","","","","single-stim-button","32","214572","0.0-2.0-13.0-0.0","615224b6fec95dfc43439c28","A3","batch1","","12670","tol_tohand","","","","tol_peg_1","12670","12670","0","[[1,0,0],[3,0],[0]]","1","[[2,1,3],[0,0],[0]]","1","0","","","","","","5","","","","","","","","",""
"","","","","","single-stim-button","33","218736","0.0-2.0-13.0-1.0","615224b6fec95dfc43439c28","A3","batch1","","4163","tol_toboard","","","","tol_peg_3","4163","4163","0","[[1,0,0],[3,0],[2]]","1","[[2,1,3],[0,0],[0]]","1","0","","","","","","5","","","","","","","","",""
"","","","","","single-stim-button","34","219978","0.0-2.0-13.1-0.1","615224b6fec95dfc43439c28","A3","batch1","","1240","tol_tohand","","","","tol_peg_1","1240","1240","0","[[0,0,0],[3,0],[2]]","2","[[2,1,3],[0,0],[0]]","1","0","","","","","","5","","","","","","","","",""
"","","","","","single-stim-button","35","221096","0.0-2.0-13.1-1.1","615224b6fec95dfc43439c28","A3","batch1","","1117","tol_toboard","","","","tol_peg_2","1117","1117","0","[[0,0,0],[3,1],[2]]","2","[[2,1,3],[0,0],[0]]","1","0","","","","","","5","","","","","","","","",""
"","","","","","single-stim-button","36","222284","0.0-2.0-13.2-0.2","615224b6fec95dfc43439c28","A3","batch1","","1188","tol_tohand","","","","tol_peg_3","1188","1188","0","[[0,0,0],[3,1],[0]]","3","[[2,1,3],[0,0],[0]]","1","0","","","","","","5","","","","","","","","",""
"","","","","","single-stim-button","37","223464","0.0-2.0-13.2-1.2","615224b6fec95dfc43439c28","A3","batch1","","1179","tol_toboard","","","","tol_peg_1","1179","1179","0","[[2,0,0],[3,1],[0]]","3","[[2,1,3],[0,0],[0]]","1","0","","","","","","5","","","","","","","","",""
"","","","","","single-stim-button","38","224276","0.0-2.0-13.3-0.3","615224b6fec95dfc43439c28","A3","batch1","","811","tol_tohand","","","","tol_peg_2","811","811","0","[[2,0,0],[3,0],[0]]","4","[[2,1,3],[0,0],[0]]","1","0","","","","","","5","","","","","","","","",""
"","","","","","single-stim-button","39","225472","0.0-2.0-13.3-1.3","615224b6fec95dfc43439c28","A3","batch1","","1195","tol_toboard","","","","tol_peg_1","1195","1195","0","[[2,1,0],[3,0],[0]]","4","[[2,1,3],[0,0],[0]]","1","0","","","","","","5","","","","","","","","",""
"","","","","","single-stim-button","40","227674","0.0-2.0-13.4-0.4","615224b6fec95dfc43439c28","A3","batch1","","2202","tol_tohand","","","","tol_peg_2","2202","2202","0","[[2,1,0],[0,0],[0]]","5","[[2,1,3],[0,0],[0]]","1","0","","","","","","5","","","","","","","","",""
"","","","","","single-stim-button","41","229041","0.0-2.0-13.4-1.4","615224b6fec95dfc43439c28","A3","batch1","","1366","tol_toboard","","","","tol_peg_1","1366","1366","0","[[2,1,3],[0,0],[0]]","5","[[2,1,3],[0,0],[0]]","1","0","","","","","","5","","","","","","","","",""
"","","","","","poldrack-single-stim","42","230043","0.0-2.0-14.0","615224b6fec95dfc43439c28","A3","batch1","","-1","tol_feedback","","","true","","1000","1000","500","","","","","","-1","none","true","12670","18111","","","","","","","","","",""
"","","","","","html-button-response","43","231338","0.0-2.0-15.0","615224b6fec95dfc43439c28","A3","batch1","","1293.2999999970198","tol_trial_num","<div class = centerbox><p class = center-block-text>problem <strong>3</strong> out of 25 problems</p></div>","0","","","","","","","","","","","","","","","","","","","","","","","","",""
"","","","","","single-stim-button","44","236558","0.0-2.0-16.0-0.0","615224b6fec95dfc43439c28","A3","batch1","","5220","tol_tohand","","","","tol_peg_1","5220","5220","0","[[2,0,0],[0,0],[1]]","1","[[1,2,0],[3,0],[0]]","2","0","","","","","","4","","","","","","","","",""
"","","","","","single-stim-button","45","238972","0.0-2.0-16.0-1.0","615224b6fec95dfc43439c28","A3","batch1","","2413","tol_toboard","","","","tol_peg_2","2413","2413","0","[[2,0,0],[3,0],[1]]","1","[[1,2,0],[3,0],[0]]","2","0","","","","","","4","","","","","","","","",""
"","","","","","single-stim-button","46","242229","0.0-2.0-16.1-0.1","615224b6fec95dfc43439c28","A3","batch1","","3256","tol_tohand","","","","tol_peg_1","3256","3256","0","[[0,0,0],[3,0],[1]]","2","[[1,2,0],[3,0],[0]]","2","0","","","","","","4","","","","","","","","",""
"","","","","","single-stim-button","47","243362","0.0-2.0-16.1-1.1","615224b6fec95dfc43439c28","A3","batch1","","1132","tol_toboard","","","","tol_peg_2","1132","1132","0","[[0,0,0],[3,2],[1]]","2","[[1,2,0],[3,0],[0]]","2","0","","","","","","4","","","","","","","","",""
"","","","","","single-stim-button","48","244542","0.0-2.0-16.2-0.2","615224b6fec95dfc43439c28","A3","batch1","","1179","tol_tohand","","","","tol_peg_3","1179","1179","0","[[0,0,0],[3,2],[0]]","3","[[1,2,0],[3,0],[0]]","2","0","","","","","","4","","","","","","","","",""
"","","","","","single-stim-button","49","246042","0.0-2.0-16.2-1.2","615224b6fec95dfc43439c28","A3","batch1","","1499","tol_toboard","","","","tol_peg_1","1499","1499","0","[[1,0,0],[3,2],[0]]","3","[[1,2,0],[3,0],[0]]","2","0","","","","","","4","","","","","","","","",""
"","","","","","single-stim-button","50","246965","0.0-2.0-16.3-0.3","615224b6fec95dfc43439c28","A3","batch1","","922","tol_tohand","","","","tol_peg_2","922","922","0","[[1,0,0],[3,0],[0]]","4","[[1,2,0],[3,0],[0]]","2","0","","","","","","4","","","","","","","","",""
"","","","","","single-stim-button","51","247736","0.0-2.0-16.3-1.3","615224b6fec95dfc43439c28","A3","batch1","","771","tol_toboard","","","","tol_peg_1","771","771","0","[[1,2,0],[3,0],[0]]","4","[[1,2,0],[3,0],[0]]","2","0","","","","","","4","","","","","","","","",""
"","","","","","poldrack-single-stim","52","248738","0.0-2.0-17.0","615224b6fec95dfc43439c28","A3","batch1","","-1","tol_feedback","","","true","","1000","1000","500","","","","","","-1","none","true","5220","10577","","","","","","","","","",""
"","","","","","html-button-response","53","250058","0.0-2.0-18.0","615224b6fec95dfc43439c28","A3","batch1","","1318.300000011921","tol_trial_num","<div class = centerbox><p class = center-block-text>problem <strong>4</strong> out of 25 problems</p></div>","0","","","","","","","","","","","","","","","","","","","","","","","","",""
"","","","","","single-stim-button","54","257064","0.0-2.0-19.0-0.0","615224b6fec95dfc43439c28","A3","batch1","","7005","tol_tohand","","","","tol_peg_2","7005","7005","0","[[3,0,0],[2,0],[0]]","1","[[3,0,0],[1,0],[2]]","3","0","","","","","","3","","","","","","","","",""
"","","","","","single-stim-button","55","258104","0.0-2.0-19.0-1.0","615224b6fec95dfc43439c28","A3","batch1","","1040","tol_toboard","","","","tol_peg_1","1040","1040","0","[[3,1,0],[2,0],[0]]","1","[[3,0,0],[1,0],[2]]","3","0","","","","","","3","","","","","","","","",""
"","","","","","single-stim-button","56","259113","0.0-2.0-19.1-0.1","615224b6fec95dfc43439c28","A3","batch1","","1008","tol_tohand","","","","tol_peg_2","1008","1008","0","[[3,1,0],[0,0],[0]]","2","[[3,0,0],[1,0],[2]]","3","0","","","","","","3","","","","","","","","",""
"","","","","","single-stim-button","57","260892","0.0-2.0-19.1-1.1","615224b6fec95dfc43439c28","A3","batch1","","1779","tol_toboard","","","","tol_peg_3","1779","1779","0","[[3,1,0],[0,0],[2]]","2","[[3,0,0],[1,0],[2]]","3","0","","","","","","3","","","","","","","","",""
"","","","","","single-stim-button","58","261940","0.0-2.0-19.2-0.2","615224b6fec95dfc43439c28","A3","batch1","","1047","tol_tohand","","","","tol_peg_1","1047","1047","0","[[3,0,0],[0,0],[2]]","3","[[3,0,0],[1,0],[2]]","3","0","","","","","","3","","","","","","","","",""
"","","","","","single-stim-button","59","262916","0.0-2.0-19.2-1.2","615224b6fec95dfc43439c28","A3","batch1","","975","tol_toboard","","","","tol_peg_2","975","975","0","[[3,0,0],[1,0],[2]]","3","[[3,0,0],[1,0],[2]]","3","0","","","","","","3","","","","","","","","",""
"","","","","","poldrack-single-stim","60","263932","0.0-2.0-20.0","615224b6fec95dfc43439c28","A3","batch1","","-1","tol_feedback","","","true","","1000","1000","500","","","","","","-1","none","true","7005","9060","","","","","","","","","",""
"","","","","","html-button-response","61","265315","0.0-2.0-21.0","615224b6fec95dfc43439c28","A3","batch1","","1380.0999999940395","tol_trial_num","<div class = centerbox><p class = center-block-text>problem <strong>5</strong> out of 25 problems</p></div>","0","","","","","","","","","","","","","","","","","","","","","","","","",""
"","","","","","single-stim-button","62","271384","0.0-2.0-22.0-0.0","615224b6fec95dfc43439c28","A3","batch1","","6068","tol_tohand","","","","tol_peg_2","6068","6068","0","[[1,0,0],[0,0],[3]]","1","[[0,0,0],[1,2],[3]]","4","0","","","","","","7","","","","","","","","",""
"","","","","","single-stim-button","63","280784","0.0-2.0-22.0-1.0","615224b6fec95dfc43439c28","A3","batch1","","9399","tol_toboard","","","","tol_peg_2","9399","9399","0","[[1,0,0],[2,0],[3]]","1","[[0,0,0],[1,2],[3]]","4","0","","","","","","7","","","","","","","","",""
"","","","","","single-stim-button","64","281798","0.0-2.0-22.1-0.1","615224b6fec95dfc43439c28","A3","batch1","","1013","tol_tohand","","","","tol_peg_3","1013","1013","0","[[1,0,0],[2,0],[0]]","2","[[0,0,0],[1,2],[3]]","4","0","","","","","","7","","","","","","","","",""
"","","","","","single-stim-button","65","301994","0.0-2.0-22.1-1.1","615224b6fec95dfc43439c28","A3","batch1","","20194","tol_toboard","","","","tol_peg_3","20194","20194","0","[[1,0,0],[2,0],[3]]","2","[[0,0,0],[1,2],[3]]","4","0","","","","","","7","","","","","","","","",""
"","","","","","single-stim-button","66","308260","0.0-2.0-22.2-0.2","615224b6fec95dfc43439c28","A3","batch1","","6265","tol_tohand","","","","tol_peg_1","6265","6265","0","[[0,0,0],[2,0],[3]]","3","[[0,0,0],[1,2],[3]]","4","0","","","","","","7","","","","","","","","",""
"","","","","","single-stim-button","67","311596","0.0-2.0-22.2-1.2","615224b6fec95dfc43439c28","A3","batch1","","3336","tol_toboard","","","","tol_peg_2","3336","3336","0","[[0,0,0],[2,1],[3]]","3","[[0,0,0],[1,2],[3]]","4","0","","","","","","7","","","","","","","","",""
"","","","","","single-stim-button","68","325682","0.0-2.0-22.3-0.3","615224b6fec95dfc43439c28","A3","batch1","","14085","tol_tohand","","","","tol_peg_2","14085","14085","0","[[0,0,0],[2,0],[3]]","4","[[0,0,0],[1,2],[3]]","4","0","","","","","","7","","","","","","","","",""
"","","","","","single-stim-button","69","326986","0.0-2.0-22.3-1.3","615224b6fec95dfc43439c28","A3","batch1","","1303","tol_toboard","","","","tol_peg_1","1303","1303","0","[[1,0,0],[2,0],[3]]","4","[[0,0,0],[1,2],[3]]","4","0","","","","","","7","","","","","","","","",""
"","","","","","single-stim-button","70","328298","0.0-2.0-22.4-0.4","615224b6fec95dfc43439c28","A3","batch1","","1312","tol_tohand","","","","tol_peg_2","1312","1312","0","[[1,0,0],[0,0],[3]]","5","[[0,0,0],[1,2],[3]]","4","0","","","","","","7","","","","","","","","",""
"","","","","","single-stim-button","71","330104","0.0-2.0-22.4-1.4","615224b6fec95dfc43439c28","A3","batch1","","1805","tol_toboard","","","","tol_peg_1","1805","1805","0","[[1,2,0],[0,0],[3]]","5","[[0,0,0],[1,2],[3]]","4","0","","","","","","7","","","","","","","","",""
"","","","","","single-stim-button","72","337956","0.0-2.0-22.5-0.5","615224b6fec95dfc43439c28","A3","batch1","","7852","tol_tohand","","","","tol_peg_3","7852","7852","0","[[1,2,0],[0,0],[0]]","6","[[0,0,0],[1,2],[3]]","4","0","","","","","","7","","","","","","","","",""
"","","","","","single-stim-button","73","339408","0.0-2.0-22.5-1.5","615224b6fec95dfc43439c28","A3","batch1","","1450","tol_toboard","","","","tol_peg_2","1450","1450","0","[[1,2,0],[3,0],[0]]","6","[[0,0,0],[1,2],[3]]","4","0","","","","","","7","","","","","","","","",""
"","","","","","single-stim-button","74","359096","0.0-2.0-22.6-0.6","615224b6fec95dfc43439c28","A3","batch1","","19688","tol_tohand","","","","tol_peg_1","19688","19688","0","[[1,0,0],[3,0],[0]]","7","[[0,0,0],[1,2],[3]]","4","0","","","","","","7","","","","","","","","",""
"","","","","","single-stim-button","75","364104","0.0-2.0-22.6-1.6","615224b6fec95dfc43439c28","A3","batch1","","5007","tol_toboard","","","","tol_peg_3","5007","5007","0","[[1,0,0],[3,0],[2]]","7","[[0,0,0],[1,2],[3]]","4","0","","","","","","7","","","","","","","","",""
"","","","","","single-stim-button","76","371682","0.0-2.0-22.7-0.7","615224b6fec95dfc43439c28","A3","batch1","","7577","tol_tohand","","","","tol_peg_3","7577","7577","0","[[1,0,0],[3,0],[0]]","8","[[0,0,0],[1,2],[3]]","4","0","","","","","","7","","","","","","","","",""
"","","","","","single-stim-button","77","372776","0.0-2.0-22.7-1.7","615224b6fec95dfc43439c28","A3","batch1","","1094","tol_toboard","","","","tol_peg_2","1094","1094","0","[[1,0,0],[3,2],[0]]","8","[[0,0,0],[1,2],[3]]","4","0","","","","","","7","","","","","","","","",""
"","","","","","single-stim-button","78","373940","0.0-2.0-22.8-0.8","615224b6fec95dfc43439c28","A3","batch1","","1164","tol_tohand","","","","tol_peg_1","1164","1164","0","[[0,0,0],[3,2],[0]]","9","[[0,0,0],[1,2],[3]]","4","0","","","","","","7","","","","","","","","",""
"","","","","","single-stim-button","79","375305","0.0-2.0-22.8-1.8","615224b6fec95dfc43439c28","A3","batch1","","1365","tol_toboard","","","","tol_peg_3","1365","1365","0","[[0,0,0],[3,2],[1]]","9","[[0,0,0],[1,2],[3]]","4","0","","","","","","7","","","","","","","","",""
"","","","","","single-stim-button","80","378081","0.0-2.0-22.9-0.9","615224b6fec95dfc43439c28","A3","batch1","","2775","tol_tohand","","","","tol_peg_2","2775","2775","0","[[0,0,0],[3,0],[1]]","10","[[0,0,0],[1,2],[3]]","4","0","","","","","","7","","","","","","","","",""
"","","","","","single-stim-button","81","379736","0.0-2.0-22.9-1.9","615224b6fec95dfc43439c28","A3","batch1","","1655","tol_toboard","","","","tol_peg_1","1655","1655","0","[[2,0,0],[3,0],[1]]","10","[[0,0,0],[1,2],[3]]","4","0","","","","","","7","","","","","","","","",""
"","","","","","single-stim-button","82","381338","0.0-2.0-22.10-0.10","615224b6fec95dfc43439c28","A3","batch1","","1602","tol_tohand","","","","tol_peg_3","1602","1602","0","[[2,0,0],[3,0],[0]]","11","[[0,0,0],[1,2],[3]]","4","0","","","","","","7","","","","","","","","",""
"","","","","","single-stim-button","83","384088","0.0-2.0-22.10-1.10","615224b6fec95dfc43439c28","A3","batch1","","2749","tol_toboard","","","","tol_peg_1","2749","2749","0","[[2,1,0],[3,0],[0]]","11","[[0,0,0],[1,2],[3]]","4","0","","","","","","7","","","","","","","","",""
"","","","","","single-stim-button","84","385134","0.0-2.0-22.11-0.11","615224b6fec95dfc43439c28","A3","batch1","","1046","tol_tohand","","","","tol_peg_2","1046","1046","0","[[2,1,0],[0,0],[0]]","12","[[0,0,0],[1,2],[3]]","4","0","","","","","","7","","","","","","","","",""
"","","","","","single-stim-button","85","386470","0.0-2.0-22.11-1.11","615224b6fec95dfc43439c28","A3","batch1","","1335","tol_toboard","","","","tol_peg_3","1335","1335","0","[[2,1,0],[0,0],[3]]","12","[[0,0,0],[1,2],[3]]","4","0","","","","","","7","","","","","","","","",""
"","","","","","single-stim-button","86","388104","0.0-2.0-22.12-0.12","615224b6fec95dfc43439c28","A3","batch1","","1633","tol_tohand","","","","tol_peg_1","1633","1633","0","[[2,0,0],[0,0],[3]]","13","[[0,0,0],[1,2],[3]]","4","0","","","","","","7","","","","","","","","",""
"","","","","","single-stim-button","87","389150","0.0-2.0-22.12-1.12","615224b6fec95dfc43439c28","A3","batch1","","1046","tol_toboard","","","","tol_peg_2","1046","1046","0","[[2,0,0],[1,0],[3]]","13","[[0,0,0],[1,2],[3]]","4","0","","","","","","7","","","","","","","","",""
"","","","","","single-stim-button","88","390424","0.0-2.0-22.13-0.13","615224b6fec95dfc43439c28","A3","batch1","","1274","tol_tohand","","","","tol_peg_1","1274","1274","0","[[0,0,0],[1,0],[3]]","14","[[0,0,0],[1,2],[3]]","4","0","","","","","","7","","","","","","","","",""
"","","","","","single-stim-button","89","391346","0.0-2.0-22.13-1.13","615224b6fec95dfc43439c28","A3","batch1","","921","tol_toboard","","","","tol_peg_2","921","921","0","[[0,0,0],[1,2],[3]]","14","[[0,0,0],[1,2],[3]]","4","0","","","","","","7","","","","","","","","",""
"","","","","","poldrack-single-stim","90","392350","0.0-2.0-23.0","615224b6fec95dfc43439c28","A3","batch1","","-1","tol_feedback","","","true","","1000","1000","500","","","","","","-1","none","true","6068","73354","","","","","","","","","",""
"","","","","","html-button-response","91","394203","0.0-2.0-24.0","615224b6fec95dfc43439c28","A3","batch1","","1852","tol_trial_num","<div class = centerbox><p class = center-block-text>problem <strong>6</strong> out of 25 problems</p></div>","0","","","","","","","","","","","","","","","","","","","","","","","","",""
"","","","","","single-stim-button","92","406736","0.0-2.0-25.0-0.0","615224b6fec95dfc43439c28","A3","batch1","","12532","tol_tohand","","","","tol_peg_2","12532","12532","0","[[0,0,0],[1,0],[3]]","1","[[1,0,0],[2,3],[0]]","5","0","","","","","","6","","","","","","","","",""
"","","","","","single-stim-button","93","408596","0.0-2.0-25.0-1.0","615224b6fec95dfc43439c28","A3","batch1","","1859","tol_toboard","","","","tol_peg_1","1859","1859","0","[[2,0,0],[1,0],[3]]","1","[[1,0,0],[2,3],[0]]","5","0","","","","","","6","","","","","","","","",""
"","","","","","single-stim-button","94","420884","0.0-2.0-25.1-0.1","615224b6fec95dfc43439c28","A3","batch1","","12288","tol_tohand","","","","tol_peg_3","12288","12288","0","[[2,0,0],[1,0],[0]]","2","[[1,0,0],[2,3],[0]]","5","0","","","","","","6","","","","","","","","",""
"","","","","","single-stim-button","95","422437","0.0-2.0-25.1-1.1","615224b6fec95dfc43439c28","A3","batch1","","1552","tol_toboard","","","","tol_peg_1","1552","1552","0","[[2,3,0],[1,0],[0]]","2","[[1,0,0],[2,3],[0]]","5","0","","","","","","6","","","","","","","","",""
"","","","","","single-stim-button","96","423345","0.0-2.0-25.2-0.2","615224b6fec95dfc43439c28","A3","batch1","","907","tol_tohand","","","","tol_peg_2","907","907","0","[[2,3,0],[0,0],[0]]","3","[[1,0,0],[2,3],[0]]","5","0","","","","","","6","","","","","","","","",""
"","","","","","single-stim-button","97","424306","0.0-2.0-25.2-1.2","615224b6fec95dfc43439c28","A3","batch1","","960","tol_toboard","","","","tol_peg_3","960","960","0","[[2,3,0],[0,0],[1]]","3","[[1,0,0],[2,3],[0]]","5","0","","","","","","6","","","","","","","","",""
"","","","","","single-stim-button","98","431237","0.0-2.0-25.3-0.3","615224b6fec95dfc43439c28","A3","batch1","","6929","tol_tohand","","","","tol_peg_1","6929","6929","0","[[2,0,0],[0,0],[1]]","4","[[1,0,0],[2,3],[0]]","5","0","","","","","","6","","","","","","","","",""
"","","","","","single-stim-button","99","432900","0.0-2.0-25.3-1.3","615224b6fec95dfc43439c28","A3","batch1","","1663","tol_toboard","","","","tol_peg_2","1663","1663","0","[[2,0,0],[3,0],[1]]","4","[[1,0,0],[2,3],[0]]","5","0","","","","","","6","","","","","","","","",""
"","","","","","single-stim-button","100","433868","0.0-2.0-25.4-0.4","615224b6fec95dfc43439c28","A3","batch1","","968","tol_tohand","","","","tol_peg_1","968","968","0","[[0,0,0],[3,0],[1]]","5","[[1,0,0],[2,3],[0]]","5","0","","","","","","6","","","","","","","","",""
"","","","","","single-stim-button","101","435618","0.0-2.0-25.4-1.4","615224b6fec95dfc43439c28","A3","batch1","","1748","tol_toboard","","","","tol_peg_2","1748","1748","0","[[0,0,0],[3,2],[1]]","5","[[1,0,0],[2,3],[0]]","5","0","","","","","","6","","","","","","","","",""
"","","","","","single-stim-button","102","436415","0.0-2.0-25.5-0.5","615224b6fec95dfc43439c28","A3","batch1","","797","tol_tohand","","","","tol_peg_3","797","797","0","[[0,0,0],[3,2],[0]]","6","[[1,0,0],[2,3],[0]]","5","0","","","","","","6","","","","","","","","",""
"","","","","","single-stim-button","103","438313","0.0-2.0-25.5-1.5","615224b6fec95dfc43439c28","A3","batch1","","1897","tol_toboard","","","","tol_peg_1","1897","1897","0","[[1,0,0],[3,2],[0]]","6","[[1,0,0],[2,3],[0]]","5","0","","","","","","6","","","","","","","","",""
"","","","","","single-stim-button","104","441002","0.0-2.0-25.6-0.6","615224b6fec95dfc43439c28","A3","batch1","","2688","tol_tohand","","","","tol_peg_2","2688","2688","0","[[1,0,0],[3,0],[0]]","7","[[1,0,0],[2,3],[0]]","5","0","","","","","","6","","","","","","","","",""
"","","","","","single-stim-button","105","441970","0.0-2.0-25.6-1.6","615224b6fec95dfc43439c28","A3","batch1","","967","tol_toboard","","","","tol_peg_1","967","967","0","[[1,2,0],[3,0],[0]]","7","[[1,0,0],[2,3],[0]]","5","0","","","","","","6","","","","","","","","",""
"","","","","","single-stim-button","106","443260","0.0-2.0-25.7-0.7","615224b6fec95dfc43439c28","A3","batch1","","1289","tol_tohand","","","","tol_peg_2","1289","1289","0","[[1,2,0],[0,0],[0]]","8","[[1,0,0],[2,3],[0]]","5","0","","","","","","6","","","","","","","","",""
"","","","","","single-stim-button","107","444564","0.0-2.0-25.7-1.7","615224b6fec95dfc43439c28","A3","batch1","","1304","tol_toboard","","","","tol_peg_3","1304","1304","0","[[1,2,0],[0,0],[3]]","8","[[1,0,0],[2,3],[0]]","5","0","","","","","","6","","","","","","","","",""
"","","","","","single-stim-button","108","445822","0.0-2.0-25.8-0.8","615224b6fec95dfc43439c28","A3","batch1","","1256","tol_tohand","","","","tol_peg_1","1256","1256","0","[[1,0,0],[0,0],[3]]","9","[[1,0,0],[2,3],[0]]","5","0","","","","","","6","","","","","","","","",""
"","","","","","single-stim-button","109","446946","0.0-2.0-25.8-1.8","615224b6fec95dfc43439c28","A3","batch1","","1123","tol_toboard","","","","tol_peg_2","1123","1123","0","[[1,0,0],[2,0],[3]]","9","[[1,0,0],[2,3],[0]]","5","0","","","","","","6","","","","","","","","",""
"","","","","","single-stim-button","110","447916","0.0-2.0-25.9-0.9","615224b6fec95dfc43439c28","A3","batch1","","969","tol_tohand","","","","tol_peg_3","969","969","0","[[1,0,0],[2,0],[0]]","10","[[1,0,0],[2,3],[0]]","5","0","","","","","","6","","","","","","","","",""
"","","","","","single-stim-button","111","449016","0.0-2.0-25.9-1.9","615224b6fec95dfc43439c28","A3","batch1","","1099","tol_toboard","","","","tol_peg_2","1099","1099","0","[[1,0,0],[2,3],[0]]","10","[[1,0,0],[2,3],[0]]","5","0","","","","","","6","","","","","","","","",""
"","","","","","poldrack-single-stim","112","450018","0.0-2.0-26.0","615224b6fec95dfc43439c28","A3","batch1","","-1","tol_feedback","","","true","","1000","1000","500","","","","","","-1","none","true","12532","40623","","","","","","","","","",""
"","","","","","html-button-response","113","451282","0.0-2.0-27.0","615224b6fec95dfc43439c28","A3","batch1","","1262.0999999940395","tol_trial_num","<div class = centerbox><p class = center-block-text>problem <strong>7</strong> out of 25 problems</p></div>","0","","","","","","","","","","","","","","","","","","","","","","","","",""
"","","","","","single-stim-button","114","458924","0.0-2.0-28.0-0.0","615224b6fec95dfc43439c28","A3","batch1","","7642","tol_tohand","","","","tol_peg_1","7642","7642","0","[[2,0,0],[0,0],[3]]","1","[[1,2,0],[3,0],[0]]","6","0","","","","","","5","","","","","","","","",""
"","","","","","single-stim-button","115","460306","0.0-2.0-28.0-1.0","615224b6fec95dfc43439c28","A3","batch1","","1380","tol_toboard","","","","tol_peg_2","1380","1380","0","[[2,0,0],[1,0],[3]]","1","[[1,2,0],[3,0],[0]]","6","0","","","","","","5","","","","","","","","",""
"","","","","","single-stim-button","116","468657","0.0-2.0-28.1-0.1","615224b6fec95dfc43439c28","A3","batch1","","8351","tol_tohand","","","","tol_peg_1","8351","8351","0","[[0,0,0],[1,0],[3]]","2","[[1,2,0],[3,0],[0]]","6","0","","","","","","5","","","","","","","","",""
"","","","","","single-stim-button","117","469868","0.0-2.0-28.1-1.1","615224b6fec95dfc43439c28","A3","batch1","","1209","tol_toboard","","","","tol_peg_2","1209","1209","0","[[0,0,0],[1,2],[3]]","2","[[1,2,0],[3,0],[0]]","6","0","","","","","","5","","","","","","","","",""
"","","","","","single-stim-button","118","470736","0.0-2.0-28.2-0.2","615224b6fec95dfc43439c28","A3","batch1","","868","tol_tohand","","","","tol_peg_3","868","868","0","[[0,0,0],[1,2],[0]]","3","[[1,2,0],[3,0],[0]]","6","0","","","","","","5","","","","","","","","",""
"","","","","","single-stim-button","119","471774","0.0-2.0-28.2-1.2","615224b6fec95dfc43439c28","A3","batch1","","1038","tol_toboard","","","","tol_peg_1","1038","1038","0","[[3,0,0],[1,2],[0]]","3","[[1,2,0],[3,0],[0]]","6","0","","","","","","5","","","","","","","","",""
"","","","","","single-stim-button","120","472907","0.0-2.0-28.3-0.3","615224b6fec95dfc43439c28","A3","batch1","","1133","tol_tohand","","","","tol_peg_2","1133","1133","0","[[3,0,0],[1,0],[0]]","4","[[1,2,0],[3,0],[0]]","6","0","","","","","","5","","","","","","","","",""
"","","","","","single-stim-button","121","474048","0.0-2.0-28.3-1.3","615224b6fec95dfc43439c28","A3","batch1","","1139","tol_toboard","","","","tol_peg_3","1139","1139","0","[[3,0,0],[1,0],[2]]","4","[[1,2,0],[3,0],[0]]","6","0","","","","","","5","","","","","","","","",""
"","","","","","single-stim-button","122","487212","0.0-2.0-28.4-0.4","615224b6fec95dfc43439c28","A3","batch1","","13163","tol_tohand","","","","tol_peg_1","13163","13163","0","[[0,0,0],[1,0],[2]]","5","[[1,2,0],[3,0],[0]]","6","0","","","","","","5","","","","","","","","",""
"","","","","","single-stim-button","123","489580","0.0-2.0-28.4-1.4","615224b6fec95dfc43439c28","A3","batch1","","2367","tol_toboard","","","","tol_peg_2","2367","2367","0","[[0,0,0],[1,3],[2]]","5","[[1,2,0],[3,0],[0]]","6","0","","","","","","5","","","","","","","","",""
"","","","","","single-stim-button","124","490618","0.0-2.0-28.5-0.5","615224b6fec95dfc43439c28","A3","batch1","","1037","tol_tohand","","","","tol_peg_3","1037","1037","0","[[0,0,0],[1,3],[0]]","6","[[1,2,0],[3,0],[0]]","6","0","","","","","","5","","","","","","","","",""
"","","","","","single-stim-button","125","491860","0.0-2.0-28.5-1.5","615224b6fec95dfc43439c28","A3","batch1","","1242","tol_toboard","","","","tol_peg_1","1242","1242","0","[[2,0,0],[1,3],[0]]","6","[[1,2,0],[3,0],[0]]","6","0","","","","","","5","","","","","","","","",""
"","","","","","single-stim-button","126","492501","0.0-2.0-28.6-0.6","615224b6fec95dfc43439c28","A3","batch1","","640","tol_tohand","","","","tol_peg_2","640","640","0","[[2,0,0],[1,0],[0]]","7","[[1,2,0],[3,0],[0]]","6","0","","","","","","5","","","","","","","","",""
"","","","","","single-stim-button","127","493392","0.0-2.0-28.6-1.6","615224b6fec95dfc43439c28","A3","batch1","","890","tol_toboard","","","","tol_peg_3","890","890","0","[[2,0,0],[1,0],[3]]","7","[[1,2,0],[3,0],[0]]","6","0","","","","","","5","","","","","","","","",""
"","","","","","single-stim-button","128","495814","0.0-2.0-28.7-0.7","615224b6fec95dfc43439c28","A3","batch1","","2421","tol_tohand","","","","tol_peg_2","2421","2421","0","[[2,0,0],[0,0],[3]]","8","[[1,2,0],[3,0],[0]]","6","0","","","","","","5","","","","","","","","",""
"","","","","","single-stim-button","129","497274","0.0-2.0-28.7-1.7","615224b6fec95dfc43439c28","A3","batch1","","1460","tol_toboard","","","","tol_peg_1","1460","1460","0","[[2,1,0],[0,0],[3]]","8","[[1,2,0],[3,0],[0]]","6","0","","","","","","5","","","","","","","","",""
"","","","","","single-stim-button","130","498158","0.0-2.0-28.8-0.8","615224b6fec95dfc43439c28","A3","batch1","","882","tol_tohand","","","","tol_peg_3","882","882","0","[[2,1,0],[0,0],[0]]","9","[[1,2,0],[3,0],[0]]","6","0","","","","","","5","","","","","","","","",""
"","","","","","single-stim-button","131","499064","0.0-2.0-28.8-1.8","615224b6fec95dfc43439c28","A3","batch1","","906","tol_toboard","","","","tol_peg_2","906","906","0","[[2,1,0],[3,0],[0]]","9","[[1,2,0],[3,0],[0]]","6","0","","","","","","5","","","","","","","","",""
"","","","","","single-stim-button","132","502954","0.0-2.0-28.9-0.9","615224b6fec95dfc43439c28","A3","batch1","","3889","tol_tohand","","","","tol_peg_1","3889","3889","0","[[2,0,0],[3,0],[0]]","10","[[1,2,0],[3,0],[0]]","6","0","","","","","","5","","","","","","","","",""
"","","","","","single-stim-button","133","504336","0.0-2.0-28.9-1.9","615224b6fec95dfc43439c28","A3","batch1","","1382","tol_toboard","","","","tol_peg_2","1382","1382","0","[[2,0,0],[3,1],[0]]","10","[[1,2,0],[3,0],[0]]","6","0","","","","","","5","","","","","","","","",""
"","","","","","single-stim-button","134","505236","0.0-2.0-28.10-0.10","615224b6fec95dfc43439c28","A3","batch1","","898","tol_tohand","","","","tol_peg_1","898","898","0","[[0,0,0],[3,1],[0]]","11","[[1,2,0],[3,0],[0]]","6","0","","","","","","5","","","","","","","","",""
"","","","","","single-stim-button","135","506703","0.0-2.0-28.10-1.10","615224b6fec95dfc43439c28","A3","batch1","","1467","tol_toboard","","","","tol_peg_3","1467","1467","0","[[0,0,0],[3,1],[2]]","11","[[1,2,0],[3,0],[0]]","6","0","","","","","","5","","","","","","","","",""
"","","","","","single-stim-button","136","508462","0.0-2.0-28.11-0.11","615224b6fec95dfc43439c28","A3","batch1","","1758","tol_tohand","","","","tol_peg_2","1758","1758","0","[[0,0,0],[3,0],[2]]","12","[[1,2,0],[3,0],[0]]","6","0","","","","","","5","","","","","","","","",""
"","","","","","single-stim-button","137","509446","0.0-2.0-28.11-1.11","615224b6fec95dfc43439c28","A3","batch1","","983","tol_toboard","","","","tol_peg_1","983","983","0","[[1,0,0],[3,0],[2]]","12","[[1,2,0],[3,0],[0]]","6","0","","","","","","5","","","","","","","","",""
"","","","","","single-stim-button","138","510548","0.0-2.0-28.12-0.12","615224b6fec95dfc43439c28","A3","batch1","","1102","tol_tohand","","","","tol_peg_3","1102","1102","0","[[1,0,0],[3,0],[0]]","13","[[1,2,0],[3,0],[0]]","6","0","","","","","","5","","","","","","","","",""
"","","","","","single-stim-button","139","512048","0.0-2.0-28.12-1.12","615224b6fec95dfc43439c28","A3","batch1","","1499","tol_toboard","","","","tol_peg_1","1499","1499","0","[[1,2,0],[3,0],[0]]","13","[[1,2,0],[3,0],[0]]","6","0","","","","","","5","","","","","","","","",""
"","","","","","poldrack-single-stim","140","513050","0.0-2.0-29.0","615224b6fec95dfc43439c28","A3","batch1","","-1","tol_feedback","","","true","","1000","1000","500","","","","","","-1","none","true","7642","43784","","","","","","","","","",""
"","","","","","html-button-response","141","514337","0.0-2.0-30.0","615224b6fec95dfc43439c28","A3","batch1","","1284","tol_trial_num","<div class = centerbox><p class = center-block-text>problem <strong>8</strong> out of 25 problems</p></div>","0","","","","","","","","","","","","","","","","","","","","","","","","",""
"","","","","","single-stim-button","142","518392","0.0-2.0-31.0-0.0","615224b6fec95dfc43439c28","A3","batch1","","4055","tol_tohand","","","","tol_peg_3","4055","4055","0","[[0,0,0],[2,3],[0]]","1","[[1,2,0],[3,0],[0]]","7","0","","","","","","4","","","","","","","","",""
"","","","","","single-stim-button","143","519602","0.0-2.0-31.0-1.0","615224b6fec95dfc43439c28","A3","batch1","","1209","tol_toboard","","","","tol_peg_1","1209","1209","0","[[1,0,0],[2,3],[0]]","1","[[1,2,0],[3,0],[0]]","7","0","","","","","","4","","","","","","","","",""
"","","","","","single-stim-button","144","521072","0.0-2.0-31.1-0.1","615224b6fec95dfc43439c28","A3","batch1","","1469","tol_tohand","","","","tol_peg_2","1469","1469","0","[[1,0,0],[2,0],[0]]","2","[[1,2,0],[3,0],[0]]","7","0","","","","","","4","","","","","","","","",""
"","","","","","single-stim-button","145","522024","0.0-2.0-31.1-1.1","615224b6fec95dfc43439c28","A3","batch1","","951","tol_toboard","","","","tol_peg_3","951","951","0","[[1,0,0],[2,0],[3]]","2","[[1,2,0],[3,0],[0]]","7","0","","","","","","4","","","","","","","","",""
"","","","","","single-stim-button","146","522658","0.0-2.0-31.2-0.2","615224b6fec95dfc43439c28","A3","batch1","","634","tol_tohand","","","","tol_peg_2","634","634","0","[[1,0,0],[0,0],[3]]","3","[[1,2,0],[3,0],[0]]","7","0","","","","","","4","","","","","","","","",""
"","","","","","single-stim-button","147","523422","0.0-2.0-31.2-1.2","615224b6fec95dfc43439c28","A3","batch1","","763","tol_toboard","","","","tol_peg_1","763","763","0","[[1,2,0],[0,0],[3]]","3","[[1,2,0],[3,0],[0]]","7","0","","","","","","4","","","","","","","","",""
"","","","","","single-stim-button","148","529070","0.0-2.0-31.3-0.3","615224b6fec95dfc43439c28","A3","batch1","","5646","tol_tohand","","","","tol_peg_3","5646","5646","0","[[1,2,0],[0,0],[0]]","4","[[1,2,0],[3,0],[0]]","7","0","","","","","","4","","","","","","","","",""
"","","","","","single-stim-button","149","530031","0.0-2.0-31.3-1.3","615224b6fec95dfc43439c28","A3","batch1","","961","tol_toboard","","","","tol_peg_2","961","961","0","[[1,2,0],[3,0],[0]]","4","[[1,2,0],[3,0],[0]]","7","0","","","","","","4","","","","","","","","",""
"","","","","","poldrack-single-stim","150","531037","0.0-2.0-32.0","615224b6fec95dfc43439c28","A3","batch1","","-1","tol_feedback","","","true","","1000","1000","500","","","","","","-1","none","true","4055","11804","","","","","","","","","",""
"","","","","","html-button-response","151","536023","0.0-2.0-33.0","615224b6fec95dfc43439c28","A3","batch1","","4984.70000000298","tol_trial_num","<div class = centerbox><p class = center-block-text>problem <strong>9</strong> out of 25 problems</p></div>","0","","","","","","","","","","","","","","","","","","","","","","","","",""
"","","","","","single-stim-button","152","545962","0.0-2.0-34.0-0.0","615224b6fec95dfc43439c28","A3","batch1","","9937","tol_tohand","","","","tol_peg_1","9937","9937","0","[[3,0,0],[0,0],[1]]","1","[[2,1,0],[3,0],[0]]","8","0","","","","","","6","","","","","","","","",""
"","","","","","single-stim-button","153","551462","0.0-2.0-34.0-1.0","615224b6fec95dfc43439c28","A3","batch1","","5499","tol_toboard","","","","tol_peg_2","5499","5499","0","[[3,0,0],[2,0],[1]]","1","[[2,1,0],[3,0],[0]]","8","0","","","","","","6","","","","","","","","",""
"","","","","","single-stim-button","154","552360","0.0-2.0-34.1-0.1","615224b6fec95dfc43439c28","A3","batch1","","897","tol_tohand","","","","tol_peg_3","897","897","0","[[3,0,0],[2,0],[0]]","2","[[2,1,0],[3,0],[0]]","8","0","","","","","","6","","","","","","","","",""
"","","","","","single-stim-button","155","553499","0.0-2.0-34.1-1.1","615224b6fec95dfc43439c28","A3","batch1","","1139","tol_toboard","","","","tol_peg_1","1139","1139","0","[[3,1,0],[2,0],[0]]","2","[[2,1,0],[3,0],[0]]","8","0","","","","","","6","","","","","","","","",""
"","","","","","single-stim-button","156","554555","0.0-2.0-34.2-0.2","615224b6fec95dfc43439c28","A3","batch1","","1055","tol_tohand","","","","tol_peg_2","1055","1055","0","[[3,1,0],[0,0],[0]]","3","[[2,1,0],[3,0],[0]]","8","0","","","","","","6","","","","","","","","",""
"","","","","","single-stim-button","157","555869","0.0-2.0-34.2-1.2","615224b6fec95dfc43439c28","A3","batch1","","1312","tol_toboard","","","","tol_peg_3","1312","1312","0","[[3,1,0],[0,0],[2]]","3","[[2,1,0],[3,0],[0]]","8","0","","","","","","6","","","","","","","","",""
"","","","","","single-stim-button","158","559672","0.0-2.0-34.3-0.3","615224b6fec95dfc43439c28","A3","batch1","","3803","tol_tohand","","","","tol_peg_1","3803","3803","0","[[3,0,0],[0,0],[2]]","4","[[2,1,0],[3,0],[0]]","8","0","","","","","","6","","","","","","","","",""
"","","","","","single-stim-button","159","560593","0.0-2.0-34.3-1.3","615224b6fec95dfc43439c28","A3","batch1","","920","tol_toboard","","","","tol_peg_2","920","920","0","[[3,0,0],[1,0],[2]]","4","[[2,1,0],[3,0],[0]]","8","0","","","","","","6","","","","","","","","",""
"","","","","","single-stim-button","160","561462","0.0-2.0-34.4-0.4","615224b6fec95dfc43439c28","A3","batch1","","868","tol_tohand","","","","tol_peg_1","868","868","0","[[0,0,0],[1,0],[2]]","5","[[2,1,0],[3,0],[0]]","8","0","","","","","","6","","","","","","","","",""
"","","","","","single-stim-button","161","562437","0.0-2.0-34.4-1.4","615224b6fec95dfc43439c28","A3","batch1","","974","tol_toboard","","","","tol_peg_2","974","974","0","[[0,0,0],[1,3],[2]]","5","[[2,1,0],[3,0],[0]]","8","0","","","","","","6","","","","","","","","",""
"","","","","","single-stim-button","162","563704","0.0-2.0-34.5-0.5","615224b6fec95dfc43439c28","A3","batch1","","1265","tol_tohand","","","","tol_peg_3","1265","1265","0","[[0,0,0],[1,3],[0]]","6","[[2,1,0],[3,0],[0]]","8","0","","","","","","6","","","","","","","","",""
"","","","","","single-stim-button","163","566024","0.0-2.0-34.5-1.5","615224b6fec95dfc43439c28","A3","batch1","","2319","tol_toboard","","","","tol_peg_1","2319","2319","0","[[2,0,0],[1,3],[0]]","6","[[2,1,0],[3,0],[0]]","8","0","","","","","","6","","","","","","","","",""
"","","","","","single-stim-button","164","566938","0.0-2.0-34.6-0.6","615224b6fec95dfc43439c28","A3","batch1","","914","tol_tohand","","","","tol_peg_2","914","914","0","[[2,0,0],[1,0],[0]]","7","[[2,1,0],[3,0],[0]]","8","0","","","","","","6","","","","","","","","",""
"","","","","","single-stim-button","165","567524","0.0-2.0-34.6-1.6","615224b6fec95dfc43439c28","A3","batch1","","585","tol_toboard","","","","tol_peg_3","585","585","0","[[2,0,0],[1,0],[3]]","7","[[2,1,0],[3,0],[0]]","8","0","","","","","","6","","","","","","","","",""
"","","","","","single-stim-button","166","568352","0.0-2.0-34.7-0.7","615224b6fec95dfc43439c28","A3","batch1","","827","tol_tohand","","","","tol_peg_2","827","827","0","[[2,0,0],[0,0],[3]]","8","[[2,1,0],[3,0],[0]]","8","0","","","","","","6","","","","","","","","",""
"","","","","","single-stim-button","167","569438","0.0-2.0-34.7-1.7","615224b6fec95dfc43439c28","A3","batch1","","1085","tol_toboard","","","","tol_peg_1","1085","1085","0","[[2,1,0],[0,0],[3]]","8","[[2,1,0],[3,0],[0]]","8","0","","","","","","6","","","","","","","","",""
"","","","","","single-stim-button","168","571438","0.0-2.0-34.8-0.8","615224b6fec95dfc43439c28","A3","batch1","","2000","tol_tohand","","","","tol_peg_3","2000","2000","0","[[2,1,0],[0,0],[0]]","9","[[2,1,0],[3,0],[0]]","8","0","","","","","","6","","","","","","","","",""
"","","","","","single-stim-button","169","572415","0.0-2.0-34.8-1.8","615224b6fec95dfc43439c28","A3","batch1","","975","tol_toboard","","","","tol_peg_2","975","975","0","[[2,1,0],[3,0],[0]]","9","[[2,1,0],[3,0],[0]]","8","0","","","","","","6","","","","","","","","",""
"","","","","","poldrack-single-stim","170","573417","0.0-2.0-35.0","615224b6fec95dfc43439c28","A3","batch1","","-1","tol_feedback","","","true","","1000","1000","500","","","","","","-1","none","true","9937","21566","","","","","","","","","",""
"","","","","","html-button-response","171","574749","0.0-2.0-36.0","615224b6fec95dfc43439c28","A3","batch1","","1330.5999999940395","tol_trial_num","<div class = centerbox><p class = center-block-text>problem <strong>10</strong> out of 25 problems</p></div>","0","","","","","","","","","","","","","","","","","","","","","","","","",""
"","","","","","single-stim-button","172","579148","0.0-2.0-37.0-0.0","615224b6fec95dfc43439c28","A3","batch1","","4397","tol_tohand","","","","tol_peg_2","4397","4397","0","[[3,0,0],[0,0],[2]]","1","[[3,0,0],[2,1],[0]]","9","0","","","","","","3","","","","","","","","",""
"","","","","","single-stim-button","173","580195","0.0-2.0-37.0-1.0","615224b6fec95dfc43439c28","A3","batch1","","1047","tol_toboard","","","","tol_peg_1","1047","1047","0","[[3,1,0],[0,0],[2]]","1","[[3,0,0],[2,1],[0]]","9","0","","","","","","3","","","","","","","","",""
"","","","","","single-stim-button","174","581220","0.0-2.0-37.1-0.1","615224b6fec95dfc43439c28","A3","batch1","","1023","tol_tohand","","","","tol_peg_3","1023","1023","0","[[3,1,0],[0,0],[0]]","2","[[3,0,0],[2,1],[0]]","9","0","","","","","","3","","","","","","","","",""
"","","","","","single-stim-button","175","581844","0.0-2.0-37.1-1.1","615224b6fec95dfc43439c28","A3","batch1","","624","tol_toboard","","","","tol_peg_2","624","624","0","[[3,1,0],[2,0],[0]]","2","[[3,0,0],[2,1],[0]]","9","0","","","","","","3","","","","","","","","",""
"","","","","","single-stim-button","176","583053","0.0-2.0-37.2-0.2","615224b6fec95dfc43439c28","A3","batch1","","1208","tol_tohand","","","","tol_peg_1","1208","1208","0","[[3,0,0],[2,0],[0]]","3","[[3,0,0],[2,1],[0]]","9","0","","","","","","3","","","","","","","","",""
"","","","","","single-stim-button","177","583773","0.0-2.0-37.2-1.2","615224b6fec95dfc43439c28","A3","batch1","","719","tol_toboard","","","","tol_peg_2","719","719","0","[[3,0,0],[2,1],[0]]","3","[[3,0,0],[2,1],[0]]","9","0","","","","","","3","","","","","","","","",""
"","","","","","poldrack-single-stim","178","584783","0.0-2.0-38.0","615224b6fec95dfc43439c28","A3","batch1","","-1","tol_feedback","","","true","","1000","1000","500","","","","","","-1","none","true","4397","6628","","","","","","","","","",""
"","","","","","html-button-response","179","585975","0.0-2.0-39.0","615224b6fec95dfc43439c28","A3","batch1","","1190.699999988079","tol_trial_num","<div class = centerbox><p class = center-block-text>problem <strong>11</strong> out of 25 problems</p></div>","0","","","","","","","","","","","","","","","","","","","","","","","","",""
"","","","","","single-stim-button","180","591094","0.0-2.0-40.0-0.0","615224b6fec95dfc43439c28","A3","batch1","","5118","tol_tohand","","","","tol_peg_2","5118","5118","0","[[1,2,0],[0,0],[0]]","1","[[2,0,0],[1,3],[0]]","10","0","","","","","","6","","","","","","","","",""
"","","","","","single-stim-button","181","592000","0.0-2.0-40.0-1.0","615224b6fec95dfc43439c28","A3","batch1","","905","tol_toboard","","","","tol_peg_3","905","905","0","[[1,2,0],[0,0],[3]]","1","[[2,0,0],[1,3],[0]]","10","0","","","","","","6","","","","","","","","",""
"","","","","","single-stim-button","182","594749","0.0-2.0-40.1-0.1","615224b6fec95dfc43439c28","A3","batch1","","2749","tol_tohand","","","","tol_peg_1","2749","2749","0","[[1,0,0],[0,0],[3]]","2","[[2,0,0],[1,3],[0]]","10","0","","","","","","6","","","","","","","","",""
"","","","","","single-stim-button","183","597242","0.0-2.0-40.1-1.1","615224b6fec95dfc43439c28","A3","batch1","","2491","tol_toboard","","","","tol_peg_2","2491","2491","0","[[1,0,0],[2,0],[3]]","2","[[2,0,0],[1,3],[0]]","10","0","","","","","","6","","","","","","","","",""
"","","","","","single-stim-button","184","600414","0.0-2.0-40.2-0.2","615224b6fec95dfc43439c28","A3","batch1","","3171","tol_tohand","","","","tol_peg_3","3171","3171","0","[[1,0,0],[2,0],[0]]","3","[[2,0,0],[1,3],[0]]","10","0","","","","","","6","","","","","","","","",""
"","","","","","single-stim-button","185","603376","0.0-2.0-40.2-1.2","615224b6fec95dfc43439c28","A3","batch1","","2962","tol_toboard","","","","tol_peg_2","2962","2962","0","[[1,0,0],[2,3],[0]]","3","[[2,0,0],[1,3],[0]]","10","0","","","","","","6","","","","","","","","",""
"","","","","","single-stim-button","186","604423","0.0-2.0-40.3-0.3","615224b6fec95dfc43439c28","A3","batch1","","1047","tol_tohand","","","","tol_peg_1","1047","1047","0","[[0,0,0],[2,3],[0]]","4","[[2,0,0],[1,3],[0]]","10","0","","","","","","6","","","","","","","","",""
"","","","","","single-stim-button","187","605774","0.0-2.0-40.3-1.3","615224b6fec95dfc43439c28","A3","batch1","","1350","tol_toboard","","","","tol_peg_3","1350","1350","0","[[0,0,0],[2,3],[1]]","4","[[2,0,0],[1,3],[0]]","10","0","","","","","","6","","","","","","","","",""
"","","","","","single-stim-button","188","606640","0.0-2.0-40.4-0.4","615224b6fec95dfc43439c28","A3","batch1","","865","tol_tohand","","","","tol_peg_2","865","865","0","[[0,0,0],[2,0],[1]]","5","[[2,0,0],[1,3],[0]]","10","0","","","","","","6","","","","","","","","",""
"","","","","","single-stim-button","189","607618","0.0-2.0-40.4-1.4","615224b6fec95dfc43439c28","A3","batch1","","978","tol_toboard","","","","tol_peg_1","978","978","0","[[3,0,0],[2,0],[1]]","5","[[2,0,0],[1,3],[0]]","10","0","","","","","","6","","","","","","","","",""
"","","","","","single-stim-button","190","608422","0.0-2.0-40.5-0.5","615224b6fec95dfc43439c28","A3","batch1","","803","tol_tohand","","","","tol_peg_2","803","803","0","[[3,0,0],[0,0],[1]]","6","[[2,0,0],[1,3],[0]]","10","0","","","","","","6","","","","","","","","",""
"","","","","","single-stim-button","191","610086","0.0-2.0-40.5-1.5","615224b6fec95dfc43439c28","A3","batch1","","1664","tol_toboard","","","","tol_peg_1","1664","1664","0","[[3,2,0],[0,0],[1]]","6","[[2,0,0],[1,3],[0]]","10","0","","","","","","6","","","","","","","","",""
"","","","","","single-stim-button","192","611242","0.0-2.0-40.6-0.6","615224b6fec95dfc43439c28","A3","batch1","","1155","tol_tohand","","","","tol_peg_3","1155","1155","0","[[3,2,0],[0,0],[0]]","7","[[2,0,0],[1,3],[0]]","10","0","","","","","","6","","","","","","","","",""
"","","","","","single-stim-button","193","612289","0.0-2.0-40.6-1.6","615224b6fec95dfc43439c28","A3","batch1","","1047","tol_toboard","","","","tol_peg_2","1047","1047","0","[[3,2,0],[1,0],[0]]","7","[[2,0,0],[1,3],[0]]","10","0","","","","","","6","","","","","","","","",""
"","","","","","single-stim-button","194","613250","0.0-2.0-40.7-0.7","615224b6fec95dfc43439c28","A3","batch1","","960","tol_tohand","","","","tol_peg_1","960","960","0","[[3,0,0],[1,0],[0]]","8","[[2,0,0],[1,3],[0]]","10","0","","","","","","6","","","","","","","","",""
"","","","","","single-stim-button","195","614618","0.0-2.0-40.7-1.7","615224b6fec95dfc43439c28","A3","batch1","","1368","tol_toboard","","","","tol_peg_3","1368","1368","0","[[3,0,0],[1,0],[2]]","8","[[2,0,0],[1,3],[0]]","10","0","","","","","","6","","","","","","","","",""
"","","","","","single-stim-button","196","615656","0.0-2.0-40.8-0.8","615224b6fec95dfc43439c28","A3","batch1","","1038","tol_tohand","","","","tol_peg_1","1038","1038","0","[[0,0,0],[1,0],[2]]","9","[[2,0,0],[1,3],[0]]","10","0","","","","","","6","","","","","","","","",""
"","","","","","single-stim-button","197","616398","0.0-2.0-40.8-1.8","615224b6fec95dfc43439c28","A3","batch1","","740","tol_toboard","","","","tol_peg_2","740","740","0","[[0,0,0],[1,3],[2]]","9","[[2,0,0],[1,3],[0]]","10","0","","","","","","6","","","","","","","","",""
"","","","","","single-stim-button","198","617508","0.0-2.0-40.9-0.9","615224b6fec95dfc43439c28","A3","batch1","","1110","tol_tohand","","","","tol_peg_3","1110","1110","0","[[0,0,0],[1,3],[0]]","10","[[2,0,0],[1,3],[0]]","10","0","","","","","","6","","","","","","","","",""
"","","","","","single-stim-button","199","618656","0.0-2.0-40.9-1.9","615224b6fec95dfc43439c28","A3","batch1","","1147","tol_toboard","","","","tol_peg_1","1147","1147","0","[[2,0,0],[1,3],[0]]","10","[[2,0,0],[1,3],[0]]","10","0","","","","","","6","","","","","","","","",""
"","","","","","poldrack-single-stim","200","619658","0.0-2.0-41.0","615224b6fec95dfc43439c28","A3","batch1","","-1","tol_feedback","","","true","","1000","1000","500","","","","","","-1","none","true","5118","18016","","","","","","","","","",""
"","","","","","html-button-response","201","620835","0.0-2.0-42.0","615224b6fec95dfc43439c28","A3","batch1","","1175.7999999970198","tol_trial_num","<div class = centerbox><p class = center-block-text>problem <strong>12</strong> out of 25 problems</p></div>","0","","","","","","","","","","","","","","","","","","","","","","","","",""
"","","","","","single-stim-button","202","632079","0.0-2.0-43.0-0.0","615224b6fec95dfc43439c28","A3","batch1","","11242","tol_tohand","","","","tol_peg_1","11242","11242","0","[[1,0,0],[3,0],[0]]","1","[[2,3,0],[0,0],[1]]","11","0","","","","","","4","","","","","","","","",""
"","","","","","single-stim-button","203","632836","0.0-2.0-43.0-1.0","615224b6fec95dfc43439c28","A3","batch1","","755","tol_toboard","","","","tol_peg_2","755","755","0","[[1,0,0],[3,2],[0]]","1","[[2,3,0],[0,0],[1]]","11","0","","","","","","4","","","","","","","","",""
"","","","","","single-stim-button","204","633532","0.0-2.0-43.1-0.1","615224b6fec95dfc43439c28","A3","batch1","","695","tol_tohand","","","","tol_peg_1","695","695","0","[[0,0,0],[3,2],[0]]","2","[[2,3,0],[0,0],[1]]","11","0","","","","","","4","","","","","","","","",""
"","","","","","single-stim-button","205","634664","0.0-2.0-43.1-1.1","615224b6fec95dfc43439c28","A3","batch1","","1131","tol_toboard","","","","tol_peg_3","1131","1131","0","[[0,0,0],[3,2],[1]]","2","[[2,3,0],[0,0],[1]]","11","0","","","","","","4","","","","","","","","",""
"","","","","","single-stim-button","206","635860","0.0-2.0-43.2-0.2","615224b6fec95dfc43439c28","A3","batch1","","1196","tol_tohand","","","","tol_peg_2","1196","1196","0","[[0,0,0],[3,0],[1]]","3","[[2,3,0],[0,0],[1]]","11","0","","","","","","4","","","","","","","","",""
"","","","","","single-stim-button","207","636718","0.0-2.0-43.2-1.2","615224b6fec95dfc43439c28","A3","batch1","","857","tol_toboard","","","","tol_peg_1","857","857","0","[[2,0,0],[3,0],[1]]","3","[[2,3,0],[0,0],[1]]","11","0","","","","","","4","","","","","","","","",""
"","","","","","single-stim-button","208","637389","0.0-2.0-43.3-0.3","615224b6fec95dfc43439c28","A3","batch1","","670","tol_tohand","","","","tol_peg_2","670","670","0","[[2,0,0],[0,0],[1]]","4","[[2,3,0],[0,0],[1]]","11","0","","","","","","4","","","","","","","","",""
"","","","","","single-stim-button","209","638078","0.0-2.0-43.3-1.3","615224b6fec95dfc43439c28","A3","batch1","","688","tol_toboard","","","","tol_peg_1","688","688","0","[[2,3,0],[0,0],[1]]","4","[[2,3,0],[0,0],[1]]","11","0","","","","","","4","","","","","","","","",""
"","","","","","poldrack-single-stim","210","639080","0.0-2.0-44.0","615224b6fec95dfc43439c28","A3","batch1","","-1","tol_feedback","","","true","","1000","1000","500","","","","","","-1","none","true","11242","13803","","","","","","","","","",""
"","","","","","html-button-response","211","640071","0.0-2.0-45.0","615224b6fec95dfc43439c28","A3","batch1","","989.1999999880791","tol_trial_num","<div class = centerbox><p class = center-block-text>problem <strong>13</strong> out of 25 problems</p></div>","0","","","","","","","","","","","","","","","","","","","","","","","","",""
"","","","","","single-stim-button","212","672632","0.0-2.0-46.0-0.0","615224b6fec95dfc43439c28","A3","batch1","","32561","tol_tohand","","","","tol_peg_2","32561","32561","0","[[1,2,0],[0,0],[0]]","1","[[0,0,0],[2,3],[1]]","12","0","","","","","","4","","","","","","","","",""
"","","","","","single-stim-button","213","673618","0.0-2.0-46.0-1.0","615224b6fec95dfc43439c28","A3","batch1","","984","tol_toboard","","","","tol_peg_3","984","984","0","[[1,2,0],[0,0],[3]]","1","[[0,0,0],[2,3],[1]]","12","0","","","","","","4","","","","","","","","",""
"","","","","","single-stim-button","214","674406","0.0-2.0-46.1-0.1","615224b6fec95dfc43439c28","A3","batch1","","787","tol_tohand","","","","tol_peg_1","787","787","0","[[1,0,0],[0,0],[3]]","2","[[0,0,0],[2,3],[1]]","12","0","","","","","","4","","","","","","","","",""
"","","","","","single-stim-button","215","675351","0.0-2.0-46.1-1.1","615224b6fec95dfc43439c28","A3","batch1","","945","tol_toboard","","","","tol_peg_2","945","945","0","[[1,0,0],[2,0],[3]]","2","[[0,0,0],[2,3],[1]]","12","0","","","","","","4","","","","","","","","",""
"","","","","","single-stim-button","216","680953","0.0-2.0-46.2-0.2","615224b6fec95dfc43439c28","A3","batch1","","5601","tol_tohand","","","","tol_peg_3","5601","5601","0","[[1,0,0],[2,0],[0]]","3","[[0,0,0],[2,3],[1]]","12","0","","","","","","4","","","","","","","","",""
"","","","","","single-stim-button","217","681866","0.0-2.0-46.2-1.2","615224b6fec95dfc43439c28","A3","batch1","","911","tol_toboard","","","","tol_peg_2","911","911","0","[[1,0,0],[2,3],[0]]","3","[[0,0,0],[2,3],[1]]","12","0","","","","","","4","","","","","","","","",""
"","","","","","single-stim-button","218","682860","0.0-2.0-46.3-0.3","615224b6fec95dfc43439c28","A3","batch1","","993","tol_tohand","","","","tol_peg_1","993","993","0","[[0,0,0],[2,3],[0]]","4","[[0,0,0],[2,3],[1]]","12","0","","","","","","4","","","","","","","","",""
"","","","","","single-stim-button","219","683852","0.0-2.0-46.3-1.3","615224b6fec95dfc43439c28","A3","batch1","","992","tol_toboard","","","","tol_peg_3","992","992","0","[[0,0,0],[2,3],[1]]","4","[[0,0,0],[2,3],[1]]","12","0","","","","","","4","","","","","","","","",""
"","","","","","poldrack-single-stim","220","684854","0.0-2.0-47.0","615224b6fec95dfc43439c28","A3","batch1","","-1","tol_feedback","","","true","","1000","1000","500","","","","","","-1","none","true","32561","39942","","","","","","","","","",""
"","","","","","html-button-response","221","696491","0.0-2.0-48.0","615224b6fec95dfc43439c28","A3","batch1","","11636.29999999702","attention_check","<p class = block-text>How many balls are in your board<br></p>","1","true","","","","","","","","","","","","","","","","","","","","","","","",""
"","","","","","html-button-response","222","699116","0.0-2.0-49.0","615224b6fec95dfc43439c28","A3","batch1","","2622.9000000059605","tol_trial_num","<div class = centerbox><p class = center-block-text>problem <strong>14</strong> out of 25 problems</p></div>","0","","","","","","","","","","","","","","","","","","","","","","","","",""
"","","","","","single-stim-button","223","707538","0.0-2.0-50.0-0.0","615224b6fec95dfc43439c28","A3","batch1","","8421","tol_tohand","","","","tol_peg_1","8421","8421","0","[[2,0,0],[3,0],[0]]","1","[[1,2,0],[3,0],[0]]","13","0","","","","","","4","","","","","","","","",""
"","","","","","single-stim-button","224","708687","0.0-2.0-50.0-1.0","615224b6fec95dfc43439c28","A3","batch1","","1149","tol_toboard","","","","tol_peg_3","1149","1149","0","[[2,0,0],[3,0],[1]]","1","[[1,2,0],[3,0],[0]]","13","0","","","","","","4","","","","","","","","",""
"","","","","","single-stim-button","225","709742","0.0-2.0-50.1-0.1","615224b6fec95dfc43439c28","A3","batch1","","1054","tol_tohand","","","","tol_peg_1","1054","1054","0","[[0,0,0],[3,0],[1]]","2","[[1,2,0],[3,0],[0]]","13","0","","","","","","4","","","","","","","","",""
"","","","","","single-stim-button","226","710860","0.0-2.0-50.1-1.1","615224b6fec95dfc43439c28","A3","batch1","","1117","tol_toboard","","","","tol_peg_2","1117","1117","0","[[0,0,0],[3,2],[1]]","2","[[1,2,0],[3,0],[0]]","13","0","","","","","","4","","","","","","","","",""
"","","","","","single-stim-button","227","711569","0.0-2.0-50.2-0.2","615224b6fec95dfc43439c28","A3","batch1","","709","tol_tohand","","","","tol_peg_3","709","709","0","[[0,0,0],[3,2],[0]]","3","[[1,2,0],[3,0],[0]]","13","0","","","","","","4","","","","","","","","",""
"","","","","","single-stim-button","228","712967","0.0-2.0-50.2-1.2","615224b6fec95dfc43439c28","A3","batch1","","1397","tol_toboard","","","","tol_peg_1","1397","1397","0","[[1,0,0],[3,2],[0]]","3","[[1,2,0],[3,0],[0]]","13","0","","","","","","4","","","","","","","","",""
"","","","","","single-stim-button","229","713741","0.0-2.0-50.3-0.3","615224b6fec95dfc43439c28","A3","batch1","","773","tol_tohand","","","","tol_peg_2","773","773","0","[[1,0,0],[3,0],[0]]","4","[[1,2,0],[3,0],[0]]","13","0","","","","","","4","","","","","","","","",""
"","","","","","single-stim-button","230","714530","0.0-2.0-50.3-1.3","615224b6fec95dfc43439c28","A3","batch1","","787","tol_toboard","","","","tol_peg_1","787","787","0","[[1,2,0],[3,0],[0]]","4","[[1,2,0],[3,0],[0]]","13","0","","","","","","4","","","","","","","","",""
"","","","","","poldrack-single-stim","231","715547","0.0-2.0-51.0","615224b6fec95dfc43439c28","A3","batch1","","-1","tol_feedback","","","true","","1000","1000","500","","","","","","-1","none","true","8421","10957","","","","","","","","","",""
"","","","","","html-button-response","232","716773","0.0-2.0-52.0","615224b6fec95dfc43439c28","A3","batch1","","1224.0999999940395","tol_trial_num","<div class = centerbox><p class = center-block-text>problem <strong>15</strong> out of 25 problems</p></div>","0","","","","","","","","","","","","","","","","","","","","","","","","",""
"","","","","","single-stim-button","233","725938","0.0-2.0-53.0-0.0","615224b6fec95dfc43439c28","A3","batch1","","9163","tol_tohand","","","","tol_peg_1","9163","9163","0","[[1,0,0],[3,0],[0]]","1","[[2,0,0],[3,0],[1]]","14","0","","","","","","3","","","","","","","","",""
"","","","","","single-stim-button","234","727624","0.0-2.0-53.0-1.0","615224b6fec95dfc43439c28","A3","batch1","","1686","tol_toboard","","","","tol_peg_2","1686","1686","0","[[1,0,0],[3,2],[0]]","1","[[2,0,0],[3,0],[1]]","14","0","","","","","","3","","","","","","","","",""
"","","","","","single-stim-button","235","728344","0.0-2.0-53.1-0.1","615224b6fec95dfc43439c28","A3","batch1","","719","tol_tohand","","","","tol_peg_1","719","719","0","[[0,0,0],[3,2],[0]]","2","[[2,0,0],[3,0],[1]]","14","0","","","","","","3","","","","","","","","",""
"","","","","","single-stim-button","236","729366","0.0-2.0-53.1-1.1","615224b6fec95dfc43439c28","A3","batch1","","1020","tol_toboard","","","","tol_peg_3","1020","1020","0","[[0,0,0],[3,2],[1]]","2","[[2,0,0],[3,0],[1]]","14","0","","","","","","3","","","","","","","","",""
"","","","","","single-stim-button","237","730095","0.0-2.0-53.2-0.2","615224b6fec95dfc43439c28","A3","batch1","","728","tol_tohand","","","","tol_peg_2","728","728","0","[[0,0,0],[3,0],[1]]","3","[[2,0,0],[3,0],[1]]","14","0","","","","","","3","","","","","","","","",""
"","","","","","single-stim-button","238","730742","0.0-2.0-53.2-1.2","615224b6fec95dfc43439c28","A3","batch1","","646","tol_toboard","","","","tol_peg_1","646","646","0","[[2,0,0],[3,0],[1]]","3","[[2,0,0],[3,0],[1]]","14","0","","","","","","3","","","","","","","","",""
"","","","","","poldrack-single-stim","239","731743","0.0-2.0-54.0","615224b6fec95dfc43439c28","A3","batch1","","-1","tol_feedback","","","true","","1000","1000","500","","","","","","-1","none","true","9163","10610","","","","","","","","","",""
"","","","","","html-button-response","240","732687","0.0-2.0-55.0","615224b6fec95dfc43439c28","A3","batch1","","941.3999999910593","tol_trial_num","<div class = centerbox><p class = center-block-text>problem <strong>16</strong> out of 25 problems</p></div>","0","","","","","","","","","","","","","","","","","","","","","","","","",""
"","","","","","single-stim-button","241","738742","0.0-2.0-56.0-0.0","615224b6fec95dfc43439c28","A3","batch1","","6053","tol_tohand","","","","tol_peg_3","6053","6053","0","[[0,0,0],[2,3],[0]]","1","[[2,3,0],[1,0],[0]]","15","0","","","","","","7","","","","","","","","",""
"","","","","","single-stim-button","242","739889","0.0-2.0-56.0-1.0","615224b6fec95dfc43439c28","A3","batch1","","1146","tol_toboard","","","","tol_peg_1","1146","1146","0","[[1,0,0],[2,3],[0]]","1","[[2,3,0],[1,0],[0]]","15","0","","","","","","7","","","","","","","","",""
"","","","","","single-stim-button","243","749353","0.0-2.0-56.1-0.1","615224b6fec95dfc43439c28","A3","batch1","","9462","tol_tohand","","","","tol_peg_1","9462","9462","0","[[0,0,0],[2,3],[0]]","2","[[2,3,0],[1,0],[0]]","15","0","","","","","","7","","","","","","","","",""
"","","","","","single-stim-button","244","750812","0.0-2.0-56.1-1.1","615224b6fec95dfc43439c28","A3","batch1","","1458","tol_toboard","","","","tol_peg_3","1458","1458","0","[[0,0,0],[2,3],[1]]","2","[[2,3,0],[1,0],[0]]","15","0","","","","","","7","","","","","","","","",""
"","","","","","single-stim-button","245","755132","0.0-2.0-56.2-0.2","615224b6fec95dfc43439c28","A3","batch1","","4319","tol_tohand","","","","tol_peg_2","4319","4319","0","[[0,0,0],[2,0],[1]]","3","[[2,3,0],[1,0],[0]]","15","0","","","","","","7","","","","","","","","",""
"","","","","","single-stim-button","246","756030","0.0-2.0-56.2-1.2","615224b6fec95dfc43439c28","A3","batch1","","897","tol_toboard","","","","tol_peg_1","897","897","0","[[3,0,0],[2,0],[1]]","3","[[2,3,0],[1,0],[0]]","15","0","","","","","","7","","","","","","","","",""
"","","","","","single-stim-button","247","760804","0.0-2.0-56.3-0.3","615224b6fec95dfc43439c28","A3","batch1","","4774","tol_tohand","","","","tol_peg_2","4774","4774","0","[[3,0,0],[0,0],[1]]","4","[[2,3,0],[1,0],[0]]","15","0","","","","","","7","","","","","","","","",""
"","","","","","single-stim-button","248","761960","0.0-2.0-56.3-1.3","615224b6fec95dfc43439c28","A3","batch1","","1155","tol_toboard","","","","tol_peg_1","1155","1155","0","[[3,2,0],[0,0],[1]]","4","[[2,3,0],[1,0],[0]]","15","0","","","","","","7","","","","","","","","",""
"","","","","","single-stim-button","249","762976","0.0-2.0-56.4-0.4","615224b6fec95dfc43439c28","A3","batch1","","1016","tol_tohand","","","","tol_peg_3","1016","1016","0","[[3,2,0],[0,0],[0]]","5","[[2,3,0],[1,0],[0]]","15","0","","","","","","7","","","","","","","","",""
"","","","","","single-stim-button","250","764123","0.0-2.0-56.4-1.4","615224b6fec95dfc43439c28","A3","batch1","","1146","tol_toboard","","","","tol_peg_2","1146","1146","0","[[3,2,0],[1,0],[0]]","5","[[2,3,0],[1,0],[0]]","15","0","","","","","","7","","","","","","","","",""
"","","","","","single-stim-button","251","765320","0.0-2.0-56.5-0.5","615224b6fec95dfc43439c28","A3","batch1","","1195","tol_tohand","","","","tol_peg_1","1195","1195","0","[[3,0,0],[1,0],[0]]","6","[[2,3,0],[1,0],[0]]","15","0","","","","","","7","","","","","","","","",""
"","","","","","single-stim-button","252","767594","0.0-2.0-56.5-1.5","615224b6fec95dfc43439c28","A3","batch1","","2273","tol_toboard","","","","tol_peg_3","2273","2273","0","[[3,0,0],[1,0],[2]]","6","[[2,3,0],[1,0],[0]]","15","0","","","","","","7","","","","","","","","",""
"","","","","","single-stim-button","253","768374","0.0-2.0-56.6-0.6","615224b6fec95dfc43439c28","A3","batch1","","780","tol_tohand","","","","tol_peg_1","780","780","0","[[0,0,0],[1,0],[2]]","7","[[2,3,0],[1,0],[0]]","15","0","","","","","","7","","","","","","","","",""
"","","","","","single-stim-button","254","769514","0.0-2.0-56.6-1.6","615224b6fec95dfc43439c28","A3","batch1","","1139","tol_toboard","","","","tol_peg_2","1139","1139","0","[[0,0,0],[1,3],[2]]","7","[[2,3,0],[1,0],[0]]","15","0","","","","","","7","","","","","","","","",""
"","","","","","single-stim-button","255","770344","0.0-2.0-56.7-0.7","615224b6fec95dfc43439c28","A3","batch1","","829","tol_tohand","","","","tol_peg_3","829","829","0","[[0,0,0],[1,3],[0]]","8","[[2,3,0],[1,0],[0]]","15","0","","","","","","7","","","","","","","","",""
"","","","","","single-stim-button","256","771922","0.0-2.0-56.7-1.7","615224b6fec95dfc43439c28","A3","batch1","","1577","tol_toboard","","","","tol_peg_1","1577","1577","0","[[2,0,0],[1,3],[0]]","8","[[2,3,0],[1,0],[0]]","15","0","","","","","","7","","","","","","","","",""
"","","","","","single-stim-button","257","772709","0.0-2.0-56.8-0.8","615224b6fec95dfc43439c28","A3","batch1","","787","tol_tohand","","","","tol_peg_2","787","787","0","[[2,0,0],[1,0],[0]]","9","[[2,3,0],[1,0],[0]]","15","0","","","","","","7","","","","","","","","",""
"","","","","","single-stim-button","258","773663","0.0-2.0-56.8-1.8","615224b6fec95dfc43439c28","A3","batch1","","953","tol_toboard","","","","tol_peg_1","953","953","0","[[2,3,0],[1,0],[0]]","9","[[2,3,0],[1,0],[0]]","15","0","","","","","","7","","","","","","","","",""
"","","","","","poldrack-single-stim","259","774666","0.0-2.0-57.0","615224b6fec95dfc43439c28","A3","batch1","","-1","tol_feedback","","","true","","1000","1000","500","","","","","","-1","none","true","6053","29215","","","","","","","","","",""
"","","","","","html-button-response","260","775804","0.0-2.0-58.0","615224b6fec95dfc43439c28","A3","batch1","","1135.7999999970198","tol_trial_num","<div class = centerbox><p class = center-block-text>problem <strong>17</strong> out of 25 problems</p></div>","0","","","","","","","","","","","","","","","","","","","","","","","","",""
"","","","","","single-stim-button","261","785586","0.0-2.0-59.0-0.0","615224b6fec95dfc43439c28","A3","batch1","","9782","tol_tohand","","","","tol_peg_1","9782","9782","0","[[1,0,0],[3,0],[0]]","1","[[3,1,0],[2,0],[0]]","16","0","","","","","","5","","","","","","","","",""
"","","","","","single-stim-button","262","790091","0.0-2.0-59.0-1.0","615224b6fec95dfc43439c28","A3","batch1","","4504","tol_toboard","","","","tol_peg_2","4504","4504","0","[[1,0,0],[3,2],[0]]","1","[[3,1,0],[2,0],[0]]","16","0","","","","","","5","","","","","","","","",""
"","","","","","single-stim-button","263","790866","0.0-2.0-59.1-0.1","615224b6fec95dfc43439c28","A3","batch1","","773","tol_tohand","","","","tol_peg_1","773","773","0","[[0,0,0],[3,2],[0]]","2","[[3,1,0],[2,0],[0]]","16","0","","","","","","5","","","","","","","","",""
"","","","","","single-stim-button","264","791647","0.0-2.0-59.1-1.1","615224b6fec95dfc43439c28","A3","batch1","","781","tol_toboard","","","","tol_peg_3","781","781","0","[[0,0,0],[3,2],[1]]","2","[[3,1,0],[2,0],[0]]","16","0","","","","","","5","","","","","","","","",""
"","","","","","single-stim-button","265","804920","0.0-2.0-59.2-0.2","615224b6fec95dfc43439c28","A3","batch1","","13272","tol_tohand","","","","tol_peg_3","13272","13272","0","[[0,0,0],[3,2],[0]]","3","[[3,1,0],[2,0],[0]]","16","0","","","","","","5","","","","","","","","",""
"","","","","","single-stim-button","266","806078","0.0-2.0-59.2-1.2","615224b6fec95dfc43439c28","A3","batch1","","1157","tol_toboard","","","","tol_peg_1","1157","1157","0","[[1,0,0],[3,2],[0]]","3","[[3,1,0],[2,0],[0]]","16","0","","","","","","5","","","","","","","","",""
"","","","","","single-stim-button","267","806607","0.0-2.0-59.3-0.3","615224b6fec95dfc43439c28","A3","batch1","","528","tol_tohand","","","","tol_peg_2","528","528","0","[[1,0,0],[3,0],[0]]","4","[[3,1,0],[2,0],[0]]","16","0","","","","","","5","","","","","","","","",""
"","","","","","single-stim-button","268","807155","0.0-2.0-59.3-1.3","615224b6fec95dfc43439c28","A3","batch1","","548","tol_toboard","","","","tol_peg_3","548","548","0","[[1,0,0],[3,0],[2]]","4","[[3,1,0],[2,0],[0]]","16","0","","","","","","5","","","","","","","","",""
"","","","","","single-stim-button","269","808406","0.0-2.0-59.4-0.4","615224b6fec95dfc43439c28","A3","batch1","","1249","tol_tohand","","","","tol_peg_2","1249","1249","0","[[1,0,0],[0,0],[2]]","5","[[3,1,0],[2,0],[0]]","16","0","","","","","","5","","","","","","","","",""
"","","","","","single-stim-button","270","809562","0.0-2.0-59.4-1.4","615224b6fec95dfc43439c28","A3","batch1","","1155","tol_toboard","","","","tol_peg_1","1155","1155","0","[[1,3,0],[0,0],[2]]","5","[[3,1,0],[2,0],[0]]","16","0","","","","","","5","","","","","","","","",""
"","","","","","single-stim-button","271","812341","0.0-2.0-59.5-0.5","615224b6fec95dfc43439c28","A3","batch1","","2779","tol_tohand","","","","tol_peg_3","2779","2779","0","[[1,3,0],[0,0],[0]]","6","[[3,1,0],[2,0],[0]]","16","0","","","","","","5","","","","","","","","",""
"","","","","","single-stim-button","272","813499","0.0-2.0-59.5-1.5","615224b6fec95dfc43439c28","A3","batch1","","1157","tol_toboard","","","","tol_peg_2","1157","1157","0","[[1,3,0],[2,0],[0]]","6","[[3,1,0],[2,0],[0]]","16","0","","","","","","5","","","","","","","","",""
"","","","","","single-stim-button","273","815725","0.0-2.0-59.6-0.6","615224b6fec95dfc43439c28","A3","batch1","","2225","tol_tohand","","","","tol_peg_1","2225","2225","0","[[1,0,0],[2,0],[0]]","7","[[3,1,0],[2,0],[0]]","16","0","","","","","","5","","","","","","","","",""
"","","","","","single-stim-button","274","816600","0.0-2.0-59.6-1.6","615224b6fec95dfc43439c28","A3","batch1","","873","tol_toboard","","","","tol_peg_3","873","873","0","[[1,0,0],[2,0],[3]]","7","[[3,1,0],[2,0],[0]]","16","0","","","","","","5","","","","","","","","",""
"","","","","","single-stim-button","275","817366","0.0-2.0-59.7-0.7","615224b6fec95dfc43439c28","A3","batch1","","766","tol_tohand","","","","tol_peg_1","766","766","0","[[0,0,0],[2,0],[3]]","8","[[3,1,0],[2,0],[0]]","16","0","","","","","","5","","","","","","","","",""
"","","","","","single-stim-button","276","818178","0.0-2.0-59.7-1.7","615224b6fec95dfc43439c28","A3","batch1","","812","tol_toboard","","","","tol_peg_2","812","812","0","[[0,0,0],[2,1],[3]]","8","[[3,1,0],[2,0],[0]]","16","0","","","","","","5","","","","","","","","",""
"","","","","","single-stim-button","277","818819","0.0-2.0-59.8-0.8","615224b6fec95dfc43439c28","A3","batch1","","641","tol_tohand","","","","tol_peg_3","641","641","0","[[0,0,0],[2,1],[0]]","9","[[3,1,0],[2,0],[0]]","16","0","","","","","","5","","","","","","","","",""
"","","","","","single-stim-button","278","819538","0.0-2.0-59.8-1.8","615224b6fec95dfc43439c28","A3","batch1","","717","tol_toboard","","","","tol_peg_1","717","717","0","[[3,0,0],[2,1],[0]]","9","[[3,1,0],[2,0],[0]]","16","0","","","","","","5","","","","","","","","",""
"","","","","","single-stim-button","279","820295","0.0-2.0-59.9-0.9","615224b6fec95dfc43439c28","A3","batch1","","757","tol_tohand","","","","tol_peg_2","757","757","0","[[3,0,0],[2,0],[0]]","10","[[3,1,0],[2,0],[0]]","16","0","","","","","","5","","","","","","","","",""
"","","","","","single-stim-button","280","821156","0.0-2.0-59.9-1.9","615224b6fec95dfc43439c28","A3","batch1","","859","tol_toboard","","","","tol_peg_1","859","859","0","[[3,1,0],[2,0],[0]]","10","[[3,1,0],[2,0],[0]]","16","0","","","","","","5","","","","","","","","",""
"","","","","","poldrack-single-stim","281","822157","0.0-2.0-60.0","615224b6fec95dfc43439c28","A3","batch1","","-1","tol_feedback","","","true","","1000","1000","500","","","","","","-1","none","true","9782","32772","","","","","","","","","",""
"","","","","","html-button-response","282","823272","0.0-2.0-61.0","615224b6fec95dfc43439c28","A3","batch1","","1113.7000000029802","tol_trial_num","<div class = centerbox><p class = center-block-text>problem <strong>18</strong> out of 25 problems</p></div>","0","","","","","","","","","","","","","","","","","","","","","","","","",""
"","","","","","single-stim-button","283","840038","0.0-2.0-62.0-0.0","615224b6fec95dfc43439c28","A3","batch1","","16764","tol_tohand","","","","tol_peg_2","16764","16764","0","[[1,2,0],[0,0],[0]]","1","[[3,0,0],[2,0],[1]]","17","0","","","","","","5","","","","","","","","",""
"","","","","","single-stim-button","284","841083","0.0-2.0-62.0-1.0","615224b6fec95dfc43439c28","A3","batch1","","1045","tol_toboard","","","","tol_peg_3","1045","1045","0","[[1,2,0],[0,0],[3]]","1","[[3,0,0],[2,0],[1]]","17","0","","","","","","5","","","","","","","","",""
"","","","","","single-stim-button","285","842928","0.0-2.0-62.1-0.1","615224b6fec95dfc43439c28","A3","batch1","","1844","tol_tohand","","","","tol_peg_1","1844","1844","0","[[1,0,0],[0,0],[3]]","2","[[3,0,0],[2,0],[1]]","17","0","","","","","","5","","","","","","","","",""
"","","","","","single-stim-button","286","843592","0.0-2.0-62.1-1.1","615224b6fec95dfc43439c28","A3","batch1","","664","tol_toboard","","","","tol_peg_2","664","664","0","[[1,0,0],[2,0],[3]]","2","[[3,0,0],[2,0],[1]]","17","0","","","","","","5","","","","","","","","",""
"","","","","","single-stim-button","287","846804","0.0-2.0-62.2-0.2","615224b6fec95dfc43439c28","A3","batch1","","3211","tol_tohand","","","","tol_peg_1","3211","3211","0","[[0,0,0],[2,0],[3]]","3","[[3,0,0],[2,0],[1]]","17","0","","","","","","5","","","","","","","","",""
"","","","","","single-stim-button","288","847820","0.0-2.0-62.2-1.2","615224b6fec95dfc43439c28","A3","batch1","","1015","tol_toboard","","","","tol_peg_2","1015","1015","0","[[0,0,0],[2,1],[3]]","3","[[3,0,0],[2,0],[1]]","17","0","","","","","","5","","","","","","","","",""
"","","","","","single-stim-button","289","848584","0.0-2.0-62.3-0.3","615224b6fec95dfc43439c28","A3","batch1","","763","tol_tohand","","","","tol_peg_3","763","763","0","[[0,0,0],[2,1],[0]]","4","[[3,0,0],[2,0],[1]]","17","0","","","","","","5","","","","","","","","",""
"","","","","","single-stim-button","290","849374","0.0-2.0-62.3-1.3","615224b6fec95dfc43439c28","A3","batch1","","789","tol_toboard","","","","tol_peg_1","789","789","0","[[3,0,0],[2,1],[0]]","4","[[3,0,0],[2,0],[1]]","17","0","","","","","","5","","","","","","","","",""
"","","","","","single-stim-button","291","850248","0.0-2.0-62.4-0.4","615224b6fec95dfc43439c28","A3","batch1","","874","tol_tohand","","","","tol_peg_2","874","874","0","[[3,0,0],[2,0],[0]]","5","[[3,0,0],[2,0],[1]]","17","0","","","","","","5","","","","","","","","",""
"","","","","","single-stim-button","292","851054","0.0-2.0-62.4-1.4","615224b6fec95dfc43439c28","A3","batch1","","806","tol_toboard","","","","tol_peg_3","806","806","0","[[3,0,0],[2,0],[1]]","5","[[3,0,0],[2,0],[1]]","17","0","","","","","","5","","","","","","","","",""
"","","","","","poldrack-single-stim","293","852056","0.0-2.0-63.0","615224b6fec95dfc43439c28","A3","batch1","","-1","tol_feedback","","","true","","1000","1000","500","","","","","","-1","none","true","16764","23456","","","","","","","","","",""
"","","","","","html-button-response","294","853281","0.0-2.0-64.0","615224b6fec95dfc43439c28","A3","batch1","","1223.199999988079","tol_trial_num","<div class = centerbox><p class = center-block-text>problem <strong>19</strong> out of 25 problems</p></div>","0","","","","","","","","","","","","","","","","","","","","","","","","",""
"","","","","","single-stim-button","295","857858","0.0-2.0-65.0-0.0","615224b6fec95dfc43439c28","A3","batch1","","4575","tol_tohand","","","","tol_peg_2","4575","4575","0","[[1,2,0],[0,0],[0]]","1","[[0,0,0],[1,2],[3]]","18","0","","","","","","7","","","","","","","","",""
"","","","","","single-stim-button","296","858436","0.0-2.0-65.0-1.0","615224b6fec95dfc43439c28","A3","batch1","","577","tol_toboard","","","","tol_peg_3","577","577","0","[[1,2,0],[0,0],[3]]","1","[[0,0,0],[1,2],[3]]","18","0","","","","","","7","","","","","","","","",""
"","","","","","single-stim-button","297","868201","0.0-2.0-65.1-0.1","615224b6fec95dfc43439c28","A3","batch1","","9765","tol_tohand","","","","tol_peg_3","9765","9765","0","[[1,2,0],[0,0],[0]]","2","[[0,0,0],[1,2],[3]]","18","0","","","","","","7","","","","","","","","",""
"","","","","","single-stim-button","298","869569","0.0-2.0-65.1-1.1","615224b6fec95dfc43439c28","A3","batch1","","1367","tol_toboard","","","","tol_peg_2","1367","1367","0","[[1,2,0],[3,0],[0]]","2","[[0,0,0],[1,2],[3]]","18","0","","","","","","7","","","","","","","","",""
"","","","","","single-stim-button","299","870202","0.0-2.0-65.2-0.2","615224b6fec95dfc43439c28","A3","batch1","","633","tol_tohand","","","","tol_peg_1","633","633","0","[[1,0,0],[3,0],[0]]","3","[[0,0,0],[1,2],[3]]","18","0","","","","","","7","","","","","","","","",""
"","","","","","single-stim-button","300","871382","0.0-2.0-65.2-1.2","615224b6fec95dfc43439c28","A3","batch1","","1180","tol_toboard","","","","tol_peg_3","1180","1180","0","[[1,0,0],[3,0],[2]]","3","[[0,0,0],[1,2],[3]]","18","0","","","","","","7","","","","","","","","",""
"","","","","","single-stim-button","301","882797","0.0-2.0-65.3-0.3","615224b6fec95dfc43439c28","A3","batch1","","11414","tol_tohand","","","","tol_peg_1","11414","11414","0","[[0,0,0],[3,0],[2]]","4","[[0,0,0],[1,2],[3]]","18","0","","","","","","7","","","","","","","","",""
"","","","","","single-stim-button","302","883406","0.0-2.0-65.3-1.3","615224b6fec95dfc43439c28","A3","batch1","","609","tol_toboard","","","","tol_peg_2","609","609","0","[[0,0,0],[3,1],[2]]","4","[[0,0,0],[1,2],[3]]","18","0","","","","","","7","","","","","","","","",""
"","","","","","single-stim-button","303","884920","0.0-2.0-65.4-0.4","615224b6fec95dfc43439c28","A3","batch1","","1513","tol_tohand","","","","tol_peg_3","1513","1513","0","[[0,0,0],[3,1],[0]]","5","[[0,0,0],[1,2],[3]]","18","0","","","","","","7","","","","","","","","",""
"","","","","","single-stim-button","304","885944","0.0-2.0-65.4-1.4","615224b6fec95dfc43439c28","A3","batch1","","1024","tol_toboard","","","","tol_peg_1","1024","1024","0","[[2,0,0],[3,1],[0]]","5","[[0,0,0],[1,2],[3]]","18","0","","","","","","7","","","","","","","","",""
"","","","","","single-stim-button","305","887584","0.0-2.0-65.5-0.5","615224b6fec95dfc43439c28","A3","batch1","","1639","tol_tohand","","","","tol_peg_2","1639","1639","0","[[2,0,0],[3,0],[0]]","6","[[0,0,0],[1,2],[3]]","18","0","","","","","","7","","","","","","","","",""
"","","","","","single-stim-button","306","889522","0.0-2.0-65.5-1.5","615224b6fec95dfc43439c28","A3","batch1","","1937","tol_toboard","","","","tol_peg_3","1937","1937","0","[[2,0,0],[3,0],[1]]","6","[[0,0,0],[1,2],[3]]","18","0","","","","","","7","","","","","","","","",""
"","","","","","single-stim-button","307","891202","0.0-2.0-65.6-0.6","615224b6fec95dfc43439c28","A3","batch1","","1679","tol_tohand","","","","tol_peg_2","1679","1679","0","[[2,0,0],[0,0],[1]]","7","[[0,0,0],[1,2],[3]]","18","0","","","","","","7","","","","","","","","",""
"","","","","","single-stim-button","308","892546","0.0-2.0-65.6-1.6","615224b6fec95dfc43439c28","A3","batch1","","1343","tol_toboard","","","","tol_peg_1","1343","1343","0","[[2,3,0],[0,0],[1]]","7","[[0,0,0],[1,2],[3]]","18","0","","","","","","7","","","","","","","","",""
"","","","","","single-stim-button","309","893334","0.0-2.0-65.7-0.7","615224b6fec95dfc43439c28","A3","batch1","","788","tol_tohand","","","","tol_peg_3","788","788","0","[[2,3,0],[0,0],[0]]","8","[[0,0,0],[1,2],[3]]","18","0","","","","","","7","","","","","","","","",""
"","","","","","single-stim-button","310","893920","0.0-2.0-65.7-1.7","615224b6fec95dfc43439c28","A3","batch1","","585","tol_toboard","","","","tol_peg_2","585","585","0","[[2,3,0],[1,0],[0]]","8","[[0,0,0],[1,2],[3]]","18","0","","","","","","7","","","","","","","","",""
"","","","","","single-stim-button","311","894584","0.0-2.0-65.8-0.8","615224b6fec95dfc43439c28","A3","batch1","","663","tol_tohand","","","","tol_peg_1","663","663","0","[[2,0,0],[1,0],[0]]","9","[[0,0,0],[1,2],[3]]","18","0","","","","","","7","","","","","","","","",""
"","","","","","single-stim-button","312","895514","0.0-2.0-65.8-1.8","615224b6fec95dfc43439c28","A3","batch1","","928","tol_toboard","","","","tol_peg_3","928","928","0","[[2,0,0],[1,0],[3]]","9","[[0,0,0],[1,2],[3]]","18","0","","","","","","7","","","","","","","","",""
"","","","","","single-stim-button","313","896563","0.0-2.0-65.9-0.9","615224b6fec95dfc43439c28","A3","batch1","","1048","tol_tohand","","","","tol_peg_1","1048","1048","0","[[0,0,0],[1,0],[3]]","10","[[0,0,0],[1,2],[3]]","18","0","","","","","","7","","","","","","","","",""
"","","","","","single-stim-button","314","897334","0.0-2.0-65.9-1.9","615224b6fec95dfc43439c28","A3","batch1","","771","tol_toboard","","","","tol_peg_2","771","771","0","[[0,0,0],[1,2],[3]]","10","[[0,0,0],[1,2],[3]]","18","0","","","","","","7","","","","","","","","",""
"","","","","","poldrack-single-stim","315","898336","0.0-2.0-66.0","615224b6fec95dfc43439c28","A3","batch1","","-1","tol_feedback","","","true","","1000","1000","500","","","","","","-1","none","true","4575","33717","","","","","","","","","",""
"","","","","","html-button-response","316","899341","0.0-2.0-67.0","615224b6fec95dfc43439c28","A3","batch1","","1004.2000000029802","tol_trial_num","<div class = centerbox><p class = center-block-text>problem <strong>20</strong> out of 25 problems</p></div>","0","","","","","","","","","","","","","","","","","","","","","","","","",""
"","","","","","single-stim-button","317","910231","0.0-2.0-68.0-0.0","615224b6fec95dfc43439c28","A3","batch1","","10889","tol_tohand","","","","tol_peg_1","10889","10889","0","[[1,0,0],[3,0],[0]]","1","[[2,1,0],[0,0],[3]]","19","0","","","","","","5","","","","","","","","",""
"","","","","","single-stim-button","318","911647","0.0-2.0-68.0-1.0","615224b6fec95dfc43439c28","A3","batch1","","1415","tol_toboard","","","","tol_peg_3","1415","1415","0","[[1,0,0],[3,0],[2]]","1","[[2,1,0],[0,0],[3]]","19","0","","","","","","5","","","","","","","","",""
"","","","","","single-stim-button","319","912661","0.0-2.0-68.1-0.1","615224b6fec95dfc43439c28","A3","batch1","","1013","tol_tohand","","","","tol_peg_1","1013","1013","0","[[0,0,0],[3,0],[2]]","2","[[2,1,0],[0,0],[3]]","19","0","","","","","","5","","","","","","","","",""
"","","","","","single-stim-button","320","913833","0.0-2.0-68.1-1.1","615224b6fec95dfc43439c28","A3","batch1","","1171","tol_toboard","","","","tol_peg_2","1171","1171","0","[[0,0,0],[3,1],[2]]","2","[[2,1,0],[0,0],[3]]","19","0","","","","","","5","","","","","","","","",""
"","","","","","single-stim-button","321","914811","0.0-2.0-68.2-0.2","615224b6fec95dfc43439c28","A3","batch1","","977","tol_tohand","","","","tol_peg_3","977","977","0","[[0,0,0],[3,1],[0]]","3","[[2,1,0],[0,0],[3]]","19","0","","","","","","5","","","","","","","","",""
"","","","","","single-stim-button","322","915731","0.0-2.0-68.2-1.2","615224b6fec95dfc43439c28","A3","batch1","","920","tol_toboard","","","","tol_peg_1","920","920","0","[[2,0,0],[3,1],[0]]","3","[[2,1,0],[0,0],[3]]","19","0","","","","","","5","","","","","","","","",""
"","","","","","single-stim-button","323","916435","0.0-2.0-68.3-0.3","615224b6fec95dfc43439c28","A3","batch1","","703","tol_tohand","","","","tol_peg_2","703","703","0","[[2,0,0],[3,0],[0]]","4","[[2,1,0],[0,0],[3]]","19","0","","","","","","5","","","","","","","","",""
"","","","","","single-stim-button","324","917255","0.0-2.0-68.3-1.3","615224b6fec95dfc43439c28","A3","batch1","","819","tol_toboard","","","","tol_peg_1","819","819","0","[[2,1,0],[3,0],[0]]","4","[[2,1,0],[0,0],[3]]","19","0","","","","","","5","","","","","","","","",""
"","","","","","single-stim-button","325","917989","0.0-2.0-68.4-0.4","615224b6fec95dfc43439c28","A3","batch1","","733","tol_tohand","","","","tol_peg_2","733","733","0","[[2,1,0],[0,0],[0]]","5","[[2,1,0],[0,0],[3]]","19","0","","","","","","5","","","","","","","","",""
"","","","","","single-stim-button","326","918591","0.0-2.0-68.4-1.4","615224b6fec95dfc43439c28","A3","batch1","","601","tol_toboard","","","","tol_peg_3","601","601","0","[[2,1,0],[0,0],[3]]","5","[[2,1,0],[0,0],[3]]","19","0","","","","","","5","","","","","","","","",""
"","","","","","poldrack-single-stim","327","919597","0.0-2.0-69.0","615224b6fec95dfc43439c28","A3","batch1","","-1","tol_feedback","","","true","","1000","1000","500","","","","","","-1","none","true","10889","14315","","","","","","","","","",""
"","","","","","html-button-response","328","920764","0.0-2.0-70.0","615224b6fec95dfc43439c28","A3","batch1","","1165.4000000059605","tol_trial_num","<div class = centerbox><p class = center-block-text>problem <strong>21</strong> out of 25 problems</p></div>","0","","","","","","","","","","","","","","","","","","","","","","","","",""
"","","","","","single-stim-button","329","927108","0.0-2.0-71.0-0.0","615224b6fec95dfc43439c28","A3","batch1","","6342","tol_tohand","","","","tol_peg_1","6342","6342","0","[[1,0,0],[3,0],[0]]","1","[[3,2,0],[0,0],[1]]","20","0","","","","","","6","","","","","","","","",""
"","","","","","single-stim-button","330","927895","0.0-2.0-71.0-1.0","615224b6fec95dfc43439c28","A3","batch1","","787","tol_toboard","","","","tol_peg_2","787","787","0","[[1,0,0],[3,2],[0]]","1","[[3,2,0],[0,0],[1]]","20","0","","","","","","6","","","","","","","","",""
"","","","","","single-stim-button","331","929217","0.0-2.0-71.1-0.1","615224b6fec95dfc43439c28","A3","batch1","","1320","tol_tohand","","","","tol_peg_1","1320","1320","0","[[0,0,0],[3,2],[0]]","2","[[3,2,0],[0,0],[1]]","20","0","","","","","","6","","","","","","","","",""
"","","","","","single-stim-button","332","933403","0.0-2.0-71.1-1.1","615224b6fec95dfc43439c28","A3","batch1","","4186","tol_toboard","","","","tol_peg_3","4186","4186","0","[[0,0,0],[3,2],[1]]","2","[[3,2,0],[0,0],[1]]","20","0","","","","","","6","","","","","","","","",""
"","","","","","single-stim-button","333","940395","0.0-2.0-71.2-0.2","615224b6fec95dfc43439c28","A3","batch1","","6992","tol_tohand","","","","tol_peg_3","6992","6992","0","[[0,0,0],[3,2],[0]]","3","[[3,2,0],[0,0],[1]]","20","0","","","","","","6","","","","","","","","",""
"","","","","","single-stim-button","334","942161","0.0-2.0-71.2-1.2","615224b6fec95dfc43439c28","A3","batch1","","1764","tol_toboard","","","","tol_peg_1","1764","1764","0","[[1,0,0],[3,2],[0]]","3","[[3,2,0],[0,0],[1]]","20","0","","","","","","6","","","","","","","","",""
"","","","","","single-stim-button","335","943553","0.0-2.0-71.3-0.3","615224b6fec95dfc43439c28","A3","batch1","","1392","tol_tohand","","","","tol_peg_2","1392","1392","0","[[1,0,0],[3,0],[0]]","4","[[3,2,0],[0,0],[1]]","20","0","","","","","","6","","","","","","","","",""
"","","","","","single-stim-button","336","944637","0.0-2.0-71.3-1.3","615224b6fec95dfc43439c28","A3","batch1","","1084","tol_toboard","","","","tol_peg_3","1084","1084","0","[[1,0,0],[3,0],[2]]","4","[[3,2,0],[0,0],[1]]","20","0","","","","","","6","","","","","","","","",""
"","","","","","single-stim-button","337","946709","0.0-2.0-71.4-0.4","615224b6fec95dfc43439c28","A3","batch1","","2071","tol_tohand","","","","tol_peg_1","2071","2071","0","[[0,0,0],[3,0],[2]]","5","[[3,2,0],[0,0],[1]]","20","0","","","","","","6","","","","","","","","",""
"","","","","","single-stim-button","338","952841","0.0-2.0-71.4-1.4","615224b6fec95dfc43439c28","A3","batch1","","6130","tol_toboard","","","","tol_peg_1","6130","6130","0","[[1,0,0],[3,0],[2]]","5","[[3,2,0],[0,0],[1]]","20","0","","","","","","6","","","","","","","","",""
"","","","","","single-stim-button","339","969190","0.0-2.0-71.5-0.5","615224b6fec95dfc43439c28","A3","batch1","","16348","tol_tohand","","","","tol_peg_2","16348","16348","0","[[1,0,0],[0,0],[2]]","6","[[3,2,0],[0,0],[1]]","20","0","","","","","","6","","","","","","","","",""
"","","","","","single-stim-button","340","970284","0.0-2.0-71.5-1.5","615224b6fec95dfc43439c28","A3","batch1","","1093","tol_toboard","","","","tol_peg_1","1093","1093","0","[[1,3,0],[0,0],[2]]","6","[[3,2,0],[0,0],[1]]","20","0","","","","","","6","","","","","","","","",""
"","","","","","single-stim-button","341","971330","0.0-2.0-71.6-0.6","615224b6fec95dfc43439c28","A3","batch1","","1046","tol_tohand","","","","tol_peg_3","1046","1046","0","[[1,3,0],[0,0],[0]]","7","[[3,2,0],[0,0],[1]]","20","0","","","","","","6","","","","","","","","",""
"","","","","","single-stim-button","342","972948","0.0-2.0-71.6-1.6","615224b6fec95dfc43439c28","A3","batch1","","1617","tol_toboard","","","","tol_peg_2","1617","1617","0","[[1,3,0],[2,0],[0]]","7","[[3,2,0],[0,0],[1]]","20","0","","","","","","6","","","","","","","","",""
"","","","","","single-stim-button","343","974117","0.0-2.0-71.7-0.7","615224b6fec95dfc43439c28","A3","batch1","","1169","tol_tohand","","","","tol_peg_1","1169","1169","0","[[1,0,0],[2,0],[0]]","8","[[3,2,0],[0,0],[1]]","20","0","","","","","","6","","","","","","","","",""
"","","","","","single-stim-button","344","974924","0.0-2.0-71.7-1.7","615224b6fec95dfc43439c28","A3","batch1","","805","tol_toboard","","","","tol_peg_2","805","805","0","[[1,0,0],[2,3],[0]]","8","[[3,2,0],[0,0],[1]]","20","0","","","","","","6","","","","","","","","",""
"","","","","","single-stim-button","345","975954","0.0-2.0-71.8-0.8","615224b6fec95dfc43439c28","A3","batch1","","1030","tol_tohand","","","","tol_peg_1","1030","1030","0","[[0,0,0],[2,3],[0]]","9","[[3,2,0],[0,0],[1]]","20","0","","","","","","6","","","","","","","","",""
"","","","","","single-stim-button","346","977220","0.0-2.0-71.8-1.8","615224b6fec95dfc43439c28","A3","batch1","","1265","tol_toboard","","","","tol_peg_3","1265","1265","0","[[0,0,0],[2,3],[1]]","9","[[3,2,0],[0,0],[1]]","20","0","","","","","","6","","","","","","","","",""
"","","","","","single-stim-button","347","978276","0.0-2.0-71.9-0.9","615224b6fec95dfc43439c28","A3","batch1","","1055","tol_tohand","","","","tol_peg_2","1055","1055","0","[[0,0,0],[2,0],[1]]","10","[[3,2,0],[0,0],[1]]","20","0","","","","","","6","","","","","","","","",""
"","","","","","single-stim-button","348","979190","0.0-2.0-71.9-1.9","615224b6fec95dfc43439c28","A3","batch1","","913","tol_toboard","","","","tol_peg_1","913","913","0","[[3,0,0],[2,0],[1]]","10","[[3,2,0],[0,0],[1]]","20","0","","","","","","6","","","","","","","","",""
"","","","","","single-stim-button","349","980712","0.0-2.0-71.10-0.10","615224b6fec95dfc43439c28","A3","batch1","","1521","tol_tohand","","","","tol_peg_2","1521","1521","0","[[3,0,0],[0,0],[1]]","11","[[3,2,0],[0,0],[1]]","20","0","","","","","","6","","","","","","","","",""
"","","","","","single-stim-button","350","982354","0.0-2.0-71.10-1.10","615224b6fec95dfc43439c28","A3","batch1","","1641","tol_toboard","","","","tol_peg_1","1641","1641","0","[[3,2,0],[0,0],[1]]","11","[[3,2,0],[0,0],[1]]","20","0","","","","","","6","","","","","","","","",""
"","","","","","poldrack-single-stim","351","983361","0.0-2.0-72.0","615224b6fec95dfc43439c28","A3","batch1","","-1","tol_feedback","","","true","","1000","1000","500","","","","","","-1","none","true","6342","40286","","","","","","","","","",""
"","","","","","html-button-response","352","986173","0.0-2.0-73.0","615224b6fec95dfc43439c28","A3","batch1","","2809.9000000059605","tol_trial_num","<div class = centerbox><p class = center-block-text>problem <strong>22</strong> out of 25 problems</p></div>","0","","","","","","","","","","","","","","","","","","","","","","","","",""
"","","","","","single-stim-button","353","994495","0.0-2.0-74.0-0.0","615224b6fec95dfc43439c28","A3","batch1","","8320","tol_tohand","","","","tol_peg_1","8320","8320","0","[[0,0,0],[2,3],[0]]","1","[[0,0,0],[1,2],[3]]","21","0","","","","","","6","","","","","","","","",""
"","","","","","single-stim-button","354","995354","0.0-2.0-74.0-1.0","615224b6fec95dfc43439c28","A3","batch1","","857","tol_toboard","","","","tol_peg_3","857","857","0","[[0,0,0],[2,3],[1]]","1","[[0,0,0],[1,2],[3]]","21","0","","","","","","6","","","","","","","","",""
