"success","timeout","failed_images","failed_audio","failed_video","trial_type","trial_index","time_elapsed","internal_node_id","subject_id","study_id","session_id","view_history","rt","task","stimulus","response","correct","mouse_click","stim_duration","block_duration","timing_post_trial","current_position","tol_num_moves_made","tol_target","tol_problem_id","tol_rt","key_press","possible_responses","tol_correct","preplanning","tol_rt_per_trial","tol_min_moves","answer","item","fiar_detect_rt","fiar_detect_correct","total_correct_fiar_detect","post_trial_gap","choices","spm_correct","spm_rt"
"true","false","[]","[]","[]","preload","0","943","0.0-0.0","615365211632e1a6ddf41008","E1","batch5","","","","","","","","","","","","","","","","","","","","","","","","","","","","","",""
"true","","","","","fullscreen","1","9870","0.0-1.0-0.0","615365211632e1a6ddf41008","E1","batch5","","","","","","","","","","","","","","","","","","","","","","","","","","","","","",""
"true","","","","","fullscreen","2","13183","0.0-2.0-0.0","615365211632e1a6ddf41008","E1","batch5","","","","","","","","","","","","","","","","","","","","","","","","","","","","","",""
"","","","","","instructions","3","56793","0.0-2.0-1.0-0.0-0.0","615365211632e1a6ddf41008","E1","batch5","[{""page_index"":0,""viewing_time"":9328.099999904633},{""page_index"":1,""viewing_time"":4727.300000071526},{""page_index"":2,""viewing_time"":4753.299999952316},{""page_index"":3,""viewing_time"":7895.899999976158},{""page_index"":4,""viewing_time"":6247.5},{""page_index"":5,""viewing_time"":7878.400000095367},{""page_index"":6,""viewing_time"":2777.5999999046326}]","43609","tol-instructions","","","","","","","","","","","","","","","","","","","","","","","","","","",""
"","","","","","html-button-response","4","58124","0.0-2.0-1.0-1.0-0.0","615365211632e1a6ddf41008","E1","batch5","","1329.1999999284744","tol_enter_quiz","<p class=block-text> Let's answer a few questions <br>","0","","","","","","","","","","","","","","","","","","","","","","","","",""
"","","","","","html-button-response","5","62493","0.0-2.0-1.0-1.0-1.0","615365211632e1a6ddf41008","E1","batch5","","4367.300000071526","tol_quiz","<p class = block-text>True or False: You can only move the ball on top of a peg. <br></p>","0","true","","","","","","","","","","","","","","","","","","","","","","","",""
"","","","","","html-button-response","6","63621","0.0-2.0-1.0-1.0-2.0","615365211632e1a6ddf41008","E1","batch5","","1125.7999999523163","tol_quiz_feedback","<p class = block-text>Correct! You can only move the ball on top of a peg.</p>","0","","","","","","","","","","","","","","","","","","","","","","","","",""
"","","","","","html-button-response","7","66443","0.0-2.0-1.0-1.0-3.0","615365211632e1a6ddf41008","E1","batch5","","2818.7999999523163","tol_quiz","<p class = block-text>True or False: You should try to match your board with the target board with fewest moves possible. <br></p>","0","true","","","","","","","","","","","","","","","","","","","","","","","",""
"","","","","","html-button-response","8","67107","0.0-2.0-1.0-1.0-4.0","615365211632e1a6ddf41008","E1","batch5","","663.3999999761581","tol_quiz_feedback","<p class = block-text>Correct! </p>","0","","","","","","","","","","","","","","","","","","","","","","","","",""
"","","","","","html-button-response","9","69245","0.0-2.0-2.0","615365211632e1a6ddf41008","E1","batch5","","2135","","<p class=block-text> Now that you've understood the game, let's practice a few easier examples before we start!<br> <br>","0","","","","","","","","","","","","","","","","","","","","","","","","",""
"","","","","","single-stim-button","10","74010","0.0-2.0-3.0-0.0","615365211632e1a6ddf41008","E1","batch5","","4762","tol_practice","","","","tol_peg_2","4762","4762","0","[[1,2,0],[0,0],[0]]","1","[[1,2,0],[0,0],[3]]","practice","4762","","","","","","","","","","","","","","",""
"","","","","","single-stim-button","11","75417","0.0-2.0-3.0-1.0","615365211632e1a6ddf41008","E1","batch5","","1404","tol_practice","","","","tol_peg_3","1404","1404","0","[[1,2,0],[0,0],[3]]","1","[[1,2,0],[0,0],[3]]","practice","1404","","","","","","","","","","","","","","",""
"","","","","","poldrack-single-stim","12","76420","0.0-2.0-4.0","615365211632e1a6ddf41008","E1","batch5","","-1","tol_feedback","","","true","","1000","1000","500","","","","","","-1","none","true","","0","","","","","","","","","",""
"","","","","","single-stim-button","13","80974","0.0-2.0-5.0-0.0","615365211632e1a6ddf41008","E1","batch5","","4552","tol_practice","","","","tol_peg_1","4552","4552","0","[[1,0,0],[3,0],[0]]","2","[[0,0,0],[3,1],[2]]","practice","4552","","","","","","","","","","","","","","",""
"","","","","","single-stim-button","14","81987","0.0-2.0-5.0-1.0","615365211632e1a6ddf41008","E1","batch5","","1011","tol_practice","","","","tol_peg_3","1011","1011","0","[[1,0,0],[3,0],[2]]","2","[[0,0,0],[3,1],[2]]","practice","1011","","","","","","","","","","","","","","",""
"","","","","","single-stim-button","15","82825","0.0-2.0-5.1-0.1","615365211632e1a6ddf41008","E1","batch5","","835","tol_practice","","","","tol_peg_1","835","835","0","[[0,0,0],[3,0],[2]]","3","[[0,0,0],[3,1],[2]]","practice","835","","","","","","","","","","","","","","",""
"","","","","","single-stim-button","16","83470","0.0-2.0-5.1-1.1","615365211632e1a6ddf41008","E1","batch5","","643","tol_practice","","","","tol_peg_2","643","643","0","[[0,0,0],[3,1],[2]]","3","[[0,0,0],[3,1],[2]]","practice","643","","","","","","","","","","","","","","",""
"","","","","","poldrack-single-stim","17","84473","0.0-2.0-6.0","615365211632e1a6ddf41008","E1","batch5","","-1","tol_feedback","","","true","","1000","1000","500","","","","","","-1","none","true","","0","","","","","","","","","",""
"","","","","","single-stim-button","18","87520","0.0-2.0-7.0-0.0","615365211632e1a6ddf41008","E1","batch5","","3045","tol_practice","","","","tol_peg_2","3045","3045","0","[[1,2,0],[0,0],[0]]","4","[[1,0,0],[2,0],[3]]","practice","3045","","","","","","","","","","","","","","",""
"","","","","","single-stim-button","19","89006","0.0-2.0-7.0-1.0","615365211632e1a6ddf41008","E1","batch5","","1485","tol_practice","","","","tol_peg_3","1485","1485","0","[[1,2,0],[0,0],[3]]","4","[[1,0,0],[2,0],[3]]","practice","1485","","","","","","","","","","","","","","",""
"","","","","","single-stim-button","20","89741","0.0-2.0-7.1-0.1","615365211632e1a6ddf41008","E1","batch5","","733","tol_practice","","","","tol_peg_1","733","733","0","[[1,0,0],[0,0],[3]]","5","[[1,0,0],[2,0],[3]]","practice","733","","","","","","","","","","","","","","",""
"","","","","","single-stim-button","21","90635","0.0-2.0-7.1-1.1","615365211632e1a6ddf41008","E1","batch5","","893","tol_practice","","","","tol_peg_2","893","893","0","[[1,0,0],[2,0],[3]]","5","[[1,0,0],[2,0],[3]]","practice","893","","","","","","","","","","","","","","",""
"","","","","","poldrack-single-stim","22","91637","0.0-2.0-8.0","615365211632e1a6ddf41008","E1","batch5","","-1","tol_feedback","","","true","","1000","1000","500","","","","","","-1","none","true","","0","","","","","","","","","",""
"","","","","","html-button-response","23","98012","0.0-2.0-9.0","615365211632e1a6ddf41008","E1","batch5","","6373.399999976158","tol_instruction","<div class = centerbox><p class = center-block-text>Great job! You are done with practice trials<br>You are about to start official trials.<br> <br> Problem <strong>1</strong> out of 25 problems</p></div>","0","","","","","","","","","","","","","","","","","","","","","","","","",""
"","","","","","single-stim-button","24","105972","0.0-2.0-10.0-0.0","615365211632e1a6ddf41008","E1","batch5","","6956","tol_tohand","","","","tol_peg_2","6956","6956","0","[[1,2,0],[0,0],[0]]","1","[[1,3,0],[2,0],[0]]","0","0","","","","","","3","","","","","","","","",""
"","","","","","single-stim-button","25","106760","0.0-2.0-10.0-1.0","615365211632e1a6ddf41008","E1","batch5","","787","tol_toboard","","","","tol_peg_3","787","787","0","[[1,2,0],[0,0],[3]]","1","[[1,3,0],[2,0],[0]]","0","0","","","","","","3","","","","","","","","",""
"","","","","","single-stim-button","26","107485","0.0-2.0-10.1-0.1","615365211632e1a6ddf41008","E1","batch5","","723","tol_tohand","","","","tol_peg_1","723","723","0","[[1,0,0],[0,0],[3]]","2","[[1,3,0],[2,0],[0]]","0","0","","","","","","3","","","","","","","","",""
"","","","","","single-stim-button","27","107994","0.0-2.0-10.1-1.1","615365211632e1a6ddf41008","E1","batch5","","509","tol_toboard","","","","tol_peg_2","509","509","0","[[1,0,0],[2,0],[3]]","2","[[1,3,0],[2,0],[0]]","0","0","","","","","","3","","","","","","","","",""
"","","","","","single-stim-button","28","108548","0.0-2.0-10.2-0.2","615365211632e1a6ddf41008","E1","batch5","","553","tol_tohand","","","","tol_peg_3","553","553","0","[[1,0,0],[2,0],[0]]","3","[[1,3,0],[2,0],[0]]","0","0","","","","","","3","","","","","","","","",""
"","","","","","single-stim-button","29","109293","0.0-2.0-10.2-1.2","615365211632e1a6ddf41008","E1","batch5","","744","tol_toboard","","","","tol_peg_1","744","744","0","[[1,3,0],[2,0],[0]]","3","[[1,3,0],[2,0],[0]]","0","0","","","","","","3","","","","","","","","",""
"","","","","","poldrack-single-stim","30","110296","0.0-2.0-11.0","615365211632e1a6ddf41008","E1","batch5","","-1","tol_feedback","","","true","","1000","1000","500","","","","","","-1","none","true","6956","8232","","","","","","","","","",""
"","","","","","html-button-response","31","111052","0.0-2.0-12.0","615365211632e1a6ddf41008","E1","batch5","","753.5","tol_trial_num","<div class = centerbox><p class = center-block-text>problem <strong>2</strong> out of 25 problems</p></div>","0","","","","","","","","","","","","","","","","","","","","","","","","",""
"","","","","","single-stim-button","32","112976","0.0-2.0-13.0-0.0","615365211632e1a6ddf41008","E1","batch5","","1923","tol_tohand","","","","tol_peg_1","1923","1923","0","[[1,0,0],[3,0],[0]]","1","[[2,1,3],[0,0],[0]]","1","0","","","","","","5","","","","","","","","",""
"","","","","","single-stim-button","33","114515","0.0-2.0-13.0-1.0","615365211632e1a6ddf41008","E1","batch5","","1537","tol_toboard","","","","tol_peg_1","1537","1537","0","[[1,2,0],[3,0],[0]]","1","[[2,1,3],[0,0],[0]]","1","0","","","","","","5","","","","","","","","",""
"","","","","","single-stim-button","34","119011","0.0-2.0-13.1-0.1","615365211632e1a6ddf41008","E1","batch5","","4494","tol_tohand","","","","tol_peg_2","4494","4494","0","[[1,2,0],[0,0],[0]]","2","[[2,1,3],[0,0],[0]]","1","0","","","","","","5","","","","","","","","",""
"","","","","","single-stim-button","35","120020","0.0-2.0-13.1-1.1","615365211632e1a6ddf41008","E1","batch5","","1008","tol_toboard","","","","tol_peg_3","1008","1008","0","[[1,2,0],[0,0],[3]]","2","[[2,1,3],[0,0],[0]]","1","0","","","","","","5","","","","","","","","",""
"","","","","","single-stim-button","36","120828","0.0-2.0-13.2-0.2","615365211632e1a6ddf41008","E1","batch5","","808","tol_tohand","","","","tol_peg_1","808","808","0","[[1,0,0],[0,0],[3]]","3","[[2,1,3],[0,0],[0]]","1","0","","","","","","5","","","","","","","","",""
"","","","","","single-stim-button","37","122358","0.0-2.0-13.2-1.2","615365211632e1a6ddf41008","E1","batch5","","1529","tol_toboard","","","","tol_peg_2","1529","1529","0","[[1,0,0],[2,0],[3]]","3","[[2,1,3],[0,0],[0]]","1","0","","","","","","5","","","","","","","","",""
"","","","","","single-stim-button","38","123120","0.0-2.0-13.3-0.3","615365211632e1a6ddf41008","E1","batch5","","760","tol_tohand","","","","tol_peg_1","760","760","0","[[0,0,0],[2,0],[3]]","4","[[2,1,3],[0,0],[0]]","1","0","","","","","","5","","","","","","","","",""
"","","","","","single-stim-button","39","125363","0.0-2.0-13.3-1.3","615365211632e1a6ddf41008","E1","batch5","","2242","tol_toboard","","","","tol_peg_1","2242","2242","0","[[1,0,0],[2,0],[3]]","4","[[2,1,3],[0,0],[0]]","1","0","","","","","","5","","","","","","","","",""
"","","","","","single-stim-button","40","126663","0.0-2.0-13.4-0.4","615365211632e1a6ddf41008","E1","batch5","","1299","tol_tohand","","","","tol_peg_3","1299","1299","0","[[1,0,0],[2,0],[0]]","5","[[2,1,3],[0,0],[0]]","1","0","","","","","","5","","","","","","","","",""
"","","","","","single-stim-button","41","127277","0.0-2.0-13.4-1.4","615365211632e1a6ddf41008","E1","batch5","","612","tol_toboard","","","","tol_peg_2","612","612","0","[[1,0,0],[2,3],[0]]","5","[[2,1,3],[0,0],[0]]","1","0","","","","","","5","","","","","","","","",""
"","","","","","single-stim-button","42","127883","0.0-2.0-13.5-0.5","615365211632e1a6ddf41008","E1","batch5","","606","tol_tohand","","","","tol_peg_1","606","606","0","[[0,0,0],[2,3],[0]]","6","[[2,1,3],[0,0],[0]]","1","0","","","","","","5","","","","","","","","",""
"","","","","","single-stim-button","43","128490","0.0-2.0-13.5-1.5","615365211632e1a6ddf41008","E1","batch5","","606","tol_toboard","","","","tol_peg_3","606","606","0","[[0,0,0],[2,3],[1]]","6","[[2,1,3],[0,0],[0]]","1","0","","","","","","5","","","","","","","","",""
"","","","","","single-stim-button","44","133105","0.0-2.0-13.6-0.6","615365211632e1a6ddf41008","E1","batch5","","4614","tol_tohand","","","","tol_peg_2","4614","4614","0","[[0,0,0],[2,0],[1]]","7","[[2,1,3],[0,0],[0]]","1","0","","","","","","5","","","","","","","","",""
"","","","","","single-stim-button","45","135141","0.0-2.0-13.6-1.6","615365211632e1a6ddf41008","E1","batch5","","2033","tol_toboard","","","","tol_peg_2","2033","2033","0","[[0,0,0],[2,3],[1]]","7","[[2,1,3],[0,0],[0]]","1","0","","","","","","5","","","","","","","","",""
"","","","","","single-stim-button","46","135897","0.0-2.0-13.7-0.7","615365211632e1a6ddf41008","E1","batch5","","755","tol_tohand","","","","tol_peg_3","755","755","0","[[0,0,0],[2,3],[0]]","8","[[2,1,3],[0,0],[0]]","1","0","","","","","","5","","","","","","","","",""
"","","","","","single-stim-button","47","137696","0.0-2.0-13.7-1.7","615365211632e1a6ddf41008","E1","batch5","","1798","tol_toboard","","","","tol_peg_1","1798","1798","0","[[1,0,0],[2,3],[0]]","8","[[2,1,3],[0,0],[0]]","1","0","","","","","","5","","","","","","","","",""
"","","","","","single-stim-button","48","138261","0.0-2.0-13.8-0.8","615365211632e1a6ddf41008","E1","batch5","","564","tol_tohand","","","","tol_peg_2","564","564","0","[[1,0,0],[2,0],[0]]","9","[[2,1,3],[0,0],[0]]","1","0","","","","","","5","","","","","","","","",""
"","","","","","single-stim-button","49","139169","0.0-2.0-13.8-1.8","615365211632e1a6ddf41008","E1","batch5","","907","tol_toboard","","","","tol_peg_1","907","907","0","[[1,3,0],[2,0],[0]]","9","[[2,1,3],[0,0],[0]]","1","0","","","","","","5","","","","","","","","",""
"","","","","","single-stim-button","50","139619","0.0-2.0-13.9-0.9","615365211632e1a6ddf41008","E1","batch5","","449","tol_tohand","","","","tol_peg_2","449","449","0","[[1,3,0],[0,0],[0]]","10","[[2,1,3],[0,0],[0]]","1","0","","","","","","5","","","","","","","","",""
"","","","","","single-stim-button","51","140449","0.0-2.0-13.9-1.9","615365211632e1a6ddf41008","E1","batch5","","829","tol_toboard","","","","tol_peg_3","829","829","0","[[1,3,0],[0,0],[2]]","10","[[2,1,3],[0,0],[0]]","1","0","","","","","","5","","","","","","","","",""
"","","","","","single-stim-button","52","141037","0.0-2.0-13.10-0.10","615365211632e1a6ddf41008","E1","batch5","","587","tol_tohand","","","","tol_peg_1","587","587","0","[[1,0,0],[0,0],[2]]","11","[[2,1,3],[0,0],[0]]","1","0","","","","","","5","","","","","","","","",""
"","","","","","single-stim-button","53","141632","0.0-2.0-13.10-1.10","615365211632e1a6ddf41008","E1","batch5","","594","tol_toboard","","","","tol_peg_2","594","594","0","[[1,0,0],[3,0],[2]]","11","[[2,1,3],[0,0],[0]]","1","0","","","","","","5","","","","","","","","",""
"","","","","","single-stim-button","54","142180","0.0-2.0-13.11-0.11","615365211632e1a6ddf41008","E1","batch5","","546","tol_tohand","","","","tol_peg_1","546","546","0","[[0,0,0],[3,0],[2]]","12","[[2,1,3],[0,0],[0]]","1","0","","","","","","5","","","","","","","","",""
"","","","","","single-stim-button","55","142709","0.0-2.0-13.11-1.11","615365211632e1a6ddf41008","E1","batch5","","528","tol_toboard","","","","tol_peg_2","528","528","0","[[0,0,0],[3,1],[2]]","12","[[2,1,3],[0,0],[0]]","1","0","","","","","","5","","","","","","","","",""
"","","","","","single-stim-button","56","143257","0.0-2.0-13.12-0.12","615365211632e1a6ddf41008","E1","batch5","","548","tol_tohand","","","","tol_peg_3","548","548","0","[[0,0,0],[3,1],[0]]","13","[[2,1,3],[0,0],[0]]","1","0","","","","","","5","","","","","","","","",""
"","","","","","single-stim-button","57","143903","0.0-2.0-13.12-1.12","615365211632e1a6ddf41008","E1","batch5","","645","tol_toboard","","","","tol_peg_1","645","645","0","[[2,0,0],[3,1],[0]]","13","[[2,1,3],[0,0],[0]]","1","0","","","","","","5","","","","","","","","",""
"","","","","","single-stim-button","58","144536","0.0-2.0-13.13-0.13","615365211632e1a6ddf41008","E1","batch5","","632","tol_tohand","","","","tol_peg_2","632","632","0","[[2,0,0],[3,0],[0]]","14","[[2,1,3],[0,0],[0]]","1","0","","","","","","5","","","","","","","","",""
"","","","","","single-stim-button","59","145347","0.0-2.0-13.13-1.13","615365211632e1a6ddf41008","E1","batch5","","810","tol_toboard","","","","tol_peg_1","810","810","0","[[2,1,0],[3,0],[0]]","14","[[2,1,3],[0,0],[0]]","1","0","","","","","","5","","","","","","","","",""
"","","","","","single-stim-button","60","145829","0.0-2.0-13.14-0.14","615365211632e1a6ddf41008","E1","batch5","","481","tol_tohand","","","","tol_peg_2","481","481","0","[[2,1,0],[0,0],[0]]","15","[[2,1,3],[0,0],[0]]","1","0","","","","","","5","","","","","","","","",""
"","","","","","single-stim-button","61","146267","0.0-2.0-13.14-1.14","615365211632e1a6ddf41008","E1","batch5","","437","tol_toboard","","","","tol_peg_1","437","437","0","[[2,1,3],[0,0],[0]]","15","[[2,1,3],[0,0],[0]]","1","0","","","","","","5","","","","","","","","",""
"","","","","","poldrack-single-stim","62","147270","0.0-2.0-14.0","615365211632e1a6ddf41008","E1","batch5","","-1","tol_feedback","","","true","","1000","1000","500","","","","","","-1","none","true","1923","19066","","","","","","","","","",""
"","","","","","html-button-response","63","148263","0.0-2.0-15.0","615365211632e1a6ddf41008","E1","batch5","","991.2999999523163","tol_trial_num","<div class = centerbox><p class = center-block-text>problem <strong>3</strong> out of 25 problems</p></div>","0","","","","","","","","","","","","","","","","","","","","","","","","",""
"","","","","","single-stim-button","64","153272","0.0-2.0-16.0-0.0","615365211632e1a6ddf41008","E1","batch5","","5009","tol_tohand","","","","tol_peg_1","5009","5009","0","[[2,0,0],[0,0],[1]]","1","[[1,2,0],[3,0],[0]]","2","0","","","","","","4","","","","","","","","",""
"","","","","","single-stim-button","65","154598","0.0-2.0-16.0-1.0","615365211632e1a6ddf41008","E1","batch5","","1324","tol_toboard","","","","tol_peg_2","1324","1324","0","[[2,0,0],[3,0],[1]]","1","[[1,2,0],[3,0],[0]]","2","0","","","","","","4","","","","","","","","",""
"","","","","","single-stim-button","66","155225","0.0-2.0-16.1-0.1","615365211632e1a6ddf41008","E1","batch5","","627","tol_tohand","","","","tol_peg_1","627","627","0","[[0,0,0],[3,0],[1]]","2","[[1,2,0],[3,0],[0]]","2","0","","","","","","4","","","","","","","","",""
"","","","","","single-stim-button","67","155683","0.0-2.0-16.1-1.1","615365211632e1a6ddf41008","E1","batch5","","456","tol_toboard","","","","tol_peg_2","456","456","0","[[0,0,0],[3,2],[1]]","2","[[1,2,0],[3,0],[0]]","2","0","","","","","","4","","","","","","","","",""
"","","","","","single-stim-button","68","156132","0.0-2.0-16.2-0.2","615365211632e1a6ddf41008","E1","batch5","","448","tol_tohand","","","","tol_peg_3","448","448","0","[[0,0,0],[3,2],[0]]","3","[[1,2,0],[3,0],[0]]","2","0","","","","","","4","","","","","","","","",""
"","","","","","single-stim-button","69","156624","0.0-2.0-16.2-1.2","615365211632e1a6ddf41008","E1","batch5","","490","tol_toboard","","","","tol_peg_1","490","490","0","[[1,0,0],[3,2],[0]]","3","[[1,2,0],[3,0],[0]]","2","0","","","","","","4","","","","","","","","",""
"","","","","","single-stim-button","70","157021","0.0-2.0-16.3-0.3","615365211632e1a6ddf41008","E1","batch5","","397","tol_tohand","","","","tol_peg_2","397","397","0","[[1,0,0],[3,0],[0]]","4","[[1,2,0],[3,0],[0]]","2","0","","","","","","4","","","","","","","","",""
"","","","","","single-stim-button","71","157477","0.0-2.0-16.3-1.3","615365211632e1a6ddf41008","E1","batch5","","454","tol_toboard","","","","tol_peg_1","454","454","0","[[1,2,0],[3,0],[0]]","4","[[1,2,0],[3,0],[0]]","2","0","","","","","","4","","","","","","","","",""
"","","","","","poldrack-single-stim","72","158478","0.0-2.0-17.0","615365211632e1a6ddf41008","E1","batch5","","-1","tol_feedback","","","true","","1000","1000","500","","","","","","-1","none","true","5009","6481","","","","","","","","","",""
"","","","","","html-button-response","73","159323","0.0-2.0-18.0","615365211632e1a6ddf41008","E1","batch5","","843.4000000953674","tol_trial_num","<div class = centerbox><p class = center-block-text>problem <strong>4</strong> out of 25 problems</p></div>","0","","","","","","","","","","","","","","","","","","","","","","","","",""
"","","","","","single-stim-button","74","161727","0.0-2.0-19.0-0.0","615365211632e1a6ddf41008","E1","batch5","","2403","tol_tohand","","","","tol_peg_2","2403","2403","0","[[3,0,0],[2,0],[0]]","1","[[3,0,0],[1,0],[2]]","3","0","","","","","","3","","","","","","","","",""
"","","","","","single-stim-button","75","162889","0.0-2.0-19.0-1.0","615365211632e1a6ddf41008","E1","batch5","","1162","tol_toboard","","","","tol_peg_1","1162","1162","0","[[3,1,0],[2,0],[0]]","1","[[3,0,0],[1,0],[2]]","3","0","","","","","","3","","","","","","","","",""
"","","","","","single-stim-button","76","163372","0.0-2.0-19.1-0.1","615365211632e1a6ddf41008","E1","batch5","","483","tol_tohand","","","","tol_peg_2","483","483","0","[[3,1,0],[0,0],[0]]","2","[[3,0,0],[1,0],[2]]","3","0","","","","","","3","","","","","","","","",""
"","","","","","single-stim-button","77","163798","0.0-2.0-19.1-1.1","615365211632e1a6ddf41008","E1","batch5","","426","tol_toboard","","","","tol_peg_3","426","426","0","[[3,1,0],[0,0],[2]]","2","[[3,0,0],[1,0],[2]]","3","0","","","","","","3","","","","","","","","",""
"","","","","","single-stim-button","78","164510","0.0-2.0-19.2-0.2","615365211632e1a6ddf41008","E1","batch5","","711","tol_tohand","","","","tol_peg_1","711","711","0","[[3,0,0],[0,0],[2]]","3","[[3,0,0],[1,0],[2]]","3","0","","","","","","3","","","","","","","","",""
"","","","","","single-stim-button","79","164887","0.0-2.0-19.2-1.2","615365211632e1a6ddf41008","E1","batch5","","376","tol_toboard","","","","tol_peg_2","376","376","0","[[3,0,0],[1,0],[2]]","3","[[3,0,0],[1,0],[2]]","3","0","","","","","","3","","","","","","","","",""
"","","","","","poldrack-single-stim","80","165889","0.0-2.0-20.0","615365211632e1a6ddf41008","E1","batch5","","-1","tol_feedback","","","true","","1000","1000","500","","","","","","-1","none","true","2403","3597","","","","","","","","","",""
"","","","","","html-button-response","81","166740","0.0-2.0-21.0","615365211632e1a6ddf41008","E1","batch5","","849.7000000476837","tol_trial_num","<div class = centerbox><p class = center-block-text>problem <strong>5</strong> out of 25 problems</p></div>","0","","","","","","","","","","","","","","","","","","","","","","","","",""
"","","","","","single-stim-button","82","174842","0.0-2.0-22.0-0.0","615365211632e1a6ddf41008","E1","batch5","","8100","tol_tohand","","","","tol_peg_3","8100","8100","0","[[1,0,0],[2,0],[0]]","1","[[0,0,0],[1,2],[3]]","4","0","","","","","","7","","","","","","","","",""
"","","","","","single-stim-button","83","175639","0.0-2.0-22.0-1.0","615365211632e1a6ddf41008","E1","batch5","","796","tol_toboard","","","","tol_peg_1","796","796","0","[[1,3,0],[2,0],[0]]","1","[[0,0,0],[1,2],[3]]","4","0","","","","","","7","","","","","","","","",""
"","","","","","single-stim-button","84","176143","0.0-2.0-22.1-0.1","615365211632e1a6ddf41008","E1","batch5","","502","tol_tohand","","","","tol_peg_2","502","502","0","[[1,3,0],[0,0],[0]]","2","[[0,0,0],[1,2],[3]]","4","0","","","","","","7","","","","","","","","",""
"","","","","","single-stim-button","85","177968","0.0-2.0-22.1-1.1","615365211632e1a6ddf41008","E1","batch5","","1824","tol_toboard","","","","tol_peg_3","1824","1824","0","[[1,3,0],[0,0],[2]]","2","[[0,0,0],[1,2],[3]]","4","0","","","","","","7","","","","","","","","",""
"","","","","","single-stim-button","86","178759","0.0-2.0-22.2-0.2","615365211632e1a6ddf41008","E1","batch5","","789","tol_tohand","","","","tol_peg_1","789","789","0","[[1,0,0],[0,0],[2]]","3","[[0,0,0],[1,2],[3]]","4","0","","","","","","7","","","","","","","","",""
"","","","","","single-stim-button","87","181412","0.0-2.0-22.2-1.2","615365211632e1a6ddf41008","E1","batch5","","2653","tol_toboard","","","","tol_peg_1","2653","2653","0","[[1,3,0],[0,0],[2]]","3","[[0,0,0],[1,2],[3]]","4","0","","","","","","7","","","","","","","","",""
"","","","","","single-stim-button","88","186207","0.0-2.0-22.3-0.3","615365211632e1a6ddf41008","E1","batch5","","4794","tol_tohand","","","","tol_peg_1","4794","4794","0","[[1,0,0],[0,0],[2]]","4","[[0,0,0],[1,2],[3]]","4","0","","","","","","7","","","","","","","","",""
"","","","","","single-stim-button","89","186841","0.0-2.0-22.3-1.3","615365211632e1a6ddf41008","E1","batch5","","633","tol_toboard","","","","tol_peg_2","633","633","0","[[1,0,0],[3,0],[2]]","4","[[0,0,0],[1,2],[3]]","4","0","","","","","","7","","","","","","","","",""
"","","","","","single-stim-button","90","187612","0.0-2.0-22.4-0.4","615365211632e1a6ddf41008","E1","batch5","","769","tol_tohand","","","","tol_peg_1","769","769","0","[[0,0,0],[3,0],[2]]","5","[[0,0,0],[1,2],[3]]","4","0","","","","","","7","","","","","","","","",""
"","","","","","single-stim-button","91","188305","0.0-2.0-22.4-1.4","615365211632e1a6ddf41008","E1","batch5","","692","tol_toboard","","","","tol_peg_2","692","692","0","[[0,0,0],[3,1],[2]]","5","[[0,0,0],[1,2],[3]]","4","0","","","","","","7","","","","","","","","",""
"","","","","","single-stim-button","92","189748","0.0-2.0-22.5-0.5","615365211632e1a6ddf41008","E1","batch5","","1443","tol_tohand","","","","tol_peg_3","1443","1443","0","[[0,0,0],[3,1],[0]]","6","[[0,0,0],[1,2],[3]]","4","0","","","","","","7","","","","","","","","",""
"","","","","","single-stim-button","93","190285","0.0-2.0-22.5-1.5","615365211632e1a6ddf41008","E1","batch5","","536","tol_toboard","","","","tol_peg_1","536","536","0","[[2,0,0],[3,1],[0]]","6","[[0,0,0],[1,2],[3]]","4","0","","","","","","7","","","","","","","","",""
"","","","","","single-stim-button","94","191279","0.0-2.0-22.6-0.6","615365211632e1a6ddf41008","E1","batch5","","993","tol_tohand","","","","tol_peg_2","993","993","0","[[2,0,0],[3,0],[0]]","7","[[0,0,0],[1,2],[3]]","4","0","","","","","","7","","","","","","","","",""
"","","","","","single-stim-button","95","191986","0.0-2.0-22.6-1.6","615365211632e1a6ddf41008","E1","batch5","","706","tol_toboard","","","","tol_peg_3","706","706","0","[[2,0,0],[3,0],[1]]","7","[[0,0,0],[1,2],[3]]","4","0","","","","","","7","","","","","","","","",""
"","","","","","single-stim-button","96","192654","0.0-2.0-22.7-0.7","615365211632e1a6ddf41008","E1","batch5","","667","tol_tohand","","","","tol_peg_2","667","667","0","[[2,0,0],[0,0],[1]]","8","[[0,0,0],[1,2],[3]]","4","0","","","","","","7","","","","","","","","",""
"","","","","","single-stim-button","97","193215","0.0-2.0-22.7-1.7","615365211632e1a6ddf41008","E1","batch5","","561","tol_toboard","","","","tol_peg_1","561","561","0","[[2,3,0],[0,0],[1]]","8","[[0,0,0],[1,2],[3]]","4","0","","","","","","7","","","","","","","","",""
"","","","","","single-stim-button","98","193894","0.0-2.0-22.8-0.8","615365211632e1a6ddf41008","E1","batch5","","678","tol_tohand","","","","tol_peg_3","678","678","0","[[2,3,0],[0,0],[0]]","9","[[0,0,0],[1,2],[3]]","4","0","","","","","","7","","","","","","","","",""
"","","","","","single-stim-button","99","194430","0.0-2.0-22.8-1.8","615365211632e1a6ddf41008","E1","batch5","","535","tol_toboard","","","","tol_peg_2","535","535","0","[[2,3,0],[1,0],[0]]","9","[[0,0,0],[1,2],[3]]","4","0","","","","","","7","","","","","","","","",""
"","","","","","single-stim-button","100","195659","0.0-2.0-22.9-0.9","615365211632e1a6ddf41008","E1","batch5","","1227","tol_tohand","","","","tol_peg_1","1227","1227","0","[[2,0,0],[1,0],[0]]","10","[[0,0,0],[1,2],[3]]","4","0","","","","","","7","","","","","","","","",""
"","","","","","single-stim-button","101","196441","0.0-2.0-22.9-1.9","615365211632e1a6ddf41008","E1","batch5","","782","tol_toboard","","","","tol_peg_3","782","782","0","[[2,0,0],[1,0],[3]]","10","[[0,0,0],[1,2],[3]]","4","0","","","","","","7","","","","","","","","",""
"","","","","","single-stim-button","102","197108","0.0-2.0-22.10-0.10","615365211632e1a6ddf41008","E1","batch5","","666","tol_tohand","","","","tol_peg_1","666","666","0","[[0,0,0],[1,0],[3]]","11","[[0,0,0],[1,2],[3]]","4","0","","","","","","7","","","","","","","","",""
"","","","","","single-stim-button","103","197507","0.0-2.0-22.10-1.10","615365211632e1a6ddf41008","E1","batch5","","399","tol_toboard","","","","tol_peg_2","399","399","0","[[0,0,0],[1,2],[3]]","11","[[0,0,0],[1,2],[3]]","4","0","","","","","","7","","","","","","","","",""
"","","","","","poldrack-single-stim","104","198509","0.0-2.0-23.0","615365211632e1a6ddf41008","E1","batch5","","-1","tol_feedback","","","true","","1000","1000","500","","","","","","-1","none","true","8100","20628","","","","","","","","","",""
"","","","","","html-button-response","105","199207","0.0-2.0-24.0","615365211632e1a6ddf41008","E1","batch5","","696.2999999523163","tol_trial_num","<div class = centerbox><p class = center-block-text>problem <strong>6</strong> out of 25 problems</p></div>","0","","","","","","","","","","","","","","","","","","","","","","","","",""
"","","","","","single-stim-button","106","214534","0.0-2.0-25.0-0.0","615365211632e1a6ddf41008","E1","batch5","","15327","tol_tohand","","","","tol_peg_3","15327","15327","0","[[0,0,0],[1,2],[0]]","1","[[1,0,0],[2,3],[0]]","5","0","","","","","","6","","","","","","","","",""
"","","","","","single-stim-button","107","215182","0.0-2.0-25.0-1.0","615365211632e1a6ddf41008","E1","batch5","","646","tol_toboard","","","","tol_peg_1","646","646","0","[[3,0,0],[1,2],[0]]","1","[[1,0,0],[2,3],[0]]","5","0","","","","","","6","","","","","","","","",""
"","","","","","single-stim-button","108","215665","0.0-2.0-25.1-0.1","615365211632e1a6ddf41008","E1","batch5","","482","tol_tohand","","","","tol_peg_2","482","482","0","[[3,0,0],[1,0],[0]]","2","[[1,0,0],[2,3],[0]]","5","0","","","","","","6","","","","","","","","",""
"","","","","","single-stim-button","109","216285","0.0-2.0-25.1-1.1","615365211632e1a6ddf41008","E1","batch5","","620","tol_toboard","","","","tol_peg_3","620","620","0","[[3,0,0],[1,0],[2]]","2","[[1,0,0],[2,3],[0]]","5","0","","","","","","6","","","","","","","","",""
"","","","","","single-stim-button","110","216841","0.0-2.0-25.2-0.2","615365211632e1a6ddf41008","E1","batch5","","555","tol_tohand","","","","tol_peg_2","555","555","0","[[3,0,0],[0,0],[2]]","3","[[1,0,0],[2,3],[0]]","5","0","","","","","","6","","","","","","","","",""
"","","","","","single-stim-button","111","217383","0.0-2.0-25.2-1.2","615365211632e1a6ddf41008","E1","batch5","","541","tol_toboard","","","","tol_peg_1","541","541","0","[[3,1,0],[0,0],[2]]","3","[[1,0,0],[2,3],[0]]","5","0","","","","","","6","","","","","","","","",""
"","","","","","single-stim-button","112","218684","0.0-2.0-25.3-0.3","615365211632e1a6ddf41008","E1","batch5","","1300","tol_tohand","","","","tol_peg_3","1300","1300","0","[[3,1,0],[0,0],[0]]","4","[[1,0,0],[2,3],[0]]","5","0","","","","","","6","","","","","","","","",""
"","","","","","single-stim-button","113","219370","0.0-2.0-25.3-1.3","615365211632e1a6ddf41008","E1","batch5","","684","tol_toboard","","","","tol_peg_2","684","684","0","[[3,1,0],[2,0],[0]]","4","[[1,0,0],[2,3],[0]]","5","0","","","","","","6","","","","","","","","",""
"","","","","","single-stim-button","114","219945","0.0-2.0-25.4-0.4","615365211632e1a6ddf41008","E1","batch5","","575","tol_tohand","","","","tol_peg_1","575","575","0","[[3,0,0],[2,0],[0]]","5","[[1,0,0],[2,3],[0]]","5","0","","","","","","6","","","","","","","","",""
"","","","","","single-stim-button","115","220657","0.0-2.0-25.4-1.4","615365211632e1a6ddf41008","E1","batch5","","710","tol_toboard","","","","tol_peg_3","710","710","0","[[3,0,0],[2,0],[1]]","5","[[1,0,0],[2,3],[0]]","5","0","","","","","","6","","","","","","","","",""
"","","","","","single-stim-button","116","221813","0.0-2.0-25.5-0.5","615365211632e1a6ddf41008","E1","batch5","","1154","tol_tohand","","","","tol_peg_1","1154","1154","0","[[0,0,0],[2,0],[1]]","6","[[1,0,0],[2,3],[0]]","5","0","","","","","","6","","","","","","","","",""
"","","","","","single-stim-button","117","222441","0.0-2.0-25.5-1.5","615365211632e1a6ddf41008","E1","batch5","","628","tol_toboard","","","","tol_peg_2","628","628","0","[[0,0,0],[2,3],[1]]","6","[[1,0,0],[2,3],[0]]","5","0","","","","","","6","","","","","","","","",""
"","","","","","single-stim-button","118","222913","0.0-2.0-25.6-0.6","615365211632e1a6ddf41008","E1","batch5","","470","tol_tohand","","","","tol_peg_3","470","470","0","[[0,0,0],[2,3],[0]]","7","[[1,0,0],[2,3],[0]]","5","0","","","","","","6","","","","","","","","",""
"","","","","","single-stim-button","119","223441","0.0-2.0-25.6-1.6","615365211632e1a6ddf41008","E1","batch5","","528","tol_toboard","","","","tol_peg_1","528","528","0","[[1,0,0],[2,3],[0]]","7","[[1,0,0],[2,3],[0]]","5","0","","","","","","6","","","","","","","","",""
"","","","","","poldrack-single-stim","120","224445","0.0-2.0-26.0","615365211632e1a6ddf41008","E1","batch5","","-1","tol_feedback","","","true","","1000","1000","500","","","","","","-1","none","true","15327","19863","","","","","","","","","",""
"","","","","","html-button-response","121","225042","0.0-2.0-27.0","615365211632e1a6ddf41008","E1","batch5","","595.6000000238419","tol_trial_num","<div class = centerbox><p class = center-block-text>problem <strong>7</strong> out of 25 problems</p></div>","0","","","","","","","","","","","","","","","","","","","","","","","","",""
"","","","","","single-stim-button","122","230030","0.0-2.0-28.0-0.0","615365211632e1a6ddf41008","E1","batch5","","4986","tol_tohand","","","","tol_peg_3","4986","4986","0","[[2,1,0],[0,0],[0]]","1","[[1,2,0],[3,0],[0]]","6","0","","","","","","5","","","","","","","","",""
"","","","","","single-stim-button","123","230507","0.0-2.0-28.0-1.0","615365211632e1a6ddf41008","E1","batch5","","477","tol_toboard","","","","tol_peg_2","477","477","0","[[2,1,0],[3,0],[0]]","1","[[1,2,0],[3,0],[0]]","6","0","","","","","","5","","","","","","","","",""
"","","","","","single-stim-button","124","231011","0.0-2.0-28.1-0.1","615365211632e1a6ddf41008","E1","batch5","","503","tol_tohand","","","","tol_peg_1","503","503","0","[[2,0,0],[3,0],[0]]","2","[[1,2,0],[3,0],[0]]","6","0","","","","","","5","","","","","","","","",""
"","","","","","single-stim-button","125","233424","0.0-2.0-28.1-1.1","615365211632e1a6ddf41008","E1","batch5","","2412","tol_toboard","","","","tol_peg_3","2412","2412","0","[[2,0,0],[3,0],[1]]","2","[[1,2,0],[3,0],[0]]","6","0","","","","","","5","","","","","","","","",""
"","","","","","single-stim-button","126","234013","0.0-2.0-28.2-0.2","615365211632e1a6ddf41008","E1","batch5","","587","tol_tohand","","","","tol_peg_1","587","587","0","[[0,0,0],[3,0],[1]]","3","[[1,2,0],[3,0],[0]]","6","0","","","","","","5","","","","","","","","",""
"","","","","","single-stim-button","127","234507","0.0-2.0-28.2-1.2","615365211632e1a6ddf41008","E1","batch5","","494","tol_toboard","","","","tol_peg_2","494","494","0","[[0,0,0],[3,2],[1]]","3","[[1,2,0],[3,0],[0]]","6","0","","","","","","5","","","","","","","","",""
"","","","","","single-stim-button","128","235030","0.0-2.0-28.3-0.3","615365211632e1a6ddf41008","E1","batch5","","522","tol_tohand","","","","tol_peg_3","522","522","0","[[0,0,0],[3,2],[0]]","4","[[1,2,0],[3,0],[0]]","6","0","","","","","","5","","","","","","","","",""
"","","","","","single-stim-button","129","235495","0.0-2.0-28.3-1.3","615365211632e1a6ddf41008","E1","batch5","","464","tol_toboard","","","","tol_peg_1","464","464","0","[[1,0,0],[3,2],[0]]","4","[[1,2,0],[3,0],[0]]","6","0","","","","","","5","","","","","","","","",""
"","","","","","single-stim-button","130","236153","0.0-2.0-28.4-0.4","615365211632e1a6ddf41008","E1","batch5","","657","tol_tohand","","","","tol_peg_2","657","657","0","[[1,0,0],[3,0],[0]]","5","[[1,2,0],[3,0],[0]]","6","0","","","","","","5","","","","","","","","",""
"","","","","","single-stim-button","131","236598","0.0-2.0-28.4-1.4","615365211632e1a6ddf41008","E1","batch5","","443","tol_toboard","","","","tol_peg_1","443","443","0","[[1,2,0],[3,0],[0]]","5","[[1,2,0],[3,0],[0]]","6","0","","","","","","5","","","","","","","","",""
"","","","","","poldrack-single-stim","132","237599","0.0-2.0-29.0","615365211632e1a6ddf41008","E1","batch5","","-1","tol_feedback","","","true","","1000","1000","500","","","","","","-1","none","true","4986","7255","","","","","","","","","",""
"","","","","","html-button-response","133","238902","0.0-2.0-30.0","615365211632e1a6ddf41008","E1","batch5","","1301.5","tol_trial_num","<div class = centerbox><p class = center-block-text>problem <strong>8</strong> out of 25 problems</p></div>","0","","","","","","","","","","","","","","","","","","","","","","","","",""
"","","","","","single-stim-button","134","244898","0.0-2.0-31.0-0.0","615365211632e1a6ddf41008","E1","batch5","","5995","tol_tohand","","","","tol_peg_2","5995","5995","0","[[0,0,0],[2,0],[1]]","1","[[1,2,0],[3,0],[0]]","7","0","","","","","","4","","","","","","","","",""
"","","","","","single-stim-button","135","245555","0.0-2.0-31.0-1.0","615365211632e1a6ddf41008","E1","batch5","","656","tol_toboard","","","","tol_peg_1","656","656","0","[[3,0,0],[2,0],[1]]","1","[[1,2,0],[3,0],[0]]","7","0","","","","","","4","","","","","","","","",""
"","","","","","single-stim-button","136","246056","0.0-2.0-31.1-0.1","615365211632e1a6ddf41008","E1","batch5","","500","tol_tohand","","","","tol_peg_3","500","500","0","[[3,0,0],[2,0],[0]]","2","[[1,2,0],[3,0],[0]]","7","0","","","","","","4","","","","","","","","",""
"","","","","","single-stim-button","137","246605","0.0-2.0-31.1-1.1","615365211632e1a6ddf41008","E1","batch5","","547","tol_toboard","","","","tol_peg_2","547","547","0","[[3,0,0],[2,1],[0]]","2","[[1,2,0],[3,0],[0]]","7","0","","","","","","4","","","","","","","","",""
"","","","","","single-stim-button","138","247029","0.0-2.0-31.2-0.2","615365211632e1a6ddf41008","E1","batch5","","423","tol_tohand","","","","tol_peg_1","423","423","0","[[0,0,0],[2,1],[0]]","3","[[1,2,0],[3,0],[0]]","7","0","","","","","","4","","","","","","","","",""
"","","","","","single-stim-button","139","247545","0.0-2.0-31.2-1.2","615365211632e1a6ddf41008","E1","batch5","","516","tol_toboard","","","","tol_peg_3","516","516","0","[[0,0,0],[2,1],[3]]","3","[[1,2,0],[3,0],[0]]","7","0","","","","","","4","","","","","","","","",""
"","","","","","single-stim-button","140","248041","0.0-2.0-31.3-0.3","615365211632e1a6ddf41008","E1","batch5","","495","tol_tohand","","","","tol_peg_2","495","495","0","[[0,0,0],[2,0],[3]]","4","[[1,2,0],[3,0],[0]]","7","0","","","","","","4","","","","","","","","",""
"","","","","","single-stim-button","141","248576","0.0-2.0-31.3-1.3","615365211632e1a6ddf41008","E1","batch5","","534","tol_toboard","","","","tol_peg_1","534","534","0","[[1,0,0],[2,0],[3]]","4","[[1,2,0],[3,0],[0]]","7","0","","","","","","4","","","","","","","","",""
"","","","","","single-stim-button","142","249039","0.0-2.0-31.4-0.4","615365211632e1a6ddf41008","E1","batch5","","461","tol_tohand","","","","tol_peg_2","461","461","0","[[1,0,0],[0,0],[3]]","5","[[1,2,0],[3,0],[0]]","7","0","","","","","","4","","","","","","","","",""
"","","","","","single-stim-button","143","249450","0.0-2.0-31.4-1.4","615365211632e1a6ddf41008","E1","batch5","","411","tol_toboard","","","","tol_peg_1","411","411","0","[[1,2,0],[0,0],[3]]","5","[[1,2,0],[3,0],[0]]","7","0","","","","","","4","","","","","","","","",""
"","","","","","single-stim-button","144","250075","0.0-2.0-31.5-0.5","615365211632e1a6ddf41008","E1","batch5","","624","tol_tohand","","","","tol_peg_3","624","624","0","[[1,2,0],[0,0],[0]]","6","[[1,2,0],[3,0],[0]]","7","0","","","","","","4","","","","","","","","",""
"","","","","","single-stim-button","145","250509","0.0-2.0-31.5-1.5","615365211632e1a6ddf41008","E1","batch5","","433","tol_toboard","","","","tol_peg_2","433","433","0","[[1,2,0],[3,0],[0]]","6","[[1,2,0],[3,0],[0]]","7","0","","","","","","4","","","","","","","","",""
"","","","","","poldrack-single-stim","146","251511","0.0-2.0-32.0","615365211632e1a6ddf41008","E1","batch5","","-1","tol_feedback","","","true","","1000","1000","500","","","","","","-1","none","true","5995","8498","","","","","","","","","",""
"","","","","","html-button-response","147","252302","0.0-2.0-33.0","615365211632e1a6ddf41008","E1","batch5","","789.5","tol_trial_num","<div class = centerbox><p class = center-block-text>problem <strong>9</strong> out of 25 problems</p></div>","0","","","","","","","","","","","","","","","","","","","","","","","","",""
"","","","","","single-stim-button","148","268091","0.0-2.0-34.0-0.0","615365211632e1a6ddf41008","E1","batch5","","15787","tol_tohand","","","","tol_peg_3","15787","15787","0","[[3,2,0],[0,0],[0]]","1","[[2,1,0],[3,0],[0]]","8","0","","","","","","6","","","","","","","","",""
"","","","","","single-stim-button","149","269558","0.0-2.0-34.0-1.0","615365211632e1a6ddf41008","E1","batch5","","1465","tol_toboard","","","","tol_peg_3","1465","1465","0","[[3,2,0],[0,0],[1]]","1","[[2,1,0],[3,0],[0]]","8","0","","","","","","6","","","","","","","","",""
"","","","","","single-stim-button","150","270499","0.0-2.0-34.1-0.1","615365211632e1a6ddf41008","E1","batch5","","940","tol_tohand","","","","tol_peg_1","940","940","0","[[3,0,0],[0,0],[1]]","2","[[2,1,0],[3,0],[0]]","8","0","","","","","","6","","","","","","","","",""
"","","","","","single-stim-button","151","270909","0.0-2.0-34.1-1.1","615365211632e1a6ddf41008","E1","batch5","","410","tol_toboard","","","","tol_peg_2","410","410","0","[[3,0,0],[2,0],[1]]","2","[[2,1,0],[3,0],[0]]","8","0","","","","","","6","","","","","","","","",""
"","","","","","single-stim-button","152","275985","0.0-2.0-34.2-0.2","615365211632e1a6ddf41008","E1","batch5","","5075","tol_tohand","","","","tol_peg_3","5075","5075","0","[[3,0,0],[2,0],[0]]","3","[[2,1,0],[3,0],[0]]","8","0","","","","","","6","","","","","","","","",""
"","","","","","single-stim-button","153","276522","0.0-2.0-34.2-1.2","615365211632e1a6ddf41008","E1","batch5","","534","tol_toboard","","","","tol_peg_1","534","534","0","[[3,1,0],[2,0],[0]]","3","[[2,1,0],[3,0],[0]]","8","0","","","","","","6","","","","","","","","",""
"","","","","","single-stim-button","154","276971","0.0-2.0-34.3-0.3","615365211632e1a6ddf41008","E1","batch5","","448","tol_tohand","","","","tol_peg_2","448","448","0","[[3,1,0],[0,0],[0]]","4","[[2,1,0],[3,0],[0]]","8","0","","","","","","6","","","","","","","","",""
"","","","","","single-stim-button","155","277447","0.0-2.0-34.3-1.3","615365211632e1a6ddf41008","E1","batch5","","475","tol_toboard","","","","tol_peg_3","475","475","0","[[3,1,0],[0,0],[2]]","4","[[2,1,0],[3,0],[0]]","8","0","","","","","","6","","","","","","","","",""
"","","","","","single-stim-button","156","277977","0.0-2.0-34.4-0.4","615365211632e1a6ddf41008","E1","batch5","","528","tol_tohand","","","","tol_peg_1","528","528","0","[[3,0,0],[0,0],[2]]","5","[[2,1,0],[3,0],[0]]","8","0","","","","","","6","","","","","","","","",""
"","","","","","single-stim-button","157","278565","0.0-2.0-34.4-1.4","615365211632e1a6ddf41008","E1","batch5","","587","tol_toboard","","","","tol_peg_2","587","587","0","[[3,0,0],[1,0],[2]]","5","[[2,1,0],[3,0],[0]]","8","0","","","","","","6","","","","","","","","",""
"","","","","","single-stim-button","158","279172","0.0-2.0-34.5-0.5","615365211632e1a6ddf41008","E1","batch5","","606","tol_tohand","","","","tol_peg_1","606","606","0","[[0,0,0],[1,0],[2]]","6","[[2,1,0],[3,0],[0]]","8","0","","","","","","6","","","","","","","","",""
"","","","","","single-stim-button","159","281849","0.0-2.0-34.5-1.5","615365211632e1a6ddf41008","E1","batch5","","2676","tol_toboard","","","","tol_peg_2","2676","2676","0","[[0,0,0],[1,3],[2]]","6","[[2,1,0],[3,0],[0]]","8","0","","","","","","6","","","","","","","","",""
"","","","","","single-stim-button","160","282325","0.0-2.0-34.6-0.6","615365211632e1a6ddf41008","E1","batch5","","476","tol_tohand","","","","tol_peg_3","476","476","0","[[0,0,0],[1,3],[0]]","7","[[2,1,0],[3,0],[0]]","8","0","","","","","","6","","","","","","","","",""
"","","","","","single-stim-button","161","283514","0.0-2.0-34.6-1.6","615365211632e1a6ddf41008","E1","batch5","","1188","tol_toboard","","","","tol_peg_1","1188","1188","0","[[2,0,0],[1,3],[0]]","7","[[2,1,0],[3,0],[0]]","8","0","","","","","","6","","","","","","","","",""
"","","","","","single-stim-button","162","283964","0.0-2.0-34.7-0.7","615365211632e1a6ddf41008","E1","batch5","","449","tol_tohand","","","","tol_peg_2","449","449","0","[[2,0,0],[1,0],[0]]","8","[[2,1,0],[3,0],[0]]","8","0","","","","","","6","","","","","","","","",""
"","","","","","single-stim-button","163","284518","0.0-2.0-34.7-1.7","615365211632e1a6ddf41008","E1","batch5","","553","tol_toboard","","","","tol_peg_3","553","553","0","[[2,0,0],[1,0],[3]]","8","[[2,1,0],[3,0],[0]]","8","0","","","","","","6","","","","","","","","",""
"","","","","","single-stim-button","164","285009","0.0-2.0-34.8-0.8","615365211632e1a6ddf41008","E1","batch5","","489","tol_tohand","","","","tol_peg_2","489","489","0","[[2,0,0],[0,0],[3]]","9","[[2,1,0],[3,0],[0]]","8","0","","","","","","6","","","","","","","","",""
"","","","","","single-stim-button","165","285485","0.0-2.0-34.8-1.8","615365211632e1a6ddf41008","E1","batch5","","476","tol_toboard","","","","tol_peg_1","476","476","0","[[2,1,0],[0,0],[3]]","9","[[2,1,0],[3,0],[0]]","8","0","","","","","","6","","","","","","","","",""
"","","","","","single-stim-button","166","285955","0.0-2.0-34.9-0.9","615365211632e1a6ddf41008","E1","batch5","","468","tol_tohand","","","","tol_peg_3","468","468","0","[[2,1,0],[0,0],[0]]","10","[[2,1,0],[3,0],[0]]","8","0","","","","","","6","","","","","","","","",""
"","","","","","single-stim-button","167","287064","0.0-2.0-34.9-1.9","615365211632e1a6ddf41008","E1","batch5","","1108","tol_toboard","","","","tol_peg_2","1108","1108","0","[[2,1,0],[3,0],[0]]","10","[[2,1,0],[3,0],[0]]","8","0","","","","","","6","","","","","","","","",""
"","","","","","poldrack-single-stim","168","288065","0.0-2.0-35.0","615365211632e1a6ddf41008","E1","batch5","","-1","tol_feedback","","","true","","1000","1000","500","","","","","","-1","none","true","15787","25266","","","","","","","","","",""
"","","","","","html-button-response","169","288820","0.0-2.0-36.0","615365211632e1a6ddf41008","E1","batch5","","753.2999999523163","tol_trial_num","<div class = centerbox><p class = center-block-text>problem <strong>10</strong> out of 25 problems</p></div>","0","","","","","","","","","","","","","","","","","","","","","","","","",""
"","","","","","single-stim-button","170","292279","0.0-2.0-37.0-0.0","615365211632e1a6ddf41008","E1","batch5","","3458","tol_tohand","","","","tol_peg_3","3458","3458","0","[[3,0,0],[1,0],[0]]","1","[[3,0,0],[2,1],[0]]","9","0","","","","","","3","","","","","","","","",""
"","","","","","single-stim-button","171","293122","0.0-2.0-37.0-1.0","615365211632e1a6ddf41008","E1","batch5","","840","tol_toboard","","","","tol_peg_1","840","840","0","[[3,2,0],[1,0],[0]]","1","[[3,0,0],[2,1],[0]]","9","0","","","","","","3","","","","","","","","",""
"","","","","","single-stim-button","172","293533","0.0-2.0-37.1-0.1","615365211632e1a6ddf41008","E1","batch5","","410","tol_tohand","","","","tol_peg_2","410","410","0","[[3,2,0],[0,0],[0]]","2","[[3,0,0],[2,1],[0]]","9","0","","","","","","3","","","","","","","","",""
"","","","","","single-stim-button","173","293958","0.0-2.0-37.1-1.1","615365211632e1a6ddf41008","E1","batch5","","423","tol_toboard","","","","tol_peg_3","423","423","0","[[3,2,0],[0,0],[1]]","2","[[3,0,0],[2,1],[0]]","9","0","","","","","","3","","","","","","","","",""
"","","","","","single-stim-button","174","294443","0.0-2.0-37.2-0.2","615365211632e1a6ddf41008","E1","batch5","","484","tol_tohand","","","","tol_peg_1","484","484","0","[[3,0,0],[0,0],[1]]","3","[[3,0,0],[2,1],[0]]","9","0","","","","","","3","","","","","","","","",""
"","","","","","single-stim-button","175","294939","0.0-2.0-37.2-1.2","615365211632e1a6ddf41008","E1","batch5","","494","tol_toboard","","","","tol_peg_2","494","494","0","[[3,0,0],[2,0],[1]]","3","[[3,0,0],[2,1],[0]]","9","0","","","","","","3","","","","","","","","",""
"","","","","","single-stim-button","176","295350","0.0-2.0-37.3-0.3","615365211632e1a6ddf41008","E1","batch5","","410","tol_tohand","","","","tol_peg_3","410","410","0","[[3,0,0],[2,0],[0]]","4","[[3,0,0],[2,1],[0]]","9","0","","","","","","3","","","","","","","","",""
"","","","","","single-stim-button","177","295826","0.0-2.0-37.3-1.3","615365211632e1a6ddf41008","E1","batch5","","476","tol_toboard","","","","tol_peg_2","476","476","0","[[3,0,0],[2,1],[0]]","4","[[3,0,0],[2,1],[0]]","9","0","","","","","","3","","","","","","","","",""
"","","","","","poldrack-single-stim","178","296828","0.0-2.0-38.0","615365211632e1a6ddf41008","E1","batch5","","-1","tol_feedback","","","true","","1000","1000","500","","","","","","-1","none","true","3458","4762","","","","","","","","","",""
"","","","","","html-button-response","179","297604","0.0-2.0-39.0","615365211632e1a6ddf41008","E1","batch5","","774.8999999761581","tol_trial_num","<div class = centerbox><p class = center-block-text>problem <strong>11</strong> out of 25 problems</p></div>","0","","","","","","","","","","","","","","","","","","","","","","","","",""
"","","","","","single-stim-button","180","299627","0.0-2.0-40.0-0.0","615365211632e1a6ddf41008","E1","batch5","","2022","tol_tohand","","","","tol_peg_1","2022","2022","0","[[1,0,0],[3,0],[0]]","1","[[2,0,0],[1,3],[0]]","10","0","","","","","","6","","","","","","","","",""
"","","","","","single-stim-button","181","303814","0.0-2.0-40.0-1.0","615365211632e1a6ddf41008","E1","batch5","","4185","tol_toboard","","","","tol_peg_3","4185","4185","0","[[1,0,0],[3,0],[2]]","1","[[2,0,0],[1,3],[0]]","10","0","","","","","","6","","","","","","","","",""
"","","","","","single-stim-button","182","304761","0.0-2.0-40.1-0.1","615365211632e1a6ddf41008","E1","batch5","","946","tol_tohand","","","","tol_peg_1","946","946","0","[[0,0,0],[3,0],[2]]","2","[[2,0,0],[1,3],[0]]","10","0","","","","","","6","","","","","","","","",""
"","","","","","single-stim-button","183","305264","0.0-2.0-40.1-1.1","615365211632e1a6ddf41008","E1","batch5","","502","tol_toboard","","","","tol_peg_2","502","502","0","[[0,0,0],[3,1],[2]]","2","[[2,0,0],[1,3],[0]]","10","0","","","","","","6","","","","","","","","",""
"","","","","","single-stim-button","184","305703","0.0-2.0-40.2-0.2","615365211632e1a6ddf41008","E1","batch5","","437","tol_tohand","","","","tol_peg_3","437","437","0","[[0,0,0],[3,1],[0]]","3","[[2,0,0],[1,3],[0]]","10","0","","","","","","6","","","","","","","","",""
"","","","","","single-stim-button","185","306808","0.0-2.0-40.2-1.2","615365211632e1a6ddf41008","E1","batch5","","1105","tol_toboard","","","","tol_peg_1","1105","1105","0","[[2,0,0],[3,1],[0]]","3","[[2,0,0],[1,3],[0]]","10","0","","","","","","6","","","","","","","","",""
"","","","","","single-stim-button","186","307292","0.0-2.0-40.3-0.3","615365211632e1a6ddf41008","E1","batch5","","482","tol_tohand","","","","tol_peg_2","482","482","0","[[2,0,0],[3,0],[0]]","4","[[2,0,0],[1,3],[0]]","10","0","","","","","","6","","","","","","","","",""
"","","","","","single-stim-button","187","308645","0.0-2.0-40.3-1.3","615365211632e1a6ddf41008","E1","batch5","","1351","tol_toboard","","","","tol_peg_3","1351","1351","0","[[2,0,0],[3,0],[1]]","4","[[2,0,0],[1,3],[0]]","10","0","","","","","","6","","","","","","","","",""
"","","","","","single-stim-button","188","309097","0.0-2.0-40.4-0.4","615365211632e1a6ddf41008","E1","batch5","","449","tol_tohand","","","","tol_peg_2","449","449","0","[[2,0,0],[0,0],[1]]","5","[[2,0,0],[1,3],[0]]","10","0","","","","","","6","","","","","","","","",""
"","","","","","single-stim-button","189","309460","0.0-2.0-40.4-1.4","615365211632e1a6ddf41008","E1","batch5","","363","tol_toboard","","","","tol_peg_1","363","363","0","[[2,3,0],[0,0],[1]]","5","[[2,0,0],[1,3],[0]]","10","0","","","","","","6","","","","","","","","",""
"","","","","","single-stim-button","190","310017","0.0-2.0-40.5-0.5","615365211632e1a6ddf41008","E1","batch5","","556","tol_tohand","","","","tol_peg_3","556","556","0","[[2,3,0],[0,0],[0]]","6","[[2,0,0],[1,3],[0]]","10","0","","","","","","6","","","","","","","","",""
"","","","","","single-stim-button","191","310756","0.0-2.0-40.5-1.5","615365211632e1a6ddf41008","E1","batch5","","737","tol_toboard","","","","tol_peg_2","737","737","0","[[2,3,0],[1,0],[0]]","6","[[2,0,0],[1,3],[0]]","10","0","","","","","","6","","","","","","","","",""
"","","","","","single-stim-button","192","311305","0.0-2.0-40.6-0.6","615365211632e1a6ddf41008","E1","batch5","","547","tol_tohand","","","","tol_peg_1","547","547","0","[[2,0,0],[1,0],[0]]","7","[[2,0,0],[1,3],[0]]","10","0","","","","","","6","","","","","","","","",""
"","","","","","single-stim-button","193","311814","0.0-2.0-40.6-1.6","615365211632e1a6ddf41008","E1","batch5","","509","tol_toboard","","","","tol_peg_2","509","509","0","[[2,0,0],[1,3],[0]]","7","[[2,0,0],[1,3],[0]]","10","0","","","","","","6","","","","","","","","",""
"","","","","","poldrack-single-stim","194","312818","0.0-2.0-41.0","615365211632e1a6ddf41008","E1","batch5","","-1","tol_feedback","","","true","","1000","1000","500","","","","","","-1","none","true","2022","5439","","","","","","","","","",""
"","","","","","html-button-response","195","313432","0.0-2.0-42.0","615365211632e1a6ddf41008","E1","batch5","","613.1000000238419","tol_trial_num","<div class = centerbox><p class = center-block-text>problem <strong>12</strong> out of 25 problems</p></div>","0","","","","","","","","","","","","","","","","","","","","","","","","",""
"","","","","","single-stim-button","196","319108","0.0-2.0-43.0-0.0","615365211632e1a6ddf41008","E1","batch5","","5674","tol_tohand","","","","tol_peg_2","5674","5674","0","[[1,2,0],[0,0],[0]]","1","[[2,3,0],[0,0],[1]]","11","0","","","","","","4","","","","","","","","",""
"","","","","","single-stim-button","197","320166","0.0-2.0-43.0-1.0","615365211632e1a6ddf41008","E1","batch5","","1057","tol_toboard","","","","tol_peg_2","1057","1057","0","[[1,2,0],[3,0],[0]]","1","[[2,3,0],[0,0],[1]]","11","0","","","","","","4","","","","","","","","",""
"","","","","","single-stim-button","198","320638","0.0-2.0-43.1-0.1","615365211632e1a6ddf41008","E1","batch5","","471","tol_tohand","","","","tol_peg_1","471","471","0","[[1,0,0],[3,0],[0]]","2","[[2,3,0],[0,0],[1]]","11","0","","","","","","4","","","","","","","","",""
"","","","","","single-stim-button","199","321063","0.0-2.0-43.1-1.1","615365211632e1a6ddf41008","E1","batch5","","424","tol_toboard","","","","tol_peg_2","424","424","0","[[1,0,0],[3,2],[0]]","2","[[2,3,0],[0,0],[1]]","11","0","","","","","","4","","","","","","","","",""
"","","","","","single-stim-button","200","321481","0.0-2.0-43.2-0.2","615365211632e1a6ddf41008","E1","batch5","","417","tol_tohand","","","","tol_peg_1","417","417","0","[[0,0,0],[3,2],[0]]","3","[[2,3,0],[0,0],[1]]","11","0","","","","","","4","","","","","","","","",""
"","","","","","single-stim-button","201","322447","0.0-2.0-43.2-1.2","615365211632e1a6ddf41008","E1","batch5","","965","tol_toboard","","","","tol_peg_3","965","965","0","[[0,0,0],[3,2],[1]]","3","[[2,3,0],[0,0],[1]]","11","0","","","","","","4","","","","","","","","",""
"","","","","","single-stim-button","202","326993","0.0-2.0-43.3-0.3","615365211632e1a6ddf41008","E1","batch5","","4544","tol_tohand","","","","tol_peg_2","4544","4544","0","[[0,0,0],[3,0],[1]]","4","[[2,3,0],[0,0],[1]]","11","0","","","","","","4","","","","","","","","",""
"","","","","","single-stim-button","203","327594","0.0-2.0-43.3-1.3","615365211632e1a6ddf41008","E1","batch5","","600","tol_toboard","","","","tol_peg_1","600","600","0","[[2,0,0],[3,0],[1]]","4","[[2,3,0],[0,0],[1]]","11","0","","","","","","4","","","","","","","","",""
"","","","","","single-stim-button","204","328065","0.0-2.0-43.4-0.4","615365211632e1a6ddf41008","E1","batch5","","469","tol_tohand","","","","tol_peg_2","469","469","0","[[2,0,0],[0,0],[1]]","5","[[2,3,0],[0,0],[1]]","11","0","","","","","","4","","","","","","","","",""
"","","","","","single-stim-button","205","328718","0.0-2.0-43.4-1.4","615365211632e1a6ddf41008","E1","batch5","","652","tol_toboard","","","","tol_peg_1","652","652","0","[[2,3,0],[0,0],[1]]","5","[[2,3,0],[0,0],[1]]","11","0","","","","","","4","","","","","","","","",""
"","","","","","poldrack-single-stim","206","329720","0.0-2.0-44.0","615365211632e1a6ddf41008","E1","batch5","","-1","tol_feedback","","","true","","1000","1000","500","","","","","","-1","none","true","5674","11575","","","","","","","","","",""
"","","","","","html-button-response","207","332528","0.0-2.0-45.0","615365211632e1a6ddf41008","E1","batch5","","2806","tol_trial_num","<div class = centerbox><p class = center-block-text>problem <strong>13</strong> out of 25 problems</p></div>","0","","","","","","","","","","","","","","","","","","","","","","","","",""
"","","","","","single-stim-button","208","342897","0.0-2.0-46.0-0.0","615365211632e1a6ddf41008","E1","batch5","","10367","tol_tohand","","","","tol_peg_2","10367","10367","0","[[1,2,0],[0,0],[0]]","1","[[0,0,0],[2,3],[1]]","12","0","","","","","","4","","","","","","","","",""
"","","","","","single-stim-button","209","343302","0.0-2.0-46.0-1.0","615365211632e1a6ddf41008","E1","batch5","","403","tol_toboard","","","","tol_peg_3","403","403","0","[[1,2,0],[0,0],[3]]","1","[[0,0,0],[2,3],[1]]","12","0","","","","","","4","","","","","","","","",""
"","","","","","single-stim-button","210","343772","0.0-2.0-46.1-0.1","615365211632e1a6ddf41008","E1","batch5","","469","tol_tohand","","","","tol_peg_1","469","469","0","[[1,0,0],[0,0],[3]]","2","[[0,0,0],[2,3],[1]]","12","0","","","","","","4","","","","","","","","",""
"","","","","","single-stim-button","211","344165","0.0-2.0-46.1-1.1","615365211632e1a6ddf41008","E1","batch5","","391","tol_toboard","","","","tol_peg_2","391","391","0","[[1,0,0],[2,0],[3]]","2","[[0,0,0],[2,3],[1]]","12","0","","","","","","4","","","","","","","","",""
"","","","","","single-stim-button","212","344570","0.0-2.0-46.2-0.2","615365211632e1a6ddf41008","E1","batch5","","404","tol_tohand","","","","tol_peg_3","404","404","0","[[1,0,0],[2,0],[0]]","3","[[0,0,0],[2,3],[1]]","12","0","","","","","","4","","","","","","","","",""
"","","","","","single-stim-button","213","344949","0.0-2.0-46.2-1.2","615365211632e1a6ddf41008","E1","batch5","","377","tol_toboard","","","","tol_peg_2","377","377","0","[[1,0,0],[2,3],[0]]","3","[[0,0,0],[2,3],[1]]","12","0","","","","","","4","","","","","","","","",""
"","","","","","single-stim-button","214","345703","0.0-2.0-46.3-0.3","615365211632e1a6ddf41008","E1","batch5","","752","tol_tohand","","","","tol_peg_1","752","752","0","[[0,0,0],[2,3],[0]]","4","[[0,0,0],[2,3],[1]]","12","0","","","","","","4","","","","","","","","",""
"","","","","","single-stim-button","215","346534","0.0-2.0-46.3-1.3","615365211632e1a6ddf41008","E1","batch5","","830","tol_toboard","","","","tol_peg_3","830","830","0","[[0,0,0],[2,3],[1]]","4","[[0,0,0],[2,3],[1]]","12","0","","","","","","4","","","","","","","","",""
"","","","","","poldrack-single-stim","216","347537","0.0-2.0-47.0","615365211632e1a6ddf41008","E1","batch5","","-1","tol_feedback","","","true","","1000","1000","500","","","","","","-1","none","true","10367","11992","","","","","","","","","",""
"","","","","","html-button-response","217","350305","0.0-2.0-48.0","615365211632e1a6ddf41008","E1","batch5","","2767","attention_check","<p class = block-text>How many balls are in your board<br></p>","1","true","","","","","","","","","","","","","","","","","","","","","","","",""
"","","","","","html-button-response","218","351168","0.0-2.0-49.0","615365211632e1a6ddf41008","E1","batch5","","860.6000000238419","tol_trial_num","<div class = centerbox><p class = center-block-text>problem <strong>14</strong> out of 25 problems</p></div>","0","","","","","","","","","","","","","","","","","","","","","","","","",""
"","","","","","single-stim-button","219","356677","0.0-2.0-50.0-0.0","615365211632e1a6ddf41008","E1","batch5","","5508","tol_tohand","","","","tol_peg_1","5508","5508","0","[[2,0,0],[3,0],[0]]","1","[[1,2,0],[3,0],[0]]","13","0","","","","","","4","","","","","","","","",""
"","","","","","single-stim-button","220","357284","0.0-2.0-50.0-1.0","615365211632e1a6ddf41008","E1","batch5","","606","tol_toboard","","","","tol_peg_3","606","606","0","[[2,0,0],[3,0],[1]]","1","[[1,2,0],[3,0],[0]]","13","0","","","","","","4","","","","","","","","",""
"","","","","","single-stim-button","221","357828","0.0-2.0-50.1-0.1","615365211632e1a6ddf41008","E1","batch5","","542","tol_tohand","","","","tol_peg_1","542","542","0","[[0,0,0],[3,0],[1]]","2","[[1,2,0],[3,0],[0]]","13","0","","","","","","4","","","","","","","","",""
"","","","","","single-stim-button","222","358511","0.0-2.0-50.1-1.1","615365211632e1a6ddf41008","E1","batch5","","683","tol_toboard","","","","tol_peg_2","683","683","0","[[0,0,0],[3,2],[1]]","2","[[1,2,0],[3,0],[0]]","13","0","","","","","","4","","","","","","","","",""
"","","","","","single-stim-button","223","359041","0.0-2.0-50.2-0.2","615365211632e1a6ddf41008","E1","batch5","","529","tol_tohand","","","","tol_peg_3","529","529","0","[[0,0,0],[3,2],[0]]","3","[[1,2,0],[3,0],[0]]","13","0","","","","","","4","","","","","","","","",""
"","","","","","single-stim-button","224","359683","0.0-2.0-50.2-1.2","615365211632e1a6ddf41008","E1","batch5","","641","tol_toboard","","","","tol_peg_1","641","641","0","[[1,0,0],[3,2],[0]]","3","[[1,2,0],[3,0],[0]]","13","0","","","","","","4","","","","","","","","",""
"","","","","","single-stim-button","225","360088","0.0-2.0-50.3-0.3","615365211632e1a6ddf41008","E1","batch5","","404","tol_tohand","","","","tol_peg_2","404","404","0","[[1,0,0],[3,0],[0]]","4","[[1,2,0],[3,0],[0]]","13","0","","","","","","4","","","","","","","","",""
"","","","","","single-stim-button","226","360541","0.0-2.0-50.3-1.3","615365211632e1a6ddf41008","E1","batch5","","451","tol_toboard","","","","tol_peg_1","451","451","0","[[1,2,0],[3,0],[0]]","4","[[1,2,0],[3,0],[0]]","13","0","","","","","","4","","","","","","","","",""
"","","","","","poldrack-single-stim","227","361543","0.0-2.0-51.0","615365211632e1a6ddf41008","E1","batch5","","-1","tol_feedback","","","true","","1000","1000","500","","","","","","-1","none","true","5508","6983","","","","","","","","","",""
"","","","","","html-button-response","228","362445","0.0-2.0-52.0","615365211632e1a6ddf41008","E1","batch5","","900.4000000953674","tol_trial_num","<div class = centerbox><p class = center-block-text>problem <strong>15</strong> out of 25 problems</p></div>","0","","","","","","","","","","","","","","","","","","","","","","","","",""
"","","","","","single-stim-button","229","365325","0.0-2.0-53.0-0.0","615365211632e1a6ddf41008","E1","batch5","","2879","tol_tohand","","","","tol_peg_1","2879","2879","0","[[1,0,0],[3,0],[0]]","1","[[2,0,0],[3,0],[1]]","14","0","","","","","","3","","","","","","","","",""
"","","","","","single-stim-button","230","365828","0.0-2.0-53.0-1.0","615365211632e1a6ddf41008","E1","batch5","","502","tol_toboard","","","","tol_peg_2","502","502","0","[[1,0,0],[3,2],[0]]","1","[[2,0,0],[3,0],[1]]","14","0","","","","","","3","","","","","","","","",""
"","","","","","single-stim-button","231","366345","0.0-2.0-53.1-0.1","615365211632e1a6ddf41008","E1","batch5","","516","tol_tohand","","","","tol_peg_1","516","516","0","[[0,0,0],[3,2],[0]]","2","[[2,0,0],[3,0],[1]]","14","0","","","","","","3","","","","","","","","",""
"","","","","","single-stim-button","232","367308","0.0-2.0-53.1-1.1","615365211632e1a6ddf41008","E1","batch5","","961","tol_toboard","","","","tol_peg_3","961","961","0","[[0,0,0],[3,2],[1]]","2","[[2,0,0],[3,0],[1]]","14","0","","","","","","3","","","","","","","","",""
"","","","","","single-stim-button","233","367765","0.0-2.0-53.2-0.2","615365211632e1a6ddf41008","E1","batch5","","457","tol_tohand","","","","tol_peg_2","457","457","0","[[0,0,0],[3,0],[1]]","3","[[2,0,0],[3,0],[1]]","14","0","","","","","","3","","","","","","","","",""
"","","","","","single-stim-button","234","368613","0.0-2.0-53.2-1.2","615365211632e1a6ddf41008","E1","batch5","","847","tol_toboard","","","","tol_peg_1","847","847","0","[[2,0,0],[3,0],[1]]","3","[[2,0,0],[3,0],[1]]","14","0","","","","","","3","","","","","","","","",""
"","","","","","poldrack-single-stim","235","369615","0.0-2.0-54.0","615365211632e1a6ddf41008","E1","batch5","","-1","tol_feedback","","","true","","1000","1000","500","","","","","","-1","none","true","2879","3852","","","","","","","","","",""
"","","","","","html-button-response","236","370254","0.0-2.0-55.0","615365211632e1a6ddf41008","E1","batch5","","634.6000000238419","tol_trial_num","<div class = centerbox><p class = center-block-text>problem <strong>16</strong> out of 25 problems</p></div>","0","","","","","","","","","","","","","","","","","","","","","","","","",""
"","","","","","single-stim-button","237","374672","0.0-2.0-56.0-0.0","615365211632e1a6ddf41008","E1","batch5","","4417","tol_tohand","","","","tol_peg_3","4417","4417","0","[[0,0,0],[2,3],[0]]","1","[[2,3,0],[1,0],[0]]","15","0","","","","","","7","","","","","","","","",""
"","","","","","single-stim-button","238","375883","0.0-2.0-56.0-1.0","615365211632e1a6ddf41008","E1","batch5","","1209","tol_toboard","","","","tol_peg_1","1209","1209","0","[[1,0,0],[2,3],[0]]","1","[[2,3,0],[1,0],[0]]","15","0","","","","","","7","","","","","","","","",""
"","","","","","single-stim-button","239","376335","0.0-2.0-56.1-0.1","615365211632e1a6ddf41008","E1","batch5","","450","tol_tohand","","","","tol_peg_2","450","450","0","[[1,0,0],[2,0],[0]]","2","[[2,3,0],[1,0],[0]]","15","0","","","","","","7","","","","","","","","",""
"","","","","","single-stim-button","240","376795","0.0-2.0-56.1-1.1","615365211632e1a6ddf41008","E1","batch5","","459","tol_toboard","","","","tol_peg_3","459","459","0","[[1,0,0],[2,0],[3]]","2","[[2,3,0],[1,0],[0]]","15","0","","","","","","7","","","","","","","","",""
"","","","","","single-stim-button","241","377394","0.0-2.0-56.2-0.2","615365211632e1a6ddf41008","E1","batch5","","598","tol_tohand","","","","tol_peg_1","598","598","0","[[0,0,0],[2,0],[3]]","3","[[2,3,0],[1,0],[0]]","15","0","","","","","","7","","","","","","","","",""
"","","","","","single-stim-button","242","377754","0.0-2.0-56.2-1.2","615365211632e1a6ddf41008","E1","batch5","","359","tol_toboard","","","","tol_peg_2","359","359","0","[[0,0,0],[2,1],[3]]","3","[[2,3,0],[1,0],[0]]","15","0","","","","","","7","","","","","","","","",""
"","","","","","single-stim-button","243","378278","0.0-2.0-56.3-0.3","615365211632e1a6ddf41008","E1","batch5","","523","tol_tohand","","","","tol_peg_3","523","523","0","[[0,0,0],[2,1],[0]]","4","[[2,3,0],[1,0],[0]]","15","0","","","","","","7","","","","","","","","",""
"","","","","","single-stim-button","244","378687","0.0-2.0-56.3-1.3","615365211632e1a6ddf41008","E1","batch5","","408","tol_toboard","","","","tol_peg_1","408","408","0","[[3,0,0],[2,1],[0]]","4","[[2,3,0],[1,0],[0]]","15","0","","","","","","7","","","","","","","","",""
"","","","","","single-stim-button","245","382332","0.0-2.0-56.4-0.4","615365211632e1a6ddf41008","E1","batch5","","3644","tol_tohand","","","","tol_peg_2","3644","3644","0","[[3,0,0],[2,0],[0]]","5","[[2,3,0],[1,0],[0]]","15","0","","","","","","7","","","","","","","","",""
"","","","","","single-stim-button","246","382880","0.0-2.0-56.4-1.4","615365211632e1a6ddf41008","E1","batch5","","547","tol_toboard","","","","tol_peg_3","547","547","0","[[3,0,0],[2,0],[1]]","5","[[2,3,0],[1,0],[0]]","15","0","","","","","","7","","","","","","","","",""
"","","","","","single-stim-button","247","386507","0.0-2.0-56.5-0.5","615365211632e1a6ddf41008","E1","batch5","","3626","tol_tohand","","","","tol_peg_3","3626","3626","0","[[3,0,0],[2,0],[0]]","6","[[2,3,0],[1,0],[0]]","15","0","","","","","","7","","","","","","","","",""
"","","","","","single-stim-button","248","387474","0.0-2.0-56.5-1.5","615365211632e1a6ddf41008","E1","batch5","","965","tol_toboard","","","","tol_peg_2","965","965","0","[[3,0,0],[2,1],[0]]","6","[[2,3,0],[1,0],[0]]","15","0","","","","","","7","","","","","","","","",""
"","","","","","single-stim-button","249","387977","0.0-2.0-56.6-0.6","615365211632e1a6ddf41008","E1","batch5","","503","tol_tohand","","","","tol_peg_1","503","503","0","[[0,0,0],[2,1],[0]]","7","[[2,3,0],[1,0],[0]]","15","0","","","","","","7","","","","","","","","",""
"","","","","","single-stim-button","250","388570","0.0-2.0-56.6-1.6","615365211632e1a6ddf41008","E1","batch5","","592","tol_toboard","","","","tol_peg_3","592","592","0","[[0,0,0],[2,1],[3]]","7","[[2,3,0],[1,0],[0]]","15","0","","","","","","7","","","","","","","","",""
"","","","","","single-stim-button","251","389435","0.0-2.0-56.7-0.7","615365211632e1a6ddf41008","E1","batch5","","863","tol_tohand","","","","tol_peg_2","863","863","0","[[0,0,0],[2,0],[3]]","8","[[2,3,0],[1,0],[0]]","15","0","","","","","","7","","","","","","","","",""
"","","","","","single-stim-button","252","389932","0.0-2.0-56.7-1.7","615365211632e1a6ddf41008","E1","batch5","","497","tol_toboard","","","","tol_peg_1","497","497","0","[[1,0,0],[2,0],[3]]","8","[[2,3,0],[1,0],[0]]","15","0","","","","","","7","","","","","","","","",""
"","","","","","single-stim-button","253","390331","0.0-2.0-56.8-0.8","615365211632e1a6ddf41008","E1","batch5","","398","tol_tohand","","","","tol_peg_2","398","398","0","[[1,0,0],[0,0],[3]]","9","[[2,3,0],[1,0],[0]]","15","0","","","","","","7","","","","","","","","",""
"","","","","","single-stim-button","254","390793","0.0-2.0-56.8-1.8","615365211632e1a6ddf41008","E1","batch5","","461","tol_toboard","","","","tol_peg_1","461","461","0","[[1,2,0],[0,0],[3]]","9","[[2,3,0],[1,0],[0]]","15","0","","","","","","7","","","","","","","","",""
"","","","","","single-stim-button","255","400429","0.0-2.0-56.9-0.9","615365211632e1a6ddf41008","E1","batch5","","9634","tol_tohand","","","","tol_peg_3","9634","9634","0","[[1,2,0],[0,0],[0]]","10","[[2,3,0],[1,0],[0]]","15","0","","","","","","7","","","","","","","","",""
"","","","","","single-stim-button","256","401757","0.0-2.0-56.9-1.9","615365211632e1a6ddf41008","E1","batch5","","1327","tol_toboard","","","","tol_peg_2","1327","1327","0","[[1,2,0],[3,0],[0]]","10","[[2,3,0],[1,0],[0]]","15","0","","","","","","7","","","","","","","","",""
"","","","","","single-stim-button","257","402294","0.0-2.0-56.10-0.10","615365211632e1a6ddf41008","E1","batch5","","536","tol_tohand","","","","tol_peg_1","536","536","0","[[1,0,0],[3,0],[0]]","11","[[2,3,0],[1,0],[0]]","15","0","","","","","","7","","","","","","","","",""
"","","","","","single-stim-button","258","402817","0.0-2.0-56.10-1.10","615365211632e1a6ddf41008","E1","batch5","","521","tol_toboard","","","","tol_peg_3","521","521","0","[[1,0,0],[3,0],[2]]","11","[[2,3,0],[1,0],[0]]","15","0","","","","","","7","","","","","","","","",""
"","","","","","single-stim-button","259","403490","0.0-2.0-56.11-0.11","615365211632e1a6ddf41008","E1","batch5","","673","tol_tohand","","","","tol_peg_1","673","673","0","[[0,0,0],[3,0],[2]]","12","[[2,3,0],[1,0],[0]]","15","0","","","","","","7","","","","","","","","",""
"","","","","","single-stim-button","260","403903","0.0-2.0-56.11-1.11","615365211632e1a6ddf41008","E1","batch5","","412","tol_toboard","","","","tol_peg_2","412","412","0","[[0,0,0],[3,1],[2]]","12","[[2,3,0],[1,0],[0]]","15","0","","","","","","7","","","","","","","","",""
"","","","","","single-stim-button","261","404380","0.0-2.0-56.12-0.12","615365211632e1a6ddf41008","E1","batch5","","475","tol_tohand","","","","tol_peg_3","475","475","0","[[0,0,0],[3,1],[0]]","13","[[2,3,0],[1,0],[0]]","15","0","","","","","","7","","","","","","","","",""
"","","","","","single-stim-button","262","404970","0.0-2.0-56.12-1.12","615365211632e1a6ddf41008","E1","batch5","","589","tol_toboard","","","","tol_peg_1","589","589","0","[[2,0,0],[3,1],[0]]","13","[[2,3,0],[1,0],[0]]","15","0","","","","","","7","","","","","","","","",""
"","","","","","single-stim-button","263","405460","0.0-2.0-56.13-0.13","615365211632e1a6ddf41008","E1","batch5","","489","tol_tohand","","","","tol_peg_2","489","489","0","[[2,0,0],[3,0],[0]]","14","[[2,3,0],[1,0],[0]]","15","0","","","","","","7","","","","","","","","",""
"","","","","","single-stim-button","264","406103","0.0-2.0-56.13-1.13","615365211632e1a6ddf41008","E1","batch5","","642","tol_toboard","","","","tol_peg_3","642","642","0","[[2,0,0],[3,0],[1]]","14","[[2,3,0],[1,0],[0]]","15","0","","","","","","7","","","","","","","","",""
"","","","","","single-stim-button","265","406638","0.0-2.0-56.14-0.14","615365211632e1a6ddf41008","E1","batch5","","534","tol_tohand","","","","tol_peg_2","534","534","0","[[2,0,0],[0,0],[1]]","15","[[2,3,0],[1,0],[0]]","15","0","","","","","","7","","","","","","","","",""
"","","","","","single-stim-button","266","407104","0.0-2.0-56.14-1.14","615365211632e1a6ddf41008","E1","batch5","","465","tol_toboard","","","","tol_peg_1","465","465","0","[[2,3,0],[0,0],[1]]","15","[[2,3,0],[1,0],[0]]","15","0","","","","","","7","","","","","","","","",""
"","","","","","single-stim-button","267","407548","0.0-2.0-56.15-0.15","615365211632e1a6ddf41008","E1","batch5","","442","tol_tohand","","","","tol_peg_3","442","442","0","[[2,3,0],[0,0],[0]]","16","[[2,3,0],[1,0],[0]]","15","0","","","","","","7","","","","","","","","",""
"","","","","","single-stim-button","268","407993","0.0-2.0-56.15-1.15","615365211632e1a6ddf41008","E1","batch5","","445","tol_toboard","","","","tol_peg_2","445","445","0","[[2,3,0],[1,0],[0]]","16","[[2,3,0],[1,0],[0]]","15","0","","","","","","7","","","","","","","","",""
"","","","","","poldrack-single-stim","269","408997","0.0-2.0-57.0","615365211632e1a6ddf41008","E1","batch5","","-1","tol_feedback","","","true","","1000","1000","500","","","","","","-1","none","true","4417","27805","","","","","","","","","",""
"","","","","","html-button-response","270","410244","0.0-2.0-58.0","615365211632e1a6ddf41008","E1","batch5","","1245.8999999761581","tol_trial_num","<div class = centerbox><p class = center-block-text>problem <strong>17</strong> out of 25 problems</p></div>","0","","","","","","","","","","","","","","","","","","","","","","","","",""
"","","","","","single-stim-button","271","417440","0.0-2.0-59.0-0.0","615365211632e1a6ddf41008","E1","batch5","","7194","tol_tohand","","","","tol_peg_2","7194","7194","0","[[1,2,0],[0,0],[0]]","1","[[3,1,0],[2,0],[0]]","16","0","","","","","","5","","","","","","","","",""
"","","","","","single-stim-button","272","417831","0.0-2.0-59.0-1.0","615365211632e1a6ddf41008","E1","batch5","","391","tol_toboard","","","","tol_peg_3","391","391","0","[[1,2,0],[0,0],[3]]","1","[[3,1,0],[2,0],[0]]","16","0","","","","","","5","","","","","","","","",""
"","","","","","single-stim-button","273","418467","0.0-2.0-59.1-0.1","615365211632e1a6ddf41008","E1","batch5","","634","tol_tohand","","","","tol_peg_1","634","634","0","[[1,0,0],[0,0],[3]]","2","[[3,1,0],[2,0],[0]]","16","0","","","","","","5","","","","","","","","",""
"","","","","","single-stim-button","274","418845","0.0-2.0-59.1-1.1","615365211632e1a6ddf41008","E1","batch5","","378","tol_toboard","","","","tol_peg_2","378","378","0","[[1,0,0],[2,0],[3]]","2","[[3,1,0],[2,0],[0]]","16","0","","","","","","5","","","","","","","","",""
"","","","","","single-stim-button","275","419265","0.0-2.0-59.2-0.2","615365211632e1a6ddf41008","E1","batch5","","419","tol_tohand","","","","tol_peg_1","419","419","0","[[0,0,0],[2,0],[3]]","3","[[3,1,0],[2,0],[0]]","16","0","","","","","","5","","","","","","","","",""
"","","","","","single-stim-button","276","419670","0.0-2.0-59.2-1.2","615365211632e1a6ddf41008","E1","batch5","","404","tol_toboard","","","","tol_peg_2","404","404","0","[[0,0,0],[2,1],[3]]","3","[[3,1,0],[2,0],[0]]","16","0","","","","","","5","","","","","","","","",""
"","","","","","single-stim-button","277","420278","0.0-2.0-59.3-0.3","615365211632e1a6ddf41008","E1","batch5","","607","tol_tohand","","","","tol_peg_3","607","607","0","[[0,0,0],[2,1],[0]]","4","[[3,1,0],[2,0],[0]]","16","0","","","","","","5","","","","","","","","",""
"","","","","","single-stim-button","278","420806","0.0-2.0-59.3-1.3","615365211632e1a6ddf41008","E1","batch5","","526","tol_toboard","","","","tol_peg_1","526","526","0","[[3,0,0],[2,1],[0]]","4","[[3,1,0],[2,0],[0]]","16","0","","","","","","5","","","","","","","","",""
"","","","","","single-stim-button","279","421406","0.0-2.0-59.4-0.4","615365211632e1a6ddf41008","E1","batch5","","599","tol_tohand","","","","tol_peg_2","599","599","0","[[3,0,0],[2,0],[0]]","5","[[3,1,0],[2,0],[0]]","16","0","","","","","","5","","","","","","","","",""
"","","","","","single-stim-button","280","421924","0.0-2.0-59.4-1.4","615365211632e1a6ddf41008","E1","batch5","","516","tol_toboard","","","","tol_peg_1","516","516","0","[[3,1,0],[2,0],[0]]","5","[[3,1,0],[2,0],[0]]","16","0","","","","","","5","","","","","","","","",""
"","","","","","poldrack-single-stim","281","422927","0.0-2.0-60.0","615365211632e1a6ddf41008","E1","batch5","","-1","tol_feedback","","","true","","1000","1000","500","","","","","","-1","none","true","7194","9453","","","","","","","","","",""
"","","","","","html-button-response","282","423905","0.0-2.0-61.0","615365211632e1a6ddf41008","E1","batch5","","976.8000000715256","tol_trial_num","<div class = centerbox><p class = center-block-text>problem <strong>18</strong> out of 25 problems</p></div>","0","","","","","","","","","","","","","","","","","","","","","","","","",""
"","","","","","single-stim-button","283","424949","0.0-2.0-62.0-0.0","615365211632e1a6ddf41008","E1","batch5","","1043","tol_tohand","","","","tol_peg_2","1043","1043","0","[[1,2,0],[0,0],[0]]","1","[[3,0,0],[2,0],[1]]","17","0","","","","","","5","","","","","","","","",""
"","","","","","single-stim-button","284","426162","0.0-2.0-62.0-1.0","615365211632e1a6ddf41008","E1","batch5","","1213","tol_toboard","","","","tol_peg_2","1213","1213","0","[[1,2,0],[3,0],[0]]","1","[[3,0,0],[2,0],[1]]","17","0","","","","","","5","","","","","","","","",""
"","","","","","single-stim-button","285","427637","0.0-2.0-62.1-0.1","615365211632e1a6ddf41008","E1","batch5","","1472","tol_tohand","","","","tol_peg_1","1472","1472","0","[[1,0,0],[3,0],[0]]","2","[[3,0,0],[2,0],[1]]","17","0","","","","","","5","","","","","","","","",""
"","","","","","single-stim-button","286","428139","0.0-2.0-62.1-1.1","615365211632e1a6ddf41008","E1","batch5","","501","tol_toboard","","","","tol_peg_2","501","501","0","[[1,0,0],[3,2],[0]]","2","[[3,0,0],[2,0],[1]]","17","0","","","","","","5","","","","","","","","",""
"","","","","","single-stim-button","287","428635","0.0-2.0-62.2-0.2","615365211632e1a6ddf41008","E1","batch5","","495","tol_tohand","","","","tol_peg_1","495","495","0","[[0,0,0],[3,2],[0]]","3","[[3,0,0],[2,0],[1]]","17","0","","","","","","5","","","","","","","","",""
"","","","","","single-stim-button","288","430406","0.0-2.0-62.2-1.2","615365211632e1a6ddf41008","E1","batch5","","1770","tol_toboard","","","","tol_peg_3","1770","1770","0","[[0,0,0],[3,2],[1]]","3","[[3,0,0],[2,0],[1]]","17","0","","","","","","5","","","","","","","","",""
"","","","","","single-stim-button","289","431765","0.0-2.0-62.3-0.3","615365211632e1a6ddf41008","E1","batch5","","1358","tol_tohand","","","","tol_peg_2","1358","1358","0","[[0,0,0],[3,0],[1]]","4","[[3,0,0],[2,0],[1]]","17","0","","","","","","5","","","","","","","","",""
"","","","","","single-stim-button","290","432271","0.0-2.0-62.3-1.3","615365211632e1a6ddf41008","E1","batch5","","504","tol_toboard","","","","tol_peg_1","504","504","0","[[2,0,0],[3,0],[1]]","4","[[3,0,0],[2,0],[1]]","17","0","","","","","","5","","","","","","","","",""
"","","","","","single-stim-button","291","435408","0.0-2.0-62.4-0.4","615365211632e1a6ddf41008","E1","batch5","","3136","tol_tohand","","","","tol_peg_3","3136","3136","0","[[2,0,0],[3,0],[0]]","5","[[3,0,0],[2,0],[1]]","17","0","","","","","","5","","","","","","","","",""
"","","","","","single-stim-button","292","436002","0.0-2.0-62.4-1.4","615365211632e1a6ddf41008","E1","batch5","","594","tol_toboard","","","","tol_peg_1","594","594","0","[[2,1,0],[3,0],[0]]","5","[[3,0,0],[2,0],[1]]","17","0","","","","","","5","","","","","","","","",""
"","","","","","single-stim-button","293","437106","0.0-2.0-62.5-0.5","615365211632e1a6ddf41008","E1","batch5","","1103","tol_tohand","","","","tol_peg_2","1103","1103","0","[[2,1,0],[0,0],[0]]","6","[[3,0,0],[2,0],[1]]","17","0","","","","","","5","","","","","","","","",""
"","","","","","single-stim-button","294","438012","0.0-2.0-62.5-1.5","615365211632e1a6ddf41008","E1","batch5","","905","tol_toboard","","","","tol_peg_3","905","905","0","[[2,1,0],[0,0],[3]]","6","[[3,0,0],[2,0],[1]]","17","0","","","","","","5","","","","","","","","",""
"","","","","","single-stim-button","295","446505","0.0-2.0-62.6-0.6","615365211632e1a6ddf41008","E1","batch5","","8491","tol_tohand","","","","tol_peg_1","8491","8491","0","[[2,0,0],[0,0],[3]]","7","[[3,0,0],[2,0],[1]]","17","0","","","","","","5","","","","","","","","",""
"","","","","","single-stim-button","296","447053","0.0-2.0-62.6-1.6","615365211632e1a6ddf41008","E1","batch5","","547","tol_toboard","","","","tol_peg_2","547","547","0","[[2,0,0],[1,0],[3]]","7","[[3,0,0],[2,0],[1]]","17","0","","","","","","5","","","","","","","","",""
"","","","","","single-stim-button","297","450758","0.0-2.0-62.7-0.7","615365211632e1a6ddf41008","E1","batch5","","3704","tol_tohand","","","","tol_peg_1","3704","3704","0","[[0,0,0],[1,0],[3]]","8","[[3,0,0],[2,0],[1]]","17","0","","","","","","5","","","","","","","","",""
"","","","","","single-stim-button","298","451182","0.0-2.0-62.7-1.7","615365211632e1a6ddf41008","E1","batch5","","422","tol_toboard","","","","tol_peg_2","422","422","0","[[0,0,0],[1,2],[3]]","8","[[3,0,0],[2,0],[1]]","17","0","","","","","","5","","","","","","","","",""
"","","","","","single-stim-button","299","451719","0.0-2.0-62.8-0.8","615365211632e1a6ddf41008","E1","batch5","","536","tol_tohand","","","","tol_peg_3","536","536","0","[[0,0,0],[1,2],[0]]","9","[[3,0,0],[2,0],[1]]","17","0","","","","","","5","","","","","","","","",""
"","","","","","single-stim-button","300","452261","0.0-2.0-62.8-1.8","615365211632e1a6ddf41008","E1","batch5","","541","tol_toboard","","","","tol_peg_1","541","541","0","[[3,0,0],[1,2],[0]]","9","[[3,0,0],[2,0],[1]]","17","0","","","","","","5","","","","","","","","",""
"","","","","","single-stim-button","301","452848","0.0-2.0-62.9-0.9","615365211632e1a6ddf41008","E1","batch5","","587","tol_tohand","","","","tol_peg_2","587","587","0","[[3,0,0],[1,0],[0]]","10","[[3,0,0],[2,0],[1]]","17","0","","","","","","5","","","","","","","","",""
"","","","","","single-stim-button","302","453357","0.0-2.0-62.9-1.9","615365211632e1a6ddf41008","E1","batch5","","508","tol_toboard","","","","tol_peg_1","508","508","0","[[3,2,0],[1,0],[0]]","10","[[3,0,0],[2,0],[1]]","17","0","","","","","","5","","","","","","","","",""
"","","","","","single-stim-button","303","453801","0.0-2.0-62.10-0.10","615365211632e1a6ddf41008","E1","batch5","","443","tol_tohand","","","","tol_peg_2","443","443","0","[[3,2,0],[0,0],[0]]","11","[[3,0,0],[2,0],[1]]","17","0","","","","","","5","","","","","","","","",""
"","","","","","single-stim-button","304","454832","0.0-2.0-62.10-1.10","615365211632e1a6ddf41008","E1","batch5","","1030","tol_toboard","","","","tol_peg_3","1030","1030","0","[[3,2,0],[0,0],[1]]","11","[[3,0,0],[2,0],[1]]","17","0","","","","","","5","","","","","","","","",""
"","","","","","single-stim-button","305","455388","0.0-2.0-62.11-0.11","615365211632e1a6ddf41008","E1","batch5","","554","tol_tohand","","","","tol_peg_1","554","554","0","[[3,0,0],[0,0],[1]]","12","[[3,0,0],[2,0],[1]]","17","0","","","","","","5","","","","","","","","",""
"","","","","","single-stim-button","306","455830","0.0-2.0-62.11-1.11","615365211632e1a6ddf41008","E1","batch5","","441","tol_toboard","","","","tol_peg_2","441","441","0","[[3,0,0],[2,0],[1]]","12","[[3,0,0],[2,0],[1]]","17","0","","","","","","5","","","","","","","","",""
"","","","","","poldrack-single-stim","307","456832","0.0-2.0-63.0","615365211632e1a6ddf41008","E1","batch5","","-1","tol_feedback","","","true","","1000","1000","500","","","","","","-1","none","true","1043","22922","","","","","","","","","",""
"","","","","","html-button-response","308","457706","0.0-2.0-64.0","615365211632e1a6ddf41008","E1","batch5","","872.0999999046326","tol_trial_num","<div class = centerbox><p class = center-block-text>problem <strong>19</strong> out of 25 problems</p></div>","0","","","","","","","","","","","","","","","","","","","","","","","","",""
"","","","","","single-stim-button","309","485587","0.0-2.0-65.0-0.0","615365211632e1a6ddf41008","E1","batch5","","27880","tol_tohand","","","","tol_peg_1","27880","27880","0","[[1,0,0],[3,0],[0]]","1","[[0,0,0],[1,2],[3]]","18","0","","","","","","7","","","","","","","","",""
"","","","","","single-stim-button","310","486859","0.0-2.0-65.0-1.0","615365211632e1a6ddf41008","E1","batch5","","1271","tol_toboard","","","","tol_peg_2","1271","1271","0","[[1,0,0],[3,2],[0]]","1","[[0,0,0],[1,2],[3]]","18","0","","","","","","7","","","","","","","","",""
"","","","","","single-stim-button","311","487342","0.0-2.0-65.1-0.1","615365211632e1a6ddf41008","E1","batch5","","482","tol_tohand","","","","tol_peg_1","482","482","0","[[0,0,0],[3,2],[0]]","2","[[0,0,0],[1,2],[3]]","18","0","","","","","","7","","","","","","","","",""
"","","","","","single-stim-button","312","488039","0.0-2.0-65.1-1.1","615365211632e1a6ddf41008","E1","batch5","","696","tol_toboard","","","","tol_peg_3","696","696","0","[[0,0,0],[3,2],[1]]","2","[[0,0,0],[1,2],[3]]","18","0","","","","","","7","","","","","","","","",""
"","","","","","single-stim-button","313","488588","0.0-2.0-65.2-0.2","615365211632e1a6ddf41008","E1","batch5","","548","tol_tohand","","","","tol_peg_2","548","548","0","[[0,0,0],[3,0],[1]]","3","[[0,0,0],[1,2],[3]]","18","0","","","","","","7","","","","","","","","",""
"","","","","","single-stim-button","314","489659","0.0-2.0-65.2-1.2","615365211632e1a6ddf41008","E1","batch5","","1069","tol_toboard","","","","tol_peg_1","1069","1069","0","[[2,0,0],[3,0],[1]]","3","[[0,0,0],[1,2],[3]]","18","0","","","","","","7","","","","","","","","",""
"","","","","","single-stim-button","315","490123","0.0-2.0-65.3-0.3","615365211632e1a6ddf41008","E1","batch5","","464","tol_tohand","","","","tol_peg_2","464","464","0","[[2,0,0],[0,0],[1]]","4","[[0,0,0],[1,2],[3]]","18","0","","","","","","7","","","","","","","","",""
"","","","","","single-stim-button","316","490615","0.0-2.0-65.3-1.3","615365211632e1a6ddf41008","E1","batch5","","490","tol_toboard","","","","tol_peg_1","490","490","0","[[2,3,0],[0,0],[1]]","4","[[0,0,0],[1,2],[3]]","18","0","","","","","","7","","","","","","","","",""
"","","","","","single-stim-button","317","491151","0.0-2.0-65.4-0.4","615365211632e1a6ddf41008","E1","batch5","","534","tol_tohand","","","","tol_peg_3","534","534","0","[[2,3,0],[0,0],[0]]","5","[[0,0,0],[1,2],[3]]","18","0","","","","","","7","","","","","","","","",""
"","","","","","single-stim-button","318","491621","0.0-2.0-65.4-1.4","615365211632e1a6ddf41008","E1","batch5","","470","tol_toboard","","","","tol_peg_2","470","470","0","[[2,3,0],[1,0],[0]]","5","[[0,0,0],[1,2],[3]]","18","0","","","","","","7","","","","","","","","",""
"","","","","","single-stim-button","319","492633","0.0-2.0-65.5-0.5","615365211632e1a6ddf41008","E1","batch5","","1010","tol_tohand","","","","tol_peg_1","1010","1010","0","[[2,0,0],[1,0],[0]]","6","[[0,0,0],[1,2],[3]]","18","0","","","","","","7","","","","","","","","",""
"","","","","","single-stim-button","320","493190","0.0-2.0-65.5-1.5","615365211632e1a6ddf41008","E1","batch5","","555","tol_toboard","","","","tol_peg_3","555","555","0","[[2,0,0],[1,0],[3]]","6","[[0,0,0],[1,2],[3]]","18","0","","","","","","7","","","","","","","","",""
"","","","","","single-stim-button","321","493789","0.0-2.0-65.6-0.6","615365211632e1a6ddf41008","E1","batch5","","598","tol_tohand","","","","tol_peg_1","598","598","0","[[0,0,0],[1,0],[3]]","7","[[0,0,0],[1,2],[3]]","18","0","","","","","","7","","","","","","","","",""
"","","","","","single-stim-button","322","494318","0.0-2.0-65.6-1.6","615365211632e1a6ddf41008","E1","batch5","","528","tol_toboard","","","","tol_peg_2","528","528","0","[[0,0,0],[1,2],[3]]","7","[[0,0,0],[1,2],[3]]","18","0","","","","","","7","","","","","","","","",""
"","","","","","poldrack-single-stim","323","495321","0.0-2.0-66.0","615365211632e1a6ddf41008","E1","batch5","","-1","tol_feedback","","","true","","1000","1000","500","","","","","","-1","none","true","27880","31516","","","","","","","","","",""
"","","","","","html-button-response","324","495969","0.0-2.0-67.0","615365211632e1a6ddf41008","E1","batch5","","646.5","tol_trial_num","<div class = centerbox><p class = center-block-text>problem <strong>20</strong> out of 25 problems</p></div>","0","","","","","","","","","","","","","","","","","","","","","","","","",""
"","","","","","single-stim-button","325","508809","0.0-2.0-68.0-0.0","615365211632e1a6ddf41008","E1","batch5","","12839","tol_tohand","","","","tol_peg_1","12839","12839","0","[[1,0,0],[3,0],[0]]","1","[[2,1,0],[0,0],[3]]","19","0","","","","","","5","","","","","","","","",""
"","","","","","single-stim-button","326","509611","0.0-2.0-68.0-1.0","615365211632e1a6ddf41008","E1","batch5","","801","tol_toboard","","","","tol_peg_3","801","801","0","[[1,0,0],[3,0],[2]]","1","[[2,1,0],[0,0],[3]]","19","0","","","","","","5","","","","","","","","",""
"","","","","","single-stim-button","327","510408","0.0-2.0-68.1-0.1","615365211632e1a6ddf41008","E1","batch5","","796","tol_tohand","","","","tol_peg_1","796","796","0","[[0,0,0],[3,0],[2]]","2","[[2,1,0],[0,0],[3]]","19","0","","","","","","5","","","","","","","","",""
"","","","","","single-stim-button","328","511022","0.0-2.0-68.1-1.1","615365211632e1a6ddf41008","E1","batch5","","612","tol_toboard","","","","tol_peg_2","612","612","0","[[0,0,0],[3,1],[2]]","2","[[2,1,0],[0,0],[3]]","19","0","","","","","","5","","","","","","","","",""
"","","","","","single-stim-button","329","511576","0.0-2.0-68.2-0.2","615365211632e1a6ddf41008","E1","batch5","","553","tol_tohand","","","","tol_peg_3","553","553","0","[[0,0,0],[3,1],[0]]","3","[[2,1,0],[0,0],[3]]","19","0","","","","","","5","","","","","","","","",""
"","","","","","single-stim-button","330","512170","0.0-2.0-68.2-1.2","615365211632e1a6ddf41008","E1","batch5","","592","tol_toboard","","","","tol_peg_1","592","592","0","[[2,0,0],[3,1],[0]]","3","[[2,1,0],[0,0],[3]]","19","0","","","","","","5","","","","","","","","",""
"","","","","","single-stim-button","331","512627","0.0-2.0-68.3-0.3","615365211632e1a6ddf41008","E1","batch5","","457","tol_tohand","","","","tol_peg_2","457","457","0","[[2,0,0],[3,0],[0]]","4","[[2,1,0],[0,0],[3]]","19","0","","","","","","5","","","","","","","","",""
"","","","","","single-stim-button","332","513175","0.0-2.0-68.3-1.3","615365211632e1a6ddf41008","E1","batch5","","546","tol_toboard","","","","tol_peg_1","546","546","0","[[2,1,0],[3,0],[0]]","4","[[2,1,0],[0,0],[3]]","19","0","","","","","","5","","","","","","","","",""
"","","","","","single-stim-button","333","513618","0.0-2.0-68.4-0.4","615365211632e1a6ddf41008","E1","batch5","","442","tol_tohand","","","","tol_peg_2","442","442","0","[[2,1,0],[0,0],[0]]","5","[[2,1,0],[0,0],[3]]","19","0","","","","","","5","","","","","","","","",""
"","","","","","single-stim-button","334","514029","0.0-2.0-68.4-1.4","615365211632e1a6ddf41008","E1","batch5","","410","tol_toboard","","","","tol_peg_3","410","410","0","[[2,1,0],[0,0],[3]]","5","[[2,1,0],[0,0],[3]]","19","0","","","","","","5","","","","","","","","",""
"","","","","","poldrack-single-stim","335","515031","0.0-2.0-69.0","615365211632e1a6ddf41008","E1","batch5","","-1","tol_feedback","","","true","","1000","1000","500","","","","","","-1","none","true","12839","15087","","","","","","","","","",""
"","","","","","html-button-response","336","515815","0.0-2.0-70.0","615365211632e1a6ddf41008","E1","batch5","","783.3000000715256","tol_trial_num","<div class = centerbox><p class = center-block-text>problem <strong>21</strong> out of 25 problems</p></div>","0","","","","","","","","","","","","","","","","","","","","","","","","",""
"","","","","","single-stim-button","337","523500","0.0-2.0-71.0-0.0","615365211632e1a6ddf41008","E1","batch5","","7683","tol_tohand","","","","tol_peg_2","7683","7683","0","[[1,2,0],[0,0],[0]]","1","[[3,2,0],[0,0],[1]]","20","0","","","","","","6","","","","","","","","",""
"","","","","","single-stim-button","338","524434","0.0-2.0-71.0-1.0","615365211632e1a6ddf41008","E1","batch5","","933","tol_toboard","","","","tol_peg_3","933","933","0","[[1,2,0],[0,0],[3]]","1","[[3,2,0],[0,0],[1]]","20","0","","","","","","6","","","","","","","","",""
"","","","","","single-stim-button","339","525049","0.0-2.0-71.1-0.1","615365211632e1a6ddf41008","E1","batch5","","613","tol_tohand","","","","tol_peg_1","613","613","0","[[1,0,0],[0,0],[3]]","2","[[3,2,0],[0,0],[1]]","20","0","","","","","","6","","","","","","","","",""
"","","","","","single-stim-button","340","525564","0.0-2.0-71.1-1.1","615365211632e1a6ddf41008","E1","batch5","","515","tol_toboard","","","","tol_peg_2","515","515","0","[[1,0,0],[2,0],[3]]","2","[[3,2,0],[0,0],[1]]","20","0","","","","","","6","","","","","","","","",""
"","","","","","single-stim-button","341","526040","0.0-2.0-71.2-0.2","615365211632e1a6ddf41008","E1","batch5","","475","tol_tohand","","","","tol_peg_1","475","475","0","[[0,0,0],[2,0],[3]]","3","[[3,2,0],[0,0],[1]]","20","0","","","","","","6","","","","","","","","",""
"","","","","","single-stim-button","342","526426","0.0-2.0-71.2-1.2","615365211632e1a6ddf41008","E1","batch5","","384","tol_toboard","","","","tol_peg_2","384","384","0","[[0,0,0],[2,1],[3]]","3","[[3,2,0],[0,0],[1]]","20","0","","","","","","6","","","","","","","","",""
"","","","","","single-stim-button","343","526875","0.0-2.0-71.3-0.3","615365211632e1a6ddf41008","E1","batch5","","448","tol_tohand","","","","tol_peg_3","448","448","0","[[0,0,0],[2,1],[0]]","4","[[3,2,0],[0,0],[1]]","20","0","","","","","","6","","","","","","","","",""
"","","","","","single-stim-button","344","527371","0.0-2.0-71.3-1.3","615365211632e1a6ddf41008","E1","batch5","","495","tol_toboard","","","","tol_peg_1","495","495","0","[[3,0,0],[2,1],[0]]","4","[[3,2,0],[0,0],[1]]","20","0","","","","","","6","","","","","","","","",""
"","","","","","single-stim-button","345","527849","0.0-2.0-71.4-0.4","615365211632e1a6ddf41008","E1","batch5","","476","tol_tohand","","","","tol_peg_2","476","476","0","[[3,0,0],[2,0],[0]]","5","[[3,2,0],[0,0],[1]]","20","0","","","","","","6","","","","","","","","",""
"","","","","","single-stim-button","346","528353","0.0-2.0-71.4-1.4","615365211632e1a6ddf41008","E1","batch5","","502","tol_toboard","","","","tol_peg_3","502","502","0","[[3,0,0],[2,0],[1]]","5","[[3,2,0],[0,0],[1]]","20","0","","","","","","6","","","","","","","","",""
"","","","","","single-stim-button","347","528823","0.0-2.0-71.5-0.5","615365211632e1a6ddf41008","E1","batch5","","468","tol_tohand","","","","tol_peg_2","468","468","0","[[3,0,0],[0,0],[1]]","6","[[3,2,0],[0,0],[1]]","20","0","","","","","","6","","","","","","","","",""
"","","","","","single-stim-button","348","529274","0.0-2.0-71.5-1.5","615365211632e1a6ddf41008","E1","batch5","","451","tol_toboard","","","","tol_peg_1","451","451","0","[[3,2,0],[0,0],[1]]","6","[[3,2,0],[0,0],[1]]","20","0","","","","","","6","","","","","","","","",""
"","","","","","poldrack-single-stim","349","530276","0.0-2.0-72.0","615365211632e1a6ddf41008","E1","batch5","","-1","tol_feedback","","","true","","1000","1000","500","","","","","","-1","none","true","7683","10163","","","","","","","","","",""
"","","","","","html-button-response","350","532747","0.0-2.0-73.0","615365211632e1a6ddf41008","E1","batch5","","2469.399999976158","tol_trial_num","<div class = centerbox><p class = center-block-text>problem <strong>22</strong> out of 25 problems</p></div>","0","","","","","","","","","","","","","","","","","","","","","","","","",""
"","","","","","single-stim-button","351","543925","0.0-2.0-74.0-0.0","615365211632e1a6ddf41008","E1","batch5","","11176","tol_tohand","","","","tol_peg_2","11176","11176","0","[[1,0,0],[2,0],[0]]","1","[[0,0,0],[1,2],[3]]","21","0","","","","","","6","","","","","","","","",""
"","","","","","single-stim-button","352","545012","0.0-2.0-74.0-1.0","615365211632e1a6ddf41008","E1","batch5","","1085","tol_toboard","","","","tol_peg_1","1085","1085","0","[[1,3,0],[2,0],[0]]","1","[[0,0,0],[1,2],[3]]","21","0","","","","","","6","","","","","","","","",""
"","","","","","single-stim-button","353","546667","0.0-2.0-74.1-0.1","615365211632e1a6ddf41008","E1","batch5","","1654","tol_tohand","","","","tol_peg_2","1654","1654","0","[[1,3,0],[0,0],[0]]","2","[[0,0,0],[1,2],[3]]","21","0","","","","","","6","","","","","","","","",""
"","","","","","single-stim-button","354","547269","0.0-2.0-74.1-1.1","615365211632e1a6ddf41008","E1","batch5","","601","tol_toboard","","","","tol_peg_3","601","601","0","[[1,3,0],[0,0],[2]]","2","[[0,0,0],[1,2],[3]]","21","0","","","","","","6","","","","","","","","",""
"","","","","","single-stim-button","355","550059","0.0-2.0-74.2-0.2","615365211632e1a6ddf41008","E1","batch5","","2788","tol_tohand","","","","tol_peg_1","2788","2788","0","[[1,0,0],[0,0],[2]]","3","[[0,0,0],[1,2],[3]]","21","0","","","","","","6","","","","","","","","",""
"","","","","","single-stim-button","356","550615","0.0-2.0-74.2-1.2","615365211632e1a6ddf41008","E1","batch5","","554","tol_toboard","","","","tol_peg_2","554","554","0","[[1,0,0],[3,0],[2]]","3","[[0,0,0],[1,2],[3]]","21","0","","","","","","6","","","","","","","","",""
