"success","timeout","failed_images","failed_audio","failed_video","trial_type","trial_index","time_elapsed","internal_node_id","subject_id","study_id","session_id","task","rt","stimulus","response","item","answer","correct","spm_correct","spm_rt","view_history","fiar_detect_rt","fiar_detect_correct","total_correct_fiar_detect","post_trial_gap","choices","mouse_click","stim_duration","block_duration","timing_post_trial","current_position","tol_num_moves_made","tol_target","tol_problem_id","tol_rt","key_press","possible_responses","tol_correct","preplanning","tol_rt_per_trial","tol_min_moves"
"true","false","[]","[]","[]","preload","0","2905","0.0-0.0","6153226d04ed5dce3aaa9703","B2","batch2","","","","","","","","","","","","","","","","","","","","","","","","","","","","","",""
"true","","","","","fullscreen","1","7714","0.0-1.0-0.0","6153226d04ed5dce3aaa9703","B2","batch2","","","","","","","","","","","","","","","","","","","","","","","","","","","","","",""
"true","","","","","fullscreen","2","10526","0.0-2.0-0.0","6153226d04ed5dce3aaa9703","B2","batch2","spm_fullscreen","","","","","","","","","","","","","","","","","","","","","","","","","","","","",""
"","","","","","html-button-response","3","22838","0.0-2.0-1.0","6153226d04ed5dce3aaa9703","B2","batch2","","12309.300000000745","<p class = block-text><b>Instructions</b> <br>This is a widely used intelligence test in research. <br>In this test, a figure with a missing piece will be presented.<br>Below the figure are alternative pieces to complete the figure, only one of which is correct.<br> Different figures might involve different principles for obtaining the missing piece<br>Your job is to select the most logical piece to complete the figure.</p>","0","","","","","","","","","","","","","","","","","","","","","","","","","",""
"","","","","","html-keyboard-response","4","23643","0.0-2.0-2.0-0.0","6153226d04ed5dce3aaa9703","B2","batch2","spm_show_trial_num","null","<p class=block-text>Trial 1 out of 60</p>","null","","","","","","","","","","","","","","","","","","","","","","","","","",""
"","","","","","image-button-response","5","29177","0.0-2.0-2.0-1.0","6153226d04ed5dce3aaa9703","B2","batch2","spm_respsonse","5527.300000000745","img/question_1_1.jpeg","3","mat_01","4","1","1","5527.300000000745","","","","","","","","","","","","","","","","","","","","",""
"","","","","","html-keyboard-response","6","30246","0.0-2.0-2.0-0.1","6153226d04ed5dce3aaa9703","B2","batch2","spm_show_trial_num","null","<p class=block-text>Trial 2 out of 60</p>","null","","","","","","","","","","","","","","","","","","","","","","","","","",""
"","","","","","image-button-response","7","33733","0.0-2.0-2.0-1.1","6153226d04ed5dce3aaa9703","B2","batch2","spm_respsonse","3483.4000000003725","img/question_1_2.jpeg","4","mat_02","5","1","1","3483.4000000003725","","","","","","","","","","","","","","","","","","","","",""
"","","","","","html-keyboard-response","8","34798","0.0-2.0-2.0-0.2","6153226d04ed5dce3aaa9703","B2","batch2","spm_show_trial_num","null","<p class=block-text>Trial 3 out of 60</p>","null","","","","","","","","","","","","","","","","","","","","","","","","","",""
"","","","","","image-button-response","9","37094","0.0-2.0-2.0-1.2","6153226d04ed5dce3aaa9703","B2","batch2","spm_respsonse","2292.699999999255","img/question_1_3.jpeg","0","mat_03","1","1","1","2292.699999999255","","","","","","","","","","","","","","","","","","","","",""
"","","","","","html-keyboard-response","10","38154","0.0-2.0-2.0-0.3","6153226d04ed5dce3aaa9703","B2","batch2","spm_show_trial_num","null","<p class=block-text>Trial 4 out of 60</p>","null","","","","","","","","","","","","","","","","","","","","","","","","","",""
"","","","","","image-button-response","11","42511","0.0-2.0-2.0-1.3","6153226d04ed5dce3aaa9703","B2","batch2","spm_respsonse","4353.5999999996275","img/question_1_4.jpeg","1","mat_04","2","1","1","4353.5999999996275","","","","","","","","","","","","","","","","","","","","",""
"","","","","","html-keyboard-response","12","43582","0.0-2.0-2.0-0.4","6153226d04ed5dce3aaa9703","B2","batch2","spm_show_trial_num","null","<p class=block-text>Trial 5 out of 60</p>","null","","","","","","","","","","","","","","","","","","","","","","","","","",""
"","","","","","image-button-response","13","48322","0.0-2.0-2.0-1.4","6153226d04ed5dce3aaa9703","B2","batch2","spm_respsonse","4736.5999999996275","img/question_1_5.jpeg","5","mat_05","6","1","1","4736.5999999996275","","","","","","","","","","","","","","","","","","","","",""
"","","","","","html-keyboard-response","14","49386","0.0-2.0-2.0-0.5","6153226d04ed5dce3aaa9703","B2","batch2","spm_show_trial_num","null","<p class=block-text>Trial 6 out of 60</p>","null","","","","","","","","","","","","","","","","","","","","","","","","","",""
"","","","","","image-button-response","15","54146","0.0-2.0-2.0-1.5","6153226d04ed5dce3aaa9703","B2","batch2","spm_respsonse","4757.0999999996275","img/question_1_6.jpeg","2","mat_06","3","1","1","4757.0999999996275","","","","","","","","","","","","","","","","","","","","",""
"","","","","","html-keyboard-response","16","55210","0.0-2.0-2.0-0.6","6153226d04ed5dce3aaa9703","B2","batch2","spm_show_trial_num","null","<p class=block-text>Trial 7 out of 60</p>","null","","","","","","","","","","","","","","","","","","","","","","","","","",""
"","","","","","image-button-response","17","60575","0.0-2.0-2.0-1.6","6153226d04ed5dce3aaa9703","B2","batch2","spm_respsonse","5362","img/question_1_7.jpeg","5","mat_07","6","1","1","5362","","","","","","","","","","","","","","","","","","","","",""
"","","","","","html-keyboard-response","18","61643","0.0-2.0-2.0-0.7","6153226d04ed5dce3aaa9703","B2","batch2","spm_show_trial_num","null","<p class=block-text>Trial 8 out of 60</p>","null","","","","","","","","","","","","","","","","","","","","","","","","","",""
"","","","","","image-button-response","19","68275","0.0-2.0-2.0-1.7","6153226d04ed5dce3aaa9703","B2","batch2","spm_respsonse","6628.300000000745","img/question_1_8.jpeg","1","mat_08","2","1","1","6628.300000000745","","","","","","","","","","","","","","","","","","","","",""
"","","","","","html-keyboard-response","20","69342","0.0-2.0-2.0-0.8","6153226d04ed5dce3aaa9703","B2","batch2","spm_show_trial_num","null","<p class=block-text>Trial 9 out of 60</p>","null","","","","","","","","","","","","","","","","","","","","","","","","","",""
"","","","","","image-button-response","21","74211","0.0-2.0-2.0-1.8","6153226d04ed5dce3aaa9703","B2","batch2","spm_respsonse","4865.200000001118","img/question_1_9.jpeg","1","mat_09","1","0","0","4865.200000001118","","","","","","","","","","","","","","","","","","","","",""
"","","","","","html-keyboard-response","22","75274","0.0-2.0-2.0-0.9","6153226d04ed5dce3aaa9703","B2","batch2","spm_show_trial_num","null","<p class=block-text>Trial 10 out of 60</p>","null","","","","","","","","","","","","","","","","","","","","","","","","","",""
"","","","","","image-button-response","23","80821","0.0-2.0-2.0-1.9","6153226d04ed5dce3aaa9703","B2","batch2","spm_respsonse","5542.9000000003725","img/question_1_10.jpeg","2","mat_10","3","1","1","5542.9000000003725","","","","","","","","","","","","","","","","","","","","",""
"","","","","","html-keyboard-response","24","81882","0.0-2.0-2.0-0.10","6153226d04ed5dce3aaa9703","B2","batch2","spm_show_trial_num","null","<p class=block-text>Trial 11 out of 60</p>","null","","","","","","","","","","","","","","","","","","","","","","","","","",""
"","","","","","image-button-response","25","88882","0.0-2.0-2.0-1.10","6153226d04ed5dce3aaa9703","B2","batch2","spm_respsonse","6995.699999999255","img/question_1_11.jpeg","3","mat_11","4","1","1","6995.699999999255","","","","","","","","","","","","","","","","","","","","",""
"","","","","","html-keyboard-response","26","89950","0.0-2.0-2.0-0.11","6153226d04ed5dce3aaa9703","B2","batch2","spm_show_trial_num","null","<p class=block-text>Trial 12 out of 60</p>","null","","","","","","","","","","","","","","","","","","","","","","","","","",""
"","","","","","image-button-response","27","97531","0.0-2.0-2.0-1.11","6153226d04ed5dce3aaa9703","B2","batch2","spm_respsonse","7576.799999998882","img/question_1_12.jpeg","4","mat_12","5","1","1","7576.799999998882","","","","","","","","","","","","","","","","","","","","",""
"","","","","","html-keyboard-response","28","98597","0.0-2.0-2.0-0.12","6153226d04ed5dce3aaa9703","B2","batch2","spm_show_trial_num","null","<p class=block-text>Trial 13 out of 60</p>","null","","","","","","","","","","","","","","","","","","","","","","","","","",""
"","","","","","image-button-response","29","101148","0.0-2.0-2.0-1.12","6153226d04ed5dce3aaa9703","B2","batch2","spm_respsonse","2547.199999999255","img/question_2_1.jpeg","1","mat_13","2","1","1","2547.199999999255","","","","","","","","","","","","","","","","","","","","",""
"","","","","","html-keyboard-response","30","102210","0.0-2.0-2.0-0.13","6153226d04ed5dce3aaa9703","B2","batch2","spm_show_trial_num","null","<p class=block-text>Trial 14 out of 60</p>","null","","","","","","","","","","","","","","","","","","","","","","","","","",""
"","","","","","image-button-response","31","109375","0.0-2.0-2.0-1.13","6153226d04ed5dce3aaa9703","B2","batch2","spm_respsonse","7161.5999999996275","img/question_2_2.jpeg","5","mat_14","6","1","1","7161.5999999996275","","","","","","","","","","","","","","","","","","","","",""
"","","","","","html-keyboard-response","32","110446","0.0-2.0-2.0-0.14","6153226d04ed5dce3aaa9703","B2","batch2","spm_show_trial_num","null","<p class=block-text>Trial 15 out of 60</p>","null","","","","","","","","","","","","","","","","","","","","","","","","","",""
"","","","","","image-button-response","33","114085","0.0-2.0-2.0-1.14","6153226d04ed5dce3aaa9703","B2","batch2","spm_respsonse","3635.9000000003725","img/question_2_3.jpeg","0","mat_15","1","1","1","3635.9000000003725","","","","","","","","","","","","","","","","","","","","",""
"","","","","","html-keyboard-response","34","115148","0.0-2.0-2.0-0.15","6153226d04ed5dce3aaa9703","B2","batch2","spm_show_trial_num","null","<p class=block-text>Trial 16 out of 60</p>","null","","","","","","","","","","","","","","","","","","","","","","","","","",""
"","","","","","image-button-response","35","118932","0.0-2.0-2.0-1.15","6153226d04ed5dce3aaa9703","B2","batch2","spm_respsonse","3780.5","img/question_2_4.jpeg","1","mat_16","2","1","1","3780.5","","","","","","","","","","","","","","","","","","","","",""
"","","","","","html-keyboard-response","36","119998","0.0-2.0-2.0-0.16","6153226d04ed5dce3aaa9703","B2","batch2","spm_show_trial_num","null","<p class=block-text>Trial 17 out of 60</p>","null","","","","","","","","","","","","","","","","","","","","","","","","","",""
"","","","","","image-button-response","37","132112","0.0-2.0-2.0-1.16","6153226d04ed5dce3aaa9703","B2","batch2","spm_respsonse","12109.900000000373","img/question_2_5.jpeg","0","mat_17","1","1","1","12109.900000000373","","","","","","","","","","","","","","","","","","","","",""
"","","","","","html-keyboard-response","38","133177","0.0-2.0-2.0-0.17","6153226d04ed5dce3aaa9703","B2","batch2","spm_show_trial_num","null","<p class=block-text>Trial 18 out of 60</p>","null","","","","","","","","","","","","","","","","","","","","","","","","","",""
"","","","","","image-button-response","39","144842","0.0-2.0-2.0-1.17","6153226d04ed5dce3aaa9703","B2","batch2","spm_respsonse","11660.900000000373","img/question_2_6.jpeg","2","mat_18","3","1","1","11660.900000000373","","","","","","","","","","","","","","","","","","","","",""
"","","","","","html-keyboard-response","40","145910","0.0-2.0-2.0-0.18","6153226d04ed5dce3aaa9703","B2","batch2","spm_show_trial_num","null","<p class=block-text>Trial 19 out of 60</p>","null","","","","","","","","","","","","","","","","","","","","","","","","","",""
"","","","","","image-button-response","41","150998","0.0-2.0-2.0-1.18","6153226d04ed5dce3aaa9703","B2","batch2","spm_respsonse","5083.60000000149","img/question_2_7.jpeg","4","mat_19","5","1","1","5083.60000000149","","","","","","","","","","","","","","","","","","","","",""
"","","","","","html-keyboard-response","42","152062","0.0-2.0-2.0-0.19","6153226d04ed5dce3aaa9703","B2","batch2","spm_show_trial_num","null","<p class=block-text>Trial 20 out of 60</p>","null","","","","","","","","","","","","","","","","","","","","","","","","","",""
"","","","","","image-button-response","43","157067","0.0-2.0-2.0-1.19","6153226d04ed5dce3aaa9703","B2","batch2","spm_respsonse","5001.39999999851","img/question_2_8.jpeg","5","mat_20","6","1","1","5001.39999999851","","","","","","","","","","","","","","","","","","","","",""
"","","","","","html-keyboard-response","44","158134","0.0-2.0-2.0-0.20","6153226d04ed5dce3aaa9703","B2","batch2","spm_show_trial_num","null","<p class=block-text>Trial 21 out of 60</p>","null","","","","","","","","","","","","","","","","","","","","","","","","","",""
"","","","","","image-button-response","45","163624","0.0-2.0-2.0-1.20","6153226d04ed5dce3aaa9703","B2","batch2","spm_respsonse","5486","img/question_2_9.jpeg","3","mat_21","4","1","1","5486","","","","","","","","","","","","","","","","","","","","",""
"","","","","","html-keyboard-response","46","164694","0.0-2.0-2.0-0.21","6153226d04ed5dce3aaa9703","B2","batch2","spm_show_trial_num","null","<p class=block-text>Trial 22 out of 60</p>","null","","","","","","","","","","","","","","","","","","","","","","","","","",""
"","","","","","image-button-response","47","168747","0.0-2.0-2.0-1.21","6153226d04ed5dce3aaa9703","B2","batch2","spm_respsonse","4049.10000000149","img/question_2_10.jpeg","2","mat_22","3","1","1","4049.10000000149","","","","","","","","","","","","","","","","","","","","",""
"","","","","","html-keyboard-response","48","169814","0.0-2.0-2.0-0.22","6153226d04ed5dce3aaa9703","B2","batch2","spm_show_trial_num","null","<p class=block-text>Trial 23 out of 60</p>","null","","","","","","","","","","","","","","","","","","","","","","","","","",""
"","","","","","image-button-response","49","175682","0.0-2.0-2.0-1.22","6153226d04ed5dce3aaa9703","B2","batch2","spm_respsonse","5864","img/question_2_11.jpeg","3","mat_23","4","1","1","5864","","","","","","","","","","","","","","","","","","","","",""
"","","","","","html-keyboard-response","50","176750","0.0-2.0-2.0-0.23","6153226d04ed5dce3aaa9703","B2","batch2","spm_show_trial_num","null","<p class=block-text>Trial 24 out of 60</p>","null","","","","","","","","","","","","","","","","","","","","","","","","","",""
"","","","","","image-button-response","51","185221","0.0-2.0-2.0-1.23","6153226d04ed5dce3aaa9703","B2","batch2","spm_respsonse","8466.400000000373","img/question_2_12.jpeg","4","mat_24","5","1","1","8466.400000000373","","","","","","","","","","","","","","","","","","","","",""
"","","","","","html-button-response","52","187798","0.0-2.0-3.0","6153226d04ed5dce3aaa9703","B2","batch2","attention_check","2322.2999999988824","<p class = block-text>Attention check: Please choose 1<br></p>","0","","","true","","","","","","","","","","","","","","","","","","","","","","",""
"","","","","","html-keyboard-response","53","188603","0.0-2.0-4.0-0.0","6153226d04ed5dce3aaa9703","B2","batch2","spm_show_trial_num","null","<p class=block-text>Trial 25 out of 60</p>","null","","","","","","","","","","","","","","","","","","","","","","","","","",""
"","","","","","image-button-response","54","195098","0.0-2.0-4.0-1.0","6153226d04ed5dce3aaa9703","B2","batch2","spm_respsonse","6490.5","img/question_3_1.jpeg","7","mat_25","8","1","1","6490.5","","","","","","","","","","","","","","","","","","","","",""
"","","","","","html-keyboard-response","55","196166","0.0-2.0-4.0-0.1","6153226d04ed5dce3aaa9703","B2","batch2","spm_show_trial_num","null","<p class=block-text>Trial 26 out of 60</p>","null","","","","","","","","","","","","","","","","","","","","","","","","","",""
"","","","","","image-button-response","56","201495","0.0-2.0-4.0-1.1","6153226d04ed5dce3aaa9703","B2","batch2","spm_respsonse","5324.700000001118","img/question_3_2.jpeg","1","mat_26","2","1","1","5324.700000001118","","","","","","","","","","","","","","","","","","","","",""
"","","","","","html-keyboard-response","57","202566","0.0-2.0-4.0-0.2","6153226d04ed5dce3aaa9703","B2","batch2","spm_show_trial_num","null","<p class=block-text>Trial 27 out of 60</p>","null","","","","","","","","","","","","","","","","","","","","","","","","","",""
"","","","","","image-button-response","58","225964","0.0-2.0-4.0-1.2","6153226d04ed5dce3aaa9703","B2","batch2","spm_respsonse","23393.800000000745","img/question_3_3.jpeg","2","mat_27","3","1","1","23393.800000000745","","","","","","","","","","","","","","","","","","","","",""
"","","","","","html-keyboard-response","59","227026","0.0-2.0-4.0-0.3","6153226d04ed5dce3aaa9703","B2","batch2","spm_show_trial_num","null","<p class=block-text>Trial 28 out of 60</p>","null","","","","","","","","","","","","","","","","","","","","","","","","","",""
"","","","","","image-button-response","60","254294","0.0-2.0-4.0-1.3","6153226d04ed5dce3aaa9703","B2","batch2","spm_respsonse","27263.099999999627","img/question_3_4.jpeg","7","mat_28","8","1","1","27263.099999999627","","","","","","","","","","","","","","","","","","","","",""
"","","","","","html-keyboard-response","61","255355","0.0-2.0-4.0-0.4","6153226d04ed5dce3aaa9703","B2","batch2","spm_show_trial_num","null","<p class=block-text>Trial 29 out of 60</p>","null","","","","","","","","","","","","","","","","","","","","","","","","","",""
"","","","","","image-button-response","62","264984","0.0-2.0-4.0-1.4","6153226d04ed5dce3aaa9703","B2","batch2","spm_respsonse","9624.60000000149","img/question_3_5.jpeg","6","mat_29","7","1","1","9624.60000000149","","","","","","","","","","","","","","","","","","","","",""
"","","","","","html-keyboard-response","63","266053","0.0-2.0-4.0-0.5","6153226d04ed5dce3aaa9703","B2","batch2","spm_show_trial_num","null","<p class=block-text>Trial 30 out of 60</p>","null","","","","","","","","","","","","","","","","","","","","","","","","","",""
"","","","","","image-button-response","64","275709","0.0-2.0-4.0-1.5","6153226d04ed5dce3aaa9703","B2","batch2","spm_respsonse","9651.700000001118","img/question_3_6.jpeg","3","mat_30","4","1","1","9651.700000001118","","","","","","","","","","","","","","","","","","","","",""
"","","","","","html-keyboard-response","65","276770","0.0-2.0-4.0-0.6","6153226d04ed5dce3aaa9703","B2","batch2","spm_show_trial_num","null","<p class=block-text>Trial 31 out of 60</p>","null","","","","","","","","","","","","","","","","","","","","","","","","","",""
"","","","","","image-button-response","66","283212","0.0-2.0-4.0-1.6","6153226d04ed5dce3aaa9703","B2","batch2","spm_respsonse","6437.699999999255","img/question_3_7.jpeg","4","mat_31","5","1","1","6437.699999999255","","","","","","","","","","","","","","","","","","","","",""
"","","","","","html-keyboard-response","67","284279","0.0-2.0-4.0-0.7","6153226d04ed5dce3aaa9703","B2","batch2","spm_show_trial_num","null","<p class=block-text>Trial 32 out of 60</p>","null","","","","","","","","","","","","","","","","","","","","","","","","","",""
"","","","","","image-button-response","68","302127","0.0-2.0-4.0-1.7","6153226d04ed5dce3aaa9703","B2","batch2","spm_respsonse","17844.199999999255","img/question_3_8.jpeg","6","mat_32","1","0","0","17844.199999999255","","","","","","","","","","","","","","","","","","","","",""
"","","","","","html-keyboard-response","69","303199","0.0-2.0-4.0-0.8","6153226d04ed5dce3aaa9703","B2","batch2","spm_show_trial_num","null","<p class=block-text>Trial 33 out of 60</p>","null","","","","","","","","","","","","","","","","","","","","","","","","","",""
"","","","","","image-button-response","70","321232","0.0-2.0-4.0-1.8","6153226d04ed5dce3aaa9703","B2","batch2","spm_respsonse","18029.299999998882","img/question_3_9.jpeg","6","mat_33","7","1","1","18029.299999998882","","","","","","","","","","","","","","","","","","","","",""
"","","","","","html-keyboard-response","71","322303","0.0-2.0-4.0-0.9","6153226d04ed5dce3aaa9703","B2","batch2","spm_show_trial_num","null","<p class=block-text>Trial 34 out of 60</p>","null","","","","","","","","","","","","","","","","","","","","","","","","","",""
"","","","","","image-button-response","72","375547","0.0-2.0-4.0-1.9","6153226d04ed5dce3aaa9703","B2","batch2","spm_respsonse","53240.29999999888","img/question_3_10.jpeg","7","mat_34","6","0","0","53240.29999999888","","","","","","","","","","","","","","","","","","","","",""
"","","","","","html-keyboard-response","73","376611","0.0-2.0-4.0-0.10","6153226d04ed5dce3aaa9703","B2","batch2","spm_show_trial_num","null","<p class=block-text>Trial 35 out of 60</p>","null","","","","","","","","","","","","","","","","","","","","","","","","","",""
"","","","","","image-button-response","74","405273","0.0-2.0-4.0-1.10","6153226d04ed5dce3aaa9703","B2","batch2","spm_respsonse","28658.300000000745","img/question_3_11.jpeg","0","mat_35","1","1","1","28658.300000000745","","","","","","","","","","","","","","","","","","","","",""
"","","","","","html-keyboard-response","75","406339","0.0-2.0-4.0-0.11","6153226d04ed5dce3aaa9703","B2","batch2","spm_show_trial_num","null","<p class=block-text>Trial 36 out of 60</p>","null","","","","","","","","","","","","","","","","","","","","","","","","","",""
"","","","","","image-button-response","76","416603","0.0-2.0-4.0-1.11","6153226d04ed5dce3aaa9703","B2","batch2","spm_respsonse","10260.5","img/question_3_12.jpeg","5","mat_36","2","0","0","10260.5","","","","","","","","","","","","","","","","","","","","",""
"","","","","","html-keyboard-response","77","417671","0.0-2.0-4.0-0.12","6153226d04ed5dce3aaa9703","B2","batch2","spm_show_trial_num","null","<p class=block-text>Trial 37 out of 60</p>","null","","","","","","","","","","","","","","","","","","","","","","","","","",""
"","","","","","image-button-response","78","420854","0.0-2.0-4.0-1.12","6153226d04ed5dce3aaa9703","B2","batch2","spm_respsonse","3179.800000000745","img/question_4_1.jpeg","2","mat_37","3","1","1","3179.800000000745","","","","","","","","","","","","","","","","","","","","",""
"","","","","","html-keyboard-response","79","421919","0.0-2.0-4.0-0.13","6153226d04ed5dce3aaa9703","B2","batch2","spm_show_trial_num","null","<p class=block-text>Trial 38 out of 60</p>","null","","","","","","","","","","","","","","","","","","","","","","","","","",""
"","","","","","image-button-response","80","439578","0.0-2.0-4.0-1.13","6153226d04ed5dce3aaa9703","B2","batch2","spm_respsonse","17654.900000000373","img/question_4_2.jpeg","3","mat_38","4","1","1","17654.900000000373","","","","","","","","","","","","","","","","","","","","",""
"","","","","","html-keyboard-response","81","440643","0.0-2.0-4.0-0.14","6153226d04ed5dce3aaa9703","B2","batch2","spm_show_trial_num","null","<p class=block-text>Trial 39 out of 60</p>","null","","","","","","","","","","","","","","","","","","","","","","","","","",""
"","","","","","image-button-response","82","455709","0.0-2.0-4.0-1.14","6153226d04ed5dce3aaa9703","B2","batch2","spm_respsonse","15061.89999999851","img/question_4_3.jpeg","2","mat_39","3","1","1","15061.89999999851","","","","","","","","","","","","","","","","","","","","",""
"","","","","","html-keyboard-response","83","456771","0.0-2.0-4.0-0.15","6153226d04ed5dce3aaa9703","B2","batch2","spm_show_trial_num","null","<p class=block-text>Trial 40 out of 60</p>","null","","","","","","","","","","","","","","","","","","","","","","","","","",""
"","","","","","image-button-response","84","477313","0.0-2.0-4.0-1.15","6153226d04ed5dce3aaa9703","B2","batch2","spm_respsonse","20538.400000000373","img/question_4_4.jpeg","6","mat_40","7","1","1","20538.400000000373","","","","","","","","","","","","","","","","","","","","",""
"","","","","","html-keyboard-response","85","478384","0.0-2.0-4.0-0.16","6153226d04ed5dce3aaa9703","B2","batch2","spm_show_trial_num","null","<p class=block-text>Trial 41 out of 60</p>","null","","","","","","","","","","","","","","","","","","","","","","","","","",""
"","","","","","image-button-response","86","491790","0.0-2.0-4.0-1.16","6153226d04ed5dce3aaa9703","B2","batch2","spm_respsonse","13402.900000000373","img/question_4_5.jpeg","7","mat_41","8","1","1","13402.900000000373","","","","","","","","","","","","","","","","","","","","",""
"","","","","","html-keyboard-response","87","492854","0.0-2.0-4.0-0.17","6153226d04ed5dce3aaa9703","B2","batch2","spm_show_trial_num","null","<p class=block-text>Trial 42 out of 60</p>","null","","","","","","","","","","","","","","","","","","","","","","","","","",""
"","","","","","image-button-response","88","507426","0.0-2.0-4.0-1.17","6153226d04ed5dce3aaa9703","B2","batch2","spm_respsonse","14567","img/question_4_6.jpeg","5","mat_42","6","1","1","14567","","","","","","","","","","","","","","","","","","","","",""
"","","","","","html-keyboard-response","89","508496","0.0-2.0-4.0-0.18","6153226d04ed5dce3aaa9703","B2","batch2","spm_show_trial_num","null","<p class=block-text>Trial 43 out of 60</p>","null","","","","","","","","","","","","","","","","","","","","","","","","","",""
"","","","","","image-button-response","90","526233","0.0-2.0-4.0-1.18","6153226d04ed5dce3aaa9703","B2","batch2","spm_respsonse","17733.5","img/question_4_7.jpeg","4","mat_43","5","1","1","17733.5","","","","","","","","","","","","","","","","","","","","",""
"","","","","","html-keyboard-response","91","527304","0.0-2.0-4.0-0.19","6153226d04ed5dce3aaa9703","B2","batch2","spm_show_trial_num","null","<p class=block-text>Trial 44 out of 60</p>","null","","","","","","","","","","","","","","","","","","","","","","","","","",""
"","","","","","image-button-response","92","552635","0.0-2.0-4.0-1.19","6153226d04ed5dce3aaa9703","B2","batch2","spm_respsonse","25327.699999999255","img/question_4_8.jpeg","3","mat_44","4","1","1","25327.699999999255","","","","","","","","","","","","","","","","","","","","",""
"","","","","","html-keyboard-response","93","553704","0.0-2.0-4.0-0.20","6153226d04ed5dce3aaa9703","B2","batch2","spm_show_trial_num","null","<p class=block-text>Trial 45 out of 60</p>","null","","","","","","","","","","","","","","","","","","","","","","","","","",""
"","","","","","image-button-response","94","578957","0.0-2.0-4.0-1.20","6153226d04ed5dce3aaa9703","B2","batch2","spm_respsonse","25249.099999999627","img/question_4_9.jpeg","0","mat_45","1","1","1","25249.099999999627","","","","","","","","","","","","","","","","","","","","",""
"","","","","","html-keyboard-response","95","580021","0.0-2.0-4.0-0.21","6153226d04ed5dce3aaa9703","B2","batch2","spm_show_trial_num","null","<p class=block-text>Trial 46 out of 60</p>","null","","","","","","","","","","","","","","","","","","","","","","","","","",""
"","","","","","image-button-response","96","594891","0.0-2.0-4.0-1.21","6153226d04ed5dce3aaa9703","B2","batch2","spm_respsonse","14865.400000000373","img/question_4_10.jpeg","1","mat_46","2","1","1","14865.400000000373","","","","","","","","","","","","","","","","","","","","",""
"","","","","","html-keyboard-response","97","595956","0.0-2.0-4.0-0.22","6153226d04ed5dce3aaa9703","B2","batch2","spm_show_trial_num","null","<p class=block-text>Trial 47 out of 60</p>","null","","","","","","","","","","","","","","","","","","","","","","","","","",""
"","","","","","image-button-response","98","631571","0.0-2.0-4.0-1.22","6153226d04ed5dce3aaa9703","B2","batch2","spm_respsonse","35610.29999999888","img/question_4_11.jpeg","6","mat_47","5","0","0","35610.29999999888","","","","","","","","","","","","","","","","","","","","",""
"","","","","","html-keyboard-response","99","632638","0.0-2.0-4.0-0.23","6153226d04ed5dce3aaa9703","B2","batch2","spm_show_trial_num","null","<p class=block-text>Trial 48 out of 60</p>","null","","","","","","","","","","","","","","","","","","","","","","","","","",""
"","","","","","image-button-response","100","653198","0.0-2.0-4.0-1.23","6153226d04ed5dce3aaa9703","B2","batch2","spm_respsonse","20556.400000000373","img/question_4_12.jpeg","3","mat_48","6","0","0","20556.400000000373","","","","","","","","","","","","","","","","","","","","",""
"","","","","","html-keyboard-response","101","654264","0.0-2.0-4.0-0.24","6153226d04ed5dce3aaa9703","B2","batch2","spm_show_trial_num","null","<p class=block-text>Trial 49 out of 60</p>","null","","","","","","","","","","","","","","","","","","","","","","","","","",""
"","","","","","image-button-response","102","664808","0.0-2.0-4.0-1.24","6153226d04ed5dce3aaa9703","B2","batch2","spm_respsonse","10538.800000000745","img/question_5_1.jpeg","6","mat_49","7","1","1","10538.800000000745","","","","","","","","","","","","","","","","","","","","",""
"","","","","","html-keyboard-response","103","665872","0.0-2.0-4.0-0.25","6153226d04ed5dce3aaa9703","B2","batch2","spm_show_trial_num","null","<p class=block-text>Trial 50 out of 60</p>","null","","","","","","","","","","","","","","","","","","","","","","","","","",""
"","","","","","image-button-response","104","670825","0.0-2.0-4.0-1.25","6153226d04ed5dce3aaa9703","B2","batch2","spm_respsonse","4949","img/question_5_2.jpeg","0","mat_50","6","0","0","4949","","","","","","","","","","","","","","","","","","","","",""
"","","","","","html-keyboard-response","105","671896","0.0-2.0-4.0-0.26","6153226d04ed5dce3aaa9703","B2","batch2","spm_show_trial_num","null","<p class=block-text>Trial 51 out of 60</p>","null","","","","","","","","","","","","","","","","","","","","","","","","","",""
"","","","","","image-button-response","106","683490","0.0-2.0-4.0-1.26","6153226d04ed5dce3aaa9703","B2","batch2","spm_respsonse","11590.099999999627","img/question_5_3.jpeg","5","mat_51","8","0","0","11590.099999999627","","","","","","","","","","","","","","","","","","","","",""
"","","","","","html-keyboard-response","107","684560","0.0-2.0-4.0-0.27","6153226d04ed5dce3aaa9703","B2","batch2","spm_show_trial_num","null","<p class=block-text>Trial 52 out of 60</p>","null","","","","","","","","","","","","","","","","","","","","","","","","","",""
"","","","","","image-button-response","108","691017","0.0-2.0-4.0-1.27","6153226d04ed5dce3aaa9703","B2","batch2","spm_respsonse","6452.5999999996275","img/question_5_4.jpeg","2","mat_52","2","0","0","6452.5999999996275","","","","","","","","","","","","","","","","","","","","",""
"","","","","","html-keyboard-response","109","692088","0.0-2.0-4.0-0.28","6153226d04ed5dce3aaa9703","B2","batch2","spm_show_trial_num","null","<p class=block-text>Trial 53 out of 60</p>","null","","","","","","","","","","","","","","","","","","","","","","","","","",""
"","","","","","image-button-response","110","696633","0.0-2.0-4.0-1.28","6153226d04ed5dce3aaa9703","B2","batch2","spm_respsonse","4540.5","img/question_5_5.jpeg","0","mat_53","1","1","1","4540.5","","","","","","","","","","","","","","","","","","","","",""
"","","","","","html-keyboard-response","111","697700","0.0-2.0-4.0-0.29","6153226d04ed5dce3aaa9703","B2","batch2","spm_show_trial_num","null","<p class=block-text>Trial 54 out of 60</p>","null","","","","","","","","","","","","","","","","","","","","","","","","","",""
"","","","","","image-button-response","112","729742","0.0-2.0-4.0-1.29","6153226d04ed5dce3aaa9703","B2","batch2","spm_respsonse","32037.60000000149","img/question_5_6.jpeg","2","mat_54","5","0","0","32037.60000000149","","","","","","","","","","","","","","","","","","","","",""
"","","","","","html-keyboard-response","113","730805","0.0-2.0-4.0-0.30","6153226d04ed5dce3aaa9703","B2","batch2","spm_show_trial_num","null","<p class=block-text>Trial 55 out of 60</p>","null","","","","","","","","","","","","","","","","","","","","","","","","","",""
"","","","","","image-button-response","114","767363","0.0-2.0-4.0-1.30","6153226d04ed5dce3aaa9703","B2","batch2","spm_respsonse","36553.800000000745","img/question_5_7.jpeg","0","mat_55","1","1","1","36553.800000000745","","","","","","","","","","","","","","","","","","","","",""
"","","","","","html-keyboard-response","115","768430","0.0-2.0-4.0-0.31","6153226d04ed5dce3aaa9703","B2","batch2","spm_show_trial_num","null","<p class=block-text>Trial 56 out of 60</p>","null","","","","","","","","","","","","","","","","","","","","","","","","","",""
"","","","","","image-button-response","116","775361","0.0-2.0-4.0-1.31","6153226d04ed5dce3aaa9703","B2","batch2","spm_respsonse","6927.199999999255","img/question_5_8.jpeg","3","mat_56","6","0","0","6927.199999999255","","","","","","","","","","","","","","","","","","","","",""
"","","","","","html-keyboard-response","117","776422","0.0-2.0-4.0-0.32","6153226d04ed5dce3aaa9703","B2","batch2","spm_show_trial_num","null","<p class=block-text>Trial 57 out of 60</p>","null","","","","","","","","","","","","","","","","","","","","","","","","","",""
"","","","","","image-button-response","118","785079","0.0-2.0-4.0-1.32","6153226d04ed5dce3aaa9703","B2","batch2","spm_respsonse","8652.699999999255","img/question_5_9.jpeg","2","mat_57","3","1","1","8652.699999999255","","","","","","","","","","","","","","","","","","","","",""
"","","","","","html-keyboard-response","119","786143","0.0-2.0-4.0-0.33","6153226d04ed5dce3aaa9703","B2","batch2","spm_show_trial_num","null","<p class=block-text>Trial 58 out of 60</p>","null","","","","","","","","","","","","","","","","","","","","","","","","","",""
"","","","","","image-button-response","120","808210","0.0-2.0-4.0-1.33","6153226d04ed5dce3aaa9703","B2","batch2","spm_respsonse","22062.900000000373","img/question_5_10.jpeg","7","mat_58","2","0","0","22062.900000000373","","","","","","","","","","","","","","","","","","","","",""
"","","","","","html-keyboard-response","121","809279","0.0-2.0-4.0-0.34","6153226d04ed5dce3aaa9703","B2","batch2","spm_show_trial_num","null","<p class=block-text>Trial 59 out of 60</p>","null","","","","","","","","","","","","","","","","","","","","","","","","","",""
"","","","","","image-button-response","122","832738","0.0-2.0-4.0-1.34","6153226d04ed5dce3aaa9703","B2","batch2","spm_respsonse","23454.699999999255","img/question_5_11.jpeg","0","mat_59","4","0","0","23454.699999999255","","","","","","","","","","","","","","","","","","","","",""
"","","","","","html-keyboard-response","123","833806","0.0-2.0-4.0-0.35","6153226d04ed5dce3aaa9703","B2","batch2","spm_show_trial_num","null","<p class=block-text>Trial 60 out of 60</p>","null","","","","","","","","","","","","","","","","","","","","","","","","","",""
"","","","","","image-button-response","124","850397","0.0-2.0-4.0-1.35","6153226d04ed5dce3aaa9703","B2","batch2","spm_respsonse","16587.799999998882","img/question_5_12.jpeg","0","mat_60","5","0","0","16587.799999998882","","","","","","","","","","","","","","","","","","","","",""
"","","","","","html-button-response","125","852840","0.0-2.0-5.0","6153226d04ed5dce3aaa9703","B2","batch2","spm_goodbye","2182.5","<p class= block-text>This concludes the Standard Progressive Matrix game. Thank you for your responses!<br> When you are ready, click the button continue</p>","0","","","","","","","","","","","","","","","","","","","","","","","","","",""
"true","","","","","fullscreen","126","855639","0.0-3.0-0.0","6153226d04ed5dce3aaa9703","B2","batch2","","","","","","","","","","","","","","","","","","","","","","","","","","","","","",""
"","","","","","instructions","127","874565","0.0-3.0-1.0-0.0","6153226d04ed5dce3aaa9703","B2","batch2","","18924.5","","","","","","","","[{""page_index"":0,""viewing_time"":13508.5},{""page_index"":1,""viewing_time"":5415.299999998882}]","","","","","","","","","","","","","","","","","","","",""
"","","","","","html-button-response","128","876220","0.0-3.0-1.0-1.0-0.0","6153226d04ed5dce3aaa9703","B2","batch2","pattern_enter_quiz","1652.699999999255","<p class=block-text> Let's answer a few questions <br>","0","","","","","","","","","","","","","","","","","","","","","","","","","",""
"","","","","","html-button-response","129","881689","0.0-3.0-1.0-1.0-1.0","6153226d04ed5dce3aaa9703","B2","batch2","pattern_quiz","5466.699999999255","<p class = block-text>True or False: You will have as much time as you want to make each choice. <br></p>","1","","","true","","","","","","","","","","","","","","","","","","","","","","",""
"","","","","","html-button-response","130","883054","0.0-3.0-1.0-1.0-2.0","6153226d04ed5dce3aaa9703","B2","batch2","pattern_quiz_feedback","1361.699999999255","<p class = block-text>Correct! You should make your choice <strong> as fast as you can</strong>.</p>","0","","","","","","","","","","","","","","","","","","","","","","","","","",""
"","","","","","html-button-response","131","886404","0.0-3.0-1.0-1.0-3.0","6153226d04ed5dce3aaa9703","B2","batch2","pattern_quiz","3347.39999999851","<p class = block-text>True or False: You will look for 4 pieces in black or white color connected in a row either horizontally, vertically or diagonally. <br></p>","0","","","true","","","","","","","","","","","","","","","","","","","","","","",""
"","","","","","html-button-response","132","887263","0.0-3.0-1.0-1.0-4.0","6153226d04ed5dce3aaa9703","B2","batch2","pattern_quiz_feedback","857","<p class = block-text>Correct! </p>","0","","","","","","","","","","","","","","","","","","","","","","","","","",""
"","","","","","html-button-response","133","888628","0.0-3.0-2.0","6153226d04ed5dce3aaa9703","B2","batch2","pattern_enter_practice","1361.800000000745","<p class=block-text> Now that you've understood the game, let's do a few practice trials before we start!<br> <br>","0","","","","","","","","","","","","","","","","","","","","","","","","","",""
"","","","","","image-keyboard-response","134","889893","0.0-3.0-3.0-0.0","6153226d04ed5dce3aaa9703","B2","batch2","pattern_practice","1261.8999999985099","stim/prac_yes_16_ver_w1.png","f","","f","true","","","","","","","","","","","","","","","","","","","","","","",""
"","","","","","html-keyboard-response","135","890913","0.0-3.0-3.0-1.0","6153226d04ed5dce3aaa9703","B2","batch2","pattern_feedback","null","<p style=""font-size:30px;color:green;"">Correct!</p>","null","","","","","","","","","","","","","","","","","","","","","","","","","",""
"","","","","","image-keyboard-response","136","892475","0.0-3.0-3.0-0.1","6153226d04ed5dce3aaa9703","B2","batch2","pattern_practice","1559.6000000014901","stim/prac_yes_20_dia_b1.png","j","","f","false","","","","","","","","","","","","","","","","","","","","","","",""
"","","","","","html-keyboard-response","137","893497","0.0-3.0-3.0-1.1","6153226d04ed5dce3aaa9703","B2","batch2","pattern_feedback","null","<p style=""font-size:30px;color:red;"">Wrong.</p>","null","","","","","","","","","","","","","","","","","","","","","","","","","",""
"","","","","","image-keyboard-response","138","894407","0.0-3.0-3.0-0.2","6153226d04ed5dce3aaa9703","B2","batch2","pattern_practice","907.5","stim/prac_yes_18_hor_w1.png","f","","f","true","","","","","","","","","","","","","","","","","","","","","","",""
"","","","","","html-keyboard-response","139","895423","0.0-3.0-3.0-1.2","6153226d04ed5dce3aaa9703","B2","batch2","pattern_feedback","null","<p style=""font-size:30px;color:green;"">Correct!</p>","null","","","","","","","","","","","","","","","","","","","","","","","","","",""
"","","","","","image-keyboard-response","140","896334","0.0-3.0-3.0-0.3","6153226d04ed5dce3aaa9703","B2","batch2","pattern_practice","909.2999999988824","stim/prac_no_16_1.png","f","","j","false","","","","","","","","","","","","","","","","","","","","","","",""
"","","","","","html-keyboard-response","141","897345","0.0-3.0-3.0-1.3","6153226d04ed5dce3aaa9703","B2","batch2","pattern_feedback","null","<p style=""font-size:30px;color:red;"">Wrong.</p>","null","","","","","","","","","","","","","","","","","","","","","","","","","",""
"","","","","","image-keyboard-response","142","898679","0.0-3.0-3.0-0.4","6153226d04ed5dce3aaa9703","B2","batch2","pattern_practice","1331.4000000003725","stim/prac_no_18_1.png","j","","j","true","","","","","","","","","","","","","","","","","","","","","","",""
"","","","","","html-keyboard-response","143","899697","0.0-3.0-3.0-1.4","6153226d04ed5dce3aaa9703","B2","batch2","pattern_feedback","null","<p style=""font-size:30px;color:green;"">Correct!</p>","null","","","","","","","","","","","","","","","","","","","","","","","","","",""
"","","","","","html-button-response","144","903282","0.0-3.0-4.0","6153226d04ed5dce3aaa9703","B2","batch2","pattern_enter_official_trials","3582","<p class=block-text> Good job! You are done with practice trials!<br>
        You responded correctly on 60% of the trials.<br>
        Press the button below to start official trials. Now you won't see any feedback about your response</p>","0","","","","","","","","","","","","","","","","","","","","","","","","","",""
"","","","","","html-keyboard-response","145","904088","0.0-3.0-5.0-0.0","6153226d04ed5dce3aaa9703","B2","batch2","pattern_show_trial_num","null","<p class=block-text>Trial 1 out of 78</p>","null","","","","","","","","","","","","","","","","","","","","","","","","","",""
"","","","","","image-keyboard-response","146","904938","0.0-3.0-5.0-1.0","6153226d04ed5dce3aaa9703","B2","batch2","pattern_response","847.3000000007451","stim/yes_39_hor_w1_w.png","f","pattern_62","f","true","","","","847.3000000007451","true","1","","","","","","","","","","","","","","","","",""
"","","","","","html-keyboard-response","147","906256","0.0-3.0-5.0-0.1","6153226d04ed5dce3aaa9703","B2","batch2","pattern_show_trial_num","null","<p class=block-text>Trial 2 out of 78</p>","null","","","","","","","","","","","","","","","","","","","","","","","","","",""
"","","","","","image-keyboard-response","148","906868","0.0-3.0-5.0-1.1","6153226d04ed5dce3aaa9703","B2","batch2","pattern_response","610.0999999996275","stim/yes_29_hor_b1_b.png","f","pattern_52","f","true","","","","610.0999999996275","true","2","","","","","","","","","","","","","","","","",""
"","","","","","html-keyboard-response","149","908185","0.0-3.0-5.0-0.2","6153226d04ed5dce3aaa9703","B2","batch2","pattern_show_trial_num","null","<p class=block-text>Trial 3 out of 78</p>","null","","","","","","","","","","","","","","","","","","","","","","","","","",""
"","","","","","image-keyboard-response","150","909286","0.0-3.0-5.0-1.2","6153226d04ed5dce3aaa9703","B2","batch2","pattern_response","1097.800000000745","stim/yes_58_dia_w1_w.png","j","pattern_76","f","false","","","","1097.800000000745","false","2","","","","","","","","","","","","","","","","",""
"","","","","","html-keyboard-response","151","910601","0.0-3.0-5.0-0.3","6153226d04ed5dce3aaa9703","B2","batch2","pattern_show_trial_num","null","<p class=block-text>Trial 4 out of 78</p>","null","","","","","","","","","","","","","","","","","","","","","","","","","",""
"","","","","","image-keyboard-response","152","911660","0.0-3.0-5.0-1.3","6153226d04ed5dce3aaa9703","B2","batch2","pattern_response","1055.5999999996275","stim/yes_30_ver_b1_b.png","f","pattern_54","f","true","","","","1055.5999999996275","true","3","","","","","","","","","","","","","","","","",""
"","","","","","html-keyboard-response","153","912973","0.0-3.0-5.0-0.4","6153226d04ed5dce3aaa9703","B2","batch2","pattern_show_trial_num","null","<p class=block-text>Trial 5 out of 78</p>","null","","","","","","","","","","","","","","","","","","","","","","","","","",""
"","","","","","image-keyboard-response","154","914565","0.0-3.0-5.0-1.4","6153226d04ed5dce3aaa9703","B2","batch2","pattern_response","1590.6000000014901","stim/yes_44_ver_w1_w.png","j","pattern_66","f","false","","","","1590.6000000014901","false","3","","","","","","","","","","","","","","","","",""
"","","","","","html-keyboard-response","155","915881","0.0-3.0-5.0-0.5","6153226d04ed5dce3aaa9703","B2","batch2","pattern_show_trial_num","null","<p class=block-text>Trial 6 out of 78</p>","null","","","","","","","","","","","","","","","","","","","","","","","","","",""
"","","","","","image-keyboard-response","156","917040","0.0-3.0-5.0-1.5","6153226d04ed5dce3aaa9703","B2","batch2","pattern_response","1156.199999999255","stim/yes_70_ver_b1.png","f","pattern_80","f","true","","","","1156.199999999255","true","4","","","","","","","","","","","","","","","","",""
"","","","","","html-keyboard-response","157","918350","0.0-3.0-5.0-0.6","6153226d04ed5dce3aaa9703","B2","batch2","pattern_show_trial_num","null","<p class=block-text>Trial 7 out of 78</p>","null","","","","","","","","","","","","","","","","","","","","","","","","","",""
"","","","","","image-keyboard-response","158","919855","0.0-3.0-5.0-1.6","6153226d04ed5dce3aaa9703","B2","batch2","pattern_response","1502","stim/no_39_1_w.png","j","pattern_21","j","true","","","","1502","true","5","","","","","","","","","","","","","","","","",""
"","","","","","html-keyboard-response","159","921169","0.0-3.0-5.0-0.7","6153226d04ed5dce3aaa9703","B2","batch2","pattern_show_trial_num","null","<p class=block-text>Trial 8 out of 78</p>","null","","","","","","","","","","","","","","","","","","","","","","","","","",""
"","","","","","image-keyboard-response","160","922148","0.0-3.0-5.0-1.7","6153226d04ed5dce3aaa9703","B2","batch2","pattern_response","975.6999999992549","stim/no_22_1_b.png","j","pattern_07","j","true","","","","975.6999999992549","true","6","","","","","","","","","","","","","","","","",""
"","","","","","html-keyboard-response","161","923465","0.0-3.0-5.0-0.8","6153226d04ed5dce3aaa9703","B2","batch2","pattern_show_trial_num","null","<p class=block-text>Trial 9 out of 78</p>","null","","","","","","","","","","","","","","","","","","","","","","","","","",""
"","","","","","image-keyboard-response","162","924648","0.0-3.0-5.0-1.8","6153226d04ed5dce3aaa9703","B2","batch2","pattern_response","1180.699999999255","stim/no_25_1_b.png","j","pattern_09","j","true","","","","1180.699999999255","true","7","","","","","","","","","","","","","","","","",""
"","","","","","html-keyboard-response","163","925961","0.0-3.0-5.0-0.9","6153226d04ed5dce3aaa9703","B2","batch2","pattern_show_trial_num","null","<p class=block-text>Trial 10 out of 78</p>","null","","","","","","","","","","","","","","","","","","","","","","","","","",""
"","","","","","image-keyboard-response","164","927036","0.0-3.0-5.0-1.9","6153226d04ed5dce3aaa9703","B2","batch2","pattern_response","1072.0999999996275","stim/no_67_1.png","f","pattern_39","j","false","","","","1072.0999999996275","false","7","","","","","","","","","","","","","","","","",""
"","","","","","html-keyboard-response","165","928353","0.0-3.0-5.0-0.10","6153226d04ed5dce3aaa9703","B2","batch2","pattern_show_trial_num","null","<p class=block-text>Trial 11 out of 78</p>","null","","","","","","","","","","","","","","","","","","","","","","","","","",""
"","","","","","image-keyboard-response","166","929198","0.0-3.0-5.0-1.10","6153226d04ed5dce3aaa9703","B2","batch2","pattern_response","842","stim/yes_37_hor_w1_w.png","f","pattern_60","f","true","","","","842","true","8","","","","","","","","","","","","","","","","",""
"","","","","","html-keyboard-response","167","930513","0.0-3.0-5.0-0.11","6153226d04ed5dce3aaa9703","B2","batch2","pattern_show_trial_num","null","<p class=block-text>Trial 12 out of 78</p>","null","","","","","","","","","","","","","","","","","","","","","","","","","",""
"","","","","","image-keyboard-response","168","931789","0.0-3.0-5.0-1.11","6153226d04ed5dce3aaa9703","B2","batch2","pattern_response","1272.5","stim/no_49_2_b.png","j","pattern_29","j","true","","","","1272.5","true","9","","","","","","","","","","","","","","","","",""
"","","","","","html-keyboard-response","169","933103","0.0-3.0-5.0-0.12","6153226d04ed5dce3aaa9703","B2","batch2","pattern_show_trial_num","null","<p class=block-text>Trial 13 out of 78</p>","null","","","","","","","","","","","","","","","","","","","","","","","","","",""
"","","","","","image-keyboard-response","170","934052","0.0-3.0-5.0-1.12","6153226d04ed5dce3aaa9703","B2","batch2","pattern_response","946.7999999988824","stim/no_33_1_b.png","j","pattern_15","j","true","","","","946.7999999988824","true","10","","","","","","","","","","","","","","","","",""
"","","","","","html-keyboard-response","171","935369","0.0-3.0-5.0-0.13","6153226d04ed5dce3aaa9703","B2","batch2","pattern_show_trial_num","null","<p class=block-text>Trial 14 out of 78</p>","null","","","","","","","","","","","","","","","","","","","","","","","","","",""
"","","","","","image-keyboard-response","172","936330","0.0-3.0-5.0-1.13","6153226d04ed5dce3aaa9703","B2","batch2","pattern_response","958.3999999985099","stim/no_36_1_b.png","j","pattern_17","j","true","","","","958.3999999985099","true","11","","","","","","","","","","","","","","","","",""
"","","","","","html-keyboard-response","173","937647","0.0-3.0-5.0-0.14","6153226d04ed5dce3aaa9703","B2","batch2","pattern_show_trial_num","null","<p class=block-text>Trial 15 out of 78</p>","null","","","","","","","","","","","","","","","","","","","","","","","","","",""
"","","","","","image-keyboard-response","174","938968","0.0-3.0-5.0-1.14","6153226d04ed5dce3aaa9703","B2","batch2","pattern_response","1319.5999999996275","stim/no_47_1_b.png","j","pattern_27","j","true","","","","1319.5999999996275","true","12","","","","","","","","","","","","","","","","",""
"","","","","","html-keyboard-response","175","940281","0.0-3.0-5.0-0.15","6153226d04ed5dce3aaa9703","B2","batch2","pattern_show_trial_num","null","<p class=block-text>Trial 16 out of 78</p>","null","","","","","","","","","","","","","","","","","","","","","","","","","",""
"","","","","","image-keyboard-response","176","941362","0.0-3.0-5.0-1.15","6153226d04ed5dce3aaa9703","B2","batch2","pattern_response","1078.5999999996275","stim/yes_17_ver_b1_b.png","f","pattern_46","f","true","","","","1078.5999999996275","true","13","","","","","","","","","","","","","","","","",""
"","","","","","html-keyboard-response","177","942681","0.0-3.0-5.0-0.16","6153226d04ed5dce3aaa9703","B2","batch2","pattern_show_trial_num","null","<p class=block-text>Trial 17 out of 78</p>","null","","","","","","","","","","","","","","","","","","","","","","","","","",""
"","","","","","image-keyboard-response","178","943980","0.0-3.0-5.0-1.16","6153226d04ed5dce3aaa9703","B2","batch2","pattern_response","1295.7999999988824","stim/no_45_1_w.png","j","pattern_25","j","true","","","","1295.7999999988824","true","14","","","","","","","","","","","","","","","","",""
"","","","","","html-keyboard-response","179","945297","0.0-3.0-5.0-0.17","6153226d04ed5dce3aaa9703","B2","batch2","pattern_show_trial_num","null","<p class=block-text>Trial 18 out of 78</p>","null","","","","","","","","","","","","","","","","","","","","","","","","","",""
"","","","","","image-keyboard-response","180","946361","0.0-3.0-5.0-1.17","6153226d04ed5dce3aaa9703","B2","batch2","pattern_response","1061.3999999985099","stim/no_53_1_b.png","j","pattern_33","j","true","","","","1061.3999999985099","true","15","","","","","","","","","","","","","","","","",""
"","","","","","html-keyboard-response","181","947681","0.0-3.0-5.0-0.18","6153226d04ed5dce3aaa9703","B2","batch2","pattern_show_trial_num","null","<p class=block-text>Trial 19 out of 78</p>","null","","","","","","","","","","","","","","","","","","","","","","","","","",""
"","","","","","image-keyboard-response","182","948457","0.0-3.0-5.0-1.18","6153226d04ed5dce3aaa9703","B2","batch2","pattern_response","773.7999999988824","stim/no_18_1_b.png","j","pattern_05","j","true","","","","773.7999999988824","true","16","","","","","","","","","","","","","","","","",""
"","","","","","html-keyboard-response","183","949773","0.0-3.0-5.0-0.19","6153226d04ed5dce3aaa9703","B2","batch2","pattern_show_trial_num","null","<p class=block-text>Trial 20 out of 78</p>","null","","","","","","","","","","","","","","","","","","","","","","","","","",""
"","","","","","image-keyboard-response","184","950939","0.0-3.0-5.0-1.19","6153226d04ed5dce3aaa9703","B2","batch2","pattern_response","1164.300000000745","stim/yes_51_dia_b1.png","f","pattern_72","f","true","","","","1164.300000000745","true","17","","","","","","","","","","","","","","","","",""
"","","","","","html-keyboard-response","185","952256","0.0-3.0-5.0-0.20","6153226d04ed5dce3aaa9703","B2","batch2","pattern_show_trial_num","null","<p class=block-text>Trial 21 out of 78</p>","null","","","","","","","","","","","","","","","","","","","","","","","","","",""
"","","","","","image-keyboard-response","186","952844","0.0-3.0-5.0-1.20","6153226d04ed5dce3aaa9703","B2","batch2","pattern_response","585.1999999992549","stim/yes_12_hor_w1_w.png","f","pattern_42","f","true","","","","585.1999999992549","true","18","","","","","","","","","","","","","","","","",""
"","","","","","html-keyboard-response","187","954161","0.0-3.0-5.0-0.21","6153226d04ed5dce3aaa9703","B2","batch2","pattern_show_trial_num","null","<p class=block-text>Trial 22 out of 78</p>","null","","","","","","","","","","","","","","","","","","","","","","","","","",""
"","","","","","image-keyboard-response","188","954929","0.0-3.0-5.0-1.21","6153226d04ed5dce3aaa9703","B2","batch2","pattern_response","765.8000000007451","stim/yes_33_dia_w1_w.png","j","pattern_56","f","false","","","","765.8000000007451","false","18","","","","","","","","","","","","","","","","",""
"","","","","","html-keyboard-response","189","956245","0.0-3.0-5.0-0.22","6153226d04ed5dce3aaa9703","B2","batch2","pattern_show_trial_num","null","<p class=block-text>Trial 23 out of 78</p>","null","","","","","","","","","","","","","","","","","","","","","","","","","",""
"","","","","","image-keyboard-response","190","957132","0.0-3.0-5.0-1.22","6153226d04ed5dce3aaa9703","B2","batch2","pattern_response","884.1999999992549","stim/no_30_1_b.png","f","pattern_13","j","false","","","","884.1999999992549","false","18","","","","","","","","","","","","","","","","",""
"","","","","","html-keyboard-response","191","958449","0.0-3.0-5.0-0.23","6153226d04ed5dce3aaa9703","B2","batch2","pattern_show_trial_num","null","<p class=block-text>Trial 24 out of 78</p>","null","","","","","","","","","","","","","","","","","","","","","","","","","",""
"","","","","","image-keyboard-response","192","959396","0.0-3.0-5.0-1.23","6153226d04ed5dce3aaa9703","B2","batch2","pattern_response","943.9000000003725","stim/no_28_2.png","j","pattern_11","j","true","","","","943.9000000003725","true","19","","","","","","","","","","","","","","","","",""
"","","","","","html-keyboard-response","193","960713","0.0-3.0-5.0-0.24","6153226d04ed5dce3aaa9703","B2","batch2","pattern_show_trial_num","null","<p class=block-text>Trial 25 out of 78</p>","null","","","","","","","","","","","","","","","","","","","","","","","","","",""
"","","","","","image-keyboard-response","194","961464","0.0-3.0-5.0-1.24","6153226d04ed5dce3aaa9703","B2","batch2","pattern_response","748","stim/yes_46_ver_b1_b.png","f","pattern_68","f","true","","","","748","true","20","","","","","","","","","","","","","","","","",""
"","","","","","html-keyboard-response","195","962773","0.0-3.0-5.0-0.25","6153226d04ed5dce3aaa9703","B2","batch2","pattern_show_trial_num","null","<p class=block-text>Trial 26 out of 78</p>","null","","","","","","","","","","","","","","","","","","","","","","","","","",""
"","","","","","image-keyboard-response","196","964213","0.0-3.0-5.0-1.25","6153226d04ed5dce3aaa9703","B2","batch2","pattern_response","1438.1000000014901","stim/no_51_1.png","j","pattern_31","j","true","","","","1438.1000000014901","true","21","","","","","","","","","","","","","","","","",""
"","","","","","html-keyboard-response","197","965529","0.0-3.0-5.0-0.26","6153226d04ed5dce3aaa9703","B2","batch2","pattern_show_trial_num","null","<p class=block-text>Trial 27 out of 78</p>","null","","","","","","","","","","","","","","","","","","","","","","","","","",""
"","","","","","image-keyboard-response","198","966219","0.0-3.0-5.0-1.26","6153226d04ed5dce3aaa9703","B2","batch2","pattern_response","687.2000000011176","stim/no_15_1_w.png","j","pattern_03","j","true","","","","687.2000000011176","true","22","","","","","","","","","","","","","","","","",""
"","","","","","html-keyboard-response","199","967537","0.0-3.0-5.0-0.27","6153226d04ed5dce3aaa9703","B2","batch2","pattern_show_trial_num","null","<p class=block-text>Trial 28 out of 78</p>","null","","","","","","","","","","","","","","","","","","","","","","","","","",""
"","","","","","image-keyboard-response","200","968390","0.0-3.0-5.0-1.27","6153226d04ed5dce3aaa9703","B2","batch2","pattern_response","850","stim/yes_26_dia_w2_w.png","f","pattern_50","f","true","","","","850","true","23","","","","","","","","","","","","","","","","",""
"","","","","","html-keyboard-response","201","969705","0.0-3.0-5.0-0.28","6153226d04ed5dce3aaa9703","B2","batch2","pattern_show_trial_num","null","<p class=block-text>Trial 29 out of 78</p>","null","","","","","","","","","","","","","","","","","","","","","","","","","",""
"","","","","","image-keyboard-response","202","971520","0.0-3.0-5.0-1.28","6153226d04ed5dce3aaa9703","B2","batch2","pattern_response","1812.2999999988824","stim/yes_63_dia_b1.png","f","pattern_78","f","true","","","","1812.2999999988824","true","24","","","","","","","","","","","","","","","","",""
"","","","","","html-keyboard-response","203","972834","0.0-3.0-5.0-0.29","6153226d04ed5dce3aaa9703","B2","batch2","pattern_show_trial_num","null","<p class=block-text>Trial 30 out of 78</p>","null","","","","","","","","","","","","","","","","","","","","","","","","","",""
"","","","","","image-keyboard-response","204","973677","0.0-3.0-5.0-1.29","6153226d04ed5dce3aaa9703","B2","batch2","pattern_response","840.0999999996275","stim/yes_42_dia_w1_w.png","j","pattern_64","f","false","","","","840.0999999996275","false","24","","","","","","","","","","","","","","","","",""
"","","","","","html-keyboard-response","205","974989","0.0-3.0-5.0-0.30","6153226d04ed5dce3aaa9703","B2","batch2","pattern_show_trial_num","null","<p class=block-text>Trial 31 out of 78</p>","null","","","","","","","","","","","","","","","","","","","","","","","","","",""
"","","","","","image-keyboard-response","206","975647","0.0-3.0-5.0-1.30","6153226d04ed5dce3aaa9703","B2","batch2","pattern_response","655.3000000007451","stim/no_12_1.png","j","pattern_01","j","true","","","","655.3000000007451","true","25","","","","","","","","","","","","","","","","",""
"","","","","","html-keyboard-response","207","976961","0.0-3.0-5.0-0.31","6153226d04ed5dce3aaa9703","B2","batch2","pattern_show_trial_num","null","<p class=block-text>Trial 32 out of 78</p>","null","","","","","","","","","","","","","","","","","","","","","","","","","",""
"","","","","","image-keyboard-response","208","978732","0.0-3.0-5.0-1.31","6153226d04ed5dce3aaa9703","B2","batch2","pattern_response","1768.699999999255","stim/no_58_1_w.png","j","pattern_35","j","true","","","","1768.699999999255","true","26","","","","","","","","","","","","","","","","",""
"","","","","","html-keyboard-response","209","980050","0.0-3.0-5.0-0.32","6153226d04ed5dce3aaa9703","B2","batch2","pattern_show_trial_num","null","<p class=block-text>Trial 33 out of 78</p>","null","","","","","","","","","","","","","","","","","","","","","","","","","",""
"","","","","","image-keyboard-response","210","980812","0.0-3.0-5.0-1.32","6153226d04ed5dce3aaa9703","B2","batch2","pattern_response","760.5999999996275","stim/yes_15_dia_b1u_b.png","j","pattern_44","f","false","","","","760.5999999996275","false","26","","","","","","","","","","","","","","","","",""
"","","","","","html-keyboard-response","211","982129","0.0-3.0-5.0-0.33","6153226d04ed5dce3aaa9703","B2","batch2","pattern_show_trial_num","null","<p class=block-text>Trial 34 out of 78</p>","null","","","","","","","","","","","","","","","","","","","","","","","","","",""
"","","","","","image-keyboard-response","212","983194","0.0-3.0-5.0-1.33","6153226d04ed5dce3aaa9703","B2","batch2","pattern_response","1062.5","stim/yes_49_hor_w1_b.png","j","pattern_70","f","false","","","","1062.5","false","26","","","","","","","","","","","","","","","","",""
"","","","","","html-keyboard-response","213","984514","0.0-3.0-5.0-0.34","6153226d04ed5dce3aaa9703","B2","batch2","pattern_show_trial_num","null","<p class=block-text>Trial 35 out of 78</p>","null","","","","","","","","","","","","","","","","","","","","","","","","","",""
"","","","","","image-keyboard-response","214","986008","0.0-3.0-5.0-1.34","6153226d04ed5dce3aaa9703","B2","batch2","pattern_response","1492.7999999988824","stim/yes_53_ver_b1_b.png","f","pattern_74","f","true","","","","1492.7999999988824","true","27","","","","","","","","","","","","","","","","",""
"","","","","","html-keyboard-response","215","987328","0.0-3.0-5.0-0.35","6153226d04ed5dce3aaa9703","B2","batch2","pattern_show_trial_num","null","<p class=block-text>Trial 36 out of 78</p>","null","","","","","","","","","","","","","","","","","","","","","","","","","",""
"","","","","","image-keyboard-response","216","988207","0.0-3.0-5.0-1.35","6153226d04ed5dce3aaa9703","B2","batch2","pattern_response","877.3999999985099","stim/yes_36_ver_w1_w.png","f","pattern_58","f","true","","","","877.3999999985099","true","28","","","","","","","","","","","","","","","","",""
"","","","","","html-keyboard-response","217","989518","0.0-3.0-5.0-0.36","6153226d04ed5dce3aaa9703","B2","batch2","pattern_show_trial_num","null","<p class=block-text>Trial 37 out of 78</p>","null","","","","","","","","","","","","","","","","","","","","","","","","","",""
"","","","","","image-keyboard-response","218","990296","0.0-3.0-5.0-1.36","6153226d04ed5dce3aaa9703","B2","batch2","pattern_response","776.1999999992549","stim/yes_23_ver_b1.png","f","pattern_48","f","true","","","","776.1999999992549","true","29","","","","","","","","","","","","","","","","",""
"","","","","","html-keyboard-response","219","991606","0.0-3.0-5.0-0.37","6153226d04ed5dce3aaa9703","B2","batch2","pattern_show_trial_num","null","<p class=block-text>Trial 38 out of 78</p>","null","","","","","","","","","","","","","","","","","","","","","","","","","",""
"","","","","","image-keyboard-response","220","993396","0.0-3.0-5.0-1.37","6153226d04ed5dce3aaa9703","B2","batch2","pattern_response","1788.6000000014901","stim/no_37_2_w.png","j","pattern_19","j","true","","","","1788.6000000014901","true","30","","","","","","","","","","","","","","","","",""
"","","","","","html-keyboard-response","221","994714","0.0-3.0-5.0-0.38","6153226d04ed5dce3aaa9703","B2","batch2","pattern_show_trial_num","null","<p class=block-text>Trial 39 out of 78</p>","null","","","","","","","","","","","","","","","","","","","","","","","","","",""
"","","","","","image-keyboard-response","222","996729","0.0-3.0-5.0-1.38","6153226d04ed5dce3aaa9703","B2","batch2","pattern_response","2013","stim/no_43_2_b.png","j","pattern_23","j","true","","","","2013","true","31","","","","","","","","","","","","","","","","",""
"","","","","","image-keyboard-response","223","998979","0.0-3.0-6.0","6153226d04ed5dce3aaa9703","B2","batch2","attention_check","1737.7000000011176","stim/empty_board.png","j","","j","true","","","","","","","500","[""f"",""j""]","","","","","","","","","","","","","","",""
"","","","","","html-keyboard-response","224","999786","0.0-3.0-7.0-0.0","6153226d04ed5dce3aaa9703","B2","batch2","pattern_show_trial_num","null","<p class=block-text>Trial 40 out of 78</p>","null","","","","","","","","","","","","","","","","","","","","","","","","","",""
"","","","","","image-keyboard-response","225","1000726","0.0-3.0-7.0-1.0","6153226d04ed5dce3aaa9703","B2","batch2","pattern_response","937.4000000003725","stim/yes_43_ver_w1_w.png","f","pattern_65","f","true","","","","937.4000000003725","true","32","","","","","","","","","","","","","","","","",""
"","","","","","html-keyboard-response","226","1002040","0.0-3.0-7.0-0.1","6153226d04ed5dce3aaa9703","B2","batch2","pattern_show_trial_num","null","<p class=block-text>Trial 41 out of 78</p>","null","","","","","","","","","","","","","","","","","","","","","","","","","",""
"","","","","","image-keyboard-response","227","1003721","0.0-3.0-7.0-1.1","6153226d04ed5dce3aaa9703","B2","batch2","pattern_response","1679.5","stim/yes_67_hor_b1.png","j","pattern_79","f","false","","","","1679.5","false","32","","","","","","","","","","","","","","","","",""
"","","","","","html-keyboard-response","228","1005040","0.0-3.0-7.0-0.2","6153226d04ed5dce3aaa9703","B2","batch2","pattern_show_trial_num","null","<p class=block-text>Trial 42 out of 78</p>","null","","","","","","","","","","","","","","","","","","","","","","","","","",""
"","","","","","image-keyboard-response","229","1006371","0.0-3.0-7.0-1.2","6153226d04ed5dce3aaa9703","B2","batch2","pattern_response","1328.5999999996275","stim/no_26_1_w.png","j","pattern_10","j","true","","","","1328.5999999996275","true","33","","","","","","","","","","","","","","","","",""
"","","","","","html-keyboard-response","230","1007690","0.0-3.0-7.0-0.3","6153226d04ed5dce3aaa9703","B2","batch2","pattern_show_trial_num","null","<p class=block-text>Trial 43 out of 78</p>","null","","","","","","","","","","","","","","","","","","","","","","","","","",""
"","","","","","image-keyboard-response","231","1009083","0.0-3.0-7.0-1.3","6153226d04ed5dce3aaa9703","B2","batch2","pattern_response","1391","stim/no_55_1_w.png","j","pattern_34","j","true","","","","1391","true","34","","","","","","","","","","","","","","","","",""
"","","","","","html-keyboard-response","232","1010402","0.0-3.0-7.0-0.4","6153226d04ed5dce3aaa9703","B2","batch2","pattern_show_trial_num","null","<p class=block-text>Trial 44 out of 78</p>","null","","","","","","","","","","","","","","","","","","","","","","","","","",""
"","","","","","image-keyboard-response","233","1011421","0.0-3.0-7.0-1.4","6153226d04ed5dce3aaa9703","B2","batch2","pattern_response","1016.7999999988824","stim/yes_29_ver_w1.png","f","pattern_53","f","true","","","","1016.7999999988824","true","35","","","","","","","","","","","","","","","","",""
"","","","","","html-keyboard-response","234","1012738","0.0-3.0-7.0-0.5","6153226d04ed5dce3aaa9703","B2","batch2","pattern_show_trial_num","null","<p class=block-text>Trial 45 out of 78</p>","null","","","","","","","","","","","","","","","","","","","","","","","","","",""
"","","","","","image-keyboard-response","235","1013921","0.0-3.0-7.0-1.5","6153226d04ed5dce3aaa9703","B2","batch2","pattern_response","1180.699999999255","stim/yes_28_ver_b1.png","f","pattern_51","f","true","","","","1180.699999999255","true","36","","","","","","","","","","","","","","","","",""
"","","","","","html-keyboard-response","236","1015240","0.0-3.0-7.0-0.6","6153226d04ed5dce3aaa9703","B2","batch2","pattern_show_trial_num","null","<p class=block-text>Trial 46 out of 78</p>","null","","","","","","","","","","","","","","","","","","","","","","","","","",""
"","","","","","image-keyboard-response","237","1016030","0.0-3.0-7.0-1.6","6153226d04ed5dce3aaa9703","B2","batch2","pattern_response","787.6999999992549","stim/yes_14_hor_b1_w.png","f","pattern_43","f","true","","","","787.6999999992549","true","37","","","","","","","","","","","","","","","","",""
"","","","","","html-keyboard-response","238","1017342","0.0-3.0-7.0-0.7","6153226d04ed5dce3aaa9703","B2","batch2","pattern_show_trial_num","null","<p class=block-text>Trial 47 out of 78</p>","null","","","","","","","","","","","","","","","","","","","","","","","","","",""
"","","","","","image-keyboard-response","239","1019145","0.0-3.0-7.0-1.7","6153226d04ed5dce3aaa9703","B2","batch2","pattern_response","1800.5999999996275","stim/no_46_1_b.png","j","pattern_26","j","true","","","","1800.5999999996275","true","38","","","","","","","","","","","","","","","","",""
"","","","","","html-keyboard-response","240","1020466","0.0-3.0-7.0-0.8","6153226d04ed5dce3aaa9703","B2","batch2","pattern_show_trial_num","null","<p class=block-text>Trial 48 out of 78</p>","null","","","","","","","","","","","","","","","","","","","","","","","","","",""
"","","","","","image-keyboard-response","241","1021427","0.0-3.0-7.0-1.8","6153226d04ed5dce3aaa9703","B2","batch2","pattern_response","953.1999999992549","stim/no_13_2_b.png","j","pattern_02","j","true","","","","953.1999999992549","true","39","","","","","","","","","","","","","","","","",""
"","","","","","html-keyboard-response","242","1022746","0.0-3.0-7.0-0.9","6153226d04ed5dce3aaa9703","B2","batch2","pattern_show_trial_num","null","<p class=block-text>Trial 49 out of 78</p>","null","","","","","","","","","","","","","","","","","","","","","","","","","",""
"","","","","","image-keyboard-response","243","1024148","0.0-3.0-7.0-1.9","6153226d04ed5dce3aaa9703","B2","batch2","pattern_response","1399.9000000003725","stim/no_52_1.png","j","pattern_32","j","true","","","","1399.9000000003725","true","40","","","","","","","","","","","","","","","","",""
"","","","","","html-keyboard-response","244","1025466","0.0-3.0-7.0-0.10","6153226d04ed5dce3aaa9703","B2","batch2","pattern_show_trial_num","null","<p class=block-text>Trial 50 out of 78</p>","null","","","","","","","","","","","","","","","","","","","","","","","","","",""
"","","","","","image-keyboard-response","245","1027036","0.0-3.0-7.0-1.10","6153226d04ed5dce3aaa9703","B2","batch2","pattern_response","1567.2999999988824","stim/no_50_1.png","j","pattern_30","j","true","","","","1567.2999999988824","true","41","","","","","","","","","","","","","","","","",""
"","","","","","html-keyboard-response","246","1028354","0.0-3.0-7.0-0.11","6153226d04ed5dce3aaa9703","B2","batch2","pattern_show_trial_num","null","<p class=block-text>Trial 51 out of 78</p>","null","","","","","","","","","","","","","","","","","","","","","","","","","",""
"","","","","","image-keyboard-response","247","1029932","0.0-3.0-7.0-1.11","6153226d04ed5dce3aaa9703","B2","batch2","pattern_response","1576.6000000014901","stim/no_70_2.png","f","pattern_40","j","false","","","","1576.6000000014901","false","41","","","","","","","","","","","","","","","","",""
"","","","","","html-keyboard-response","248","1031250","0.0-3.0-7.0-0.12","6153226d04ed5dce3aaa9703","B2","batch2","pattern_show_trial_num","null","<p class=block-text>Trial 52 out of 78</p>","null","","","","","","","","","","","","","","","","","","","","","","","","","",""
"","","","","","image-keyboard-response","249","1032069","0.0-3.0-7.0-1.12","6153226d04ed5dce3aaa9703","B2","batch2","pattern_response","816.8999999985099","stim/yes_31_hor_b1.png","j","pattern_55","f","false","","","","816.8999999985099","false","41","","","","","","","","","","","","","","","","",""
"","","","","","html-keyboard-response","250","1033386","0.0-3.0-7.0-0.13","6153226d04ed5dce3aaa9703","B2","batch2","pattern_show_trial_num","null","<p class=block-text>Trial 53 out of 78</p>","null","","","","","","","","","","","","","","","","","","","","","","","","","",""
"","","","","","image-keyboard-response","251","1035596","0.0-3.0-7.0-1.13","6153226d04ed5dce3aaa9703","B2","batch2","pattern_response","2208.4000000003725","stim/no_44_1.png","j","pattern_24","j","true","","","","2208.4000000003725","true","42","","","","","","","","","","","","","","","","",""
"","","","","","html-keyboard-response","252","1036914","0.0-3.0-7.0-0.14","6153226d04ed5dce3aaa9703","B2","batch2","pattern_show_trial_num","null","<p class=block-text>Trial 54 out of 78</p>","null","","","","","","","","","","","","","","","","","","","","","","","","","",""
"","","","","","image-keyboard-response","253","1037923","0.0-3.0-7.0-1.14","6153226d04ed5dce3aaa9703","B2","batch2","pattern_response","1006.1999999992549","stim/yes_17_dia_w1.png","f","pattern_45","f","true","","","","1006.1999999992549","true","43","","","","","","","","","","","","","","","","",""
"","","","","","html-keyboard-response","254","1039240","0.0-3.0-7.0-0.15","6153226d04ed5dce3aaa9703","B2","batch2","pattern_show_trial_num","null","<p class=block-text>Trial 55 out of 78</p>","null","","","","","","","","","","","","","","","","","","","","","","","","","",""
"","","","","","image-keyboard-response","255","1040875","0.0-3.0-7.0-1.15","6153226d04ed5dce3aaa9703","B2","batch2","pattern_response","1633.5","stim/yes_48_dia_w1_w.png","j","pattern_69","f","false","","","","1633.5","false","43","","","","","","","","","","","","","","","","",""
"","","","","","html-keyboard-response","256","1042190","0.0-3.0-7.0-0.16","6153226d04ed5dce3aaa9703","B2","batch2","pattern_show_trial_num","null","<p class=block-text>Trial 56 out of 78</p>","null","","","","","","","","","","","","","","","","","","","","","","","","","",""
"","","","","","image-keyboard-response","257","1043203","0.0-3.0-7.0-1.16","6153226d04ed5dce3aaa9703","B2","batch2","pattern_response","1010.5","stim/yes_60_ver_b1_b.png","f","pattern_77","f","true","","","","1010.5","true","44","","","","","","","","","","","","","","","","",""
"","","","","","html-keyboard-response","258","1044522","0.0-3.0-7.0-0.17","6153226d04ed5dce3aaa9703","B2","batch2","pattern_show_trial_num","null","<p class=block-text>Trial 57 out of 78</p>","null","","","","","","","","","","","","","","","","","","","","","","","","","",""
"","","","","","image-keyboard-response","259","1045737","0.0-3.0-7.0-1.17","6153226d04ed5dce3aaa9703","B2","batch2","pattern_response","1213.7000000011176","stim/yes_38_hor_b1_b.png","f","pattern_61","f","true","","","","1213.7000000011176","true","45","","","","","","","","","","","","","","","","",""
"","","","","","html-keyboard-response","260","1047056","0.0-3.0-7.0-0.18","6153226d04ed5dce3aaa9703","B2","batch2","pattern_show_trial_num","null","<p class=block-text>Trial 58 out of 78</p>","null","","","","","","","","","","","","","","","","","","","","","","","","","",""
"","","","","","image-keyboard-response","261","1048774","0.0-3.0-7.0-1.18","6153226d04ed5dce3aaa9703","B2","batch2","pattern_response","1715","stim/yes_37_dia_w1.png","j","pattern_59","f","false","","","","1715","false","45","","","","","","","","","","","","","","","","",""
"","","","","","html-keyboard-response","262","1050090","0.0-3.0-7.0-0.19","6153226d04ed5dce3aaa9703","B2","batch2","pattern_show_trial_num","null","<p class=block-text>Trial 59 out of 78</p>","null","","","","","","","","","","","","","","","","","","","","","","","","","",""
"","","","","","image-keyboard-response","263","1051827","0.0-3.0-7.0-1.19","6153226d04ed5dce3aaa9703","B2","batch2","pattern_response","1735.2999999988824","stim/yes_35_dia_b1.png","f","pattern_57","f","true","","","","1735.2999999988824","true","46","","","","","","","","","","","","","","","","",""
"","","","","","html-keyboard-response","264","1053146","0.0-3.0-7.0-0.20","6153226d04ed5dce3aaa9703","B2","batch2","pattern_show_trial_num","null","<p class=block-text>Trial 60 out of 78</p>","null","","","","","","","","","","","","","","","","","","","","","","","","","",""
"","","","","","image-keyboard-response","265","1054076","0.0-3.0-7.0-1.20","6153226d04ed5dce3aaa9703","B2","batch2","pattern_response","927.1999999992549","stim/no_17_1_w.png","j","pattern_04","j","true","","","","927.1999999992549","true","47","","","","","","","","","","","","","","","","",""
"","","","","","html-keyboard-response","266","1055390","0.0-3.0-7.0-0.21","6153226d04ed5dce3aaa9703","B2","batch2","pattern_show_trial_num","null","<p class=block-text>Trial 61 out of 78</p>","null","","","","","","","","","","","","","","","","","","","","","","","","","",""
"","","","","","image-keyboard-response","267","1056954","0.0-3.0-7.0-1.21","6153226d04ed5dce3aaa9703","B2","batch2","pattern_response","1561.699999999255","stim/no_38_1_b.png","j","pattern_20","j","true","","","","1561.699999999255","true","48","","","","","","","","","","","","","","","","",""
"","","","","","html-keyboard-response","268","1058273","0.0-3.0-7.0-0.22","6153226d04ed5dce3aaa9703","B2","batch2","pattern_show_trial_num","null","<p class=block-text>Trial 62 out of 78</p>","null","","","","","","","","","","","","","","","","","","","","","","","","","",""
"","","","","","image-keyboard-response","269","1060089","0.0-3.0-7.0-1.22","6153226d04ed5dce3aaa9703","B2","batch2","pattern_response","1813.5","stim/no_62_1_w.png","j","pattern_36","j","true","","","","1813.5","true","49","","","","","","","","","","","","","","","","",""
"","","","","","html-keyboard-response","270","1061406","0.0-3.0-7.0-0.23","6153226d04ed5dce3aaa9703","B2","batch2","pattern_show_trial_num","null","<p class=block-text>Trial 63 out of 78</p>","null","","","","","","","","","","","","","","","","","","","","","","","","","",""
"","","","","","image-keyboard-response","271","1063221","0.0-3.0-7.0-1.23","6153226d04ed5dce3aaa9703","B2","batch2","pattern_response","1812.0999999996275","stim/no_48_1_w.png","j","pattern_28","j","true","","","","1812.0999999996275","true","50","","","","","","","","","","","","","","","","",""
"","","","","","html-keyboard-response","272","1064538","0.0-3.0-7.0-0.24","6153226d04ed5dce3aaa9703","B2","batch2","pattern_show_trial_num","null","<p class=block-text>Trial 64 out of 78</p>","null","","","","","","","","","","","","","","","","","","","","","","","","","",""
"","","","","","image-keyboard-response","273","1065381","0.0-3.0-7.0-1.24","6153226d04ed5dce3aaa9703","B2","batch2","pattern_response","840.7000000011176","stim/no_32_1_w.png","j","pattern_14","j","true","","","","840.7000000011176","true","51","","","","","","","","","","","","","","","","",""
"","","","","","html-keyboard-response","274","1066698","0.0-3.0-7.0-0.25","6153226d04ed5dce3aaa9703","B2","batch2","pattern_show_trial_num","null","<p class=block-text>Trial 65 out of 78</p>","null","","","","","","","","","","","","","","","","","","","","","","","","","",""
"","","","","","image-keyboard-response","275","1067479","0.0-3.0-7.0-1.25","6153226d04ed5dce3aaa9703","B2","batch2","pattern_response","778.9000000003725","stim/no_20_1_w.png","j","pattern_06","j","true","","","","778.9000000003725","true","52","","","","","","","","","","","","","","","","",""
"","","","","","html-keyboard-response","276","1068790","0.0-3.0-7.0-0.26","6153226d04ed5dce3aaa9703","B2","batch2","pattern_show_trial_num","null","<p class=block-text>Trial 66 out of 78</p>","null","","","","","","","","","","","","","","","","","","","","","","","","","",""
"","","","","","image-keyboard-response","277","1069694","0.0-3.0-7.0-1.26","6153226d04ed5dce3aaa9703","B2","batch2","pattern_response","901.7999999988824","stim/yes_22_ver_w1.png","f","pattern_47","f","true","","","","901.7999999988824","true","53","","","","","","","","","","","","","","","","",""
"","","","","","html-keyboard-response","278","1071006","0.0-3.0-7.0-0.27","6153226d04ed5dce3aaa9703","B2","batch2","pattern_show_trial_num","null","<p class=block-text>Trial 67 out of 78</p>","null","","","","","","","","","","","","","","","","","","","","","","","","","",""
"","","","","","image-keyboard-response","279","1071940","0.0-3.0-7.0-1.27","6153226d04ed5dce3aaa9703","B2","batch2","pattern_response","931.0999999996275","stim/no_29_1_b.png","j","pattern_12","j","true","","","","931.0999999996275","true","54","","","","","","","","","","","","","","","","",""
"","","","","","html-keyboard-response","280","1073257","0.0-3.0-7.0-0.28","6153226d04ed5dce3aaa9703","B2","batch2","pattern_show_trial_num","null","<p class=block-text>Trial 68 out of 78</p>","null","","","","","","","","","","","","","","","","","","","","","","","","","",""
"","","","","","image-keyboard-response","281","1074662","0.0-3.0-7.0-1.28","6153226d04ed5dce3aaa9703","B2","batch2","pattern_response","1403.0999999996275","stim/no_36_2_w.png","j","pattern_18","j","true","","","","1403.0999999996275","true","55","","","","","","","","","","","","","","","","",""
"","","","","","html-keyboard-response","282","1075973","0.0-3.0-7.0-0.29","6153226d04ed5dce3aaa9703","B2","batch2","pattern_show_trial_num","null","<p class=block-text>Trial 69 out of 78</p>","null","","","","","","","","","","","","","","","","","","","","","","","","","",""
"","","","","","image-keyboard-response","283","1077557","0.0-3.0-7.0-1.29","6153226d04ed5dce3aaa9703","B2","batch2","pattern_response","1582","stim/no_42_1_w.png","j","pattern_22","j","true","","","","1582","true","56","","","","","","","","","","","","","","","","",""
"","","","","","html-keyboard-response","284","1078873","0.0-3.0-7.0-0.30","6153226d04ed5dce3aaa9703","B2","batch2","pattern_show_trial_num","null","<p class=block-text>Trial 70 out of 78</p>","null","","","","","","","","","","","","","","","","","","","","","","","","","",""
"","","","","","image-keyboard-response","285","1080828","0.0-3.0-7.0-1.30","6153226d04ed5dce3aaa9703","B2","batch2","pattern_response","1952.4000000003725","stim/yes_50_dia_w1.png","f","pattern_71","f","true","","","","1952.4000000003725","true","57","","","","","","","","","","","","","","","","",""
"","","","","","html-keyboard-response","286","1082146","0.0-3.0-7.0-0.31","6153226d04ed5dce3aaa9703","B2","batch2","pattern_show_trial_num","null","<p class=block-text>Trial 71 out of 78</p>","null","","","","","","","","","","","","","","","","","","","","","","","","","",""
"","","","","","image-keyboard-response","287","1084131","0.0-3.0-7.0-1.31","6153226d04ed5dce3aaa9703","B2","batch2","pattern_response","1982.7999999988824","stim/yes_40_dia_b1_b.png","j","pattern_63","f","false","","","","1982.7999999988824","false","57","","","","","","","","","","","","","","","","",""
"","","","","","html-keyboard-response","288","1085457","0.0-3.0-7.0-0.32","6153226d04ed5dce3aaa9703","B2","batch2","pattern_show_trial_num","null","<p class=block-text>Trial 72 out of 78</p>","null","","","","","","","","","","","","","","","","","","","","","","","","","",""
"","","","","","image-keyboard-response","289","1086453","0.0-3.0-7.0-1.32","6153226d04ed5dce3aaa9703","B2","batch2","pattern_response","992.8999999985099","stim/yes_52_ver_w1.png","f","pattern_73","f","true","","","","992.8999999985099","true","58","","","","","","","","","","","","","","","","",""
"","","","","","html-keyboard-response","290","1087770","0.0-3.0-7.0-0.33","6153226d04ed5dce3aaa9703","B2","batch2","pattern_show_trial_num","null","<p class=block-text>Trial 73 out of 78</p>","null","","","","","","","","","","","","","","","","","","","","","","","","","",""
"","","","","","image-keyboard-response","291","1088800","0.0-3.0-7.0-1.33","6153226d04ed5dce3aaa9703","B2","batch2","pattern_response","1028.3999999985099","stim/yes_45_hor_b2_b.png","f","pattern_67","f","true","","","","1028.3999999985099","true","59","","","","","","","","","","","","","","","","",""
"","","","","","html-keyboard-response","292","1090114","0.0-3.0-7.0-0.34","6153226d04ed5dce3aaa9703","B2","batch2","pattern_show_trial_num","null","<p class=block-text>Trial 74 out of 78</p>","null","","","","","","","","","","","","","","","","","","","","","","","","","",""
"","","","","","image-keyboard-response","293","1091435","0.0-3.0-7.0-1.34","6153226d04ed5dce3aaa9703","B2","batch2","pattern_response","1318.699999999255","stim/no_34_1_b.png","j","pattern_16","j","true","","","","1318.699999999255","true","60","","","","","","","","","","","","","","","","",""
"","","","","","html-keyboard-response","294","1092753","0.0-3.0-7.0-0.35","6153226d04ed5dce3aaa9703","B2","batch2","pattern_show_trial_num","null","<p class=block-text>Trial 75 out of 78</p>","null","","","","","","","","","","","","","","","","","","","","","","","","","",""
"","","","","","image-keyboard-response","295","1093502","0.0-3.0-7.0-1.35","6153226d04ed5dce3aaa9703","B2","batch2","pattern_response","747.7999999988824","stim/yes_25_hor_b1_b.png","f","pattern_49","f","true","","","","747.7999999988824","true","61","","","","","","","","","","","","","","","","",""
"","","","","","html-keyboard-response","296","1094818","0.0-3.0-7.0-0.36","6153226d04ed5dce3aaa9703","B2","batch2","pattern_show_trial_num","null","<p class=block-text>Trial 76 out of 78</p>","null","","","","","","","","","","","","","","","","","","","","","","","","","",""
"","","","","","image-keyboard-response","297","1095579","0.0-3.0-7.0-1.36","6153226d04ed5dce3aaa9703","B2","batch2","pattern_response","759.1999999992549","stim/yes_55_hor_w1_w.png","f","pattern_75","f","true","","","","759.1999999992549","true","62","","","","","","","","","","","","","","","","",""
"","","","","","html-keyboard-response","298","1096898","0.0-3.0-7.0-0.37","6153226d04ed5dce3aaa9703","B2","batch2","pattern_show_trial_num","null","<p class=block-text>Trial 77 out of 78</p>","null","","","","","","","","","","","","","","","","","","","","","","","","","",""
"","","","","","image-keyboard-response","299","1097832","0.0-3.0-7.0-1.37","6153226d04ed5dce3aaa9703","B2","batch2","pattern_response","932.1999999992549","stim/no_23_1.png","j","pattern_08","j","true","","","","932.1999999992549","true","63","","","","","","","","","","","","","","","","",""
"","","","","","html-keyboard-response","300","1099142","0.0-3.0-7.0-0.38","6153226d04ed5dce3aaa9703","B2","batch2","pattern_show_trial_num","null","<p class=block-text>Trial 78 out of 78</p>","null","","","","","","","","","","","","","","","","","","","","","","","","","",""
"","","","","","image-keyboard-response","301","1101390","0.0-3.0-7.0-1.38","6153226d04ed5dce3aaa9703","B2","batch2","pattern_response","2245.199999999255","stim/no_65_1_b.png","j","pattern_38","j","true","","","","2245.199999999255","true","64","","","","","","","","","","","","","","","","",""
"","","","","","html-button-response","302","1109754","0.0-3.0-8.0","6153226d04ed5dce3aaa9703","B2","batch2","","7854.0999999996275","<p class = block-text>This concludes the 4-in-a-row detection game.Thank you for your responses!<br>
            You responded correctly on 82% of the trials.<br>
            When you are ready, press ""Continue"" button to continue </p>","0","","","","","","","","","","","","","","","","","","","","","","","","","",""
"true","","","","","fullscreen","303","1112050","0.0-4.0-0.0","6153226d04ed5dce3aaa9703","B2","batch2","","","","","","","","","","","","","","","","","","","","","","","","","","","","","",""
"","","","","","instructions","304","1168362","0.0-4.0-1.0-0.0-0.0","6153226d04ed5dce3aaa9703","B2","batch2","tol-instructions","56311.10000000149","","","","","","","","[{""page_index"":0,""viewing_time"":11543.60000000149},{""page_index"":1,""viewing_time"":9100.799999998882},{""page_index"":2,""viewing_time"":8254.800000000745},{""page_index"":3,""viewing_time"":10247.900000000373},{""page_index"":4,""viewing_time"":5227.39999999851},{""page_index"":5,""viewing_time"":8919.800000000745},{""page_index"":6,""viewing_time"":3016.5}]","","","","","","","","","","","","","","","","","","","",""
"","","","","","html-button-response","305","1169278","0.0-4.0-1.0-1.0-0.0","6153226d04ed5dce3aaa9703","B2","batch2","tol_enter_quiz","914.1000000014901","<p class=block-text> Let's answer a few questions <br>","0","","","","","","","","","","","","","","","","","","","","","","","","","",""
"","","","","","html-button-response","306","1172294","0.0-4.0-1.0-1.0-1.0","6153226d04ed5dce3aaa9703","B2","batch2","tol_quiz","3013.199999999255","<p class = block-text>True or False: You can only move the ball on top of a peg. <br></p>","1","","","false","","","","","","","","","","","","","","","","","","","","","","",""
"","","","","","html-button-response","307","1173716","0.0-4.0-1.0-1.0-2.0","6153226d04ed5dce3aaa9703","B2","batch2","tol_quiz_feedback","1420","<p class = block-text>Incorrect. Remember, you can only move the ball on top of a peg.</p>","0","","","","","","","","","","","","","","","","","","","","","","","","","",""
"","","","","","html-button-response","308","1176661","0.0-4.0-1.0-1.0-3.0","6153226d04ed5dce3aaa9703","B2","batch2","tol_quiz","2943","<p class = block-text>True or False: You should try to match your board with the target board with fewest moves possible. <br></p>","0","","","true","","","","","","","","","","","","","","","","","","","","","","",""
"","","","","","html-button-response","309","1177495","0.0-4.0-1.0-1.0-4.0","6153226d04ed5dce3aaa9703","B2","batch2","tol_quiz_feedback","832.5","<p class = block-text>Correct! </p>","0","","","","","","","","","","","","","","","","","","","","","","","","","",""
"","","","","","html-button-response","310","1179310","0.0-4.0-1.0-2.0-0.0","6153226d04ed5dce3aaa9703","B2","batch2","","1812.4000000003725","<p class = block-text>You made too many incorrect choices.</p><p class = block-text>You will now repeat the instructions and quiz</p>","0","","","","","","","","","","","","","","","","","","","","","","","","","",""
"","","","","","instructions","311","1187119","0.0-4.0-1.1-0.1-0.1","6153226d04ed5dce3aaa9703","B2","batch2","tol-instructions","7807","","","","","","","","[{""page_index"":0,""viewing_time"":1162.0999999996275},{""page_index"":1,""viewing_time"":457.80000000074506},{""page_index"":2,""viewing_time"":466.2999999988824},{""page_index"":3,""viewing_time"":569.4000000003725},{""page_index"":4,""viewing_time"":698.7000000011176},{""page_index"":5,""viewing_time"":714.5999999996275},{""page_index"":6,""viewing_time"":3737.699999999255}]","","","","","","","","","","","","","","","","","","","",""
"","","","","","html-button-response","312","1188025","0.0-4.0-1.1-1.1-0.1","6153226d04ed5dce3aaa9703","B2","batch2","tol_enter_quiz","905","<p class=block-text> Let's answer a few questions <br>","0","","","","","","","","","","","","","","","","","","","","","","","","","",""
"","","","","","html-button-response","313","1190202","0.0-4.0-1.1-1.1-1.1","6153226d04ed5dce3aaa9703","B2","batch2","tol_quiz","2173.9000000003725","<p class = block-text>True or False: You can only move the ball on top of a peg. <br></p>","0","","","true","","","","","","","","","","","","","","","","","","","","","","",""
"","","","","","html-button-response","314","1191060","0.0-4.0-1.1-1.1-2.1","6153226d04ed5dce3aaa9703","B2","batch2","tol_quiz_feedback","856.7000000011176","<p class = block-text>Correct! You can only move the ball on top of a peg.</p>","0","","","","","","","","","","","","","","","","","","","","","","","","","",""
"","","","","","html-button-response","315","1192682","0.0-4.0-1.1-1.1-3.1","6153226d04ed5dce3aaa9703","B2","batch2","tol_quiz","1620.5999999996275","<p class = block-text>True or False: You should try to match your board with the target board with fewest moves possible. <br></p>","0","","","true","","","","","","","","","","","","","","","","","","","","","","",""
"","","","","","html-button-response","316","1193389","0.0-4.0-1.1-1.1-4.1","6153226d04ed5dce3aaa9703","B2","batch2","tol_quiz_feedback","705.4000000003725","<p class = block-text>Correct! </p>","0","","","","","","","","","","","","","","","","","","","","","","","","","",""
"","","","","","html-button-response","317","1194240","0.0-4.0-2.0","6153226d04ed5dce3aaa9703","B2","batch2","","849.2999999988824","<p class=block-text> Now that you've understood the game, let's practice a few easier examples before we start!<br> <br>","0","","","","","","","","","","","","","","","","","","","","","","","","","",""
"","","","","","single-stim-button","318","1197005","0.0-4.0-3.0-0.0","6153226d04ed5dce3aaa9703","B2","batch2","tol_practice","2762","","","","","","","","","","","","","","tol_peg_2","2762","2762","0","[[1,2,0],[0,0],[0]]","1","[[1,2,0],[0,0],[3]]","practice","2762","","","","","",""
"","","","","","single-stim-button","319","1198955","0.0-4.0-3.0-1.0","6153226d04ed5dce3aaa9703","B2","batch2","tol_practice","1948","","","","","","","","","","","","","","tol_peg_3","1948","1948","0","[[1,2,0],[0,0],[3]]","1","[[1,2,0],[0,0],[3]]","practice","1948","","","","","",""
"","","","","","poldrack-single-stim","320","1199963","0.0-4.0-4.0","6153226d04ed5dce3aaa9703","B2","batch2","tol_feedback","-1","","","","","true","","","","","","","","","","1000","1000","500","","","","","","-1","none","true","","0",""
"","","","","","single-stim-button","321","1202343","0.0-4.0-5.0-0.0","6153226d04ed5dce3aaa9703","B2","batch2","tol_practice","2378","","","","","","","","","","","","","","tol_peg_1","2378","2378","0","[[1,0,0],[3,0],[0]]","2","[[0,0,0],[3,1],[2]]","practice","2378","","","","","",""
"","","","","","single-stim-button","322","1203331","0.0-4.0-5.0-1.0","6153226d04ed5dce3aaa9703","B2","batch2","tol_practice","986","","","","","","","","","","","","","","tol_peg_3","986","986","0","[[1,0,0],[3,0],[2]]","2","[[0,0,0],[3,1],[2]]","practice","986","","","","","",""
"","","","","","single-stim-button","323","1205788","0.0-4.0-5.1-0.1","6153226d04ed5dce3aaa9703","B2","batch2","tol_practice","2455","","","","","","","","","","","","","","tol_peg_1","2455","2455","0","[[0,0,0],[3,0],[2]]","3","[[0,0,0],[3,1],[2]]","practice","2455","","","","","",""
"","","","","","single-stim-button","324","1211617","0.0-4.0-5.1-1.1","6153226d04ed5dce3aaa9703","B2","batch2","tol_practice","5827","","","","","","","","","","","","","","tol_peg_2","5827","5827","0","[[0,0,0],[3,1],[2]]","3","[[0,0,0],[3,1],[2]]","practice","5827","","","","","",""
"","","","","","poldrack-single-stim","325","1212624","0.0-4.0-6.0","6153226d04ed5dce3aaa9703","B2","batch2","tol_feedback","-1","","","","","true","","","","","","","","","","1000","1000","500","","","","","","-1","none","true","","0",""
"","","","","","single-stim-button","326","1215672","0.0-4.0-7.0-0.0","6153226d04ed5dce3aaa9703","B2","batch2","tol_practice","3046","","","","","","","","","","","","","","tol_peg_2","3046","3046","0","[[1,2,0],[0,0],[0]]","4","[[1,0,0],[2,0],[3]]","practice","3046","","","","","",""
"","","","","","single-stim-button","327","1216668","0.0-4.0-7.0-1.0","6153226d04ed5dce3aaa9703","B2","batch2","tol_practice","994","","","","","","","","","","","","","","tol_peg_3","994","994","0","[[1,2,0],[0,0],[3]]","4","[[1,0,0],[2,0],[3]]","practice","994","","","","","",""
"","","","","","single-stim-button","328","1217840","0.0-4.0-7.1-0.1","6153226d04ed5dce3aaa9703","B2","batch2","tol_practice","1170","","","","","","","","","","","","","","tol_peg_1","1170","1170","0","[[1,0,0],[0,0],[3]]","5","[[1,0,0],[2,0],[3]]","practice","1170","","","","","",""
"","","","","","single-stim-button","329","1220273","0.0-4.0-7.1-1.1","6153226d04ed5dce3aaa9703","B2","batch2","tol_practice","2431","","","","","","","","","","","","","","tol_peg_1","2431","2431","0","[[1,2,0],[0,0],[3]]","5","[[1,0,0],[2,0],[3]]","practice","2431","","","","","",""
"","","","","","single-stim-button","330","1222353","0.0-4.0-7.2-0.2","6153226d04ed5dce3aaa9703","B2","batch2","tol_practice","2078","","","","","","","","","","","","","","tol_peg_1","2078","2078","0","[[1,0,0],[0,0],[3]]","6","[[1,0,0],[2,0],[3]]","practice","2078","","","","","",""
"","","","","","single-stim-button","331","1223301","0.0-4.0-7.2-1.2","6153226d04ed5dce3aaa9703","B2","batch2","tol_practice","946","","","","","","","","","","","","","","tol_peg_2","946","946","0","[[1,0,0],[2,0],[3]]","6","[[1,0,0],[2,0],[3]]","practice","946","","","","","",""
"","","","","","poldrack-single-stim","332","1224313","0.0-4.0-8.0","6153226d04ed5dce3aaa9703","B2","batch2","tol_feedback","-1","","","","","true","","","","","","","","","","1000","1000","500","","","","","","-1","none","true","","0",""
"","","","","","html-button-response","333","1228720","0.0-4.0-9.0","6153226d04ed5dce3aaa9703","B2","batch2","tol_instruction","4405.700000001118","<div class = centerbox><p class = center-block-text>Great job! You are done with practice trials<br>You are about to start official trials.<br> <br> Problem <strong>1</strong> out of 25 problems</p></div>","0","","","","","","","","","","","","","","","","","","","","","","","","","",""
"","","","","","single-stim-button","334","1236394","0.0-4.0-10.0-0.0","6153226d04ed5dce3aaa9703","B2","batch2","tol_tohand","6661","","","","","","","","","","","","","","tol_peg_1","6661","6661","0","[[1,0,0],[3,0],[0]]","1","[[1,3,0],[2,0],[0]]","0","0","","","","","","3"
"","","","","","single-stim-button","335","1237374","0.0-4.0-10.0-1.0","6153226d04ed5dce3aaa9703","B2","batch2","tol_toboard","978","","","","","","","","","","","","","","tol_peg_3","978","978","0","[[1,0,0],[3,0],[2]]","1","[[1,3,0],[2,0],[0]]","0","0","","","","","","3"
"","","","","","single-stim-button","336","1238265","0.0-4.0-10.1-0.1","6153226d04ed5dce3aaa9703","B2","batch2","tol_tohand","889","","","","","","","","","","","","","","tol_peg_2","889","889","0","[[1,0,0],[0,0],[2]]","2","[[1,3,0],[2,0],[0]]","0","0","","","","","","3"
"","","","","","single-stim-button","337","1238947","0.0-4.0-10.1-1.1","6153226d04ed5dce3aaa9703","B2","batch2","tol_toboard","681","","","","","","","","","","","","","","tol_peg_1","681","681","0","[[1,3,0],[0,0],[2]]","2","[[1,3,0],[2,0],[0]]","0","0","","","","","","3"
"","","","","","single-stim-button","338","1239758","0.0-4.0-10.2-0.2","6153226d04ed5dce3aaa9703","B2","batch2","tol_tohand","809","","","","","","","","","","","","","","tol_peg_3","809","809","0","[[1,3,0],[0,0],[0]]","3","[[1,3,0],[2,0],[0]]","0","0","","","","","","3"
"","","","","","single-stim-button","339","1240521","0.0-4.0-10.2-1.2","6153226d04ed5dce3aaa9703","B2","batch2","tol_toboard","762","","","","","","","","","","","","","","tol_peg_2","762","762","0","[[1,3,0],[2,0],[0]]","3","[[1,3,0],[2,0],[0]]","0","0","","","","","","3"
"","","","","","poldrack-single-stim","340","1241531","0.0-4.0-11.0","6153226d04ed5dce3aaa9703","B2","batch2","tol_feedback","-1","","","","","true","","","","","","","","","","1000","1000","500","","","","","","-1","none","true","6661","8359",""
"","","","","","html-button-response","341","1242793","0.0-4.0-12.0","6153226d04ed5dce3aaa9703","B2","batch2","tol_trial_num","1260.5","<div class = centerbox><p class = center-block-text>problem <strong>2</strong> out of 25 problems</p></div>","0","","","","","","","","","","","","","","","","","","","","","","","","","",""
"","","","","","single-stim-button","342","1245812","0.0-4.0-13.0-0.0","6153226d04ed5dce3aaa9703","B2","batch2","tol_tohand","3017","","","","","","","","","","","","","","tol_peg_1","3017","3017","0","[[1,0,0],[3,0],[0]]","1","[[2,1,3],[0,0],[0]]","1","0","","","","","","5"
"","","","","","single-stim-button","343","1247467","0.0-4.0-13.0-1.0","6153226d04ed5dce3aaa9703","B2","batch2","tol_toboard","1653","","","","","","","","","","","","","","tol_peg_3","1653","1653","0","[[1,0,0],[3,0],[2]]","1","[[2,1,3],[0,0],[0]]","1","0","","","","","","5"
"","","","","","single-stim-button","344","1248166","0.0-4.0-13.1-0.1","6153226d04ed5dce3aaa9703","B2","batch2","tol_tohand","697","","","","","","","","","","","","","","tol_peg_1","697","697","0","[[0,0,0],[3,0],[2]]","2","[[2,1,3],[0,0],[0]]","1","0","","","","","","5"
"","","","","","single-stim-button","345","1249033","0.0-4.0-13.1-1.1","6153226d04ed5dce3aaa9703","B2","batch2","tol_toboard","865","","","","","","","","","","","","","","tol_peg_2","865","865","0","[[0,0,0],[3,1],[2]]","2","[[2,1,3],[0,0],[0]]","1","0","","","","","","5"
