"success","timeout","failed_images","failed_audio","failed_video","trial_type","trial_index","time_elapsed","internal_node_id","subject_id","study_id","session_id","view_history","rt","task","stimulus","response","correct","mouse_click","stim_duration","block_duration","timing_post_trial","current_position","tol_num_moves_made","tol_target","tol_problem_id","tol_rt","key_press","possible_responses","tol_correct","preplanning","tol_rt_per_trial","tol_min_moves","item","answer","spm_correct","spm_rt","fiar_detect_rt","fiar_detect_correct","total_correct_fiar_detect","post_trial_gap","choices"
"true","false","[]","[]","[]","preload","0","4786","0.0-0.0","615374d9fd9b41728babd974","D2","batch4","","","","","","","","","","","","","","","","","","","","","","","","","","","","","",""
"true","","","","","fullscreen","1","17336","0.0-1.0-0.0","615374d9fd9b41728babd974","D2","batch4","","","","","","","","","","","","","","","","","","","","","","","","","","","","","",""
"true","","","","","fullscreen","2","20773","0.0-2.0-0.0","615374d9fd9b41728babd974","D2","batch4","","","","","","","","","","","","","","","","","","","","","","","","","","","","","",""
"","","","","","instructions","3","69039","0.0-2.0-1.0-0.0-0.0","615374d9fd9b41728babd974","D2","batch4","[{""page_index"":0,""viewing_time"":10255},{""page_index"":1,""viewing_time"":5999.699999988079},{""page_index"":2,""viewing_time"":4899.300000011921},{""page_index"":3,""viewing_time"":9451.5},{""page_index"":4,""viewing_time"":3883.5},{""page_index"":5,""viewing_time"":9300.199999988079},{""page_index"":6,""viewing_time"":4484.099999964237}]","48274","tol-instructions","","","","","","","","","","","","","","","","","","","","","","","","","","",""
"","","","","","html-button-response","4","70371","0.0-2.0-1.0-1.0-0.0","615374d9fd9b41728babd974","D2","batch4","","1330.199999988079","tol_enter_quiz","<p class=block-text> Let's answer a few questions <br>","0","","","","","","","","","","","","","","","","","","","","","","","","",""
"","","","","","html-button-response","5","76769","0.0-2.0-1.0-1.0-1.0","615374d9fd9b41728babd974","D2","batch4","","6396.600000023842","tol_quiz","<p class = block-text>True or False: You can only move the ball on top of a peg. <br></p>","0","true","","","","","","","","","","","","","","","","","","","","","","","",""
"","","","","","html-button-response","6","78652","0.0-2.0-1.0-1.0-2.0","615374d9fd9b41728babd974","D2","batch4","","1879.4000000357628","tol_quiz_feedback","<p class = block-text>Correct! You can only move the ball on top of a peg.</p>","0","","","","","","","","","","","","","","","","","","","","","","","","",""
"","","","","","html-button-response","7","82634","0.0-2.0-1.0-1.0-3.0","615374d9fd9b41728babd974","D2","batch4","","3981.099999964237","tol_quiz","<p class = block-text>True or False: You should try to match your board with the target board with fewest moves possible. <br></p>","0","true","","","","","","","","","","","","","","","","","","","","","","","",""
"","","","","","html-button-response","8","83718","0.0-2.0-1.0-1.0-4.0","615374d9fd9b41728babd974","D2","batch4","","1081.800000011921","tol_quiz_feedback","<p class = block-text>Correct! </p>","0","","","","","","","","","","","","","","","","","","","","","","","","",""
"","","","","","html-button-response","9","85633","0.0-2.0-2.0","615374d9fd9b41728babd974","D2","batch4","","1913.1000000238419","","<p class=block-text> Now that you've understood the game, let's practice a few easier examples before we start!<br> <br>","0","","","","","","","","","","","","","","","","","","","","","","","","",""
"","","","","","single-stim-button","10","88786","0.0-2.0-3.0-0.0","615374d9fd9b41728babd974","D2","batch4","","3150","tol_practice","","","","tol_peg_2","3150","3150","0","[[1,2,0],[0,0],[0]]","1","[[1,2,0],[0,0],[3]]","practice","3150","","","","","","","","","","","","","","",""
"","","","","","single-stim-button","11","90951","0.0-2.0-3.0-1.0","615374d9fd9b41728babd974","D2","batch4","","2162","tol_practice","","","","tol_peg_3","2162","2162","0","[[1,2,0],[0,0],[3]]","1","[[1,2,0],[0,0],[3]]","practice","2162","","","","","","","","","","","","","","",""
"","","","","","poldrack-single-stim","12","91954","0.0-2.0-4.0","615374d9fd9b41728babd974","D2","batch4","","-1","tol_feedback","","","true","","1000","1000","500","","","","","","-1","none","true","","0","","","","","","","","","",""
"","","","","","single-stim-button","13","94883","0.0-2.0-5.0-0.0","615374d9fd9b41728babd974","D2","batch4","","2927","tol_practice","","","","tol_peg_1","2927","2927","0","[[1,0,0],[3,0],[0]]","2","[[0,0,0],[3,1],[2]]","practice","2927","","","","","","","","","","","","","","",""
"","","","","","single-stim-button","14","98200","0.0-2.0-5.0-1.0","615374d9fd9b41728babd974","D2","batch4","","3315","tol_practice","","","","tol_peg_3","3315","3315","0","[[1,0,0],[3,0],[2]]","2","[[0,0,0],[3,1],[2]]","practice","3315","","","","","","","","","","","","","","",""
"","","","","","single-stim-button","15","99849","0.0-2.0-5.1-0.1","615374d9fd9b41728babd974","D2","batch4","","1647","tol_practice","","","","tol_peg_1","1647","1647","0","[[0,0,0],[3,0],[2]]","3","[[0,0,0],[3,1],[2]]","practice","1647","","","","","","","","","","","","","","",""
"","","","","","single-stim-button","16","101100","0.0-2.0-5.1-1.1","615374d9fd9b41728babd974","D2","batch4","","1249","tol_practice","","","","tol_peg_2","1249","1249","0","[[0,0,0],[3,1],[2]]","3","[[0,0,0],[3,1],[2]]","practice","1249","","","","","","","","","","","","","","",""
"","","","","","poldrack-single-stim","17","102109","0.0-2.0-6.0","615374d9fd9b41728babd974","D2","batch4","","-1","tol_feedback","","","true","","1000","1000","500","","","","","","-1","none","true","","0","","","","","","","","","",""
"","","","","","single-stim-button","18","104299","0.0-2.0-7.0-0.0","615374d9fd9b41728babd974","D2","batch4","","2189","tol_practice","","","","tol_peg_1","2189","2189","0","[[1,0,0],[3,0],[0]]","4","[[1,0,0],[2,0],[3]]","practice","2189","","","","","","","","","","","","","","",""
"","","","","","single-stim-button","19","108149","0.0-2.0-7.0-1.0","615374d9fd9b41728babd974","D2","batch4","","3848","tol_practice","","","","tol_peg_1","3848","3848","0","[[1,2,0],[3,0],[0]]","4","[[1,0,0],[2,0],[3]]","practice","3848","","","","","","","","","","","","","","",""
"","","","","","single-stim-button","20","109666","0.0-2.0-7.1-0.1","615374d9fd9b41728babd974","D2","batch4","","1515","tol_practice","","","","tol_peg_2","1515","1515","0","[[1,2,0],[0,0],[0]]","5","[[1,0,0],[2,0],[3]]","practice","1515","","","","","","","","","","","","","","",""
"","","","","","single-stim-button","21","111717","0.0-2.0-7.1-1.1","615374d9fd9b41728babd974","D2","batch4","","2049","tol_practice","","","","tol_peg_3","2049","2049","0","[[1,2,0],[0,0],[3]]","5","[[1,0,0],[2,0],[3]]","practice","2049","","","","","","","","","","","","","","",""
"","","","","","single-stim-button","22","112666","0.0-2.0-7.2-0.2","615374d9fd9b41728babd974","D2","batch4","","948","tol_practice","","","","tol_peg_1","948","948","0","[[1,0,0],[0,0],[3]]","6","[[1,0,0],[2,0],[3]]","practice","948","","","","","","","","","","","","","","",""
"","","","","","single-stim-button","23","114248","0.0-2.0-7.2-1.2","615374d9fd9b41728babd974","D2","batch4","","1581","tol_practice","","","","tol_peg_2","1581","1581","0","[[1,0,0],[2,0],[3]]","6","[[1,0,0],[2,0],[3]]","practice","1581","","","","","","","","","","","","","","",""
"","","","","","poldrack-single-stim","24","115260","0.0-2.0-8.0","615374d9fd9b41728babd974","D2","batch4","","-1","tol_feedback","","","true","","1000","1000","500","","","","","","-1","none","true","","0","","","","","","","","","",""
"","","","","","html-button-response","25","117699","0.0-2.0-9.0","615374d9fd9b41728babd974","D2","batch4","","2437.399999976158","tol_instruction","<div class = centerbox><p class = center-block-text>Great job! You are done with practice trials<br>You are about to start official trials.<br> <br> Problem <strong>1</strong> out of 25 problems</p></div>","0","","","","","","","","","","","","","","","","","","","","","","","","",""
"","","","","","single-stim-button","26","122582","0.0-2.0-10.0-0.0","615374d9fd9b41728babd974","D2","batch4","","3872","tol_tohand","","","","tol_peg_1","3872","3872","0","[[1,0,0],[3,0],[0]]","1","[[1,3,0],[2,0],[0]]","0","0","","","","","","3","","","","","","","","",""
"","","","","","single-stim-button","27","124499","0.0-2.0-10.0-1.0","615374d9fd9b41728babd974","D2","batch4","","1915","tol_toboard","","","","tol_peg_1","1915","1915","0","[[1,2,0],[3,0],[0]]","1","[[1,3,0],[2,0],[0]]","0","0","","","","","","3","","","","","","","","",""
"","","","","","single-stim-button","28","126382","0.0-2.0-10.1-0.1","615374d9fd9b41728babd974","D2","batch4","","1881","tol_tohand","","","","tol_peg_2","1881","1881","0","[[1,2,0],[0,0],[0]]","2","[[1,3,0],[2,0],[0]]","0","0","","","","","","3","","","","","","","","",""
"","","","","","single-stim-button","29","129215","0.0-2.0-10.1-1.1","615374d9fd9b41728babd974","D2","batch4","","2832","tol_toboard","","","","tol_peg_3","2832","2832","0","[[1,2,0],[0,0],[3]]","2","[[1,3,0],[2,0],[0]]","0","0","","","","","","3","","","","","","","","",""
"","","","","","single-stim-button","30","131665","0.0-2.0-10.2-0.2","615374d9fd9b41728babd974","D2","batch4","","2449","tol_tohand","","","","tol_peg_1","2449","2449","0","[[1,0,0],[0,0],[3]]","3","[[1,3,0],[2,0],[0]]","0","0","","","","","","3","","","","","","","","",""
"","","","","","single-stim-button","31","133582","0.0-2.0-10.2-1.2","615374d9fd9b41728babd974","D2","batch4","","1915","tol_toboard","","","","tol_peg_2","1915","1915","0","[[1,0,0],[2,0],[3]]","3","[[1,3,0],[2,0],[0]]","0","0","","","","","","3","","","","","","","","",""
"","","","","","single-stim-button","32","135015","0.0-2.0-10.3-0.3","615374d9fd9b41728babd974","D2","batch4","","1432","tol_tohand","","","","tol_peg_3","1432","1432","0","[[1,0,0],[2,0],[0]]","4","[[1,3,0],[2,0],[0]]","0","0","","","","","","3","","","","","","","","",""
"","","","","","single-stim-button","33","136549","0.0-2.0-10.3-1.3","615374d9fd9b41728babd974","D2","batch4","","1532","tol_toboard","","","","tol_peg_1","1532","1532","0","[[1,3,0],[2,0],[0]]","4","[[1,3,0],[2,0],[0]]","0","0","","","","","","3","","","","","","","","",""
"","","","","","poldrack-single-stim","34","137557","0.0-2.0-11.0","615374d9fd9b41728babd974","D2","batch4","","-1","tol_feedback","","","true","","1000","1000","500","","","","","","-1","none","true","3872","9634","","","","","","","","","",""
"","","","","","html-button-response","35","138766","0.0-2.0-12.0","615374d9fd9b41728babd974","D2","batch4","","1207","tol_trial_num","<div class = centerbox><p class = center-block-text>problem <strong>2</strong> out of 25 problems</p></div>","0","","","","","","","","","","","","","","","","","","","","","","","","",""
"","","","","","single-stim-button","36","143064","0.0-2.0-13.0-0.0","615374d9fd9b41728babd974","D2","batch4","","4297","tol_tohand","","","","tol_peg_1","4297","4297","0","[[1,0,0],[3,0],[0]]","1","[[2,1,3],[0,0],[0]]","1","0","","","","","","5","","","","","","","","",""
"","","","","","single-stim-button","37","144298","0.0-2.0-13.0-1.0","615374d9fd9b41728babd974","D2","batch4","","1232","tol_toboard","","","","tol_peg_3","1232","1232","0","[[1,0,0],[3,0],[2]]","1","[[2,1,3],[0,0],[0]]","1","0","","","","","","5","","","","","","","","",""
"","","","","","single-stim-button","38","148231","0.0-2.0-13.1-0.1","615374d9fd9b41728babd974","D2","batch4","","3932","tol_tohand","","","","tol_peg_1","3932","3932","0","[[0,0,0],[3,0],[2]]","2","[[2,1,3],[0,0],[0]]","1","0","","","","","","5","","","","","","","","",""
"","","","","","single-stim-button","39","156582","0.0-2.0-13.1-1.1","615374d9fd9b41728babd974","D2","batch4","","8349","tol_toboard","","","","tol_peg_2","8349","8349","0","[[0,0,0],[3,1],[2]]","2","[[2,1,3],[0,0],[0]]","1","0","","","","","","5","","","","","","","","",""
"","","","","","single-stim-button","40","157865","0.0-2.0-13.2-0.2","615374d9fd9b41728babd974","D2","batch4","","1281","tol_tohand","","","","tol_peg_3","1281","1281","0","[[0,0,0],[3,1],[0]]","3","[[2,1,3],[0,0],[0]]","1","0","","","","","","5","","","","","","","","",""
"","","","","","single-stim-button","41","158964","0.0-2.0-13.2-1.2","615374d9fd9b41728babd974","D2","batch4","","1098","tol_toboard","","","","tol_peg_1","1098","1098","0","[[2,0,0],[3,1],[0]]","3","[[2,1,3],[0,0],[0]]","1","0","","","","","","5","","","","","","","","",""
"","","","","","single-stim-button","42","163897","0.0-2.0-13.3-0.3","615374d9fd9b41728babd974","D2","batch4","","4932","tol_tohand","","","","tol_peg_2","4932","4932","0","[[2,0,0],[3,0],[0]]","4","[[2,1,3],[0,0],[0]]","1","0","","","","","","5","","","","","","","","",""
"","","","","","single-stim-button","43","165263","0.0-2.0-13.3-1.3","615374d9fd9b41728babd974","D2","batch4","","1366","tol_toboard","","","","tol_peg_1","1366","1366","0","[[2,1,0],[3,0],[0]]","4","[[2,1,3],[0,0],[0]]","1","0","","","","","","5","","","","","","","","",""
"","","","","","single-stim-button","44","166448","0.0-2.0-13.4-0.4","615374d9fd9b41728babd974","D2","batch4","","1185","tol_tohand","","","","tol_peg_2","1185","1185","0","[[2,1,0],[0,0],[0]]","5","[[2,1,3],[0,0],[0]]","1","0","","","","","","5","","","","","","","","",""
"","","","","","single-stim-button","45","167664","0.0-2.0-13.4-1.4","615374d9fd9b41728babd974","D2","batch4","","1215","tol_toboard","","","","tol_peg_1","1215","1215","0","[[2,1,3],[0,0],[0]]","5","[[2,1,3],[0,0],[0]]","1","0","","","","","","5","","","","","","","","",""
"","","","","","poldrack-single-stim","46","168675","0.0-2.0-14.0","615374d9fd9b41728babd974","D2","batch4","","-1","tol_feedback","","","true","","1000","1000","500","","","","","","-1","none","true","4297","15627","","","","","","","","","",""
"","","","","","html-button-response","47","169598","0.0-2.0-15.0","615374d9fd9b41728babd974","D2","batch4","","921.6000000238419","tol_trial_num","<div class = centerbox><p class = center-block-text>problem <strong>3</strong> out of 25 problems</p></div>","0","","","","","","","","","","","","","","","","","","","","","","","","",""
"","","","","","single-stim-button","48","172348","0.0-2.0-16.0-0.0","615374d9fd9b41728babd974","D2","batch4","","2749","tol_tohand","","","","tol_peg_3","2749","2749","0","[[2,3,0],[0,0],[0]]","1","[[1,2,0],[3,0],[0]]","2","0","","","","","","4","","","","","","","","",""
"","","","","","single-stim-button","49","175815","0.0-2.0-16.0-1.0","615374d9fd9b41728babd974","D2","batch4","","3465","tol_toboard","","","","tol_peg_2","3465","3465","0","[[2,3,0],[1,0],[0]]","1","[[1,2,0],[3,0],[0]]","2","0","","","","","","4","","","","","","","","",""
"","","","","","single-stim-button","50","176864","0.0-2.0-16.1-0.1","615374d9fd9b41728babd974","D2","batch4","","1048","tol_tohand","","","","tol_peg_1","1048","1048","0","[[2,0,0],[1,0],[0]]","2","[[1,2,0],[3,0],[0]]","2","0","","","","","","4","","","","","","","","",""
"","","","","","single-stim-button","51","180132","0.0-2.0-16.1-1.1","615374d9fd9b41728babd974","D2","batch4","","3266","tol_toboard","","","","tol_peg_3","3266","3266","0","[[2,0,0],[1,0],[3]]","2","[[1,2,0],[3,0],[0]]","2","0","","","","","","4","","","","","","","","",""
"","","","","","single-stim-button","52","181148","0.0-2.0-16.2-0.2","615374d9fd9b41728babd974","D2","batch4","","1016","tol_tohand","","","","tol_peg_1","1016","1016","0","[[0,0,0],[1,0],[3]]","3","[[1,2,0],[3,0],[0]]","2","0","","","","","","4","","","","","","","","",""
"","","","","","single-stim-button","53","184897","0.0-2.0-16.2-1.2","615374d9fd9b41728babd974","D2","batch4","","3748","tol_toboard","","","","tol_peg_2","3748","3748","0","[[0,0,0],[1,2],[3]]","3","[[1,2,0],[3,0],[0]]","2","0","","","","","","4","","","","","","","","",""
"","","","","","single-stim-button","54","185848","0.0-2.0-16.3-0.3","615374d9fd9b41728babd974","D2","batch4","","949","tol_tohand","","","","tol_peg_2","949","949","0","[[0,0,0],[1,0],[3]]","4","[[1,2,0],[3,0],[0]]","2","0","","","","","","4","","","","","","","","",""
"","","","","","single-stim-button","55","189198","0.0-2.0-16.3-1.3","615374d9fd9b41728babd974","D2","batch4","","3348","tol_toboard","","","","tol_peg_1","3348","3348","0","[[2,0,0],[1,0],[3]]","4","[[1,2,0],[3,0],[0]]","2","0","","","","","","4","","","","","","","","",""
"","","","","","single-stim-button","56","190231","0.0-2.0-16.4-0.4","615374d9fd9b41728babd974","D2","batch4","","1032","tol_tohand","","","","tol_peg_2","1032","1032","0","[[2,0,0],[0,0],[3]]","5","[[1,2,0],[3,0],[0]]","2","0","","","","","","4","","","","","","","","",""
"","","","","","single-stim-button","57","194331","0.0-2.0-16.4-1.4","615374d9fd9b41728babd974","D2","batch4","","4099","tol_toboard","","","","tol_peg_2","4099","4099","0","[[2,0,0],[1,0],[3]]","5","[[1,2,0],[3,0],[0]]","2","0","","","","","","4","","","","","","","","",""
"","","","","","single-stim-button","58","195397","0.0-2.0-16.5-0.5","615374d9fd9b41728babd974","D2","batch4","","1064","tol_tohand","","","","tol_peg_3","1064","1064","0","[[2,0,0],[1,0],[0]]","6","[[1,2,0],[3,0],[0]]","2","0","","","","","","4","","","","","","","","",""
"","","","","","single-stim-button","59","196949","0.0-2.0-16.5-1.5","615374d9fd9b41728babd974","D2","batch4","","1551","tol_toboard","","","","tol_peg_2","1551","1551","0","[[2,0,0],[1,3],[0]]","6","[[1,2,0],[3,0],[0]]","2","0","","","","","","4","","","","","","","","",""
"","","","","","single-stim-button","60","197881","0.0-2.0-16.6-0.6","615374d9fd9b41728babd974","D2","batch4","","932","tol_tohand","","","","tol_peg_1","932","932","0","[[0,0,0],[1,3],[0]]","7","[[1,2,0],[3,0],[0]]","2","0","","","","","","4","","","","","","","","",""
"","","","","","single-stim-button","61","200548","0.0-2.0-16.6-1.6","615374d9fd9b41728babd974","D2","batch4","","2665","tol_toboard","","","","tol_peg_3","2665","2665","0","[[0,0,0],[1,3],[2]]","7","[[1,2,0],[3,0],[0]]","2","0","","","","","","4","","","","","","","","",""
"","","","","","single-stim-button","62","201481","0.0-2.0-16.7-0.7","615374d9fd9b41728babd974","D2","batch4","","931","tol_tohand","","","","tol_peg_2","931","931","0","[[0,0,0],[1,0],[2]]","8","[[1,2,0],[3,0],[0]]","2","0","","","","","","4","","","","","","","","",""
"","","","","","single-stim-button","63","207781","0.0-2.0-16.7-1.7","615374d9fd9b41728babd974","D2","batch4","","6299","tol_toboard","","","","tol_peg_1","6299","6299","0","[[3,0,0],[1,0],[2]]","8","[[1,2,0],[3,0],[0]]","2","0","","","","","","4","","","","","","","","",""
"","","","","","single-stim-button","64","208681","0.0-2.0-16.8-0.8","615374d9fd9b41728babd974","D2","batch4","","899","tol_tohand","","","","tol_peg_2","899","899","0","[[3,0,0],[0,0],[2]]","9","[[1,2,0],[3,0],[0]]","2","0","","","","","","4","","","","","","","","",""
"","","","","","single-stim-button","65","212381","0.0-2.0-16.8-1.8","615374d9fd9b41728babd974","D2","batch4","","3699","tol_toboard","","","","tol_peg_1","3699","3699","0","[[3,1,0],[0,0],[2]]","9","[[1,2,0],[3,0],[0]]","2","0","","","","","","4","","","","","","","","",""
"","","","","","single-stim-button","66","213248","0.0-2.0-16.9-0.9","615374d9fd9b41728babd974","D2","batch4","","865","tol_tohand","","","","tol_peg_3","865","865","0","[[3,1,0],[0,0],[0]]","10","[[1,2,0],[3,0],[0]]","2","0","","","","","","4","","","","","","","","",""
"","","","","","single-stim-button","67","215315","0.0-2.0-16.9-1.9","615374d9fd9b41728babd974","D2","batch4","","2065","tol_toboard","","","","tol_peg_2","2065","2065","0","[[3,1,0],[2,0],[0]]","10","[[1,2,0],[3,0],[0]]","2","0","","","","","","4","","","","","","","","",""
"","","","","","single-stim-button","68","216748","0.0-2.0-16.10-0.10","615374d9fd9b41728babd974","D2","batch4","","1432","tol_tohand","","","","tol_peg_1","1432","1432","0","[[3,0,0],[2,0],[0]]","11","[[1,2,0],[3,0],[0]]","2","0","","","","","","4","","","","","","","","",""
"","","","","","single-stim-button","69","219864","0.0-2.0-16.10-1.10","615374d9fd9b41728babd974","D2","batch4","","3115","tol_toboard","","","","tol_peg_3","3115","3115","0","[[3,0,0],[2,0],[1]]","11","[[1,2,0],[3,0],[0]]","2","0","","","","","","4","","","","","","","","",""
"","","","","","single-stim-button","70","220731","0.0-2.0-16.11-0.11","615374d9fd9b41728babd974","D2","batch4","","866","tol_tohand","","","","tol_peg_1","866","866","0","[[0,0,0],[2,0],[1]]","12","[[1,2,0],[3,0],[0]]","2","0","","","","","","4","","","","","","","","",""
"","","","","","single-stim-button","71","222898","0.0-2.0-16.11-1.11","615374d9fd9b41728babd974","D2","batch4","","2165","tol_toboard","","","","tol_peg_2","2165","2165","0","[[0,0,0],[2,3],[1]]","12","[[1,2,0],[3,0],[0]]","2","0","","","","","","4","","","","","","","","",""
"","","","","","single-stim-button","72","223864","0.0-2.0-16.12-0.12","615374d9fd9b41728babd974","D2","batch4","","965","tol_tohand","","","","tol_peg_2","965","965","0","[[0,0,0],[2,0],[1]]","13","[[1,2,0],[3,0],[0]]","2","0","","","","","","4","","","","","","","","",""
"","","","","","single-stim-button","73","227581","0.0-2.0-16.12-1.12","615374d9fd9b41728babd974","D2","batch4","","3715","tol_toboard","","","","tol_peg_2","3715","3715","0","[[0,0,0],[2,3],[1]]","13","[[1,2,0],[3,0],[0]]","2","0","","","","","","4","","","","","","","","",""
"","","","","","single-stim-button","74","228963","0.0-2.0-16.13-0.13","615374d9fd9b41728babd974","D2","batch4","","1381","tol_tohand","","","","tol_peg_3","1381","1381","0","[[0,0,0],[2,3],[0]]","14","[[1,2,0],[3,0],[0]]","2","0","","","","","","4","","","","","","","","",""
"","","","","","single-stim-button","75","230797","0.0-2.0-16.13-1.13","615374d9fd9b41728babd974","D2","batch4","","1833","tol_toboard","","","","tol_peg_1","1833","1833","0","[[1,0,0],[2,3],[0]]","14","[[1,2,0],[3,0],[0]]","2","0","","","","","","4","","","","","","","","",""
"","","","","","single-stim-button","76","231847","0.0-2.0-16.14-0.14","615374d9fd9b41728babd974","D2","batch4","","1048","tol_tohand","","","","tol_peg_2","1048","1048","0","[[1,0,0],[2,0],[0]]","15","[[1,2,0],[3,0],[0]]","2","0","","","","","","4","","","","","","","","",""
"","","","","","single-stim-button","77","233281","0.0-2.0-16.14-1.14","615374d9fd9b41728babd974","D2","batch4","","1433","tol_toboard","","","","tol_peg_3","1433","1433","0","[[1,0,0],[2,0],[3]]","15","[[1,2,0],[3,0],[0]]","2","0","","","","","","4","","","","","","","","",""
"","","","","","single-stim-button","78","233898","0.0-2.0-16.15-0.15","615374d9fd9b41728babd974","D2","batch4","","615","tol_tohand","","","","tol_peg_2","615","615","0","[[1,0,0],[0,0],[3]]","16","[[1,2,0],[3,0],[0]]","2","0","","","","","","4","","","","","","","","",""
"","","","","","single-stim-button","79","235731","0.0-2.0-16.15-1.15","615374d9fd9b41728babd974","D2","batch4","","1832","tol_toboard","","","","tol_peg_1","1832","1832","0","[[1,2,0],[0,0],[3]]","16","[[1,2,0],[3,0],[0]]","2","0","","","","","","4","","","","","","","","",""
"","","","","","single-stim-button","80","236864","0.0-2.0-16.16-0.16","615374d9fd9b41728babd974","D2","batch4","","1132","tol_tohand","","","","tol_peg_3","1132","1132","0","[[1,2,0],[0,0],[0]]","17","[[1,2,0],[3,0],[0]]","2","0","","","","","","4","","","","","","","","",""
"","","","","","single-stim-button","81","237897","0.0-2.0-16.16-1.16","615374d9fd9b41728babd974","D2","batch4","","1032","tol_toboard","","","","tol_peg_2","1032","1032","0","[[1,2,0],[3,0],[0]]","17","[[1,2,0],[3,0],[0]]","2","0","","","","","","4","","","","","","","","",""
"","","","","","poldrack-single-stim","82","238911","0.0-2.0-17.0","615374d9fd9b41728babd974","D2","batch4","","-1","tol_feedback","","","true","","1000","1000","500","","","","","","-1","none","true","2749","18924","","","","","","","","","",""
"","","","","","html-button-response","83","240098","0.0-2.0-18.0","615374d9fd9b41728babd974","D2","batch4","","1184.300000011921","tol_trial_num","<div class = centerbox><p class = center-block-text>problem <strong>4</strong> out of 25 problems</p></div>","0","","","","","","","","","","","","","","","","","","","","","","","","",""
"","","","","","single-stim-button","84","243581","0.0-2.0-19.0-0.0","615374d9fd9b41728babd974","D2","batch4","","3481","tol_tohand","","","","tol_peg_2","3481","3481","0","[[3,0,0],[2,0],[0]]","1","[[3,0,0],[1,0],[2]]","3","0","","","","","","3","","","","","","","","",""
"","","","","","single-stim-button","85","244664","0.0-2.0-19.0-1.0","615374d9fd9b41728babd974","D2","batch4","","1082","tol_toboard","","","","tol_peg_3","1082","1082","0","[[3,0,0],[2,0],[1]]","1","[[3,0,0],[1,0],[2]]","3","0","","","","","","3","","","","","","","","",""
"","","","","","single-stim-button","86","245513","0.0-2.0-19.1-0.1","615374d9fd9b41728babd974","D2","batch4","","848","tol_tohand","","","","tol_peg_2","848","848","0","[[3,0,0],[0,0],[1]]","2","[[3,0,0],[1,0],[2]]","3","0","","","","","","3","","","","","","","","",""
"","","","","","single-stim-button","87","247931","0.0-2.0-19.1-1.1","615374d9fd9b41728babd974","D2","batch4","","2417","tol_toboard","","","","tol_peg_1","2417","2417","0","[[3,2,0],[0,0],[1]]","2","[[3,0,0],[1,0],[2]]","3","0","","","","","","3","","","","","","","","",""
"","","","","","single-stim-button","88","248781","0.0-2.0-19.2-0.2","615374d9fd9b41728babd974","D2","batch4","","848","tol_tohand","","","","tol_peg_3","848","848","0","[[3,2,0],[0,0],[0]]","3","[[3,0,0],[1,0],[2]]","3","0","","","","","","3","","","","","","","","",""
"","","","","","single-stim-button","89","250581","0.0-2.0-19.2-1.2","615374d9fd9b41728babd974","D2","batch4","","1799","tol_toboard","","","","tol_peg_2","1799","1799","0","[[3,2,0],[1,0],[0]]","3","[[3,0,0],[1,0],[2]]","3","0","","","","","","3","","","","","","","","",""
"","","","","","single-stim-button","90","252430","0.0-2.0-19.3-0.3","615374d9fd9b41728babd974","D2","batch4","","1847","tol_tohand","","","","tol_peg_1","1847","1847","0","[[3,0,0],[1,0],[0]]","4","[[3,0,0],[1,0],[2]]","3","0","","","","","","3","","","","","","","","",""
"","","","","","single-stim-button","91","253580","0.0-2.0-19.3-1.3","615374d9fd9b41728babd974","D2","batch4","","1148","tol_toboard","","","","tol_peg_3","1148","1148","0","[[3,0,0],[1,0],[2]]","4","[[3,0,0],[1,0],[2]]","3","0","","","","","","3","","","","","","","","",""
"","","","","","poldrack-single-stim","92","254591","0.0-2.0-20.0","615374d9fd9b41728babd974","D2","batch4","","-1","tol_feedback","","","true","","1000","1000","500","","","","","","-1","none","true","3481","7024","","","","","","","","","",""
"","","","","","html-button-response","93","255464","0.0-2.0-21.0","615374d9fd9b41728babd974","D2","batch4","","872","tol_trial_num","<div class = centerbox><p class = center-block-text>problem <strong>5</strong> out of 25 problems</p></div>","0","","","","","","","","","","","","","","","","","","","","","","","","",""
"","","","","","single-stim-button","94","263214","0.0-2.0-22.0-0.0","615374d9fd9b41728babd974","D2","batch4","","7748","tol_tohand","","","","tol_peg_1","7748","7748","0","[[0,0,0],[2,0],[3]]","1","[[0,0,0],[1,2],[3]]","4","0","","","","","","7","","","","","","","","",""
"","","","","","single-stim-button","95","265831","0.0-2.0-22.0-1.0","615374d9fd9b41728babd974","D2","batch4","","2615","tol_toboard","","","","tol_peg_1","2615","2615","0","[[1,0,0],[2,0],[3]]","1","[[0,0,0],[1,2],[3]]","4","0","","","","","","7","","","","","","","","",""
"","","","","","single-stim-button","96","266847","0.0-2.0-22.1-0.1","615374d9fd9b41728babd974","D2","batch4","","1015","tol_tohand","","","","tol_peg_3","1015","1015","0","[[1,0,0],[2,0],[0]]","2","[[0,0,0],[1,2],[3]]","4","0","","","","","","7","","","","","","","","",""
"","","","","","single-stim-button","97","273314","0.0-2.0-22.1-1.1","615374d9fd9b41728babd974","D2","batch4","","6466","tol_toboard","","","","tol_peg_1","6466","6466","0","[[1,3,0],[2,0],[0]]","2","[[0,0,0],[1,2],[3]]","4","0","","","","","","7","","","","","","","","",""
"","","","","","single-stim-button","98","275664","0.0-2.0-22.2-0.2","615374d9fd9b41728babd974","D2","batch4","","2349","tol_tohand","","","","tol_peg_2","2349","2349","0","[[1,3,0],[0,0],[0]]","3","[[0,0,0],[1,2],[3]]","4","0","","","","","","7","","","","","","","","",""
"","","","","","single-stim-button","99","276996","0.0-2.0-22.2-1.2","615374d9fd9b41728babd974","D2","batch4","","1331","tol_toboard","","","","tol_peg_3","1331","1331","0","[[1,3,0],[0,0],[2]]","3","[[0,0,0],[1,2],[3]]","4","0","","","","","","7","","","","","","","","",""
"","","","","","single-stim-button","100","278015","0.0-2.0-22.3-0.3","615374d9fd9b41728babd974","D2","batch4","","1017","tol_tohand","","","","tol_peg_1","1017","1017","0","[[1,0,0],[0,0],[2]]","4","[[0,0,0],[1,2],[3]]","4","0","","","","","","7","","","","","","","","",""
"","","","","","single-stim-button","101","280964","0.0-2.0-22.3-1.3","615374d9fd9b41728babd974","D2","batch4","","2948","tol_toboard","","","","tol_peg_2","2948","2948","0","[[1,0,0],[3,0],[2]]","4","[[0,0,0],[1,2],[3]]","4","0","","","","","","7","","","","","","","","",""
"","","","","","single-stim-button","102","281847","0.0-2.0-22.4-0.4","615374d9fd9b41728babd974","D2","batch4","","882","tol_tohand","","","","tol_peg_1","882","882","0","[[0,0,0],[3,0],[2]]","5","[[0,0,0],[1,2],[3]]","4","0","","","","","","7","","","","","","","","",""
"","","","","","single-stim-button","103","284781","0.0-2.0-22.4-1.4","615374d9fd9b41728babd974","D2","batch4","","2932","tol_toboard","","","","tol_peg_1","2932","2932","0","[[1,0,0],[3,0],[2]]","5","[[0,0,0],[1,2],[3]]","4","0","","","","","","7","","","","","","","","",""
"","","","","","single-stim-button","104","285830","0.0-2.0-22.5-0.5","615374d9fd9b41728babd974","D2","batch4","","1048","tol_tohand","","","","tol_peg_3","1048","1048","0","[[1,0,0],[3,0],[0]]","6","[[0,0,0],[1,2],[3]]","4","0","","","","","","7","","","","","","","","",""
"","","","","","single-stim-button","105","287380","0.0-2.0-22.5-1.5","615374d9fd9b41728babd974","D2","batch4","","1549","tol_toboard","","","","tol_peg_1","1549","1549","0","[[1,2,0],[3,0],[0]]","6","[[0,0,0],[1,2],[3]]","4","0","","","","","","7","","","","","","","","",""
"","","","","","single-stim-button","106","288930","0.0-2.0-22.6-0.6","615374d9fd9b41728babd974","D2","batch4","","1549","tol_tohand","","","","tol_peg_2","1549","1549","0","[[1,2,0],[0,0],[0]]","7","[[0,0,0],[1,2],[3]]","4","0","","","","","","7","","","","","","","","",""
"","","","","","single-stim-button","107","290098","0.0-2.0-22.6-1.6","615374d9fd9b41728babd974","D2","batch4","","1166","tol_toboard","","","","tol_peg_3","1166","1166","0","[[1,2,0],[0,0],[3]]","7","[[0,0,0],[1,2],[3]]","4","0","","","","","","7","","","","","","","","",""
"","","","","","single-stim-button","108","293647","0.0-2.0-22.7-0.7","615374d9fd9b41728babd974","D2","batch4","","3547","tol_tohand","","","","tol_peg_1","3547","3547","0","[[1,0,0],[0,0],[3]]","8","[[0,0,0],[1,2],[3]]","4","0","","","","","","7","","","","","","","","",""
"","","","","","single-stim-button","109","295730","0.0-2.0-22.7-1.7","615374d9fd9b41728babd974","D2","batch4","","2082","tol_toboard","","","","tol_peg_2","2082","2082","0","[[1,0,0],[2,0],[3]]","8","[[0,0,0],[1,2],[3]]","4","0","","","","","","7","","","","","","","","",""
"","","","","","single-stim-button","110","296714","0.0-2.0-22.8-0.8","615374d9fd9b41728babd974","D2","batch4","","982","tol_tohand","","","","tol_peg_1","982","982","0","[[0,0,0],[2,0],[3]]","9","[[0,0,0],[1,2],[3]]","4","0","","","","","","7","","","","","","","","",""
"","","","","","single-stim-button","111","300479","0.0-2.0-22.8-1.8","615374d9fd9b41728babd974","D2","batch4","","3764","tol_toboard","","","","tol_peg_2","3764","3764","0","[[0,0,0],[2,1],[3]]","9","[[0,0,0],[1,2],[3]]","4","0","","","","","","7","","","","","","","","",""
"","","","","","single-stim-button","112","301731","0.0-2.0-22.9-0.9","615374d9fd9b41728babd974","D2","batch4","","1250","tol_tohand","","","","tol_peg_3","1250","1250","0","[[0,0,0],[2,1],[0]]","10","[[0,0,0],[1,2],[3]]","4","0","","","","","","7","","","","","","","","",""
"","","","","","single-stim-button","113","304196","0.0-2.0-22.9-1.9","615374d9fd9b41728babd974","D2","batch4","","2465","tol_toboard","","","","tol_peg_1","2465","2465","0","[[3,0,0],[2,1],[0]]","10","[[0,0,0],[1,2],[3]]","4","0","","","","","","7","","","","","","","","",""
"","","","","","single-stim-button","114","306547","0.0-2.0-22.10-0.10","615374d9fd9b41728babd974","D2","batch4","","2349","tol_tohand","","","","tol_peg_2","2349","2349","0","[[3,0,0],[2,0],[0]]","11","[[0,0,0],[1,2],[3]]","4","0","","","","","","7","","","","","","","","",""
"","","","","","single-stim-button","115","307630","0.0-2.0-22.10-1.10","615374d9fd9b41728babd974","D2","batch4","","1083","tol_toboard","","","","tol_peg_3","1083","1083","0","[[3,0,0],[2,0],[1]]","11","[[0,0,0],[1,2],[3]]","4","0","","","","","","7","","","","","","","","",""
"","","","","","single-stim-button","116","308731","0.0-2.0-22.11-0.11","615374d9fd9b41728babd974","D2","batch4","","1099","tol_tohand","","","","tol_peg_2","1099","1099","0","[[3,0,0],[0,0],[1]]","12","[[0,0,0],[1,2],[3]]","4","0","","","","","","7","","","","","","","","",""
"","","","","","single-stim-button","117","311013","0.0-2.0-22.11-1.11","615374d9fd9b41728babd974","D2","batch4","","2282","tol_toboard","","","","tol_peg_1","2282","2282","0","[[3,2,0],[0,0],[1]]","12","[[0,0,0],[1,2],[3]]","4","0","","","","","","7","","","","","","","","",""
"","","","","","single-stim-button","118","312997","0.0-2.0-22.12-0.12","615374d9fd9b41728babd974","D2","batch4","","1983","tol_tohand","","","","tol_peg_3","1983","1983","0","[[3,2,0],[0,0],[0]]","13","[[0,0,0],[1,2],[3]]","4","0","","","","","","7","","","","","","","","",""
"","","","","","single-stim-button","119","314078","0.0-2.0-22.12-1.12","615374d9fd9b41728babd974","D2","batch4","","1080","tol_toboard","","","","tol_peg_2","1080","1080","0","[[3,2,0],[1,0],[0]]","13","[[0,0,0],[1,2],[3]]","4","0","","","","","","7","","","","","","","","",""
"","","","","","single-stim-button","120","314879","0.0-2.0-22.13-0.13","615374d9fd9b41728babd974","D2","batch4","","801","tol_tohand","","","","tol_peg_1","801","801","0","[[3,0,0],[1,0],[0]]","14","[[0,0,0],[1,2],[3]]","4","0","","","","","","7","","","","","","","","",""
"","","","","","single-stim-button","121","315981","0.0-2.0-22.13-1.13","615374d9fd9b41728babd974","D2","batch4","","1101","tol_toboard","","","","tol_peg_2","1101","1101","0","[[3,0,0],[1,2],[0]]","14","[[0,0,0],[1,2],[3]]","4","0","","","","","","7","","","","","","","","",""
"","","","","","single-stim-button","122","316731","0.0-2.0-22.14-0.14","615374d9fd9b41728babd974","D2","batch4","","748","tol_tohand","","","","tol_peg_1","748","748","0","[[0,0,0],[1,2],[0]]","15","[[0,0,0],[1,2],[3]]","4","0","","","","","","7","","","","","","","","",""
"","","","","","single-stim-button","123","317730","0.0-2.0-22.14-1.14","615374d9fd9b41728babd974","D2","batch4","","999","tol_toboard","","","","tol_peg_3","999","999","0","[[0,0,0],[1,2],[3]]","15","[[0,0,0],[1,2],[3]]","4","0","","","","","","7","","","","","","","","",""
"","","","","","poldrack-single-stim","124","318740","0.0-2.0-23.0","615374d9fd9b41728babd974","D2","batch4","","-1","tol_feedback","","","true","","1000","1000","500","","","","","","-1","none","true","7748","28367","","","","","","","","","",""
"","","","","","html-button-response","125","320179","0.0-2.0-24.0","615374d9fd9b41728babd974","D2","batch4","","1437.1000000238419","tol_trial_num","<div class = centerbox><p class = center-block-text>problem <strong>6</strong> out of 25 problems</p></div>","0","","","","","","","","","","","","","","","","","","","","","","","","",""
"","","","","","single-stim-button","126","325013","0.0-2.0-25.0-0.0","615374d9fd9b41728babd974","D2","batch4","","4833","tol_tohand","","","","tol_peg_2","4833","4833","0","[[0,0,0],[1,0],[3]]","1","[[1,0,0],[2,3],[0]]","5","0","","","","","","6","","","","","","","","",""
"","","","","","single-stim-button","127","326080","0.0-2.0-25.0-1.0","615374d9fd9b41728babd974","D2","batch4","","1066","tol_toboard","","","","tol_peg_1","1066","1066","0","[[2,0,0],[1,0],[3]]","1","[[1,0,0],[2,3],[0]]","5","0","","","","","","6","","","","","","","","",""
"","","","","","single-stim-button","128","327564","0.0-2.0-25.1-0.1","615374d9fd9b41728babd974","D2","batch4","","1482","tol_tohand","","","","tol_peg_2","1482","1482","0","[[2,0,0],[0,0],[3]]","2","[[1,0,0],[2,3],[0]]","5","0","","","","","","6","","","","","","","","",""
"","","","","","single-stim-button","129","328581","0.0-2.0-25.1-1.1","615374d9fd9b41728babd974","D2","batch4","","1016","tol_toboard","","","","tol_peg_1","1016","1016","0","[[2,1,0],[0,0],[3]]","2","[[1,0,0],[2,3],[0]]","5","0","","","","","","6","","","","","","","","",""
"","","","","","single-stim-button","130","331530","0.0-2.0-25.2-0.2","615374d9fd9b41728babd974","D2","batch4","","2948","tol_tohand","","","","tol_peg_1","2948","2948","0","[[2,0,0],[0,0],[3]]","3","[[1,0,0],[2,3],[0]]","5","0","","","","","","6","","","","","","","","",""
"","","","","","single-stim-button","131","338514","0.0-2.0-25.2-1.2","615374d9fd9b41728babd974","D2","batch4","","6982","tol_toboard","","","","tol_peg_2","6982","6982","0","[[2,0,0],[1,0],[3]]","3","[[1,0,0],[2,3],[0]]","5","0","","","","","","6","","","","","","","","",""
"","","","","","single-stim-button","132","339280","0.0-2.0-25.3-0.3","615374d9fd9b41728babd974","D2","batch4","","765","tol_tohand","","","","tol_peg_1","765","765","0","[[0,0,0],[1,0],[3]]","4","[[1,0,0],[2,3],[0]]","5","0","","","","","","6","","","","","","","","",""
"","","","","","single-stim-button","133","341663","0.0-2.0-25.3-1.3","615374d9fd9b41728babd974","D2","batch4","","2382","tol_toboard","","","","tol_peg_1","2382","2382","0","[[2,0,0],[1,0],[3]]","4","[[1,0,0],[2,3],[0]]","5","0","","","","","","6","","","","","","","","",""
"","","","","","single-stim-button","134","342412","0.0-2.0-25.4-0.4","615374d9fd9b41728babd974","D2","batch4","","748","tol_tohand","","","","tol_peg_2","748","748","0","[[2,0,0],[0,0],[3]]","5","[[1,0,0],[2,3],[0]]","5","0","","","","","","6","","","","","","","","",""
"","","","","","single-stim-button","135","344013","0.0-2.0-25.4-1.4","615374d9fd9b41728babd974","D2","batch4","","1600","tol_toboard","","","","tol_peg_1","1600","1600","0","[[2,1,0],[0,0],[3]]","5","[[1,0,0],[2,3],[0]]","5","0","","","","","","6","","","","","","","","",""
"","","","","","single-stim-button","136","344947","0.0-2.0-25.5-0.5","615374d9fd9b41728babd974","D2","batch4","","932","tol_tohand","","","","tol_peg_3","932","932","0","[[2,1,0],[0,0],[0]]","6","[[1,0,0],[2,3],[0]]","5","0","","","","","","6","","","","","","","","",""
"","","","","","single-stim-button","137","346080","0.0-2.0-25.5-1.5","615374d9fd9b41728babd974","D2","batch4","","1131","tol_toboard","","","","tol_peg_1","1131","1131","0","[[2,1,3],[0,0],[0]]","6","[[1,0,0],[2,3],[0]]","5","0","","","","","","6","","","","","","","","",""
"","","","","","single-stim-button","138","347947","0.0-2.0-25.6-0.6","615374d9fd9b41728babd974","D2","batch4","","1865","tol_tohand","","","","tol_peg_1","1865","1865","0","[[2,1,0],[0,0],[0]]","7","[[1,0,0],[2,3],[0]]","5","0","","","","","","6","","","","","","","","",""
"","","","","","single-stim-button","139","350447","0.0-2.0-25.6-1.6","615374d9fd9b41728babd974","D2","batch4","","2500","tol_toboard","","","","tol_peg_3","2500","2500","0","[[2,1,0],[0,0],[3]]","7","[[1,0,0],[2,3],[0]]","5","0","","","","","","6","","","","","","","","",""
"","","","","","single-stim-button","140","351230","0.0-2.0-25.7-0.7","615374d9fd9b41728babd974","D2","batch4","","782","tol_tohand","","","","tol_peg_1","782","782","0","[[2,0,0],[0,0],[3]]","8","[[1,0,0],[2,3],[0]]","5","0","","","","","","6","","","","","","","","",""
"","","","","","single-stim-button","141","353080","0.0-2.0-25.7-1.7","615374d9fd9b41728babd974","D2","batch4","","1848","tol_toboard","","","","tol_peg_2","1848","1848","0","[[2,0,0],[1,0],[3]]","8","[[1,0,0],[2,3],[0]]","5","0","","","","","","6","","","","","","","","",""
"","","","","","single-stim-button","142","353963","0.0-2.0-25.8-0.8","615374d9fd9b41728babd974","D2","batch4","","882","tol_tohand","","","","tol_peg_1","882","882","0","[[0,0,0],[1,0],[3]]","9","[[1,0,0],[2,3],[0]]","5","0","","","","","","6","","","","","","","","",""
"","","","","","single-stim-button","143","355231","0.0-2.0-25.8-1.8","615374d9fd9b41728babd974","D2","batch4","","1267","tol_toboard","","","","tol_peg_2","1267","1267","0","[[0,0,0],[1,2],[3]]","9","[[1,0,0],[2,3],[0]]","5","0","","","","","","6","","","","","","","","",""
"","","","","","single-stim-button","144","356814","0.0-2.0-25.9-0.9","615374d9fd9b41728babd974","D2","batch4","","1582","tol_tohand","","","","tol_peg_3","1582","1582","0","[[0,0,0],[1,2],[0]]","10","[[1,0,0],[2,3],[0]]","5","0","","","","","","6","","","","","","","","",""
"","","","","","single-stim-button","145","357879","0.0-2.0-25.9-1.9","615374d9fd9b41728babd974","D2","batch4","","1064","tol_toboard","","","","tol_peg_1","1064","1064","0","[[3,0,0],[1,2],[0]]","10","[[1,0,0],[2,3],[0]]","5","0","","","","","","6","","","","","","","","",""
"","","","","","single-stim-button","146","359130","0.0-2.0-25.10-0.10","615374d9fd9b41728babd974","D2","batch4","","1250","tol_tohand","","","","tol_peg_2","1250","1250","0","[[3,0,0],[1,0],[0]]","11","[[1,0,0],[2,3],[0]]","5","0","","","","","","6","","","","","","","","",""
"","","","","","single-stim-button","147","360646","0.0-2.0-25.10-1.10","615374d9fd9b41728babd974","D2","batch4","","1514","tol_toboard","","","","tol_peg_1","1514","1514","0","[[3,2,0],[1,0],[0]]","11","[[1,0,0],[2,3],[0]]","5","0","","","","","","6","","","","","","","","",""
"","","","","","single-stim-button","148","361713","0.0-2.0-25.11-0.11","615374d9fd9b41728babd974","D2","batch4","","1065","tol_tohand","","","","tol_peg_2","1065","1065","0","[[3,2,0],[0,0],[0]]","12","[[1,0,0],[2,3],[0]]","5","0","","","","","","6","","","","","","","","",""
"","","","","","single-stim-button","149","362963","0.0-2.0-25.11-1.11","615374d9fd9b41728babd974","D2","batch4","","1250","tol_toboard","","","","tol_peg_3","1250","1250","0","[[3,2,0],[0,0],[1]]","12","[[1,0,0],[2,3],[0]]","5","0","","","","","","6","","","","","","","","",""
"","","","","","single-stim-button","150","363996","0.0-2.0-25.12-0.12","615374d9fd9b41728babd974","D2","batch4","","1032","tol_tohand","","","","tol_peg_1","1032","1032","0","[[3,0,0],[0,0],[1]]","13","[[1,0,0],[2,3],[0]]","5","0","","","","","","6","","","","","","","","",""
"","","","","","single-stim-button","151","365147","0.0-2.0-25.12-1.12","615374d9fd9b41728babd974","D2","batch4","","1149","tol_toboard","","","","tol_peg_2","1149","1149","0","[[3,0,0],[2,0],[1]]","13","[[1,0,0],[2,3],[0]]","5","0","","","","","","6","","","","","","","","",""
"","","","","","single-stim-button","152","366112","0.0-2.0-25.13-0.13","615374d9fd9b41728babd974","D2","batch4","","965","tol_tohand","","","","tol_peg_1","965","965","0","[[0,0,0],[2,0],[1]]","14","[[1,0,0],[2,3],[0]]","5","0","","","","","","6","","","","","","","","",""
"","","","","","single-stim-button","153","367280","0.0-2.0-25.13-1.13","615374d9fd9b41728babd974","D2","batch4","","1166","tol_toboard","","","","tol_peg_2","1166","1166","0","[[0,0,0],[2,3],[1]]","14","[[1,0,0],[2,3],[0]]","5","0","","","","","","6","","","","","","","","",""
"","","","","","single-stim-button","154","368147","0.0-2.0-25.14-0.14","615374d9fd9b41728babd974","D2","batch4","","866","tol_tohand","","","","tol_peg_3","866","866","0","[[0,0,0],[2,3],[0]]","15","[[1,0,0],[2,3],[0]]","5","0","","","","","","6","","","","","","","","",""
"","","","","","single-stim-button","155","369130","0.0-2.0-25.14-1.14","615374d9fd9b41728babd974","D2","batch4","","981","tol_toboard","","","","tol_peg_1","981","981","0","[[1,0,0],[2,3],[0]]","15","[[1,0,0],[2,3],[0]]","5","0","","","","","","6","","","","","","","","",""
"","","","","","poldrack-single-stim","156","370138","0.0-2.0-26.0","615374d9fd9b41728babd974","D2","batch4","","-1","tol_feedback","","","true","","1000","1000","500","","","","","","-1","none","true","4833","21997","","","","","","","","","",""
"","","","","","html-button-response","157","371363","0.0-2.0-27.0","615374d9fd9b41728babd974","D2","batch4","","1222.3999999761581","tol_trial_num","<div class = centerbox><p class = center-block-text>problem <strong>7</strong> out of 25 problems</p></div>","0","","","","","","","","","","","","","","","","","","","","","","","","",""
"","","","","","single-stim-button","158","376896","0.0-2.0-28.0-0.0","615374d9fd9b41728babd974","D2","batch4","","5533","tol_tohand","","","","tol_peg_1","5533","5533","0","[[2,0,0],[0,0],[3]]","1","[[1,2,0],[3,0],[0]]","6","0","","","","","","5","","","","","","","","",""
"","","","","","single-stim-button","159","377913","0.0-2.0-28.0-1.0","615374d9fd9b41728babd974","D2","batch4","","1016","tol_toboard","","","","tol_peg_2","1016","1016","0","[[2,0,0],[1,0],[3]]","1","[[1,2,0],[3,0],[0]]","6","0","","","","","","5","","","","","","","","",""
"","","","","","single-stim-button","160","379364","0.0-2.0-28.1-0.1","615374d9fd9b41728babd974","D2","batch4","","1449","tol_tohand","","","","tol_peg_1","1449","1449","0","[[0,0,0],[1,0],[3]]","2","[[1,2,0],[3,0],[0]]","6","0","","","","","","5","","","","","","","","",""
"","","","","","single-stim-button","161","381230","0.0-2.0-28.1-1.1","615374d9fd9b41728babd974","D2","batch4","","1866","tol_toboard","","","","tol_peg_2","1866","1866","0","[[0,0,0],[1,2],[3]]","2","[[1,2,0],[3,0],[0]]","6","0","","","","","","5","","","","","","","","",""
"","","","","","single-stim-button","162","383480","0.0-2.0-28.2-0.2","615374d9fd9b41728babd974","D2","batch4","","2249","tol_tohand","","","","tol_peg_3","2249","2249","0","[[0,0,0],[1,2],[0]]","3","[[1,2,0],[3,0],[0]]","6","0","","","","","","5","","","","","","","","",""
"","","","","","single-stim-button","163","385197","0.0-2.0-28.2-1.2","615374d9fd9b41728babd974","D2","batch4","","1715","tol_toboard","","","","tol_peg_1","1715","1715","0","[[3,0,0],[1,2],[0]]","3","[[1,2,0],[3,0],[0]]","6","0","","","","","","5","","","","","","","","",""
"","","","","","single-stim-button","164","386229","0.0-2.0-28.3-0.3","615374d9fd9b41728babd974","D2","batch4","","1032","tol_tohand","","","","tol_peg_2","1032","1032","0","[[3,0,0],[1,0],[0]]","4","[[1,2,0],[3,0],[0]]","6","0","","","","","","5","","","","","","","","",""
"","","","","","single-stim-button","165","387763","0.0-2.0-28.3-1.3","615374d9fd9b41728babd974","D2","batch4","","1532","tol_toboard","","","","tol_peg_3","1532","1532","0","[[3,0,0],[1,0],[2]]","4","[[1,2,0],[3,0],[0]]","6","0","","","","","","5","","","","","","","","",""
"","","","","","single-stim-button","166","389480","0.0-2.0-28.4-0.4","615374d9fd9b41728babd974","D2","batch4","","1715","tol_tohand","","","","tol_peg_2","1715","1715","0","[[3,0,0],[0,0],[2]]","5","[[1,2,0],[3,0],[0]]","6","0","","","","","","5","","","","","","","","",""
"","","","","","single-stim-button","167","392980","0.0-2.0-28.4-1.4","615374d9fd9b41728babd974","D2","batch4","","3498","tol_toboard","","","","tol_peg_2","3498","3498","0","[[3,0,0],[1,0],[2]]","5","[[1,2,0],[3,0],[0]]","6","0","","","","","","5","","","","","","","","",""
"","","","","","single-stim-button","168","393763","0.0-2.0-28.5-0.5","615374d9fd9b41728babd974","D2","batch4","","781","tol_tohand","","","","tol_peg_1","781","781","0","[[0,0,0],[1,0],[2]]","6","[[1,2,0],[3,0],[0]]","6","0","","","","","","5","","","","","","","","",""
"","","","","","single-stim-button","169","394880","0.0-2.0-28.5-1.5","615374d9fd9b41728babd974","D2","batch4","","1115","tol_toboard","","","","tol_peg_2","1115","1115","0","[[0,0,0],[1,3],[2]]","6","[[1,2,0],[3,0],[0]]","6","0","","","","","","5","","","","","","","","",""
"","","","","","single-stim-button","170","396864","0.0-2.0-28.6-0.6","615374d9fd9b41728babd974","D2","batch4","","1982","tol_tohand","","","","tol_peg_2","1982","1982","0","[[0,0,0],[1,0],[2]]","7","[[1,2,0],[3,0],[0]]","6","0","","","","","","5","","","","","","","","",""
"","","","","","single-stim-button","171","403012","0.0-2.0-28.6-1.6","615374d9fd9b41728babd974","D2","batch4","","6148","tol_toboard","","","","tol_peg_1","6148","6148","0","[[3,0,0],[1,0],[2]]","7","[[1,2,0],[3,0],[0]]","6","0","","","","","","5","","","","","","","","",""
"","","","","","single-stim-button","172","405313","0.0-2.0-28.7-0.7","615374d9fd9b41728babd974","D2","batch4","","2299","tol_tohand","","","","tol_peg_2","2299","2299","0","[[3,0,0],[0,0],[2]]","8","[[1,2,0],[3,0],[0]]","6","0","","","","","","5","","","","","","","","",""
"","","","","","single-stim-button","173","406213","0.0-2.0-28.7-1.7","615374d9fd9b41728babd974","D2","batch4","","899","tol_toboard","","","","tol_peg_1","899","899","0","[[3,1,0],[0,0],[2]]","8","[[1,2,0],[3,0],[0]]","6","0","","","","","","5","","","","","","","","",""
"","","","","","single-stim-button","174","408147","0.0-2.0-28.8-0.8","615374d9fd9b41728babd974","D2","batch4","","1932","tol_tohand","","","","tol_peg_1","1932","1932","0","[[3,0,0],[0,0],[2]]","9","[[1,2,0],[3,0],[0]]","6","0","","","","","","5","","","","","","","","",""
"","","","","","single-stim-button","175","410296","0.0-2.0-28.8-1.8","615374d9fd9b41728babd974","D2","batch4","","2149","tol_toboard","","","","tol_peg_2","2149","2149","0","[[3,0,0],[1,0],[2]]","9","[[1,2,0],[3,0],[0]]","6","0","","","","","","5","","","","","","","","",""
"","","","","","single-stim-button","176","411095","0.0-2.0-28.9-0.9","615374d9fd9b41728babd974","D2","batch4","","798","tol_tohand","","","","tol_peg_3","798","798","0","[[3,0,0],[1,0],[0]]","10","[[1,2,0],[3,0],[0]]","6","0","","","","","","5","","","","","","","","",""
"","","","","","single-stim-button","177","412629","0.0-2.0-28.9-1.9","615374d9fd9b41728babd974","D2","batch4","","1533","tol_toboard","","","","tol_peg_1","1533","1533","0","[[3,2,0],[1,0],[0]]","10","[[1,2,0],[3,0],[0]]","6","0","","","","","","5","","","","","","","","",""
"","","","","","single-stim-button","178","414247","0.0-2.0-28.10-0.10","615374d9fd9b41728babd974","D2","batch4","","1616","tol_tohand","","","","tol_peg_2","1616","1616","0","[[3,2,0],[0,0],[0]]","11","[[1,2,0],[3,0],[0]]","6","0","","","","","","5","","","","","","","","",""
"","","","","","single-stim-button","179","415329","0.0-2.0-28.10-1.10","615374d9fd9b41728babd974","D2","batch4","","1080","tol_toboard","","","","tol_peg_1","1080","1080","0","[[3,2,1],[0,0],[0]]","11","[[1,2,0],[3,0],[0]]","6","0","","","","","","5","","","","","","","","",""
"","","","","","single-stim-button","180","418529","0.0-2.0-28.11-0.11","615374d9fd9b41728babd974","D2","batch4","","3199","tol_tohand","","","","tol_peg_1","3199","3199","0","[[3,2,0],[0,0],[0]]","12","[[1,2,0],[3,0],[0]]","6","0","","","","","","5","","","","","","","","",""
"","","","","","single-stim-button","181","419680","0.0-2.0-28.11-1.11","615374d9fd9b41728babd974","D2","batch4","","1149","tol_toboard","","","","tol_peg_3","1149","1149","0","[[3,2,0],[0,0],[1]]","12","[[1,2,0],[3,0],[0]]","6","0","","","","","","5","","","","","","","","",""
"","","","","","single-stim-button","182","420346","0.0-2.0-28.12-0.12","615374d9fd9b41728babd974","D2","batch4","","664","tol_tohand","","","","tol_peg_1","664","664","0","[[3,0,0],[0,0],[1]]","13","[[1,2,0],[3,0],[0]]","6","0","","","","","","5","","","","","","","","",""
"","","","","","single-stim-button","183","421312","0.0-2.0-28.12-1.12","615374d9fd9b41728babd974","D2","batch4","","966","tol_toboard","","","","tol_peg_2","966","966","0","[[3,0,0],[2,0],[1]]","13","[[1,2,0],[3,0],[0]]","6","0","","","","","","5","","","","","","","","",""
"","","","","","single-stim-button","184","422113","0.0-2.0-28.13-0.13","615374d9fd9b41728babd974","D2","batch4","","799","tol_tohand","","","","tol_peg_1","799","799","0","[[0,0,0],[2,0],[1]]","14","[[1,2,0],[3,0],[0]]","6","0","","","","","","5","","","","","","","","",""
"","","","","","single-stim-button","185","425979","0.0-2.0-28.13-1.13","615374d9fd9b41728babd974","D2","batch4","","3865","tol_toboard","","","","tol_peg_2","3865","3865","0","[[0,0,0],[2,3],[1]]","14","[[1,2,0],[3,0],[0]]","6","0","","","","","","5","","","","","","","","",""
"","","","","","single-stim-button","186","426897","0.0-2.0-28.14-0.14","615374d9fd9b41728babd974","D2","batch4","","916","tol_tohand","","","","tol_peg_3","916","916","0","[[0,0,0],[2,3],[0]]","15","[[1,2,0],[3,0],[0]]","6","0","","","","","","5","","","","","","","","",""
"","","","","","single-stim-button","187","428663","0.0-2.0-28.14-1.14","615374d9fd9b41728babd974","D2","batch4","","1765","tol_toboard","","","","tol_peg_1","1765","1765","0","[[1,0,0],[2,3],[0]]","15","[[1,2,0],[3,0],[0]]","6","0","","","","","","5","","","","","","","","",""
"","","","","","single-stim-button","188","430430","0.0-2.0-28.15-0.15","615374d9fd9b41728babd974","D2","batch4","","1765","tol_tohand","","","","tol_peg_2","1765","1765","0","[[1,0,0],[2,0],[0]]","16","[[1,2,0],[3,0],[0]]","6","0","","","","","","5","","","","","","","","",""
"","","","","","single-stim-button","189","431329","0.0-2.0-28.15-1.15","615374d9fd9b41728babd974","D2","batch4","","899","tol_toboard","","","","tol_peg_3","899","899","0","[[1,0,0],[2,0],[3]]","16","[[1,2,0],[3,0],[0]]","6","0","","","","","","5","","","","","","","","",""
"","","","","","single-stim-button","190","432230","0.0-2.0-28.16-0.16","615374d9fd9b41728babd974","D2","batch4","","899","tol_tohand","","","","tol_peg_2","899","899","0","[[1,0,0],[0,0],[3]]","17","[[1,2,0],[3,0],[0]]","6","0","","","","","","5","","","","","","","","",""
"","","","","","single-stim-button","191","433146","0.0-2.0-28.16-1.16","615374d9fd9b41728babd974","D2","batch4","","915","tol_toboard","","","","tol_peg_1","915","915","0","[[1,2,0],[0,0],[3]]","17","[[1,2,0],[3,0],[0]]","6","0","","","","","","5","","","","","","","","",""
"","","","","","single-stim-button","192","434279","0.0-2.0-28.17-0.17","615374d9fd9b41728babd974","D2","batch4","","1132","tol_tohand","","","","tol_peg_3","1132","1132","0","[[1,2,0],[0,0],[0]]","18","[[1,2,0],[3,0],[0]]","6","0","","","","","","5","","","","","","","","",""
"","","","","","single-stim-button","193","435262","0.0-2.0-28.17-1.17","615374d9fd9b41728babd974","D2","batch4","","982","tol_toboard","","","","tol_peg_2","982","982","0","[[1,2,0],[3,0],[0]]","18","[[1,2,0],[3,0],[0]]","6","0","","","","","","5","","","","","","","","",""
"","","","","","poldrack-single-stim","194","436269","0.0-2.0-29.0","615374d9fd9b41728babd974","D2","batch4","","-1","tol_feedback","","","true","","1000","1000","500","","","","","","-1","none","true","5533","30760","","","","","","","","","",""
"","","","","","html-button-response","195","437496","0.0-2.0-30.0","615374d9fd9b41728babd974","D2","batch4","","1224.0999999642372","tol_trial_num","<div class = centerbox><p class = center-block-text>problem <strong>8</strong> out of 25 problems</p></div>","0","","","","","","","","","","","","","","","","","","","","","","","","",""
"","","","","","single-stim-button","196","441979","0.0-2.0-31.0-0.0","615374d9fd9b41728babd974","D2","batch4","","4482","tol_tohand","","","","tol_peg_2","4482","4482","0","[[0,0,0],[2,0],[1]]","1","[[1,2,0],[3,0],[0]]","7","0","","","","","","4","","","","","","","","",""
"","","","","","single-stim-button","197","443046","0.0-2.0-31.0-1.0","615374d9fd9b41728babd974","D2","batch4","","1066","tol_toboard","","","","tol_peg_1","1066","1066","0","[[3,0,0],[2,0],[1]]","1","[[1,2,0],[3,0],[0]]","7","0","","","","","","4","","","","","","","","",""
"","","","","","single-stim-button","198","443663","0.0-2.0-31.1-0.1","615374d9fd9b41728babd974","D2","batch4","","615","tol_tohand","","","","tol_peg_2","615","615","0","[[3,0,0],[0,0],[1]]","2","[[1,2,0],[3,0],[0]]","7","0","","","","","","4","","","","","","","","",""
"","","","","","single-stim-button","199","444613","0.0-2.0-31.1-1.1","615374d9fd9b41728babd974","D2","batch4","","948","tol_toboard","","","","tol_peg_1","948","948","0","[[3,2,0],[0,0],[1]]","2","[[1,2,0],[3,0],[0]]","7","0","","","","","","4","","","","","","","","",""
"","","","","","single-stim-button","200","445346","0.0-2.0-31.2-0.2","615374d9fd9b41728babd974","D2","batch4","","731","tol_tohand","","","","tol_peg_3","731","731","0","[[3,2,0],[0,0],[0]]","3","[[1,2,0],[3,0],[0]]","7","0","","","","","","4","","","","","","","","",""
"","","","","","single-stim-button","201","446346","0.0-2.0-31.2-1.2","615374d9fd9b41728babd974","D2","batch4","","999","tol_toboard","","","","tol_peg_1","999","999","0","[[3,2,1],[0,0],[0]]","3","[[1,2,0],[3,0],[0]]","7","0","","","","","","4","","","","","","","","",""
"","","","","","single-stim-button","202","451129","0.0-2.0-31.3-0.3","615374d9fd9b41728babd974","D2","batch4","","4782","tol_tohand","","","","tol_peg_1","4782","4782","0","[[3,2,0],[0,0],[0]]","4","[[1,2,0],[3,0],[0]]","7","0","","","","","","4","","","","","","","","",""
"","","","","","single-stim-button","203","452546","0.0-2.0-31.3-1.3","615374d9fd9b41728babd974","D2","batch4","","1415","tol_toboard","","","","tol_peg_3","1415","1415","0","[[3,2,0],[0,0],[1]]","4","[[1,2,0],[3,0],[0]]","7","0","","","","","","4","","","","","","","","",""
"","","","","","single-stim-button","204","453829","0.0-2.0-31.4-0.4","615374d9fd9b41728babd974","D2","batch4","","1282","tol_tohand","","","","tol_peg_1","1282","1282","0","[[3,0,0],[0,0],[1]]","5","[[1,2,0],[3,0],[0]]","7","0","","","","","","4","","","","","","","","",""
"","","","","","single-stim-button","205","455679","0.0-2.0-31.4-1.4","615374d9fd9b41728babd974","D2","batch4","","1849","tol_toboard","","","","tol_peg_2","1849","1849","0","[[3,0,0],[2,0],[1]]","5","[[1,2,0],[3,0],[0]]","7","0","","","","","","4","","","","","","","","",""
"","","","","","single-stim-button","206","456562","0.0-2.0-31.5-0.5","615374d9fd9b41728babd974","D2","batch4","","882","tol_tohand","","","","tol_peg_1","882","882","0","[[0,0,0],[2,0],[1]]","6","[[1,2,0],[3,0],[0]]","7","0","","","","","","4","","","","","","","","",""
"","","","","","single-stim-button","207","457779","0.0-2.0-31.5-1.5","615374d9fd9b41728babd974","D2","batch4","","1216","tol_toboard","","","","tol_peg_2","1216","1216","0","[[0,0,0],[2,3],[1]]","6","[[1,2,0],[3,0],[0]]","7","0","","","","","","4","","","","","","","","",""
"","","","","","single-stim-button","208","459213","0.0-2.0-31.6-0.6","615374d9fd9b41728babd974","D2","batch4","","1432","tol_tohand","","","","tol_peg_3","1432","1432","0","[[0,0,0],[2,3],[0]]","7","[[1,2,0],[3,0],[0]]","7","0","","","","","","4","","","","","","","","",""
"","","","","","single-stim-button","209","460263","0.0-2.0-31.6-1.6","615374d9fd9b41728babd974","D2","batch4","","1049","tol_toboard","","","","tol_peg_1","1049","1049","0","[[1,0,0],[2,3],[0]]","7","[[1,2,0],[3,0],[0]]","7","0","","","","","","4","","","","","","","","",""
"","","","","","single-stim-button","210","461796","0.0-2.0-31.7-0.7","615374d9fd9b41728babd974","D2","batch4","","1532","tol_tohand","","","","tol_peg_2","1532","1532","0","[[1,0,0],[2,0],[0]]","8","[[1,2,0],[3,0],[0]]","7","0","","","","","","4","","","","","","","","",""
"","","","","","single-stim-button","211","462946","0.0-2.0-31.7-1.7","615374d9fd9b41728babd974","D2","batch4","","1148","tol_toboard","","","","tol_peg_3","1148","1148","0","[[1,0,0],[2,0],[3]]","8","[[1,2,0],[3,0],[0]]","7","0","","","","","","4","","","","","","","","",""
"","","","","","single-stim-button","212","463612","0.0-2.0-31.8-0.8","615374d9fd9b41728babd974","D2","batch4","","665","tol_tohand","","","","tol_peg_2","665","665","0","[[1,0,0],[0,0],[3]]","9","[[1,2,0],[3,0],[0]]","7","0","","","","","","4","","","","","","","","",""
"","","","","","single-stim-button","213","464479","0.0-2.0-31.8-1.8","615374d9fd9b41728babd974","D2","batch4","","866","tol_toboard","","","","tol_peg_1","866","866","0","[[1,2,0],[0,0],[3]]","9","[[1,2,0],[3,0],[0]]","7","0","","","","","","4","","","","","","","","",""
"","","","","","single-stim-button","214","467878","0.0-2.0-31.9-0.9","615374d9fd9b41728babd974","D2","batch4","","3398","tol_tohand","","","","tol_peg_3","3398","3398","0","[[1,2,0],[0,0],[0]]","10","[[1,2,0],[3,0],[0]]","7","0","","","","","","4","","","","","","","","",""
"","","","","","single-stim-button","215","468713","0.0-2.0-31.9-1.9","615374d9fd9b41728babd974","D2","batch4","","833","tol_toboard","","","","tol_peg_2","833","833","0","[[1,2,0],[3,0],[0]]","10","[[1,2,0],[3,0],[0]]","7","0","","","","","","4","","","","","","","","",""
"","","","","","poldrack-single-stim","216","469722","0.0-2.0-32.0","615374d9fd9b41728babd974","D2","batch4","","-1","tol_feedback","","","true","","1000","1000","500","","","","","","-1","none","true","4482","19801","","","","","","","","","",""
"","","","","","html-button-response","217","470779","0.0-2.0-33.0","615374d9fd9b41728babd974","D2","batch4","","1054.800000011921","tol_trial_num","<div class = centerbox><p class = center-block-text>problem <strong>9</strong> out of 25 problems</p></div>","0","","","","","","","","","","","","","","","","","","","","","","","","",""
"","","","","","single-stim-button","218","476296","0.0-2.0-34.0-0.0","615374d9fd9b41728babd974","D2","batch4","","5516","tol_tohand","","","","tol_peg_1","5516","5516","0","[[3,0,0],[0,0],[1]]","1","[[2,1,0],[3,0],[0]]","8","0","","","","","","6","","","","","","","","",""
"","","","","","single-stim-button","219","477496","0.0-2.0-34.0-1.0","615374d9fd9b41728babd974","D2","batch4","","1199","tol_toboard","","","","tol_peg_2","1199","1199","0","[[3,0,0],[2,0],[1]]","1","[[2,1,0],[3,0],[0]]","8","0","","","","","","6","","","","","","","","",""
"","","","","","single-stim-button","220","479296","0.0-2.0-34.1-0.1","615374d9fd9b41728babd974","D2","batch4","","1798","tol_tohand","","","","tol_peg_1","1798","1798","0","[[0,0,0],[2,0],[1]]","2","[[2,1,0],[3,0],[0]]","8","0","","","","","","6","","","","","","","","",""
"","","","","","single-stim-button","221","480246","0.0-2.0-34.1-1.1","615374d9fd9b41728babd974","D2","batch4","","948","tol_toboard","","","","tol_peg_2","948","948","0","[[0,0,0],[2,3],[1]]","2","[[2,1,0],[3,0],[0]]","8","0","","","","","","6","","","","","","","","",""
"","","","","","single-stim-button","222","483396","0.0-2.0-34.2-0.2","615374d9fd9b41728babd974","D2","batch4","","3148","tol_tohand","","","","tol_peg_3","3148","3148","0","[[0,0,0],[2,3],[0]]","3","[[2,1,0],[3,0],[0]]","8","0","","","","","","6","","","","","","","","",""
"","","","","","single-stim-button","223","484412","0.0-2.0-34.2-1.2","615374d9fd9b41728babd974","D2","batch4","","1015","tol_toboard","","","","tol_peg_1","1015","1015","0","[[1,0,0],[2,3],[0]]","3","[[2,1,0],[3,0],[0]]","8","0","","","","","","6","","","","","","","","",""
"","","","","","single-stim-button","224","485444","0.0-2.0-34.3-0.3","615374d9fd9b41728babd974","D2","batch4","","1031","tol_tohand","","","","tol_peg_2","1031","1031","0","[[1,0,0],[2,0],[0]]","4","[[2,1,0],[3,0],[0]]","8","0","","","","","","6","","","","","","","","",""
"","","","","","single-stim-button","225","486529","0.0-2.0-34.3-1.3","615374d9fd9b41728babd974","D2","batch4","","1084","tol_toboard","","","","tol_peg_3","1084","1084","0","[[1,0,0],[2,0],[3]]","4","[[2,1,0],[3,0],[0]]","8","0","","","","","","6","","","","","","","","",""
"","","","","","single-stim-button","226","487262","0.0-2.0-34.4-0.4","615374d9fd9b41728babd974","D2","batch4","","732","tol_tohand","","","","tol_peg_2","732","732","0","[[1,0,0],[0,0],[3]]","5","[[2,1,0],[3,0],[0]]","8","0","","","","","","6","","","","","","","","",""
"","","","","","single-stim-button","227","490296","0.0-2.0-34.4-1.4","615374d9fd9b41728babd974","D2","batch4","","3032","tol_toboard","","","","tol_peg_1","3032","3032","0","[[1,2,0],[0,0],[3]]","5","[[2,1,0],[3,0],[0]]","8","0","","","","","","6","","","","","","","","",""
"","","","","","single-stim-button","228","491362","0.0-2.0-34.5-0.5","615374d9fd9b41728babd974","D2","batch4","","1065","tol_tohand","","","","tol_peg_3","1065","1065","0","[[1,2,0],[0,0],[0]]","6","[[2,1,0],[3,0],[0]]","8","0","","","","","","6","","","","","","","","",""
"","","","","","single-stim-button","229","492379","0.0-2.0-34.5-1.5","615374d9fd9b41728babd974","D2","batch4","","1015","tol_toboard","","","","tol_peg_2","1015","1015","0","[[1,2,0],[3,0],[0]]","6","[[2,1,0],[3,0],[0]]","8","0","","","","","","6","","","","","","","","",""
"","","","","","single-stim-button","230","493478","0.0-2.0-34.6-0.6","615374d9fd9b41728babd974","D2","batch4","","1098","tol_tohand","","","","tol_peg_1","1098","1098","0","[[1,0,0],[3,0],[0]]","7","[[2,1,0],[3,0],[0]]","8","0","","","","","","6","","","","","","","","",""
"","","","","","single-stim-button","231","496545","0.0-2.0-34.6-1.6","615374d9fd9b41728babd974","D2","batch4","","3066","tol_toboard","","","","tol_peg_2","3066","3066","0","[[1,0,0],[3,2],[0]]","7","[[2,1,0],[3,0],[0]]","8","0","","","","","","6","","","","","","","","",""
"","","","","","single-stim-button","232","497229","0.0-2.0-34.7-0.7","615374d9fd9b41728babd974","D2","batch4","","681","tol_tohand","","","","tol_peg_1","681","681","0","[[0,0,0],[3,2],[0]]","8","[[2,1,0],[3,0],[0]]","8","0","","","","","","6","","","","","","","","",""
"","","","","","single-stim-button","233","498379","0.0-2.0-34.7-1.7","615374d9fd9b41728babd974","D2","batch4","","1148","tol_toboard","","","","tol_peg_3","1148","1148","0","[[0,0,0],[3,2],[1]]","8","[[2,1,0],[3,0],[0]]","8","0","","","","","","6","","","","","","","","",""
"","","","","","single-stim-button","234","499279","0.0-2.0-34.8-0.8","615374d9fd9b41728babd974","D2","batch4","","898","tol_tohand","","","","tol_peg_3","898","898","0","[[0,0,0],[3,2],[0]]","9","[[2,1,0],[3,0],[0]]","8","0","","","","","","6","","","","","","","","",""
"","","","","","single-stim-button","235","500896","0.0-2.0-34.8-1.8","615374d9fd9b41728babd974","D2","batch4","","1616","tol_toboard","","","","tol_peg_1","1616","1616","0","[[1,0,0],[3,2],[0]]","9","[[2,1,0],[3,0],[0]]","8","0","","","","","","6","","","","","","","","",""
"","","","","","single-stim-button","236","502379","0.0-2.0-34.9-0.9","615374d9fd9b41728babd974","D2","batch4","","1481","tol_tohand","","","","tol_peg_2","1481","1481","0","[[1,0,0],[3,0],[0]]","10","[[2,1,0],[3,0],[0]]","8","0","","","","","","6","","","","","","","","",""
"","","","","","single-stim-button","237","503296","0.0-2.0-34.9-1.9","615374d9fd9b41728babd974","D2","batch4","","915","tol_toboard","","","","tol_peg_1","915","915","0","[[1,2,0],[3,0],[0]]","10","[[2,1,0],[3,0],[0]]","8","0","","","","","","6","","","","","","","","",""
"","","","","","single-stim-button","238","507412","0.0-2.0-34.10-0.10","615374d9fd9b41728babd974","D2","batch4","","4114","tol_tohand","","","","tol_peg_1","4114","4114","0","[[1,0,0],[3,0],[0]]","11","[[2,1,0],[3,0],[0]]","8","0","","","","","","6","","","","","","","","",""
"","","","","","single-stim-button","239","508394","0.0-2.0-34.10-1.10","615374d9fd9b41728babd974","D2","batch4","","981","tol_toboard","","","","tol_peg_3","981","981","0","[[1,0,0],[3,0],[2]]","11","[[2,1,0],[3,0],[0]]","8","0","","","","","","6","","","","","","","","",""
"","","","","","single-stim-button","240","509295","0.0-2.0-34.11-0.11","615374d9fd9b41728babd974","D2","batch4","","900","tol_tohand","","","","tol_peg_1","900","900","0","[[0,0,0],[3,0],[2]]","12","[[2,1,0],[3,0],[0]]","8","0","","","","","","6","","","","","","","","",""
"","","","","","single-stim-button","241","510611","0.0-2.0-34.11-1.11","615374d9fd9b41728babd974","D2","batch4","","1315","tol_toboard","","","","tol_peg_2","1315","1315","0","[[0,0,0],[3,1],[2]]","12","[[2,1,0],[3,0],[0]]","8","0","","","","","","6","","","","","","","","",""
"","","","","","single-stim-button","242","511594","0.0-2.0-34.12-0.12","615374d9fd9b41728babd974","D2","batch4","","982","tol_tohand","","","","tol_peg_3","982","982","0","[[0,0,0],[3,1],[0]]","13","[[2,1,0],[3,0],[0]]","8","0","","","","","","6","","","","","","","","",""
"","","","","","single-stim-button","243","512512","0.0-2.0-34.12-1.12","615374d9fd9b41728babd974","D2","batch4","","917","tol_toboard","","","","tol_peg_1","917","917","0","[[2,0,0],[3,1],[0]]","13","[[2,1,0],[3,0],[0]]","8","0","","","","","","6","","","","","","","","",""
"","","","","","single-stim-button","244","513196","0.0-2.0-34.13-0.13","615374d9fd9b41728babd974","D2","batch4","","681","tol_tohand","","","","tol_peg_2","681","681","0","[[2,0,0],[3,0],[0]]","14","[[2,1,0],[3,0],[0]]","8","0","","","","","","6","","","","","","","","",""
"","","","","","single-stim-button","245","513912","0.0-2.0-34.13-1.13","615374d9fd9b41728babd974","D2","batch4","","716","tol_toboard","","","","tol_peg_1","716","716","0","[[2,1,0],[3,0],[0]]","14","[[2,1,0],[3,0],[0]]","8","0","","","","","","6","","","","","","","","",""
"","","","","","poldrack-single-stim","246","514922","0.0-2.0-35.0","615374d9fd9b41728babd974","D2","batch4","","-1","tol_feedback","","","true","","1000","1000","500","","","","","","-1","none","true","5516","24125","","","","","","","","","",""
"","","","","","html-button-response","247","515879","0.0-2.0-36.0","615374d9fd9b41728babd974","D2","batch4","","954.6999999880791","tol_trial_num","<div class = centerbox><p class = center-block-text>problem <strong>10</strong> out of 25 problems</p></div>","0","","","","","","","","","","","","","","","","","","","","","","","","",""
"","","","","","single-stim-button","248","524279","0.0-2.0-37.0-0.0","615374d9fd9b41728babd974","D2","batch4","","8398","tol_tohand","","","","tol_peg_3","8398","8398","0","[[3,0,0],[1,0],[0]]","1","[[3,0,0],[2,1],[0]]","9","0","","","","","","3","","","","","","","","",""
"","","","","","single-stim-button","249","526845","0.0-2.0-37.0-1.0","615374d9fd9b41728babd974","D2","batch4","","2565","tol_toboard","","","","tol_peg_1","2565","2565","0","[[3,2,0],[1,0],[0]]","1","[[3,0,0],[2,1],[0]]","9","0","","","","","","3","","","","","","","","",""
"","","","","","single-stim-button","250","527845","0.0-2.0-37.1-0.1","615374d9fd9b41728babd974","D2","batch4","","998","tol_tohand","","","","tol_peg_2","998","998","0","[[3,2,0],[0,0],[0]]","2","[[3,0,0],[2,1],[0]]","9","0","","","","","","3","","","","","","","","",""
"","","","","","single-stim-button","251","529345","0.0-2.0-37.1-1.1","615374d9fd9b41728babd974","D2","batch4","","1499","tol_toboard","","","","tol_peg_3","1499","1499","0","[[3,2,0],[0,0],[1]]","2","[[3,0,0],[2,1],[0]]","9","0","","","","","","3","","","","","","","","",""
"","","","","","single-stim-button","252","530128","0.0-2.0-37.2-0.2","615374d9fd9b41728babd974","D2","batch4","","781","tol_tohand","","","","tol_peg_1","781","781","0","[[3,0,0],[0,0],[1]]","3","[[3,0,0],[2,1],[0]]","9","0","","","","","","3","","","","","","","","",""
"","","","","","single-stim-button","253","531146","0.0-2.0-37.2-1.2","615374d9fd9b41728babd974","D2","batch4","","1016","tol_toboard","","","","tol_peg_2","1016","1016","0","[[3,0,0],[2,0],[1]]","3","[[3,0,0],[2,1],[0]]","9","0","","","","","","3","","","","","","","","",""
"","","","","","single-stim-button","254","531728","0.0-2.0-37.3-0.3","615374d9fd9b41728babd974","D2","batch4","","581","tol_tohand","","","","tol_peg_3","581","581","0","[[3,0,0],[2,0],[0]]","4","[[3,0,0],[2,1],[0]]","9","0","","","","","","3","","","","","","","","",""
"","","","","","single-stim-button","255","532612","0.0-2.0-37.3-1.3","615374d9fd9b41728babd974","D2","batch4","","882","tol_toboard","","","","tol_peg_2","882","882","0","[[3,0,0],[2,1],[0]]","4","[[3,0,0],[2,1],[0]]","9","0","","","","","","3","","","","","","","","",""
"","","","","","poldrack-single-stim","256","533622","0.0-2.0-38.0","615374d9fd9b41728babd974","D2","batch4","","-1","tol_feedback","","","true","","1000","1000","500","","","","","","-1","none","true","8398","10758","","","","","","","","","",""
"","","","","","html-button-response","257","534529","0.0-2.0-39.0","615374d9fd9b41728babd974","D2","batch4","","904.9000000357628","tol_trial_num","<div class = centerbox><p class = center-block-text>problem <strong>11</strong> out of 25 problems</p></div>","0","","","","","","","","","","","","","","","","","","","","","","","","",""
"","","","","","single-stim-button","258","539746","0.0-2.0-40.0-0.0","615374d9fd9b41728babd974","D2","batch4","","5215","tol_tohand","","","","tol_peg_2","5215","5215","0","[[1,2,0],[0,0],[0]]","1","[[2,0,0],[1,3],[0]]","10","0","","","","","","6","","","","","","","","",""
"","","","","","single-stim-button","259","540795","0.0-2.0-40.0-1.0","615374d9fd9b41728babd974","D2","batch4","","1048","tol_toboard","","","","tol_peg_3","1048","1048","0","[[1,2,0],[0,0],[3]]","1","[[2,0,0],[1,3],[0]]","10","0","","","","","","6","","","","","","","","",""
"","","","","","single-stim-button","260","543278","0.0-2.0-40.1-0.1","615374d9fd9b41728babd974","D2","batch4","","2482","tol_tohand","","","","tol_peg_1","2482","2482","0","[[1,0,0],[0,0],[3]]","2","[[2,0,0],[1,3],[0]]","10","0","","","","","","6","","","","","","","","",""
"","","","","","single-stim-button","261","544295","0.0-2.0-40.1-1.1","615374d9fd9b41728babd974","D2","batch4","","1016","tol_toboard","","","","tol_peg_2","1016","1016","0","[[1,0,0],[2,0],[3]]","2","[[2,0,0],[1,3],[0]]","10","0","","","","","","6","","","","","","","","",""
"","","","","","single-stim-button","262","545245","0.0-2.0-40.2-0.2","615374d9fd9b41728babd974","D2","batch4","","949","tol_tohand","","","","tol_peg_1","949","949","0","[[0,0,0],[2,0],[3]]","3","[[2,0,0],[1,3],[0]]","10","0","","","","","","6","","","","","","","","",""
"","","","","","single-stim-button","263","549095","0.0-2.0-40.2-1.2","615374d9fd9b41728babd974","D2","batch4","","3849","tol_toboard","","","","tol_peg_1","3849","3849","0","[[1,0,0],[2,0],[3]]","3","[[2,0,0],[1,3],[0]]","10","0","","","","","","6","","","","","","","","",""
"","","","","","single-stim-button","264","551078","0.0-2.0-40.3-0.3","615374d9fd9b41728babd974","D2","batch4","","1981","tol_tohand","","","","tol_peg_3","1981","1981","0","[[1,0,0],[2,0],[0]]","4","[[2,0,0],[1,3],[0]]","10","0","","","","","","6","","","","","","","","",""
"","","","","","single-stim-button","265","552079","0.0-2.0-40.3-1.3","615374d9fd9b41728babd974","D2","batch4","","999","tol_toboard","","","","tol_peg_1","999","999","0","[[1,3,0],[2,0],[0]]","4","[[2,0,0],[1,3],[0]]","10","0","","","","","","6","","","","","","","","",""
"","","","","","single-stim-button","266","553078","0.0-2.0-40.4-0.4","615374d9fd9b41728babd974","D2","batch4","","998","tol_tohand","","","","tol_peg_2","998","998","0","[[1,3,0],[0,0],[0]]","5","[[2,0,0],[1,3],[0]]","10","0","","","","","","6","","","","","","","","",""
"","","","","","single-stim-button","267","554228","0.0-2.0-40.4-1.4","615374d9fd9b41728babd974","D2","batch4","","1149","tol_toboard","","","","tol_peg_3","1149","1149","0","[[1,3,0],[0,0],[2]]","5","[[2,0,0],[1,3],[0]]","10","0","","","","","","6","","","","","","","","",""
"","","","","","single-stim-button","268","556345","0.0-2.0-40.5-0.5","615374d9fd9b41728babd974","D2","batch4","","2116","tol_tohand","","","","tol_peg_1","2116","2116","0","[[1,0,0],[0,0],[2]]","6","[[2,0,0],[1,3],[0]]","10","0","","","","","","6","","","","","","","","",""
"","","","","","single-stim-button","269","557462","0.0-2.0-40.5-1.5","615374d9fd9b41728babd974","D2","batch4","","1115","tol_toboard","","","","tol_peg_2","1115","1115","0","[[1,0,0],[3,0],[2]]","6","[[2,0,0],[1,3],[0]]","10","0","","","","","","6","","","","","","","","",""
"","","","","","single-stim-button","270","558095","0.0-2.0-40.6-0.6","615374d9fd9b41728babd974","D2","batch4","","631","tol_tohand","","","","tol_peg_1","631","631","0","[[0,0,0],[3,0],[2]]","7","[[2,0,0],[1,3],[0]]","10","0","","","","","","6","","","","","","","","",""
"","","","","","single-stim-button","271","559095","0.0-2.0-40.6-1.6","615374d9fd9b41728babd974","D2","batch4","","998","tol_toboard","","","","tol_peg_2","998","998","0","[[0,0,0],[3,1],[2]]","7","[[2,0,0],[1,3],[0]]","10","0","","","","","","6","","","","","","","","",""
"","","","","","single-stim-button","272","559661","0.0-2.0-40.7-0.7","615374d9fd9b41728babd974","D2","batch4","","564","tol_tohand","","","","tol_peg_3","564","564","0","[[0,0,0],[3,1],[0]]","8","[[2,0,0],[1,3],[0]]","10","0","","","","","","6","","","","","","","","",""
"","","","","","single-stim-button","273","560862","0.0-2.0-40.7-1.7","615374d9fd9b41728babd974","D2","batch4","","1200","tol_toboard","","","","tol_peg_1","1200","1200","0","[[2,0,0],[3,1],[0]]","8","[[2,0,0],[1,3],[0]]","10","0","","","","","","6","","","","","","","","",""
"","","","","","single-stim-button","274","562795","0.0-2.0-40.8-0.8","615374d9fd9b41728babd974","D2","batch4","","1932","tol_tohand","","","","tol_peg_2","1932","1932","0","[[2,0,0],[3,0],[0]]","9","[[2,0,0],[1,3],[0]]","10","0","","","","","","6","","","","","","","","",""
"","","","","","single-stim-button","275","563745","0.0-2.0-40.8-1.8","615374d9fd9b41728babd974","D2","batch4","","948","tol_toboard","","","","tol_peg_3","948","948","0","[[2,0,0],[3,0],[1]]","9","[[2,0,0],[1,3],[0]]","10","0","","","","","","6","","","","","","","","",""
"","","","","","single-stim-button","276","564294","0.0-2.0-40.9-0.9","615374d9fd9b41728babd974","D2","batch4","","548","tol_tohand","","","","tol_peg_2","548","548","0","[[2,0,0],[0,0],[1]]","10","[[2,0,0],[1,3],[0]]","10","0","","","","","","6","","","","","","","","",""
"","","","","","single-stim-button","277","565445","0.0-2.0-40.9-1.9","615374d9fd9b41728babd974","D2","batch4","","1149","tol_toboard","","","","tol_peg_1","1149","1149","0","[[2,3,0],[0,0],[1]]","10","[[2,0,0],[1,3],[0]]","10","0","","","","","","6","","","","","","","","",""
"","","","","","single-stim-button","278","566612","0.0-2.0-40.10-0.10","615374d9fd9b41728babd974","D2","batch4","","1165","tol_tohand","","","","tol_peg_3","1165","1165","0","[[2,3,0],[0,0],[0]]","11","[[2,0,0],[1,3],[0]]","10","0","","","","","","6","","","","","","","","",""
"","","","","","single-stim-button","279","567945","0.0-2.0-40.10-1.10","615374d9fd9b41728babd974","D2","batch4","","1332","tol_toboard","","","","tol_peg_2","1332","1332","0","[[2,3,0],[1,0],[0]]","11","[[2,0,0],[1,3],[0]]","10","0","","","","","","6","","","","","","","","",""
"","","","","","single-stim-button","280","568678","0.0-2.0-40.11-0.11","615374d9fd9b41728babd974","D2","batch4","","732","tol_tohand","","","","tol_peg_1","732","732","0","[[2,0,0],[1,0],[0]]","12","[[2,0,0],[1,3],[0]]","10","0","","","","","","6","","","","","","","","",""
"","","","","","single-stim-button","281","569645","0.0-2.0-40.11-1.11","615374d9fd9b41728babd974","D2","batch4","","965","tol_toboard","","","","tol_peg_2","965","965","0","[[2,0,0],[1,3],[0]]","12","[[2,0,0],[1,3],[0]]","10","0","","","","","","6","","","","","","","","",""
"","","","","","poldrack-single-stim","282","570649","0.0-2.0-41.0","615374d9fd9b41728babd974","D2","batch4","","-1","tol_feedback","","","true","","1000","1000","500","","","","","","-1","none","true","5215","19313","","","","","","","","","",""
"","","","","","html-button-response","283","571661","0.0-2.0-42.0","615374d9fd9b41728babd974","D2","batch4","","1010.6999999880791","tol_trial_num","<div class = centerbox><p class = center-block-text>problem <strong>12</strong> out of 25 problems</p></div>","0","","","","","","","","","","","","","","","","","","","","","","","","",""
"","","","","","single-stim-button","284","574278","0.0-2.0-43.0-0.0","615374d9fd9b41728babd974","D2","batch4","","2615","tol_tohand","","","","tol_peg_1","2615","2615","0","[[1,0,0],[3,0],[0]]","1","[[2,3,0],[0,0],[1]]","11","0","","","","","","4","","","","","","","","",""
"","","","","","single-stim-button","285","576262","0.0-2.0-43.0-1.0","615374d9fd9b41728babd974","D2","batch4","","1982","tol_toboard","","","","tol_peg_3","1982","1982","0","[[1,0,0],[3,0],[2]]","1","[[2,3,0],[0,0],[1]]","11","0","","","","","","4","","","","","","","","",""
"","","","","","single-stim-button","286","576945","0.0-2.0-43.1-0.1","615374d9fd9b41728babd974","D2","batch4","","681","tol_tohand","","","","tol_peg_2","681","681","0","[[1,0,0],[0,0],[2]]","2","[[2,3,0],[0,0],[1]]","11","0","","","","","","4","","","","","","","","",""
"","","","","","single-stim-button","287","579728","0.0-2.0-43.1-1.1","615374d9fd9b41728babd974","D2","batch4","","2782","tol_toboard","","","","tol_peg_1","2782","2782","0","[[1,3,0],[0,0],[2]]","2","[[2,3,0],[0,0],[1]]","11","0","","","","","","4","","","","","","","","",""
"","","","","","single-stim-button","288","583076","0.0-2.0-43.2-0.2","615374d9fd9b41728babd974","D2","batch4","","3347","tol_tohand","","","","tol_peg_1","3347","3347","0","[[1,0,0],[0,0],[2]]","3","[[2,3,0],[0,0],[1]]","11","0","","","","","","4","","","","","","","","",""
"","","","","","single-stim-button","289","584211","0.0-2.0-43.2-1.2","615374d9fd9b41728babd974","D2","batch4","","1133","tol_toboard","","","","tol_peg_2","1133","1133","0","[[1,0,0],[3,0],[2]]","3","[[2,3,0],[0,0],[1]]","11","0","","","","","","4","","","","","","","","",""
"","","","","","single-stim-button","290","585078","0.0-2.0-43.3-0.3","615374d9fd9b41728babd974","D2","batch4","","865","tol_tohand","","","","tol_peg_1","865","865","0","[[0,0,0],[3,0],[2]]","4","[[2,3,0],[0,0],[1]]","11","0","","","","","","4","","","","","","","","",""
"","","","","","single-stim-button","291","585995","0.0-2.0-43.3-1.3","615374d9fd9b41728babd974","D2","batch4","","916","tol_toboard","","","","tol_peg_2","916","916","0","[[0,0,0],[3,1],[2]]","4","[[2,3,0],[0,0],[1]]","11","0","","","","","","4","","","","","","","","",""
"","","","","","single-stim-button","292","587628","0.0-2.0-43.4-0.4","615374d9fd9b41728babd974","D2","batch4","","1632","tol_tohand","","","","tol_peg_3","1632","1632","0","[[0,0,0],[3,1],[0]]","5","[[2,3,0],[0,0],[1]]","11","0","","","","","","4","","","","","","","","",""
"","","","","","single-stim-button","293","588513","0.0-2.0-43.4-1.4","615374d9fd9b41728babd974","D2","batch4","","884","tol_toboard","","","","tol_peg_1","884","884","0","[[2,0,0],[3,1],[0]]","5","[[2,3,0],[0,0],[1]]","11","0","","","","","","4","","","","","","","","",""
"","","","","","single-stim-button","294","590545","0.0-2.0-43.5-0.5","615374d9fd9b41728babd974","D2","batch4","","2031","tol_tohand","","","","tol_peg_2","2031","2031","0","[[2,0,0],[3,0],[0]]","6","[[2,3,0],[0,0],[1]]","11","0","","","","","","4","","","","","","","","",""
"","","","","","single-stim-button","295","591560","0.0-2.0-43.5-1.5","615374d9fd9b41728babd974","D2","batch4","","1014","tol_toboard","","","","tol_peg_3","1014","1014","0","[[2,0,0],[3,0],[1]]","6","[[2,3,0],[0,0],[1]]","11","0","","","","","","4","","","","","","","","",""
"","","","","","single-stim-button","296","592178","0.0-2.0-43.6-0.6","615374d9fd9b41728babd974","D2","batch4","","616","tol_tohand","","","","tol_peg_2","616","616","0","[[2,0,0],[0,0],[1]]","7","[[2,3,0],[0,0],[1]]","11","0","","","","","","4","","","","","","","","",""
"","","","","","single-stim-button","297","593178","0.0-2.0-43.6-1.6","615374d9fd9b41728babd974","D2","batch4","","999","tol_toboard","","","","tol_peg_1","999","999","0","[[2,3,0],[0,0],[1]]","7","[[2,3,0],[0,0],[1]]","11","0","","","","","","4","","","","","","","","",""
"","","","","","poldrack-single-stim","298","594188","0.0-2.0-44.0","615374d9fd9b41728babd974","D2","batch4","","-1","tol_feedback","","","true","","1000","1000","500","","","","","","-1","none","true","2615","11787","","","","","","","","","",""
"","","","","","html-button-response","299","595361","0.0-2.0-45.0","615374d9fd9b41728babd974","D2","batch4","","1171.1000000238419","tol_trial_num","<div class = centerbox><p class = center-block-text>problem <strong>13</strong> out of 25 problems</p></div>","0","","","","","","","","","","","","","","","","","","","","","","","","",""
"","","","","","single-stim-button","300","597795","0.0-2.0-46.0-0.0","615374d9fd9b41728babd974","D2","batch4","","2432","tol_tohand","","","","tol_peg_2","2432","2432","0","[[1,2,0],[0,0],[0]]","1","[[0,0,0],[2,3],[1]]","12","0","","","","","","4","","","","","","","","",""
"","","","","","single-stim-button","301","598861","0.0-2.0-46.0-1.0","615374d9fd9b41728babd974","D2","batch4","","1065","tol_toboard","","","","tol_peg_3","1065","1065","0","[[1,2,0],[0,0],[3]]","1","[[0,0,0],[2,3],[1]]","12","0","","","","","","4","","","","","","","","",""
"","","","","","single-stim-button","302","599845","0.0-2.0-46.1-0.1","615374d9fd9b41728babd974","D2","batch4","","982","tol_tohand","","","","tol_peg_1","982","982","0","[[1,0,0],[0,0],[3]]","2","[[0,0,0],[2,3],[1]]","12","0","","","","","","4","","","","","","","","",""
"","","","","","single-stim-button","303","601128","0.0-2.0-46.1-1.1","615374d9fd9b41728babd974","D2","batch4","","1281","tol_toboard","","","","tol_peg_2","1281","1281","0","[[1,0,0],[2,0],[3]]","2","[[0,0,0],[2,3],[1]]","12","0","","","","","","4","","","","","","","","",""
"","","","","","single-stim-button","304","601928","0.0-2.0-46.2-0.2","615374d9fd9b41728babd974","D2","batch4","","798","tol_tohand","","","","tol_peg_3","798","798","0","[[1,0,0],[2,0],[0]]","3","[[0,0,0],[2,3],[1]]","12","0","","","","","","4","","","","","","","","",""
"","","","","","single-stim-button","305","602862","0.0-2.0-46.2-1.2","615374d9fd9b41728babd974","D2","batch4","","933","tol_toboard","","","","tol_peg_2","933","933","0","[[1,0,0],[2,3],[0]]","3","[[0,0,0],[2,3],[1]]","12","0","","","","","","4","","","","","","","","",""
"","","","","","single-stim-button","306","603711","0.0-2.0-46.3-0.3","615374d9fd9b41728babd974","D2","batch4","","846","tol_tohand","","","","tol_peg_1","846","846","0","[[0,0,0],[2,3],[0]]","4","[[0,0,0],[2,3],[1]]","12","0","","","","","","4","","","","","","","","",""
"","","","","","single-stim-button","307","604512","0.0-2.0-46.3-1.3","615374d9fd9b41728babd974","D2","batch4","","800","tol_toboard","","","","tol_peg_3","800","800","0","[[0,0,0],[2,3],[1]]","4","[[0,0,0],[2,3],[1]]","12","0","","","","","","4","","","","","","","","",""
"","","","","","poldrack-single-stim","308","605519","0.0-2.0-47.0","615374d9fd9b41728babd974","D2","batch4","","-1","tol_feedback","","","true","","1000","1000","500","","","","","","-1","none","true","2432","5058","","","","","","","","","",""
"","","","","","html-button-response","309","612794","0.0-2.0-48.0","615374d9fd9b41728babd974","D2","batch4","","7274.800000011921","attention_check","<p class = block-text>How many balls are in your board<br></p>","1","true","","","","","","","","","","","","","","","","","","","","","","","",""
"","","","","","html-button-response","310","614311","0.0-2.0-49.0","615374d9fd9b41728babd974","D2","batch4","","1513.800000011921","tol_trial_num","<div class = centerbox><p class = center-block-text>problem <strong>14</strong> out of 25 problems</p></div>","0","","","","","","","","","","","","","","","","","","","","","","","","",""
"","","","","","single-stim-button","311","617445","0.0-2.0-50.0-0.0","615374d9fd9b41728babd974","D2","batch4","","3132","tol_tohand","","","","tol_peg_1","3132","3132","0","[[2,0,0],[3,0],[0]]","1","[[1,2,0],[3,0],[0]]","13","0","","","","","","4","","","","","","","","",""
"","","","","","single-stim-button","312","618445","0.0-2.0-50.0-1.0","615374d9fd9b41728babd974","D2","batch4","","998","tol_toboard","","","","tol_peg_3","998","998","0","[[2,0,0],[3,0],[1]]","1","[[1,2,0],[3,0],[0]]","13","0","","","","","","4","","","","","","","","",""
"","","","","","single-stim-button","313","619229","0.0-2.0-50.1-0.1","615374d9fd9b41728babd974","D2","batch4","","782","tol_tohand","","","","tol_peg_1","782","782","0","[[0,0,0],[3,0],[1]]","2","[[1,2,0],[3,0],[0]]","13","0","","","","","","4","","","","","","","","",""
"","","","","","single-stim-button","314","622761","0.0-2.0-50.1-1.1","615374d9fd9b41728babd974","D2","batch4","","3531","tol_toboard","","","","tol_peg_2","3531","3531","0","[[0,0,0],[3,2],[1]]","2","[[1,2,0],[3,0],[0]]","13","0","","","","","","4","","","","","","","","",""
"","","","","","single-stim-button","315","623311","0.0-2.0-50.2-0.2","615374d9fd9b41728babd974","D2","batch4","","548","tol_tohand","","","","tol_peg_3","548","548","0","[[0,0,0],[3,2],[0]]","3","[[1,2,0],[3,0],[0]]","13","0","","","","","","4","","","","","","","","",""
"","","","","","single-stim-button","316","624178","0.0-2.0-50.2-1.2","615374d9fd9b41728babd974","D2","batch4","","865","tol_toboard","","","","tol_peg_1","865","865","0","[[1,0,0],[3,2],[0]]","3","[[1,2,0],[3,0],[0]]","13","0","","","","","","4","","","","","","","","",""
"","","","","","single-stim-button","317","624711","0.0-2.0-50.3-0.3","615374d9fd9b41728babd974","D2","batch4","","531","tol_tohand","","","","tol_peg_2","531","531","0","[[1,0,0],[3,0],[0]]","4","[[1,2,0],[3,0],[0]]","13","0","","","","","","4","","","","","","","","",""
"","","","","","single-stim-button","318","625563","0.0-2.0-50.3-1.3","615374d9fd9b41728babd974","D2","batch4","","850","tol_toboard","","","","tol_peg_1","850","850","0","[[1,2,0],[3,0],[0]]","4","[[1,2,0],[3,0],[0]]","13","0","","","","","","4","","","","","","","","",""
"","","","","","poldrack-single-stim","319","626571","0.0-2.0-51.0","615374d9fd9b41728babd974","D2","batch4","","-1","tol_feedback","","","true","","1000","1000","500","","","","","","-1","none","true","3132","4993","","","","","","","","","",""
"","","","","","html-button-response","320","627894","0.0-2.0-52.0","615374d9fd9b41728babd974","D2","batch4","","1321.5","tol_trial_num","<div class = centerbox><p class = center-block-text>problem <strong>15</strong> out of 25 problems</p></div>","0","","","","","","","","","","","","","","","","","","","","","","","","",""
"","","","","","single-stim-button","321","630144","0.0-2.0-53.0-0.0","615374d9fd9b41728babd974","D2","batch4","","2248","tol_tohand","","","","tol_peg_1","2248","2248","0","[[1,0,0],[3,0],[0]]","1","[[2,0,0],[3,0],[1]]","14","0","","","","","","3","","","","","","","","",""
"","","","","","single-stim-button","322","633178","0.0-2.0-53.0-1.0","615374d9fd9b41728babd974","D2","batch4","","3032","tol_toboard","","","","tol_peg_2","3032","3032","0","[[1,0,0],[3,2],[0]]","1","[[2,0,0],[3,0],[1]]","14","0","","","","","","3","","","","","","","","",""
"","","","","","single-stim-button","323","633828","0.0-2.0-53.1-0.1","615374d9fd9b41728babd974","D2","batch4","","648","tol_tohand","","","","tol_peg_1","648","648","0","[[0,0,0],[3,2],[0]]","2","[[2,0,0],[3,0],[1]]","14","0","","","","","","3","","","","","","","","",""
"","","","","","single-stim-button","324","635527","0.0-2.0-53.1-1.1","615374d9fd9b41728babd974","D2","batch4","","1698","tol_toboard","","","","tol_peg_3","1698","1698","0","[[0,0,0],[3,2],[1]]","2","[[2,0,0],[3,0],[1]]","14","0","","","","","","3","","","","","","","","",""
"","","","","","single-stim-button","325","636194","0.0-2.0-53.2-0.2","615374d9fd9b41728babd974","D2","batch4","","665","tol_tohand","","","","tol_peg_2","665","665","0","[[0,0,0],[3,0],[1]]","3","[[2,0,0],[3,0],[1]]","14","0","","","","","","3","","","","","","","","",""
"","","","","","single-stim-button","326","637177","0.0-2.0-53.2-1.2","615374d9fd9b41728babd974","D2","batch4","","982","tol_toboard","","","","tol_peg_1","982","982","0","[[2,0,0],[3,0],[1]]","3","[[2,0,0],[3,0],[1]]","14","0","","","","","","3","","","","","","","","",""
"","","","","","poldrack-single-stim","327","638188","0.0-2.0-54.0","615374d9fd9b41728babd974","D2","batch4","","-1","tol_feedback","","","true","","1000","1000","500","","","","","","-1","none","true","2248","3561","","","","","","","","","",""
"","","","","","html-button-response","328","638911","0.0-2.0-55.0","615374d9fd9b41728babd974","D2","batch4","","721.5","tol_trial_num","<div class = centerbox><p class = center-block-text>problem <strong>16</strong> out of 25 problems</p></div>","0","","","","","","","","","","","","","","","","","","","","","","","","",""
"","","","","","single-stim-button","329","647744","0.0-2.0-56.0-0.0","615374d9fd9b41728babd974","D2","batch4","","8832","tol_tohand","","","","tol_peg_2","8832","8832","0","[[0,0,0],[2,0],[1]]","1","[[2,3,0],[1,0],[0]]","15","0","","","","","","7","","","","","","","","",""
"","","","","","single-stim-button","330","653643","0.0-2.0-56.0-1.0","615374d9fd9b41728babd974","D2","batch4","","5897","tol_toboard","","","","tol_peg_1","5897","5897","0","[[3,0,0],[2,0],[1]]","1","[[2,3,0],[1,0],[0]]","15","0","","","","","","7","","","","","","","","",""
"","","","","","single-stim-button","331","654428","0.0-2.0-56.1-0.1","615374d9fd9b41728babd974","D2","batch4","","783","tol_tohand","","","","tol_peg_2","783","783","0","[[3,0,0],[0,0],[1]]","2","[[2,3,0],[1,0],[0]]","15","0","","","","","","7","","","","","","","","",""
"","","","","","single-stim-button","332","655445","0.0-2.0-56.1-1.1","615374d9fd9b41728babd974","D2","batch4","","1015","tol_toboard","","","","tol_peg_1","1015","1015","0","[[3,2,0],[0,0],[1]]","2","[[2,3,0],[1,0],[0]]","15","0","","","","","","7","","","","","","","","",""
"","","","","","single-stim-button","333","656544","0.0-2.0-56.2-0.2","615374d9fd9b41728babd974","D2","batch4","","1098","tol_tohand","","","","tol_peg_3","1098","1098","0","[[3,2,0],[0,0],[0]]","3","[[2,3,0],[1,0],[0]]","15","0","","","","","","7","","","","","","","","",""
"","","","","","single-stim-button","334","657394","0.0-2.0-56.2-1.2","615374d9fd9b41728babd974","D2","batch4","","849","tol_toboard","","","","tol_peg_2","849","849","0","[[3,2,0],[1,0],[0]]","3","[[2,3,0],[1,0],[0]]","15","0","","","","","","7","","","","","","","","",""
"","","","","","single-stim-button","335","658778","0.0-2.0-56.3-0.3","615374d9fd9b41728babd974","D2","batch4","","1381","tol_tohand","","","","tol_peg_1","1381","1381","0","[[3,0,0],[1,0],[0]]","4","[[2,3,0],[1,0],[0]]","15","0","","","","","","7","","","","","","","","",""
"","","","","","single-stim-button","336","660011","0.0-2.0-56.3-1.3","615374d9fd9b41728babd974","D2","batch4","","1232","tol_toboard","","","","tol_peg_3","1232","1232","0","[[3,0,0],[1,0],[2]]","4","[[2,3,0],[1,0],[0]]","15","0","","","","","","7","","","","","","","","",""
"","","","","","single-stim-button","337","660895","0.0-2.0-56.4-0.4","615374d9fd9b41728babd974","D2","batch4","","883","tol_tohand","","","","tol_peg_1","883","883","0","[[0,0,0],[1,0],[2]]","5","[[2,3,0],[1,0],[0]]","15","0","","","","","","7","","","","","","","","",""
"","","","","","single-stim-button","338","661593","0.0-2.0-56.4-1.4","615374d9fd9b41728babd974","D2","batch4","","697","tol_toboard","","","","tol_peg_2","697","697","0","[[0,0,0],[1,3],[2]]","5","[[2,3,0],[1,0],[0]]","15","0","","","","","","7","","","","","","","","",""
"","","","","","single-stim-button","339","662344","0.0-2.0-56.5-0.5","615374d9fd9b41728babd974","D2","batch4","","750","tol_tohand","","","","tol_peg_3","750","750","0","[[0,0,0],[1,3],[0]]","6","[[2,3,0],[1,0],[0]]","15","0","","","","","","7","","","","","","","","",""
"","","","","","single-stim-button","340","663427","0.0-2.0-56.5-1.5","615374d9fd9b41728babd974","D2","batch4","","1082","tol_toboard","","","","tol_peg_1","1082","1082","0","[[2,0,0],[1,3],[0]]","6","[[2,3,0],[1,0],[0]]","15","0","","","","","","7","","","","","","","","",""
"","","","","","single-stim-button","341","664127","0.0-2.0-56.6-0.6","615374d9fd9b41728babd974","D2","batch4","","698","tol_tohand","","","","tol_peg_2","698","698","0","[[2,0,0],[1,0],[0]]","7","[[2,3,0],[1,0],[0]]","15","0","","","","","","7","","","","","","","","",""
"","","","","","single-stim-button","342","664860","0.0-2.0-56.6-1.6","615374d9fd9b41728babd974","D2","batch4","","732","tol_toboard","","","","tol_peg_1","732","732","0","[[2,3,0],[1,0],[0]]","7","[[2,3,0],[1,0],[0]]","15","0","","","","","","7","","","","","","","","",""
"","","","","","poldrack-single-stim","343","665867","0.0-2.0-57.0","615374d9fd9b41728babd974","D2","batch4","","-1","tol_feedback","","","true","","1000","1000","500","","","","","","-1","none","true","8832","14425","","","","","","","","","",""
"","","","","","html-button-response","344","667344","0.0-2.0-58.0","615374d9fd9b41728babd974","D2","batch4","","1474.800000011921","tol_trial_num","<div class = centerbox><p class = center-block-text>problem <strong>17</strong> out of 25 problems</p></div>","0","","","","","","","","","","","","","","","","","","","","","","","","",""
"","","","","","single-stim-button","345","670294","0.0-2.0-59.0-0.0","615374d9fd9b41728babd974","D2","batch4","","2948","tol_tohand","","","","tol_peg_2","2948","2948","0","[[1,2,0],[0,0],[0]]","1","[[3,1,0],[2,0],[0]]","16","0","","","","","","5","","","","","","","","",""
"","","","","","single-stim-button","346","671278","0.0-2.0-59.0-1.0","615374d9fd9b41728babd974","D2","batch4","","982","tol_toboard","","","","tol_peg_3","982","982","0","[[1,2,0],[0,0],[3]]","1","[[3,1,0],[2,0],[0]]","16","0","","","","","","5","","","","","","","","",""
"","","","","","single-stim-button","347","672261","0.0-2.0-59.1-0.1","615374d9fd9b41728babd974","D2","batch4","","982","tol_tohand","","","","tol_peg_1","982","982","0","[[1,0,0],[0,0],[3]]","2","[[3,1,0],[2,0],[0]]","16","0","","","","","","5","","","","","","","","",""
"","","","","","single-stim-button","348","673044","0.0-2.0-59.1-1.1","615374d9fd9b41728babd974","D2","batch4","","782","tol_toboard","","","","tol_peg_2","782","782","0","[[1,0,0],[2,0],[3]]","2","[[3,1,0],[2,0],[0]]","16","0","","","","","","5","","","","","","","","",""
"","","","","","single-stim-button","349","674209","0.0-2.0-59.2-0.2","615374d9fd9b41728babd974","D2","batch4","","1164","tol_tohand","","","","tol_peg_1","1164","1164","0","[[0,0,0],[2,0],[3]]","3","[[3,1,0],[2,0],[0]]","16","0","","","","","","5","","","","","","","","",""
"","","","","","single-stim-button","350","675711","0.0-2.0-59.2-1.2","615374d9fd9b41728babd974","D2","batch4","","1500","tol_toboard","","","","tol_peg_2","1500","1500","0","[[0,0,0],[2,1],[3]]","3","[[3,1,0],[2,0],[0]]","16","0","","","","","","5","","","","","","","","",""
"","","","","","single-stim-button","351","676361","0.0-2.0-59.3-0.3","615374d9fd9b41728babd974","D2","batch4","","648","tol_tohand","","","","tol_peg_3","648","648","0","[[0,0,0],[2,1],[0]]","4","[[3,1,0],[2,0],[0]]","16","0","","","","","","5","","","","","","","","",""
"","","","","","single-stim-button","352","677278","0.0-2.0-59.3-1.3","615374d9fd9b41728babd974","D2","batch4","","915","tol_toboard","","","","tol_peg_1","915","915","0","[[3,0,0],[2,1],[0]]","4","[[3,1,0],[2,0],[0]]","16","0","","","","","","5","","","","","","","","",""
"","","","","","single-stim-button","353","678077","0.0-2.0-59.4-0.4","615374d9fd9b41728babd974","D2","batch4","","798","tol_tohand","","","","tol_peg_2","798","798","0","[[3,0,0],[2,0],[0]]","5","[[3,1,0],[2,0],[0]]","16","0","","","","","","5","","","","","","","","",""
"","","","","","single-stim-button","354","678960","0.0-2.0-59.4-1.4","615374d9fd9b41728babd974","D2","batch4","","882","tol_toboard","","","","tol_peg_1","882","882","0","[[3,1,0],[2,0],[0]]","5","[[3,1,0],[2,0],[0]]","16","0","","","","","","5","","","","","","","","",""
"","","","","","poldrack-single-stim","355","679971","0.0-2.0-60.0","615374d9fd9b41728babd974","D2","batch4","","-1","tol_feedback","","","true","","1000","1000","500","","","","","","-1","none","true","2948","6540","","","","","","","","","",""
