"success","timeout","failed_images","failed_audio","failed_video","trial_type","trial_index","time_elapsed","internal_node_id","subject_id","study_id","session_id","view_history","rt","stimulus","response","task","correct","answer","item","fiar_detect_rt","fiar_detect_correct","total_correct_fiar_detect","post_trial_gap","choices","mouse_click","stim_duration","block_duration","timing_post_trial","current_position","tol_num_moves_made","tol_target","tol_problem_id","tol_rt","key_press","possible_responses","tol_correct","preplanning","tol_rt_per_trial","tol_min_moves","spm_correct","spm_rt"
"true","false","[]","[]","[]","preload","0","774","0.0-0.0","6155e0bb17662cfd9293bfd5","E1","batch5","","","","","","","","","","","","","","","","","","","","","","","","","","","","","",""
"true","","","","","fullscreen","1","12263","0.0-1.0-0.0","6155e0bb17662cfd9293bfd5","E1","batch5","","","","","","","","","","","","","","","","","","","","","","","","","","","","","",""
"true","","","","","fullscreen","2","16355","0.0-2.0-0.0","6155e0bb17662cfd9293bfd5","E1","batch5","","","","","","","","","","","","","","","","","","","","","","","","","","","","","",""
"","","","","","instructions","3","40949","0.0-2.0-1.0-0.0","6155e0bb17662cfd9293bfd5","E1","batch5","[{""page_index"":0,""viewing_time"":15176.400000095367},{""page_index"":1,""viewing_time"":9416}]","24592.700000047684","","","","","","","","","","","","","","","","","","","","","","","","","","","",""
"","","","","","html-button-response","4","42915","0.0-2.0-1.0-1.0-0.0","6155e0bb17662cfd9293bfd5","E1","batch5","","1965.0999999046326","<p class=block-text> Let's answer a few questions <br>","0","pattern_enter_quiz","","","","","","","","","","","","","","","","","","","","","","","","",""
"","","","","","html-button-response","5","45798","0.0-2.0-1.0-1.0-1.0","6155e0bb17662cfd9293bfd5","E1","batch5","","2882.7000000476837","<p class = block-text>True or False: You will have as much time as you want to make each choice. <br></p>","1","pattern_quiz","true","","","","","","","","","","","","","","","","","","","","","","","",""
"","","","","","html-button-response","6","47532","0.0-2.0-1.0-1.0-2.0","6155e0bb17662cfd9293bfd5","E1","batch5","","1732.7000000476837","<p class = block-text>Correct! You should make your choice <strong> as fast as you can</strong>.</p>","0","pattern_quiz_feedback","","","","","","","","","","","","","","","","","","","","","","","","",""
"","","","","","html-button-response","7","59749","0.0-2.0-1.0-1.0-3.0","6155e0bb17662cfd9293bfd5","E1","batch5","","12216.099999904633","<p class = block-text>True or False: You will look for 4 pieces in black or white color connected in a row either horizontally, vertically or diagonally. <br></p>","0","pattern_quiz","true","","","","","","","","","","","","","","","","","","","","","","","",""
"","","","","","html-button-response","8","60598","0.0-2.0-1.0-1.0-4.0","6155e0bb17662cfd9293bfd5","E1","batch5","","848","<p class = block-text>Correct! </p>","0","pattern_quiz_feedback","","","","","","","","","","","","","","","","","","","","","","","","",""
"","","","","","html-button-response","9","64166","0.0-2.0-2.0","6155e0bb17662cfd9293bfd5","E1","batch5","","3567.5999999046326","<p class=block-text> Now that you've understood the game, let's do a few practice trials before we start!<br> <br>","0","pattern_enter_practice","","","","","","","","","","","","","","","","","","","","","","","","",""
"","","","","","image-keyboard-response","10","66020","0.0-2.0-3.0-0.0","6155e0bb17662cfd9293bfd5","E1","batch5","","1846.7999999523163","stim/prac_yes_16_ver_w1.png","f","pattern_practice","true","f","","","","","","","","","","","","","","","","","","","","","","",""
"","","","","","html-keyboard-response","11","67034","0.0-2.0-3.0-1.0","6155e0bb17662cfd9293bfd5","E1","batch5","","null","<p style=""font-size:30px;color:green;"">Correct!</p>","null","pattern_feedback","","","","","","","","","","","","","","","","","","","","","","","","",""
"","","","","","image-keyboard-response","12","68347","0.0-2.0-3.0-0.1","6155e0bb17662cfd9293bfd5","E1","batch5","","1312.4000000953674","stim/prac_no_16_1.png","j","pattern_practice","true","j","","","","","","","","","","","","","","","","","","","","","","",""
"","","","","","html-keyboard-response","13","69359","0.0-2.0-3.0-1.1","6155e0bb17662cfd9293bfd5","E1","batch5","","null","<p style=""font-size:30px;color:green;"">Correct!</p>","null","pattern_feedback","","","","","","","","","","","","","","","","","","","","","","","","",""
"","","","","","image-keyboard-response","14","70493","0.0-2.0-3.0-0.2","6155e0bb17662cfd9293bfd5","E1","batch5","","1133.1000001430511","stim/prac_yes_20_dia_b1.png","f","pattern_practice","true","f","","","","","","","","","","","","","","","","","","","","","","",""
"","","","","","html-keyboard-response","15","71513","0.0-2.0-3.0-1.2","6155e0bb17662cfd9293bfd5","E1","batch5","","null","<p style=""font-size:30px;color:green;"">Correct!</p>","null","pattern_feedback","","","","","","","","","","","","","","","","","","","","","","","","",""
"","","","","","image-keyboard-response","16","72221","0.0-2.0-3.0-0.3","6155e0bb17662cfd9293bfd5","E1","batch5","","706.2999999523163","stim/prac_yes_18_hor_w1.png","f","pattern_practice","true","f","","","","","","","","","","","","","","","","","","","","","","",""
"","","","","","html-keyboard-response","17","73242","0.0-2.0-3.0-1.3","6155e0bb17662cfd9293bfd5","E1","batch5","","null","<p style=""font-size:30px;color:green;"">Correct!</p>","null","pattern_feedback","","","","","","","","","","","","","","","","","","","","","","","","",""
"","","","","","image-keyboard-response","18","74091","0.0-2.0-3.0-0.4","6155e0bb17662cfd9293bfd5","E1","batch5","","847.7999999523163","stim/prac_no_18_1.png","j","pattern_practice","true","j","","","","","","","","","","","","","","","","","","","","","","",""
"","","","","","html-keyboard-response","19","75114","0.0-2.0-3.0-1.4","6155e0bb17662cfd9293bfd5","E1","batch5","","null","<p style=""font-size:30px;color:green;"">Correct!</p>","null","pattern_feedback","","","","","","","","","","","","","","","","","","","","","","","","",""
"","","","","","html-button-response","20","81833","0.0-2.0-4.0","6155e0bb17662cfd9293bfd5","E1","batch5","","6717.600000143051","<p class=block-text> Good job! You are done with practice trials!<br>
        You responded correctly on 100% of the trials.<br>
        Press the button below to start official trials. Now you won't see any feedback about your response</p>","0","pattern_enter_official_trials","","","","","","","","","","","","","","","","","","","","","","","","",""
"","","","","","html-keyboard-response","21","82641","0.0-2.0-5.0-0.0","6155e0bb17662cfd9293bfd5","E1","batch5","","null","<p class=block-text>Trial 1 out of 78</p>","null","pattern_show_trial_num","","","","","","","","","","","","","","","","","","","","","","","","",""
"","","","","","image-keyboard-response","22","84353","0.0-2.0-5.0-1.0","6155e0bb17662cfd9293bfd5","E1","batch5","","1709.7999999523163","stim/no_37_2_w.png","j","pattern_response","true","j","pattern_19","1709.7999999523163","true","1","","","","","","","","","","","","","","","","","","",""
"","","","","","html-keyboard-response","23","85666","0.0-2.0-5.0-0.1","6155e0bb17662cfd9293bfd5","E1","batch5","","null","<p class=block-text>Trial 2 out of 78</p>","null","pattern_show_trial_num","","","","","","","","","","","","","","","","","","","","","","","","",""
"","","","","","image-keyboard-response","24","86896","0.0-2.0-5.0-1.1","6155e0bb17662cfd9293bfd5","E1","batch5","","1228.2999999523163","stim/yes_42_dia_w1_w.png","j","pattern_response","false","f","pattern_64","1228.2999999523163","false","1","","","","","","","","","","","","","","","","","","",""
"","","","","","html-keyboard-response","25","88209","0.0-2.0-5.0-0.2","6155e0bb17662cfd9293bfd5","E1","batch5","","null","<p class=block-text>Trial 3 out of 78</p>","null","pattern_show_trial_num","","","","","","","","","","","","","","","","","","","","","","","","",""
"","","","","","image-keyboard-response","26","91391","0.0-2.0-5.0-1.2","6155e0bb17662cfd9293bfd5","E1","batch5","","3181.0999999046326","stim/no_45_1_w.png","j","pattern_response","true","j","pattern_25","3181.0999999046326","true","2","","","","","","","","","","","","","","","","","","",""
"","","","","","html-keyboard-response","27","92706","0.0-2.0-5.0-0.3","6155e0bb17662cfd9293bfd5","E1","batch5","","null","<p class=block-text>Trial 4 out of 78</p>","null","pattern_show_trial_num","","","","","","","","","","","","","","","","","","","","","","","","",""
"","","","","","image-keyboard-response","28","93909","0.0-2.0-5.0-1.3","6155e0bb17662cfd9293bfd5","E1","batch5","","1201.3000001907349","stim/no_18_1_b.png","j","pattern_response","true","j","pattern_05","1201.3000001907349","true","3","","","","","","","","","","","","","","","","","","",""
"","","","","","html-keyboard-response","29","95226","0.0-2.0-5.0-0.4","6155e0bb17662cfd9293bfd5","E1","batch5","","null","<p class=block-text>Trial 5 out of 78</p>","null","pattern_show_trial_num","","","","","","","","","","","","","","","","","","","","","","","","",""
"","","","","","image-keyboard-response","30","97653","0.0-2.0-5.0-1.4","6155e0bb17662cfd9293bfd5","E1","batch5","","2426.5999999046326","stim/no_53_1_b.png","j","pattern_response","true","j","pattern_33","2426.5999999046326","true","4","","","","","","","","","","","","","","","","","","",""
"","","","","","html-keyboard-response","31","98970","0.0-2.0-5.0-0.5","6155e0bb17662cfd9293bfd5","E1","batch5","","null","<p class=block-text>Trial 6 out of 78</p>","null","pattern_show_trial_num","","","","","","","","","","","","","","","","","","","","","","","","",""
"","","","","","image-keyboard-response","32","102627","0.0-2.0-5.0-1.5","6155e0bb17662cfd9293bfd5","E1","batch5","","3656.2999999523163","stim/yes_51_dia_b1.png","f","pattern_response","true","f","pattern_72","3656.2999999523163","true","5","","","","","","","","","","","","","","","","","","",""
"","","","","","html-keyboard-response","33","103945","0.0-2.0-5.0-0.6","6155e0bb17662cfd9293bfd5","E1","batch5","","null","<p class=block-text>Trial 7 out of 78</p>","null","pattern_show_trial_num","","","","","","","","","","","","","","","","","","","","","","","","",""
"","","","","","image-keyboard-response","34","104745","0.0-2.0-5.0-1.6","6155e0bb17662cfd9293bfd5","E1","batch5","","798.2999999523163","stim/yes_12_hor_w1_w.png","f","pattern_response","true","f","pattern_42","798.2999999523163","true","6","","","","","","","","","","","","","","","","","","",""
"","","","","","html-keyboard-response","35","106057","0.0-2.0-5.0-0.7","6155e0bb17662cfd9293bfd5","E1","batch5","","null","<p class=block-text>Trial 8 out of 78</p>","null","pattern_show_trial_num","","","","","","","","","","","","","","","","","","","","","","","","",""
"","","","","","image-keyboard-response","36","106887","0.0-2.0-5.0-1.7","6155e0bb17662cfd9293bfd5","E1","batch5","","829.1000001430511","stim/yes_49_hor_w1_b.png","f","pattern_response","true","f","pattern_70","829.1000001430511","true","7","","","","","","","","","","","","","","","","","","",""
"","","","","","html-keyboard-response","37","108201","0.0-2.0-5.0-0.8","6155e0bb17662cfd9293bfd5","E1","batch5","","null","<p class=block-text>Trial 9 out of 78</p>","null","pattern_show_trial_num","","","","","","","","","","","","","","","","","","","","","","","","",""
"","","","","","image-keyboard-response","38","111501","0.0-2.0-5.0-1.8","6155e0bb17662cfd9293bfd5","E1","batch5","","3299","stim/no_67_1.png","j","pattern_response","true","j","pattern_39","3299","true","8","","","","","","","","","","","","","","","","","","",""
"","","","","","html-keyboard-response","39","112817","0.0-2.0-5.0-0.9","6155e0bb17662cfd9293bfd5","E1","batch5","","null","<p class=block-text>Trial 10 out of 78</p>","null","pattern_show_trial_num","","","","","","","","","","","","","","","","","","","","","","","","",""
"","","","","","image-keyboard-response","40","115902","0.0-2.0-5.0-1.9","6155e0bb17662cfd9293bfd5","E1","batch5","","3084.4000000953674","stim/no_49_2_b.png","j","pattern_response","true","j","pattern_29","3084.4000000953674","true","9","","","","","","","","","","","","","","","","","","",""
"","","","","","html-keyboard-response","41","117217","0.0-2.0-5.0-0.10","6155e0bb17662cfd9293bfd5","E1","batch5","","null","<p class=block-text>Trial 11 out of 78</p>","null","pattern_show_trial_num","","","","","","","","","","","","","","","","","","","","","","","","",""
"","","","","","image-keyboard-response","42","118809","0.0-2.0-5.0-1.10","6155e0bb17662cfd9293bfd5","E1","batch5","","1591.2000000476837","stim/no_43_2_b.png","j","pattern_response","true","j","pattern_23","1591.2000000476837","true","10","","","","","","","","","","","","","","","","","","",""
"","","","","","html-keyboard-response","43","120129","0.0-2.0-5.0-0.11","6155e0bb17662cfd9293bfd5","E1","batch5","","null","<p class=block-text>Trial 12 out of 78</p>","null","pattern_show_trial_num","","","","","","","","","","","","","","","","","","","","","","","","",""
"","","","","","image-keyboard-response","44","121888","0.0-2.0-5.0-1.11","6155e0bb17662cfd9293bfd5","E1","batch5","","1757.7999999523163","stim/yes_70_ver_b1.png","f","pattern_response","true","f","pattern_80","1757.7999999523163","true","11","","","","","","","","","","","","","","","","","","",""
"","","","","","html-keyboard-response","45","123200","0.0-2.0-5.0-0.12","6155e0bb17662cfd9293bfd5","E1","batch5","","null","<p class=block-text>Trial 13 out of 78</p>","null","pattern_show_trial_num","","","","","","","","","","","","","","","","","","","","","","","","",""
"","","","","","image-keyboard-response","46","125218","0.0-2.0-5.0-1.12","6155e0bb17662cfd9293bfd5","E1","batch5","","2017.5","stim/yes_33_dia_w1_w.png","j","pattern_response","false","f","pattern_56","2017.5","false","11","","","","","","","","","","","","","","","","","","",""
"","","","","","html-keyboard-response","47","126537","0.0-2.0-5.0-0.13","6155e0bb17662cfd9293bfd5","E1","batch5","","null","<p class=block-text>Trial 14 out of 78</p>","null","pattern_show_trial_num","","","","","","","","","","","","","","","","","","","","","","","","",""
"","","","","","image-keyboard-response","48","128287","0.0-2.0-5.0-1.13","6155e0bb17662cfd9293bfd5","E1","batch5","","1748","stim/yes_63_dia_b1.png","f","pattern_response","true","f","pattern_78","1748","true","12","","","","","","","","","","","","","","","","","","",""
"","","","","","html-keyboard-response","49","129599","0.0-2.0-5.0-0.14","6155e0bb17662cfd9293bfd5","E1","batch5","","null","<p class=block-text>Trial 15 out of 78</p>","null","pattern_show_trial_num","","","","","","","","","","","","","","","","","","","","","","","","",""
"","","","","","image-keyboard-response","50","134165","0.0-2.0-5.0-1.14","6155e0bb17662cfd9293bfd5","E1","batch5","","4564.400000095367","stim/no_51_1.png","j","pattern_response","true","j","pattern_31","4564.400000095367","true","13","","","","","","","","","","","","","","","","","","",""
"","","","","","html-keyboard-response","51","135479","0.0-2.0-5.0-0.15","6155e0bb17662cfd9293bfd5","E1","batch5","","null","<p class=block-text>Trial 16 out of 78</p>","null","pattern_show_trial_num","","","","","","","","","","","","","","","","","","","","","","","","",""
"","","","","","image-keyboard-response","52","141188","0.0-2.0-5.0-1.15","6155e0bb17662cfd9293bfd5","E1","batch5","","5707.900000095367","stim/yes_58_dia_w1_w.png","f","pattern_response","true","f","pattern_76","5707.900000095367","true","14","","","","","","","","","","","","","","","","","","",""
"","","","","","html-keyboard-response","53","142501","0.0-2.0-5.0-0.16","6155e0bb17662cfd9293bfd5","E1","batch5","","null","<p class=block-text>Trial 17 out of 78</p>","null","pattern_show_trial_num","","","","","","","","","","","","","","","","","","","","","","","","",""
"","","","","","image-keyboard-response","54","147885","0.0-2.0-5.0-1.16","6155e0bb17662cfd9293bfd5","E1","batch5","","5382.399999856949","stim/no_33_1_b.png","j","pattern_response","true","j","pattern_15","5382.399999856949","true","15","","","","","","","","","","","","","","","","","","",""
"","","","","","html-keyboard-response","55","149201","0.0-2.0-5.0-0.17","6155e0bb17662cfd9293bfd5","E1","batch5","","null","<p class=block-text>Trial 18 out of 78</p>","null","pattern_show_trial_num","","","","","","","","","","","","","","","","","","","","","","","","",""
"","","","","","image-keyboard-response","56","149971","0.0-2.0-5.0-1.17","6155e0bb17662cfd9293bfd5","E1","batch5","","768.8999998569489","stim/yes_36_ver_w1_w.png","f","pattern_response","true","f","pattern_58","768.8999998569489","true","16","","","","","","","","","","","","","","","","","","",""
"","","","","","html-keyboard-response","57","151289","0.0-2.0-5.0-0.18","6155e0bb17662cfd9293bfd5","E1","batch5","","null","<p class=block-text>Trial 19 out of 78</p>","null","pattern_show_trial_num","","","","","","","","","","","","","","","","","","","","","","","","",""
"","","","","","image-keyboard-response","58","151948","0.0-2.0-5.0-1.18","6155e0bb17662cfd9293bfd5","E1","batch5","","658.7999999523163","stim/yes_37_hor_w1_w.png","f","pattern_response","true","f","pattern_60","658.7999999523163","true","17","","","","","","","","","","","","","","","","","","",""
"","","","","","html-keyboard-response","59","153264","0.0-2.0-5.0-0.19","6155e0bb17662cfd9293bfd5","E1","batch5","","null","<p class=block-text>Trial 20 out of 78</p>","null","pattern_show_trial_num","","","","","","","","","","","","","","","","","","","","","","","","",""
"","","","","","image-keyboard-response","60","153903","0.0-2.0-5.0-1.19","6155e0bb17662cfd9293bfd5","E1","batch5","","638","stim/yes_29_hor_b1_b.png","f","pattern_response","true","f","pattern_52","638","true","18","","","","","","","","","","","","","","","","","","",""
"","","","","","html-keyboard-response","61","155216","0.0-2.0-5.0-0.20","6155e0bb17662cfd9293bfd5","E1","batch5","","null","<p class=block-text>Trial 21 out of 78</p>","null","pattern_show_trial_num","","","","","","","","","","","","","","","","","","","","","","","","",""
"","","","","","image-keyboard-response","62","155796","0.0-2.0-5.0-1.20","6155e0bb17662cfd9293bfd5","E1","batch5","","579.6000001430511","stim/yes_39_hor_w1_w.png","f","pattern_response","true","f","pattern_62","579.6000001430511","true","19","","","","","","","","","","","","","","","","","","",""
"","","","","","html-keyboard-response","63","157113","0.0-2.0-5.0-0.21","6155e0bb17662cfd9293bfd5","E1","batch5","","null","<p class=block-text>Trial 22 out of 78</p>","null","pattern_show_trial_num","","","","","","","","","","","","","","","","","","","","","","","","",""
"","","","","","image-keyboard-response","64","157898","0.0-2.0-5.0-1.21","6155e0bb17662cfd9293bfd5","E1","batch5","","783.8000001907349","stim/yes_15_dia_b1u_b.png","f","pattern_response","true","f","pattern_44","783.8000001907349","true","20","","","","","","","","","","","","","","","","","","",""
"","","","","","html-keyboard-response","65","159216","0.0-2.0-5.0-0.22","6155e0bb17662cfd9293bfd5","E1","batch5","","null","<p class=block-text>Trial 23 out of 78</p>","null","pattern_show_trial_num","","","","","","","","","","","","","","","","","","","","","","","","",""
"","","","","","image-keyboard-response","66","160443","0.0-2.0-5.0-1.22","6155e0bb17662cfd9293bfd5","E1","batch5","","1226.5","stim/yes_23_ver_b1.png","f","pattern_response","true","f","pattern_48","1226.5","true","21","","","","","","","","","","","","","","","","","","",""
"","","","","","html-keyboard-response","67","161756","0.0-2.0-5.0-0.23","6155e0bb17662cfd9293bfd5","E1","batch5","","null","<p class=block-text>Trial 24 out of 78</p>","null","pattern_show_trial_num","","","","","","","","","","","","","","","","","","","","","","","","",""
"","","","","","image-keyboard-response","68","162656","0.0-2.0-5.0-1.23","6155e0bb17662cfd9293bfd5","E1","batch5","","898.3000001907349","stim/yes_26_dia_w2_w.png","f","pattern_response","true","f","pattern_50","898.3000001907349","true","22","","","","","","","","","","","","","","","","","","",""
"","","","","","html-keyboard-response","69","163968","0.0-2.0-5.0-0.24","6155e0bb17662cfd9293bfd5","E1","batch5","","null","<p class=block-text>Trial 25 out of 78</p>","null","pattern_show_trial_num","","","","","","","","","","","","","","","","","","","","","","","","",""
"","","","","","image-keyboard-response","70","172179","0.0-2.0-5.0-1.24","6155e0bb17662cfd9293bfd5","E1","batch5","","8209.399999856949","stim/no_58_1_w.png","j","pattern_response","true","j","pattern_35","8209.399999856949","true","23","","","","","","","","","","","","","","","","","","",""
"","","","","","html-keyboard-response","71","173494","0.0-2.0-5.0-0.25","6155e0bb17662cfd9293bfd5","E1","batch5","","null","<p class=block-text>Trial 26 out of 78</p>","null","pattern_show_trial_num","","","","","","","","","","","","","","","","","","","","","","","","",""
"","","","","","image-keyboard-response","72","174367","0.0-2.0-5.0-1.25","6155e0bb17662cfd9293bfd5","E1","batch5","","871.9000000953674","stim/yes_30_ver_b1_b.png","f","pattern_response","true","f","pattern_54","871.9000000953674","true","24","","","","","","","","","","","","","","","","","","",""
"","","","","","html-keyboard-response","73","175678","0.0-2.0-5.0-0.26","6155e0bb17662cfd9293bfd5","E1","batch5","","null","<p class=block-text>Trial 27 out of 78</p>","null","pattern_show_trial_num","","","","","","","","","","","","","","","","","","","","","","","","",""
"","","","","","image-keyboard-response","74","178668","0.0-2.0-5.0-1.26","6155e0bb17662cfd9293bfd5","E1","batch5","","2989.199999809265","stim/no_25_1_b.png","j","pattern_response","true","j","pattern_09","2989.199999809265","true","25","","","","","","","","","","","","","","","","","","",""
"","","","","","html-keyboard-response","75","179990","0.0-2.0-5.0-0.27","6155e0bb17662cfd9293bfd5","E1","batch5","","null","<p class=block-text>Trial 28 out of 78</p>","null","pattern_show_trial_num","","","","","","","","","","","","","","","","","","","","","","","","",""
"","","","","","image-keyboard-response","76","180841","0.0-2.0-5.0-1.27","6155e0bb17662cfd9293bfd5","E1","batch5","","850.1999998092651","stim/yes_44_ver_w1_w.png","f","pattern_response","true","f","pattern_66","850.1999998092651","true","26","","","","","","","","","","","","","","","","","","",""
"","","","","","html-keyboard-response","77","182161","0.0-2.0-5.0-0.28","6155e0bb17662cfd9293bfd5","E1","batch5","","null","<p class=block-text>Trial 29 out of 78</p>","null","pattern_show_trial_num","","","","","","","","","","","","","","","","","","","","","","","","",""
"","","","","","image-keyboard-response","78","184282","0.0-2.0-5.0-1.28","6155e0bb17662cfd9293bfd5","E1","batch5","","2120.4000000953674","stim/no_30_1_b.png","j","pattern_response","true","j","pattern_13","2120.4000000953674","true","27","","","","","","","","","","","","","","","","","","",""
"","","","","","html-keyboard-response","79","185598","0.0-2.0-5.0-0.29","6155e0bb17662cfd9293bfd5","E1","batch5","","null","<p class=block-text>Trial 30 out of 78</p>","null","pattern_show_trial_num","","","","","","","","","","","","","","","","","","","","","","","","",""
"","","","","","image-keyboard-response","80","186261","0.0-2.0-5.0-1.29","6155e0bb17662cfd9293bfd5","E1","batch5","","661.2999999523163","stim/yes_17_ver_b1_b.png","f","pattern_response","true","f","pattern_46","661.2999999523163","true","28","","","","","","","","","","","","","","","","","","",""
"","","","","","html-keyboard-response","81","187576","0.0-2.0-5.0-0.30","6155e0bb17662cfd9293bfd5","E1","batch5","","null","<p class=block-text>Trial 31 out of 78</p>","null","pattern_show_trial_num","","","","","","","","","","","","","","","","","","","","","","","","",""
"","","","","","image-keyboard-response","82","191158","0.0-2.0-5.0-1.30","6155e0bb17662cfd9293bfd5","E1","batch5","","3580.600000143051","stim/no_47_1_b.png","j","pattern_response","true","j","pattern_27","3580.600000143051","true","29","","","","","","","","","","","","","","","","","","",""
"","","","","","html-keyboard-response","83","192470","0.0-2.0-5.0-0.31","6155e0bb17662cfd9293bfd5","E1","batch5","","null","<p class=block-text>Trial 32 out of 78</p>","null","pattern_show_trial_num","","","","","","","","","","","","","","","","","","","","","","","","",""
"","","","","","image-keyboard-response","84","193399","0.0-2.0-5.0-1.31","6155e0bb17662cfd9293bfd5","E1","batch5","","927.8999998569489","stim/yes_46_ver_b1_b.png","f","pattern_response","true","f","pattern_68","927.8999998569489","true","30","","","","","","","","","","","","","","","","","","",""
"","","","","","html-keyboard-response","85","194710","0.0-2.0-5.0-0.32","6155e0bb17662cfd9293bfd5","E1","batch5","","null","<p class=block-text>Trial 33 out of 78</p>","null","pattern_show_trial_num","","","","","","","","","","","","","","","","","","","","","","","","",""
"","","","","","image-keyboard-response","86","195556","0.0-2.0-5.0-1.32","6155e0bb17662cfd9293bfd5","E1","batch5","","844.5","stim/yes_53_ver_b1_b.png","f","pattern_response","true","f","pattern_74","844.5","true","31","","","","","","","","","","","","","","","","","","",""
"","","","","","html-keyboard-response","87","196870","0.0-2.0-5.0-0.33","6155e0bb17662cfd9293bfd5","E1","batch5","","null","<p class=block-text>Trial 34 out of 78</p>","null","pattern_show_trial_num","","","","","","","","","","","","","","","","","","","","","","","","",""
"","","","","","image-keyboard-response","88","201295","0.0-2.0-5.0-1.33","6155e0bb17662cfd9293bfd5","E1","batch5","","4423.599999904633","stim/no_36_1_b.png","j","pattern_response","true","j","pattern_17","4423.599999904633","true","32","","","","","","","","","","","","","","","","","","",""
"","","","","","html-keyboard-response","89","202606","0.0-2.0-5.0-0.34","6155e0bb17662cfd9293bfd5","E1","batch5","","null","<p class=block-text>Trial 35 out of 78</p>","null","pattern_show_trial_num","","","","","","","","","","","","","","","","","","","","","","","","",""
"","","","","","image-keyboard-response","90","207086","0.0-2.0-5.0-1.34","6155e0bb17662cfd9293bfd5","E1","batch5","","4478.799999952316","stim/no_39_1_w.png","j","pattern_response","true","j","pattern_21","4478.799999952316","true","33","","","","","","","","","","","","","","","","","","",""
"","","","","","html-keyboard-response","91","208398","0.0-2.0-5.0-0.35","6155e0bb17662cfd9293bfd5","E1","batch5","","null","<p class=block-text>Trial 36 out of 78</p>","null","pattern_show_trial_num","","","","","","","","","","","","","","","","","","","","","","","","",""
"","","","","","image-keyboard-response","92","209837","0.0-2.0-5.0-1.35","6155e0bb17662cfd9293bfd5","E1","batch5","","1438.0999999046326","stim/no_15_1_w.png","j","pattern_response","true","j","pattern_03","1438.0999999046326","true","34","","","","","","","","","","","","","","","","","","",""
"","","","","","html-keyboard-response","93","211144","0.0-2.0-5.0-0.36","6155e0bb17662cfd9293bfd5","E1","batch5","","null","<p class=block-text>Trial 37 out of 78</p>","null","pattern_show_trial_num","","","","","","","","","","","","","","","","","","","","","","","","",""
"","","","","","image-keyboard-response","94","214076","0.0-2.0-5.0-1.36","6155e0bb17662cfd9293bfd5","E1","batch5","","2931.5999999046326","stim/no_28_2.png","j","pattern_response","true","j","pattern_11","2931.5999999046326","true","35","","","","","","","","","","","","","","","","","","",""
"","","","","","html-keyboard-response","95","215390","0.0-2.0-5.0-0.37","6155e0bb17662cfd9293bfd5","E1","batch5","","null","<p class=block-text>Trial 38 out of 78</p>","null","pattern_show_trial_num","","","","","","","","","","","","","","","","","","","","","","","","",""
"","","","","","image-keyboard-response","96","216439","0.0-2.0-5.0-1.37","6155e0bb17662cfd9293bfd5","E1","batch5","","1048","stim/no_12_1.png","j","pattern_response","true","j","pattern_01","1048","true","36","","","","","","","","","","","","","","","","","","",""
"","","","","","html-keyboard-response","97","217750","0.0-2.0-5.0-0.38","6155e0bb17662cfd9293bfd5","E1","batch5","","null","<p class=block-text>Trial 39 out of 78</p>","null","pattern_show_trial_num","","","","","","","","","","","","","","","","","","","","","","","","",""
"","","","","","image-keyboard-response","98","219387","0.0-2.0-5.0-1.38","6155e0bb17662cfd9293bfd5","E1","batch5","","1635.3999998569489","stim/no_22_1_b.png","j","pattern_response","true","j","pattern_07","1635.3999998569489","true","37","","","","","","","","","","","","","","","","","","",""
"","","","","","image-keyboard-response","99","222056","0.0-2.0-6.0","6155e0bb17662cfd9293bfd5","E1","batch5","","2161.9000000953674","stim/empty_board.png","j","attention_check","true","j","","","","","500","[""f"",""j""]","","","","","","","","","","","","","","","","",""
"","","","","","html-keyboard-response","100","222863","0.0-2.0-7.0-0.0","6155e0bb17662cfd9293bfd5","E1","batch5","","null","<p class=block-text>Trial 40 out of 78</p>","null","pattern_show_trial_num","","","","","","","","","","","","","","","","","","","","","","","","",""
"","","","","","image-keyboard-response","101","226489","0.0-2.0-7.0-1.0","6155e0bb17662cfd9293bfd5","E1","batch5","","3624.5","stim/yes_37_dia_w1.png","j","pattern_response","false","f","pattern_59","3624.5","false","37","","","","","","","","","","","","","","","","","","",""
"","","","","","html-keyboard-response","102","227805","0.0-2.0-7.0-0.1","6155e0bb17662cfd9293bfd5","E1","batch5","","null","<p class=block-text>Trial 41 out of 78</p>","null","pattern_show_trial_num","","","","","","","","","","","","","","","","","","","","","","","","",""
"","","","","","image-keyboard-response","103","230820","0.0-2.0-7.0-1.1","6155e0bb17662cfd9293bfd5","E1","batch5","","3013.7999999523163","stim/no_36_2_w.png","j","pattern_response","true","j","pattern_18","3013.7999999523163","true","38","","","","","","","","","","","","","","","","","","",""
"","","","","","html-keyboard-response","104","232135","0.0-2.0-7.0-0.2","6155e0bb17662cfd9293bfd5","E1","batch5","","null","<p class=block-text>Trial 42 out of 78</p>","null","pattern_show_trial_num","","","","","","","","","","","","","","","","","","","","","","","","",""
"","","","","","image-keyboard-response","105","237784","0.0-2.0-7.0-1.2","6155e0bb17662cfd9293bfd5","E1","batch5","","5648.5","stim/no_65_1_b.png","j","pattern_response","true","j","pattern_38","5648.5","true","39","","","","","","","","","","","","","","","","","","",""
"","","","","","html-keyboard-response","106","239101","0.0-2.0-7.0-0.3","6155e0bb17662cfd9293bfd5","E1","batch5","","null","<p class=block-text>Trial 43 out of 78</p>","null","pattern_show_trial_num","","","","","","","","","","","","","","","","","","","","","","","","",""
"","","","","","image-keyboard-response","107","240203","0.0-2.0-7.0-1.3","6155e0bb17662cfd9293bfd5","E1","batch5","","1101","stim/yes_38_hor_b1_b.png","f","pattern_response","true","f","pattern_61","1101","true","40","","","","","","","","","","","","","","","","","","",""
"","","","","","html-keyboard-response","108","241516","0.0-2.0-7.0-0.4","6155e0bb17662cfd9293bfd5","E1","batch5","","null","<p class=block-text>Trial 44 out of 78</p>","null","pattern_show_trial_num","","","","","","","","","","","","","","","","","","","","","","","","",""
"","","","","","image-keyboard-response","109","242792","0.0-2.0-7.0-1.4","6155e0bb17662cfd9293bfd5","E1","batch5","","1275.1999998092651","stim/no_17_1_w.png","j","pattern_response","true","j","pattern_04","1275.1999998092651","true","41","","","","","","","","","","","","","","","","","","",""
"","","","","","html-keyboard-response","110","244111","0.0-2.0-7.0-0.5","6155e0bb17662cfd9293bfd5","E1","batch5","","null","<p class=block-text>Trial 45 out of 78</p>","null","pattern_show_trial_num","","","","","","","","","","","","","","","","","","","","","","","","",""
"","","","","","image-keyboard-response","111","245138","0.0-2.0-7.0-1.5","6155e0bb17662cfd9293bfd5","E1","batch5","","1025.7000000476837","stim/yes_60_ver_b1_b.png","f","pattern_response","true","f","pattern_77","1025.7000000476837","true","42","","","","","","","","","","","","","","","","","","",""
"","","","","","html-keyboard-response","112","246456","0.0-2.0-7.0-0.6","6155e0bb17662cfd9293bfd5","E1","batch5","","null","<p class=block-text>Trial 46 out of 78</p>","null","pattern_show_trial_num","","","","","","","","","","","","","","","","","","","","","","","","",""
"","","","","","image-keyboard-response","113","250598","0.0-2.0-7.0-1.6","6155e0bb17662cfd9293bfd5","E1","batch5","","4141","stim/no_55_1_w.png","j","pattern_response","true","j","pattern_34","4141","true","43","","","","","","","","","","","","","","","","","","",""
"","","","","","html-keyboard-response","114","251911","0.0-2.0-7.0-0.7","6155e0bb17662cfd9293bfd5","E1","batch5","","null","<p class=block-text>Trial 47 out of 78</p>","null","pattern_show_trial_num","","","","","","","","","","","","","","","","","","","","","","","","",""
"","","","","","image-keyboard-response","115","255805","0.0-2.0-7.0-1.7","6155e0bb17662cfd9293bfd5","E1","batch5","","3892.5","stim/no_29_1_b.png","j","pattern_response","true","j","pattern_12","3892.5","true","44","","","","","","","","","","","","","","","","","","",""
"","","","","","html-keyboard-response","116","257119","0.0-2.0-7.0-0.8","6155e0bb17662cfd9293bfd5","E1","batch5","","null","<p class=block-text>Trial 48 out of 78</p>","null","pattern_show_trial_num","","","","","","","","","","","","","","","","","","","","","","","","",""
"","","","","","image-keyboard-response","117","258700","0.0-2.0-7.0-1.8","6155e0bb17662cfd9293bfd5","E1","batch5","","1579.5","stim/yes_29_ver_w1.png","f","pattern_response","true","f","pattern_53","1579.5","true","45","","","","","","","","","","","","","","","","","","",""
"","","","","","html-keyboard-response","118","260014","0.0-2.0-7.0-0.9","6155e0bb17662cfd9293bfd5","E1","batch5","","null","<p class=block-text>Trial 49 out of 78</p>","null","pattern_show_trial_num","","","","","","","","","","","","","","","","","","","","","","","","",""
"","","","","","image-keyboard-response","119","262518","0.0-2.0-7.0-1.9","6155e0bb17662cfd9293bfd5","E1","batch5","","2502","stim/no_32_1_w.png","j","pattern_response","true","j","pattern_14","2502","true","46","","","","","","","","","","","","","","","","","","",""
"","","","","","html-keyboard-response","120","263831","0.0-2.0-7.0-0.10","6155e0bb17662cfd9293bfd5","E1","batch5","","null","<p class=block-text>Trial 50 out of 78</p>","null","pattern_show_trial_num","","","","","","","","","","","","","","","","","","","","","","","","",""
"","","","","","image-keyboard-response","121","264801","0.0-2.0-7.0-1.10","6155e0bb17662cfd9293bfd5","E1","batch5","","969.2000000476837","stim/no_13_2_b.png","j","pattern_response","true","j","pattern_02","969.2000000476837","true","47","","","","","","","","","","","","","","","","","","",""
"","","","","","html-keyboard-response","122","266117","0.0-2.0-7.0-0.11","6155e0bb17662cfd9293bfd5","E1","batch5","","null","<p class=block-text>Trial 51 out of 78</p>","null","pattern_show_trial_num","","","","","","","","","","","","","","","","","","","","","","","","",""
"","","","","","image-keyboard-response","123","269509","0.0-2.0-7.0-1.11","6155e0bb17662cfd9293bfd5","E1","batch5","","3390.699999809265","stim/no_42_1_w.png","j","pattern_response","true","j","pattern_22","3390.699999809265","true","48","","","","","","","","","","","","","","","","","","",""
"","","","","","html-keyboard-response","124","270819","0.0-2.0-7.0-0.12","6155e0bb17662cfd9293bfd5","E1","batch5","","null","<p class=block-text>Trial 52 out of 78</p>","null","pattern_show_trial_num","","","","","","","","","","","","","","","","","","","","","","","","",""
"","","","","","image-keyboard-response","125","274068","0.0-2.0-7.0-1.12","6155e0bb17662cfd9293bfd5","E1","batch5","","3246.7999999523163","stim/no_34_1_b.png","j","pattern_response","true","j","pattern_16","3246.7999999523163","true","49","","","","","","","","","","","","","","","","","","",""
"","","","","","html-keyboard-response","126","275382","0.0-2.0-7.0-0.13","6155e0bb17662cfd9293bfd5","E1","batch5","","null","<p class=block-text>Trial 53 out of 78</p>","null","pattern_show_trial_num","","","","","","","","","","","","","","","","","","","","","","","","",""
"","","","","","image-keyboard-response","127","280425","0.0-2.0-7.0-1.13","6155e0bb17662cfd9293bfd5","E1","batch5","","5041.399999856949","stim/no_46_1_b.png","j","pattern_response","true","j","pattern_26","5041.399999856949","true","50","","","","","","","","","","","","","","","","","","",""
"","","","","","html-keyboard-response","128","281739","0.0-2.0-7.0-0.14","6155e0bb17662cfd9293bfd5","E1","batch5","","null","<p class=block-text>Trial 54 out of 78</p>","null","pattern_show_trial_num","","","","","","","","","","","","","","","","","","","","","","","","",""
"","","","","","image-keyboard-response","129","285174","0.0-2.0-7.0-1.14","6155e0bb17662cfd9293bfd5","E1","batch5","","3433.7000000476837","stim/no_62_1_w.png","j","pattern_response","true","j","pattern_36","3433.7000000476837","true","51","","","","","","","","","","","","","","","","","","",""
"","","","","","html-keyboard-response","130","286486","0.0-2.0-7.0-0.15","6155e0bb17662cfd9293bfd5","E1","batch5","","null","<p class=block-text>Trial 55 out of 78</p>","null","pattern_show_trial_num","","","","","","","","","","","","","","","","","","","","","","","","",""
"","","","","","image-keyboard-response","131","287497","0.0-2.0-7.0-1.15","6155e0bb17662cfd9293bfd5","E1","batch5","","1009.3999998569489","stim/yes_35_dia_b1.png","f","pattern_response","true","f","pattern_57","1009.3999998569489","true","52","","","","","","","","","","","","","","","","","","",""
"","","","","","html-keyboard-response","132","288814","0.0-2.0-7.0-0.16","6155e0bb17662cfd9293bfd5","E1","batch5","","null","<p class=block-text>Trial 56 out of 78</p>","null","pattern_show_trial_num","","","","","","","","","","","","","","","","","","","","","","","","",""
"","","","","","image-keyboard-response","133","291068","0.0-2.0-7.0-1.16","6155e0bb17662cfd9293bfd5","E1","batch5","","2253.7000000476837","stim/yes_50_dia_w1.png","f","pattern_response","true","f","pattern_71","2253.7000000476837","true","53","","","","","","","","","","","","","","","","","","",""
"","","","","","html-keyboard-response","134","292381","0.0-2.0-7.0-0.17","6155e0bb17662cfd9293bfd5","E1","batch5","","null","<p class=block-text>Trial 57 out of 78</p>","null","pattern_show_trial_num","","","","","","","","","","","","","","","","","","","","","","","","",""
"","","","","","image-keyboard-response","135","293644","0.0-2.0-7.0-1.17","6155e0bb17662cfd9293bfd5","E1","batch5","","1261.7999999523163","stim/yes_45_hor_b2_b.png","f","pattern_response","true","f","pattern_67","1261.7999999523163","true","54","","","","","","","","","","","","","","","","","","",""
"","","","","","html-keyboard-response","136","294956","0.0-2.0-7.0-0.18","6155e0bb17662cfd9293bfd5","E1","batch5","","null","<p class=block-text>Trial 58 out of 78</p>","null","pattern_show_trial_num","","","","","","","","","","","","","","","","","","","","","","","","",""
"","","","","","image-keyboard-response","137","295667","0.0-2.0-7.0-1.18","6155e0bb17662cfd9293bfd5","E1","batch5","","710.3999998569489","stim/yes_67_hor_b1.png","f","pattern_response","true","f","pattern_79","710.3999998569489","true","55","","","","","","","","","","","","","","","","","","",""
"","","","","","html-keyboard-response","138","296982","0.0-2.0-7.0-0.19","6155e0bb17662cfd9293bfd5","E1","batch5","","null","<p class=block-text>Trial 59 out of 78</p>","null","pattern_show_trial_num","","","","","","","","","","","","","","","","","","","","","","","","",""
"","","","","","image-keyboard-response","139","297849","0.0-2.0-7.0-1.19","6155e0bb17662cfd9293bfd5","E1","batch5","","866.4000000953674","stim/yes_22_ver_w1.png","f","pattern_response","true","f","pattern_47","866.4000000953674","true","56","","","","","","","","","","","","","","","","","","",""
"","","","","","html-keyboard-response","140","299164","0.0-2.0-7.0-0.20","6155e0bb17662cfd9293bfd5","E1","batch5","","null","<p class=block-text>Trial 60 out of 78</p>","null","pattern_show_trial_num","","","","","","","","","","","","","","","","","","","","","","","","",""
"","","","","","image-keyboard-response","141","302557","0.0-2.0-7.0-1.20","6155e0bb17662cfd9293bfd5","E1","batch5","","3391.5","stim/no_50_1.png","j","pattern_response","true","j","pattern_30","3391.5","true","57","","","","","","","","","","","","","","","","","","",""
"","","","","","html-keyboard-response","142","303871","0.0-2.0-7.0-0.21","6155e0bb17662cfd9293bfd5","E1","batch5","","null","<p class=block-text>Trial 61 out of 78</p>","null","pattern_show_trial_num","","","","","","","","","","","","","","","","","","","","","","","","",""
"","","","","","image-keyboard-response","143","309068","0.0-2.0-7.0-1.21","6155e0bb17662cfd9293bfd5","E1","batch5","","5186.299999952316","stim/no_44_1.png","j","pattern_response","true","j","pattern_24","5186.299999952316","true","58","","","","","","","","","","","","","","","","","","",""
"","","","","","html-keyboard-response","144","310380","0.0-2.0-7.0-0.22","6155e0bb17662cfd9293bfd5","E1","batch5","","null","<p class=block-text>Trial 62 out of 78</p>","null","pattern_show_trial_num","","","","","","","","","","","","","","","","","","","","","","","","",""
"","","","","","image-keyboard-response","145","311233","0.0-2.0-7.0-1.22","6155e0bb17662cfd9293bfd5","E1","batch5","","851.3999998569489","stim/yes_17_dia_w1.png","f","pattern_response","true","f","pattern_45","851.3999998569489","true","59","","","","","","","","","","","","","","","","","","",""
"","","","","","html-keyboard-response","146","312551","0.0-2.0-7.0-0.23","6155e0bb17662cfd9293bfd5","E1","batch5","","null","<p class=block-text>Trial 63 out of 78</p>","null","pattern_show_trial_num","","","","","","","","","","","","","","","","","","","","","","","","",""
"","","","","","image-keyboard-response","147","314026","0.0-2.0-7.0-1.23","6155e0bb17662cfd9293bfd5","E1","batch5","","1474.4000000953674","stim/no_20_1_w.png","j","pattern_response","true","j","pattern_06","1474.4000000953674","true","60","","","","","","","","","","","","","","","","","","",""
"","","","","","html-keyboard-response","148","315343","0.0-2.0-7.0-0.24","6155e0bb17662cfd9293bfd5","E1","batch5","","null","<p class=block-text>Trial 64 out of 78</p>","null","pattern_show_trial_num","","","","","","","","","","","","","","","","","","","","","","","","",""
"","","","","","image-keyboard-response","149","319840","0.0-2.0-7.0-1.24","6155e0bb17662cfd9293bfd5","E1","batch5","","4496","stim/no_48_1_w.png","j","pattern_response","true","j","pattern_28","4496","true","61","","","","","","","","","","","","","","","","","","",""
"","","","","","html-keyboard-response","150","321158","0.0-2.0-7.0-0.25","6155e0bb17662cfd9293bfd5","E1","batch5","","null","<p class=block-text>Trial 65 out of 78</p>","null","pattern_show_trial_num","","","","","","","","","","","","","","","","","","","","","","","","",""
"","","","","","image-keyboard-response","151","321934","0.0-2.0-7.0-1.25","6155e0bb17662cfd9293bfd5","E1","batch5","","775.2000000476837","stim/yes_28_ver_b1.png","f","pattern_response","true","f","pattern_51","775.2000000476837","true","62","","","","","","","","","","","","","","","","","","",""
"","","","","","html-keyboard-response","152","323255","0.0-2.0-7.0-0.26","6155e0bb17662cfd9293bfd5","E1","batch5","","null","<p class=block-text>Trial 66 out of 78</p>","null","pattern_show_trial_num","","","","","","","","","","","","","","","","","","","","","","","","",""
"","","","","","image-keyboard-response","153","329955","0.0-2.0-7.0-1.26","6155e0bb17662cfd9293bfd5","E1","batch5","","6699.299999952316","stim/no_70_2.png","j","pattern_response","true","j","pattern_40","6699.299999952316","true","63","","","","","","","","","","","","","","","","","","",""
"","","","","","html-keyboard-response","154","331270","0.0-2.0-7.0-0.27","6155e0bb17662cfd9293bfd5","E1","batch5","","null","<p class=block-text>Trial 67 out of 78</p>","null","pattern_show_trial_num","","","","","","","","","","","","","","","","","","","","","","","","",""
"","","","","","image-keyboard-response","155","334572","0.0-2.0-7.0-1.27","6155e0bb17662cfd9293bfd5","E1","batch5","","3300.7000000476837","stim/yes_48_dia_w1_w.png","j","pattern_response","false","f","pattern_69","3300.7000000476837","false","63","","","","","","","","","","","","","","","","","","",""
"","","","","","html-keyboard-response","156","335886","0.0-2.0-7.0-0.28","6155e0bb17662cfd9293bfd5","E1","batch5","","null","<p class=block-text>Trial 68 out of 78</p>","null","pattern_show_trial_num","","","","","","","","","","","","","","","","","","","","","","","","",""
"","","","","","image-keyboard-response","157","337646","0.0-2.0-7.0-1.28","6155e0bb17662cfd9293bfd5","E1","batch5","","1758.7000000476837","stim/no_26_1_w.png","j","pattern_response","true","j","pattern_10","1758.7000000476837","true","64","","","","","","","","","","","","","","","","","","",""
"","","","","","html-keyboard-response","158","338963","0.0-2.0-7.0-0.29","6155e0bb17662cfd9293bfd5","E1","batch5","","null","<p class=block-text>Trial 69 out of 78</p>","null","pattern_show_trial_num","","","","","","","","","","","","","","","","","","","","","","","","",""
"","","","","","image-keyboard-response","159","339809","0.0-2.0-7.0-1.29","6155e0bb17662cfd9293bfd5","E1","batch5","","845","stim/yes_55_hor_w1_w.png","f","pattern_response","true","f","pattern_75","845","true","65","","","","","","","","","","","","","","","","","","",""
"","","","","","html-keyboard-response","160","341127","0.0-2.0-7.0-0.30","6155e0bb17662cfd9293bfd5","E1","batch5","","null","<p class=block-text>Trial 70 out of 78</p>","null","pattern_show_trial_num","","","","","","","","","","","","","","","","","","","","","","","","",""
"","","","","","image-keyboard-response","161","345572","0.0-2.0-7.0-1.30","6155e0bb17662cfd9293bfd5","E1","batch5","","4444.200000047684","stim/no_23_1.png","j","pattern_response","true","j","pattern_08","4444.200000047684","true","66","","","","","","","","","","","","","","","","","","",""
"","","","","","html-keyboard-response","162","346886","0.0-2.0-7.0-0.31","6155e0bb17662cfd9293bfd5","E1","batch5","","null","<p class=block-text>Trial 71 out of 78</p>","null","pattern_show_trial_num","","","","","","","","","","","","","","","","","","","","","","","","",""
"","","","","","image-keyboard-response","163","352901","0.0-2.0-7.0-1.31","6155e0bb17662cfd9293bfd5","E1","batch5","","6014","stim/no_38_1_b.png","j","pattern_response","true","j","pattern_20","6014","true","67","","","","","","","","","","","","","","","","","","",""
"","","","","","html-keyboard-response","164","354212","0.0-2.0-7.0-0.32","6155e0bb17662cfd9293bfd5","E1","batch5","","null","<p class=block-text>Trial 72 out of 78</p>","null","pattern_show_trial_num","","","","","","","","","","","","","","","","","","","","","","","","",""
"","","","","","image-keyboard-response","165","355092","0.0-2.0-7.0-1.32","6155e0bb17662cfd9293bfd5","E1","batch5","","878.5","stim/yes_25_hor_b1_b.png","f","pattern_response","true","f","pattern_49","878.5","true","68","","","","","","","","","","","","","","","","","","",""
"","","","","","html-keyboard-response","166","356406","0.0-2.0-7.0-0.33","6155e0bb17662cfd9293bfd5","E1","batch5","","null","<p class=block-text>Trial 73 out of 78</p>","null","pattern_show_trial_num","","","","","","","","","","","","","","","","","","","","","","","","",""
"","","","","","image-keyboard-response","167","358641","0.0-2.0-7.0-1.33","6155e0bb17662cfd9293bfd5","E1","batch5","","2234.0999999046326","stim/yes_31_hor_b1.png","f","pattern_response","true","f","pattern_55","2234.0999999046326","true","69","","","","","","","","","","","","","","","","","","",""
"","","","","","html-keyboard-response","168","359958","0.0-2.0-7.0-0.34","6155e0bb17662cfd9293bfd5","E1","batch5","","null","<p class=block-text>Trial 74 out of 78</p>","null","pattern_show_trial_num","","","","","","","","","","","","","","","","","","","","","","","","",""
"","","","","","image-keyboard-response","169","362721","0.0-2.0-7.0-1.34","6155e0bb17662cfd9293bfd5","E1","batch5","","2761.7000000476837","stim/yes_52_ver_w1.png","f","pattern_response","true","f","pattern_73","2761.7000000476837","true","70","","","","","","","","","","","","","","","","","","",""
"","","","","","html-keyboard-response","170","364034","0.0-2.0-7.0-0.35","6155e0bb17662cfd9293bfd5","E1","batch5","","null","<p class=block-text>Trial 75 out of 78</p>","null","pattern_show_trial_num","","","","","","","","","","","","","","","","","","","","","","","","",""
"","","","","","image-keyboard-response","171","370565","0.0-2.0-7.0-1.35","6155e0bb17662cfd9293bfd5","E1","batch5","","6529.200000047684","stim/no_52_1.png","j","pattern_response","true","j","pattern_32","6529.200000047684","true","71","","","","","","","","","","","","","","","","","","",""
"","","","","","html-keyboard-response","172","371877","0.0-2.0-7.0-0.36","6155e0bb17662cfd9293bfd5","E1","batch5","","null","<p class=block-text>Trial 76 out of 78</p>","null","pattern_show_trial_num","","","","","","","","","","","","","","","","","","","","","","","","",""
"","","","","","image-keyboard-response","173","375444","0.0-2.0-7.0-1.36","6155e0bb17662cfd9293bfd5","E1","batch5","","3566.5","stim/yes_40_dia_b1_b.png","j","pattern_response","false","f","pattern_63","3566.5","false","71","","","","","","","","","","","","","","","","","","",""
"","","","","","html-keyboard-response","174","376758","0.0-2.0-7.0-0.37","6155e0bb17662cfd9293bfd5","E1","batch5","","null","<p class=block-text>Trial 77 out of 78</p>","null","pattern_show_trial_num","","","","","","","","","","","","","","","","","","","","","","","","",""
"","","","","","image-keyboard-response","175","377535","0.0-2.0-7.0-1.37","6155e0bb17662cfd9293bfd5","E1","batch5","","775.8999998569489","stim/yes_14_hor_b1_w.png","f","pattern_response","true","f","pattern_43","775.8999998569489","true","72","","","","","","","","","","","","","","","","","","",""
"","","","","","html-keyboard-response","176","378853","0.0-2.0-7.0-0.38","6155e0bb17662cfd9293bfd5","E1","batch5","","null","<p class=block-text>Trial 78 out of 78</p>","null","pattern_show_trial_num","","","","","","","","","","","","","","","","","","","","","","","","",""
"","","","","","image-keyboard-response","177","380035","0.0-2.0-7.0-1.38","6155e0bb17662cfd9293bfd5","E1","batch5","","1180.6999998092651","stim/yes_43_ver_w1_w.png","f","pattern_response","true","f","pattern_65","1180.6999998092651","true","73","","","","","","","","","","","","","","","","","","",""
"","","","","","html-button-response","178","386139","0.0-2.0-8.0","6155e0bb17662cfd9293bfd5","E1","batch5","","5600.799999952316","<p class = block-text>This concludes the 4-in-a-row detection game.Thank you for your responses!<br>
            You responded correctly on 94% of the trials.<br>
            When you are ready, press ""Continue"" button to continue </p>","0","","","","","","","","","","","","","","","","","","","","","","","","","",""
"true","","","","","fullscreen","179","389198","0.0-3.0-0.0","6155e0bb17662cfd9293bfd5","E1","batch5","","","","","","","","","","","","","","","","","","","","","","","","","","","","","",""
"","","","","","instructions","180","448137","0.0-3.0-1.0-0.0-0.0","6155e0bb17662cfd9293bfd5","E1","batch5","[{""page_index"":0,""viewing_time"":13773.300000190735},{""page_index"":1,""viewing_time"":7366.199999809265},{""page_index"":2,""viewing_time"":6283.5},{""page_index"":3,""viewing_time"":8899.800000190735},{""page_index"":4,""viewing_time"":5283.099999904633},{""page_index"":5,""viewing_time"":12933.599999904633},{""page_index"":6,""viewing_time"":4399.400000095367}]","58939.10000014305","","","tol-instructions","","","","","","","","","","","","","","","","","","","","","","","","",""
"","","","","","html-button-response","181","449303","0.0-3.0-1.0-1.0-0.0","6155e0bb17662cfd9293bfd5","E1","batch5","","1165.9000000953674","<p class=block-text> Let's answer a few questions <br>","0","tol_enter_quiz","","","","","","","","","","","","","","","","","","","","","","","","",""
"","","","","","html-button-response","182","457470","0.0-3.0-1.0-1.0-1.0","6155e0bb17662cfd9293bfd5","E1","batch5","","8160.5","<p class = block-text>True or False: You can only move the ball on top of a peg. <br></p>","0","tol_quiz","true","","","","","","","","","","","","","","","","","","","","","","","",""
"","","","","","html-button-response","183","459052","0.0-3.0-1.0-1.0-2.0","6155e0bb17662cfd9293bfd5","E1","batch5","","1581","<p class = block-text>Correct! You can only move the ball on top of a peg.</p>","0","tol_quiz_feedback","","","","","","","","","","","","","","","","","","","","","","","","",""
"","","","","","html-button-response","184","462170","0.0-3.0-1.0-1.0-3.0","6155e0bb17662cfd9293bfd5","E1","batch5","","3116.5999999046326","<p class = block-text>True or False: You should try to match your board with the target board with fewest moves possible. <br></p>","0","tol_quiz","true","","","","","","","","","","","","","","","","","","","","","","","",""
"","","","","","html-button-response","185","462769","0.0-3.0-1.0-1.0-4.0","6155e0bb17662cfd9293bfd5","E1","batch5","","598.7000000476837","<p class = block-text>Correct! </p>","0","tol_quiz_feedback","","","","","","","","","","","","","","","","","","","","","","","","",""
"","","","","","html-button-response","186","464770","0.0-3.0-2.0","6155e0bb17662cfd9293bfd5","E1","batch5","","1999.5","<p class=block-text> Now that you've understood the game, let's practice a few easier examples before we start!<br> <br>","0","","","","","","","","","","","","","","","","","","","","","","","","","",""
"","","","","","single-stim-button","187","466854","0.0-3.0-3.0-0.0","6155e0bb17662cfd9293bfd5","E1","batch5","","2083","","","tol_practice","","","","","","","","","tol_peg_2","2083","2083","0","[[1,2,0],[0,0],[0]]","1","[[1,2,0],[0,0],[3]]","practice","2083","","","","","","","",""
"","","","","","single-stim-button","188","468303","0.0-3.0-3.0-1.0","6155e0bb17662cfd9293bfd5","E1","batch5","","1448","","","tol_practice","","","","","","","","","tol_peg_3","1448","1448","0","[[1,2,0],[0,0],[3]]","1","[[1,2,0],[0,0],[3]]","practice","1448","","","","","","","",""
"","","","","","poldrack-single-stim","189","469306","0.0-3.0-4.0","6155e0bb17662cfd9293bfd5","E1","batch5","","-1","","","tol_feedback","true","","","","","","","","","1000","1000","500","","","","","","-1","none","true","","0","","",""
"","","","","","single-stim-button","190","472719","0.0-3.0-5.0-0.0","6155e0bb17662cfd9293bfd5","E1","batch5","","3412","","","tol_practice","","","","","","","","","tol_peg_1","3412","3412","0","[[1,0,0],[3,0],[0]]","2","[[0,0,0],[3,1],[2]]","practice","3412","","","","","","","",""
"","","","","","single-stim-button","191","473852","0.0-3.0-5.0-1.0","6155e0bb17662cfd9293bfd5","E1","batch5","","1132","","","tol_practice","","","","","","","","","tol_peg_3","1132","1132","0","[[1,0,0],[3,0],[2]]","2","[[0,0,0],[3,1],[2]]","practice","1132","","","","","","","",""
"","","","","","single-stim-button","192","474653","0.0-3.0-5.1-0.1","6155e0bb17662cfd9293bfd5","E1","batch5","","800","","","tol_practice","","","","","","","","","tol_peg_1","800","800","0","[[0,0,0],[3,0],[2]]","3","[[0,0,0],[3,1],[2]]","practice","800","","","","","","","",""
"","","","","","single-stim-button","193","475136","0.0-3.0-5.1-1.1","6155e0bb17662cfd9293bfd5","E1","batch5","","481","","","tol_practice","","","","","","","","","tol_peg_2","481","481","0","[[0,0,0],[3,1],[2]]","3","[[0,0,0],[3,1],[2]]","practice","481","","","","","","","",""
"","","","","","poldrack-single-stim","194","476145","0.0-3.0-6.0","6155e0bb17662cfd9293bfd5","E1","batch5","","-1","","","tol_feedback","true","","","","","","","","","1000","1000","500","","","","","","-1","none","true","","0","","",""
"","","","","","single-stim-button","195","478702","0.0-3.0-7.0-0.0","6155e0bb17662cfd9293bfd5","E1","batch5","","2557","","","tol_practice","","","","","","","","","tol_peg_2","2557","2557","0","[[1,2,0],[0,0],[0]]","4","[[1,0,0],[2,0],[3]]","practice","2557","","","","","","","",""
"","","","","","single-stim-button","196","479569","0.0-3.0-7.0-1.0","6155e0bb17662cfd9293bfd5","E1","batch5","","866","","","tol_practice","","","","","","","","","tol_peg_3","866","866","0","[[1,2,0],[0,0],[3]]","4","[[1,0,0],[2,0],[3]]","practice","866","","","","","","","",""
"","","","","","single-stim-button","197","480369","0.0-3.0-7.1-0.1","6155e0bb17662cfd9293bfd5","E1","batch5","","799","","","tol_practice","","","","","","","","","tol_peg_1","799","799","0","[[1,0,0],[0,0],[3]]","5","[[1,0,0],[2,0],[3]]","practice","799","","","","","","","",""
"","","","","","single-stim-button","198","481252","0.0-3.0-7.1-1.1","6155e0bb17662cfd9293bfd5","E1","batch5","","883","","","tol_practice","","","","","","","","","tol_peg_2","883","883","0","[[1,0,0],[2,0],[3]]","5","[[1,0,0],[2,0],[3]]","practice","883","","","","","","","",""
"","","","","","poldrack-single-stim","199","482256","0.0-3.0-8.0","6155e0bb17662cfd9293bfd5","E1","batch5","","-1","","","tol_feedback","true","","","","","","","","","1000","1000","500","","","","","","-1","none","true","","0","","",""
"","","","","","html-button-response","200","485635","0.0-3.0-9.0","6155e0bb17662cfd9293bfd5","E1","batch5","","3378.399999856949","<div class = centerbox><p class = center-block-text>Great job! You are done with practice trials<br>You are about to start official trials.<br> <br> Problem <strong>1</strong> out of 25 problems</p></div>","0","tol_instruction","","","","","","","","","","","","","","","","","","","","","","","","",""
"","","","","","single-stim-button","201","509318","0.0-3.0-10.0-0.0","6155e0bb17662cfd9293bfd5","E1","batch5","","22673","","","tol_tohand","","","","","","","","","tol_peg_1","22673","22673","0","[[1,0,0],[3,0],[0]]","1","[[1,3,0],[2,0],[0]]","0","0","","","","","","3","",""
"","","","","","single-stim-button","202","511135","0.0-3.0-10.0-1.0","6155e0bb17662cfd9293bfd5","E1","batch5","","1816","","","tol_toboard","","","","","","","","","tol_peg_3","1816","1816","0","[[1,0,0],[3,0],[2]]","1","[[1,3,0],[2,0],[0]]","0","0","","","","","","3","",""
"","","","","","single-stim-button","203","512218","0.0-3.0-10.1-0.1","6155e0bb17662cfd9293bfd5","E1","batch5","","1082","","","tol_tohand","","","","","","","","","tol_peg_2","1082","1082","0","[[1,0,0],[0,0],[2]]","2","[[1,3,0],[2,0],[0]]","0","0","","","","","","3","",""
"","","","","","single-stim-button","204","513285","0.0-3.0-10.1-1.1","6155e0bb17662cfd9293bfd5","E1","batch5","","1066","","","tol_toboard","","","","","","","","","tol_peg_1","1066","1066","0","[[1,3,0],[0,0],[2]]","2","[[1,3,0],[2,0],[0]]","0","0","","","","","","3","",""
"","","","","","single-stim-button","205","514335","0.0-3.0-10.2-0.2","6155e0bb17662cfd9293bfd5","E1","batch5","","1049","","","tol_tohand","","","","","","","","","tol_peg_3","1049","1049","0","[[1,3,0],[0,0],[0]]","3","[[1,3,0],[2,0],[0]]","0","0","","","","","","3","",""
"","","","","","single-stim-button","206","515035","0.0-3.0-10.2-1.2","6155e0bb17662cfd9293bfd5","E1","batch5","","699","","","tol_toboard","","","","","","","","","tol_peg_2","699","699","0","[[1,3,0],[2,0],[0]]","3","[[1,3,0],[2,0],[0]]","0","0","","","","","","3","",""
"","","","","","poldrack-single-stim","207","516044","0.0-3.0-11.0","6155e0bb17662cfd9293bfd5","E1","batch5","","-1","","","tol_feedback","true","","","","","","","","","1000","1000","500","","","","","","-1","none","true","22673","24804","","",""
"","","","","","html-button-response","208","517267","0.0-3.0-12.0","6155e0bb17662cfd9293bfd5","E1","batch5","","1222.7000000476837","<div class = centerbox><p class = center-block-text>problem <strong>2</strong> out of 25 problems</p></div>","0","tol_trial_num","","","","","","","","","","","","","","","","","","","","","","","","",""
"","","","","","single-stim-button","209","525401","0.0-3.0-13.0-0.0","6155e0bb17662cfd9293bfd5","E1","batch5","","8133","","","tol_tohand","","","","","","","","","tol_peg_1","8133","8133","0","[[1,0,0],[3,0],[0]]","1","[[2,1,3],[0,0],[0]]","1","0","","","","","","5","",""
"","","","","","single-stim-button","210","530901","0.0-3.0-13.0-1.0","6155e0bb17662cfd9293bfd5","E1","batch5","","5500","","","tol_toboard","","","","","","","","","tol_peg_2","5500","5500","0","[[1,0,0],[3,2],[0]]","1","[[2,1,3],[0,0],[0]]","1","0","","","","","","5","",""
"","","","","","single-stim-button","211","531768","0.0-3.0-13.1-0.1","6155e0bb17662cfd9293bfd5","E1","batch5","","866","","","tol_tohand","","","","","","","","","tol_peg_1","866","866","0","[[0,0,0],[3,2],[0]]","2","[[2,1,3],[0,0],[0]]","1","0","","","","","","5","",""
"","","","","","single-stim-button","212","533384","0.0-3.0-13.1-1.1","6155e0bb17662cfd9293bfd5","E1","batch5","","1616","","","tol_toboard","","","","","","","","","tol_peg_3","1616","1616","0","[[0,0,0],[3,2],[1]]","2","[[2,1,3],[0,0],[0]]","1","0","","","","","","5","",""
"","","","","","single-stim-button","213","534117","0.0-3.0-13.2-0.2","6155e0bb17662cfd9293bfd5","E1","batch5","","733","","","tol_tohand","","","","","","","","","tol_peg_2","733","733","0","[[0,0,0],[3,0],[1]]","3","[[2,1,3],[0,0],[0]]","1","0","","","","","","5","",""
"","","","","","single-stim-button","214","534900","0.0-3.0-13.2-1.2","6155e0bb17662cfd9293bfd5","E1","batch5","","782","","","tol_toboard","","","","","","","","","tol_peg_1","782","782","0","[[2,0,0],[3,0],[1]]","3","[[2,1,3],[0,0],[0]]","1","0","","","","","","5","",""
"","","","","","single-stim-button","215","535984","0.0-3.0-13.3-0.3","6155e0bb17662cfd9293bfd5","E1","batch5","","1083","","","tol_tohand","","","","","","","","","tol_peg_3","1083","1083","0","[[2,0,0],[3,0],[0]]","4","[[2,1,3],[0,0],[0]]","1","0","","","","","","5","",""
"","","","","","single-stim-button","216","536818","0.0-3.0-13.3-1.3","6155e0bb17662cfd9293bfd5","E1","batch5","","833","","","tol_toboard","","","","","","","","","tol_peg_1","833","833","0","[[2,1,0],[3,0],[0]]","4","[[2,1,3],[0,0],[0]]","1","0","","","","","","5","",""
"","","","","","single-stim-button","217","537468","0.0-3.0-13.4-0.4","6155e0bb17662cfd9293bfd5","E1","batch5","","649","","","tol_tohand","","","","","","","","","tol_peg_2","649","649","0","[[2,1,0],[0,0],[0]]","5","[[2,1,3],[0,0],[0]]","1","0","","","","","","5","",""
"","","","","","single-stim-button","218","538435","0.0-3.0-13.4-1.4","6155e0bb17662cfd9293bfd5","E1","batch5","","966","","","tol_toboard","","","","","","","","","tol_peg_1","966","966","0","[[2,1,3],[0,0],[0]]","5","[[2,1,3],[0,0],[0]]","1","0","","","","","","5","",""
"","","","","","poldrack-single-stim","219","539439","0.0-3.0-14.0","6155e0bb17662cfd9293bfd5","E1","batch5","","-1","","","tol_feedback","true","","","","","","","","","1000","1000","500","","","","","","-1","none","true","8133","11464","","",""
"","","","","","html-button-response","220","540767","0.0-3.0-15.0","6155e0bb17662cfd9293bfd5","E1","batch5","","1327.5","<div class = centerbox><p class = center-block-text>problem <strong>3</strong> out of 25 problems</p></div>","0","tol_trial_num","","","","","","","","","","","","","","","","","","","","","","","","",""
"","","","","","single-stim-button","221","547467","0.0-3.0-16.0-0.0","6155e0bb17662cfd9293bfd5","E1","batch5","","6699","","","tol_tohand","","","","","","","","","tol_peg_1","6699","6699","0","[[2,0,0],[0,0],[1]]","1","[[1,2,0],[3,0],[0]]","2","0","","","","","","4","",""
"","","","","","single-stim-button","222","549067","0.0-3.0-16.0-1.0","6155e0bb17662cfd9293bfd5","E1","batch5","","1598","","","tol_toboard","","","","","","","","","tol_peg_2","1598","1598","0","[[2,0,0],[3,0],[1]]","1","[[1,2,0],[3,0],[0]]","2","0","","","","","","4","",""
"","","","","","single-stim-button","223","551200","0.0-3.0-16.1-0.1","6155e0bb17662cfd9293bfd5","E1","batch5","","2133","","","tol_tohand","","","","","","","","","tol_peg_1","2133","2133","0","[[0,0,0],[3,0],[1]]","2","[[1,2,0],[3,0],[0]]","2","0","","","","","","4","",""
"","","","","","single-stim-button","224","552233","0.0-3.0-16.1-1.1","6155e0bb17662cfd9293bfd5","E1","batch5","","1033","","","tol_toboard","","","","","","","","","tol_peg_2","1033","1033","0","[[0,0,0],[3,2],[1]]","2","[[1,2,0],[3,0],[0]]","2","0","","","","","","4","",""
"","","","","","single-stim-button","225","552833","0.0-3.0-16.2-0.2","6155e0bb17662cfd9293bfd5","E1","batch5","","599","","","tol_tohand","","","","","","","","","tol_peg_3","599","599","0","[[0,0,0],[3,2],[0]]","3","[[1,2,0],[3,0],[0]]","2","0","","","","","","4","",""
"","","","","","single-stim-button","226","553733","0.0-3.0-16.2-1.2","6155e0bb17662cfd9293bfd5","E1","batch5","","899","","","tol_toboard","","","","","","","","","tol_peg_1","899","899","0","[[1,0,0],[3,2],[0]]","3","[[1,2,0],[3,0],[0]]","2","0","","","","","","4","",""
"","","","","","single-stim-button","227","554400","0.0-3.0-16.3-0.3","6155e0bb17662cfd9293bfd5","E1","batch5","","667","","","tol_tohand","","","","","","","","","tol_peg_2","667","667","0","[[1,0,0],[3,0],[0]]","4","[[1,2,0],[3,0],[0]]","2","0","","","","","","4","",""
"","","","","","single-stim-button","228","554984","0.0-3.0-16.3-1.3","6155e0bb17662cfd9293bfd5","E1","batch5","","584","","","tol_toboard","","","","","","","","","tol_peg_1","584","584","0","[[1,2,0],[3,0],[0]]","4","[[1,2,0],[3,0],[0]]","2","0","","","","","","4","",""
"","","","","","poldrack-single-stim","229","555993","0.0-3.0-17.0","6155e0bb17662cfd9293bfd5","E1","batch5","","-1","","","tol_feedback","true","","","","","","","","","1000","1000","500","","","","","","-1","none","true","6699","10098","","",""
"","","","","","html-button-response","230","557017","0.0-3.0-18.0","6155e0bb17662cfd9293bfd5","E1","batch5","","1022.8000001907349","<div class = centerbox><p class = center-block-text>problem <strong>4</strong> out of 25 problems</p></div>","0","tol_trial_num","","","","","","","","","","","","","","","","","","","","","","","","",""
"","","","","","single-stim-button","231","561384","0.0-3.0-19.0-0.0","6155e0bb17662cfd9293bfd5","E1","batch5","","4367","","","tol_tohand","","","","","","","","","tol_peg_2","4367","4367","0","[[3,0,0],[2,0],[0]]","1","[[3,0,0],[1,0],[2]]","3","0","","","","","","3","",""
"","","","","","single-stim-button","232","562500","0.0-3.0-19.0-1.0","6155e0bb17662cfd9293bfd5","E1","batch5","","1116","","","tol_toboard","","","","","","","","","tol_peg_1","1116","1116","0","[[3,1,0],[2,0],[0]]","1","[[3,0,0],[1,0],[2]]","3","0","","","","","","3","",""
"","","","","","single-stim-button","233","563367","0.0-3.0-19.1-0.1","6155e0bb17662cfd9293bfd5","E1","batch5","","867","","","tol_tohand","","","","","","","","","tol_peg_2","867","867","0","[[3,1,0],[0,0],[0]]","2","[[3,0,0],[1,0],[2]]","3","0","","","","","","3","",""
"","","","","","single-stim-button","234","564333","0.0-3.0-19.1-1.1","6155e0bb17662cfd9293bfd5","E1","batch5","","965","","","tol_toboard","","","","","","","","","tol_peg_3","965","965","0","[[3,1,0],[0,0],[2]]","2","[[3,0,0],[1,0],[2]]","3","0","","","","","","3","",""
"","","","","","single-stim-button","235","565117","0.0-3.0-19.2-0.2","6155e0bb17662cfd9293bfd5","E1","batch5","","784","","","tol_tohand","","","","","","","","","tol_peg_1","784","784","0","[[3,0,0],[0,0],[2]]","3","[[3,0,0],[1,0],[2]]","3","0","","","","","","3","",""
"","","","","","single-stim-button","236","565950","0.0-3.0-19.2-1.2","6155e0bb17662cfd9293bfd5","E1","batch5","","833","","","tol_toboard","","","","","","","","","tol_peg_2","833","833","0","[[3,0,0],[1,0],[2]]","3","[[3,0,0],[1,0],[2]]","3","0","","","","","","3","",""
"","","","","","poldrack-single-stim","237","566962","0.0-3.0-20.0","6155e0bb17662cfd9293bfd5","E1","batch5","","-1","","","tol_feedback","true","","","","","","","","","1000","1000","500","","","","","","-1","none","true","4367","6018","","",""
"","","","","","html-button-response","238","567933","0.0-3.0-21.0","6155e0bb17662cfd9293bfd5","E1","batch5","","970.2999999523163","<div class = centerbox><p class = center-block-text>problem <strong>5</strong> out of 25 problems</p></div>","0","tol_trial_num","","","","","","","","","","","","","","","","","","","","","","","","",""
"","","","","","single-stim-button","239","581499","0.0-3.0-22.0-0.0","6155e0bb17662cfd9293bfd5","E1","batch5","","13565","","","tol_tohand","","","","","","","","","tol_peg_3","13565","13565","0","[[1,0,0],[2,0],[0]]","1","[[0,0,0],[1,2],[3]]","4","0","","","","","","7","",""
"","","","","","single-stim-button","240","610649","0.0-3.0-22.0-1.0","6155e0bb17662cfd9293bfd5","E1","batch5","","29148","","","tol_toboard","","","","","","","","","tol_peg_2","29148","29148","0","[[1,0,0],[2,3],[0]]","1","[[0,0,0],[1,2],[3]]","4","0","","","","","","7","",""
"","","","","","single-stim-button","241","611765","0.0-3.0-22.1-0.1","6155e0bb17662cfd9293bfd5","E1","batch5","","1116","","","tol_tohand","","","","","","","","","tol_peg_1","1116","1116","0","[[0,0,0],[2,3],[0]]","2","[[0,0,0],[1,2],[3]]","4","0","","","","","","7","",""
"","","","","","single-stim-button","242","618965","0.0-3.0-22.1-1.1","6155e0bb17662cfd9293bfd5","E1","batch5","","7199","","","tol_toboard","","","","","","","","","tol_peg_3","7199","7199","0","[[0,0,0],[2,3],[1]]","2","[[0,0,0],[1,2],[3]]","4","0","","","","","","7","",""
"","","","","","single-stim-button","243","619799","0.0-3.0-22.2-0.2","6155e0bb17662cfd9293bfd5","E1","batch5","","832","","","tol_tohand","","","","","","","","","tol_peg_2","832","832","0","[[0,0,0],[2,0],[1]]","3","[[0,0,0],[1,2],[3]]","4","0","","","","","","7","",""
"","","","","","single-stim-button","244","622015","0.0-3.0-22.2-1.2","6155e0bb17662cfd9293bfd5","E1","batch5","","2216","","","tol_toboard","","","","","","","","","tol_peg_1","2216","2216","0","[[3,0,0],[2,0],[1]]","3","[[0,0,0],[1,2],[3]]","4","0","","","","","","7","",""
"","","","","","single-stim-button","245","622765","0.0-3.0-22.3-0.3","6155e0bb17662cfd9293bfd5","E1","batch5","","749","","","tol_tohand","","","","","","","","","tol_peg_2","749","749","0","[[3,0,0],[0,0],[1]]","4","[[0,0,0],[1,2],[3]]","4","0","","","","","","7","",""
"","","","","","single-stim-button","246","623415","0.0-3.0-22.3-1.3","6155e0bb17662cfd9293bfd5","E1","batch5","","649","","","tol_toboard","","","","","","","","","tol_peg_1","649","649","0","[[3,2,0],[0,0],[1]]","4","[[0,0,0],[1,2],[3]]","4","0","","","","","","7","",""
"","","","","","single-stim-button","247","624248","0.0-3.0-22.4-0.4","6155e0bb17662cfd9293bfd5","E1","batch5","","832","","","tol_tohand","","","","","","","","","tol_peg_3","832","832","0","[[3,2,0],[0,0],[0]]","5","[[0,0,0],[1,2],[3]]","4","0","","","","","","7","",""
"","","","","","single-stim-button","248","624948","0.0-3.0-22.4-1.4","6155e0bb17662cfd9293bfd5","E1","batch5","","699","","","tol_toboard","","","","","","","","","tol_peg_2","699","699","0","[[3,2,0],[1,0],[0]]","5","[[0,0,0],[1,2],[3]]","4","0","","","","","","7","",""
"","","","","","single-stim-button","249","625682","0.0-3.0-22.5-0.5","6155e0bb17662cfd9293bfd5","E1","batch5","","732","","","tol_tohand","","","","","","","","","tol_peg_1","732","732","0","[[3,0,0],[1,0],[0]]","6","[[0,0,0],[1,2],[3]]","4","0","","","","","","7","",""
"","","","","","single-stim-button","250","626281","0.0-3.0-22.5-1.5","6155e0bb17662cfd9293bfd5","E1","batch5","","599","","","tol_toboard","","","","","","","","","tol_peg_2","599","599","0","[[3,0,0],[1,2],[0]]","6","[[0,0,0],[1,2],[3]]","4","0","","","","","","7","",""
"","","","","","single-stim-button","251","626948","0.0-3.0-22.6-0.6","6155e0bb17662cfd9293bfd5","E1","batch5","","666","","","tol_tohand","","","","","","","","","tol_peg_1","666","666","0","[[0,0,0],[1,2],[0]]","7","[[0,0,0],[1,2],[3]]","4","0","","","","","","7","",""
"","","","","","single-stim-button","252","627798","0.0-3.0-22.6-1.6","6155e0bb17662cfd9293bfd5","E1","batch5","","850","","","tol_toboard","","","","","","","","","tol_peg_3","850","850","0","[[0,0,0],[1,2],[3]]","7","[[0,0,0],[1,2],[3]]","4","0","","","","","","7","",""
"","","","","","poldrack-single-stim","253","628809","0.0-3.0-23.0","6155e0bb17662cfd9293bfd5","E1","batch5","","-1","","","tol_feedback","true","","","","","","","","","1000","1000","500","","","","","","-1","none","true","13565","18492","","",""
"","","","","","html-button-response","254","629781","0.0-3.0-24.0","6155e0bb17662cfd9293bfd5","E1","batch5","","971.2000000476837","<div class = centerbox><p class = center-block-text>problem <strong>6</strong> out of 25 problems</p></div>","0","tol_trial_num","","","","","","","","","","","","","","","","","","","","","","","","",""
"","","","","","single-stim-button","255","682763","0.0-3.0-25.0-0.0","6155e0bb17662cfd9293bfd5","E1","batch5","","52982","","","tol_tohand","","","","","","","","","tol_peg_3","52982","52982","0","[[0,0,0],[1,2],[0]]","1","[[1,0,0],[2,3],[0]]","5","0","","","","","","6","",""
"","","","","","single-stim-button","256","684263","0.0-3.0-25.0-1.0","6155e0bb17662cfd9293bfd5","E1","batch5","","1499","","","tol_toboard","","","","","","","","","tol_peg_1","1499","1499","0","[[3,0,0],[1,2],[0]]","1","[[1,0,0],[2,3],[0]]","5","0","","","","","","6","",""
"","","","","","single-stim-button","257","695096","0.0-3.0-25.1-0.1","6155e0bb17662cfd9293bfd5","E1","batch5","","10833","","","tol_tohand","","","","","","","","","tol_peg_2","10833","10833","0","[[3,0,0],[1,0],[0]]","2","[[1,0,0],[2,3],[0]]","5","0","","","","","","6","",""
"","","","","","single-stim-button","258","704096","0.0-3.0-25.1-1.1","6155e0bb17662cfd9293bfd5","E1","batch5","","8998","","","tol_toboard","","","","","","","","","tol_peg_1","8998","8998","0","[[3,2,0],[1,0],[0]]","2","[[1,0,0],[2,3],[0]]","5","0","","","","","","6","",""
"","","","","","single-stim-button","259","704812","0.0-3.0-25.2-0.2","6155e0bb17662cfd9293bfd5","E1","batch5","","716","","","tol_tohand","","","","","","","","","tol_peg_2","716","716","0","[[3,2,0],[0,0],[0]]","3","[[1,0,0],[2,3],[0]]","5","0","","","","","","6","",""
"","","","","","single-stim-button","260","706212","0.0-3.0-25.2-1.2","6155e0bb17662cfd9293bfd5","E1","batch5","","1399","","","tol_toboard","","","","","","","","","tol_peg_3","1399","1399","0","[[3,2,0],[0,0],[1]]","3","[[1,0,0],[2,3],[0]]","5","0","","","","","","6","",""
"","","","","","single-stim-button","261","708045","0.0-3.0-25.3-0.3","6155e0bb17662cfd9293bfd5","E1","batch5","","1833","","","tol_tohand","","","","","","","","","tol_peg_1","1833","1833","0","[[3,0,0],[0,0],[1]]","4","[[1,0,0],[2,3],[0]]","5","0","","","","","","6","",""
"","","","","","single-stim-button","262","708995","0.0-3.0-25.3-1.3","6155e0bb17662cfd9293bfd5","E1","batch5","","949","","","tol_toboard","","","","","","","","","tol_peg_2","949","949","0","[[3,0,0],[2,0],[1]]","4","[[1,0,0],[2,3],[0]]","5","0","","","","","","6","",""
"","","","","","single-stim-button","263","709712","0.0-3.0-25.4-0.4","6155e0bb17662cfd9293bfd5","E1","batch5","","716","","","tol_tohand","","","","","","","","","tol_peg_1","716","716","0","[[0,0,0],[2,0],[1]]","5","[[1,0,0],[2,3],[0]]","5","0","","","","","","6","",""
"","","","","","single-stim-button","264","710179","0.0-3.0-25.4-1.4","6155e0bb17662cfd9293bfd5","E1","batch5","","467","","","tol_toboard","","","","","","","","","tol_peg_2","467","467","0","[[0,0,0],[2,3],[1]]","5","[[1,0,0],[2,3],[0]]","5","0","","","","","","6","",""
"","","","","","single-stim-button","265","710729","0.0-3.0-25.5-0.5","6155e0bb17662cfd9293bfd5","E1","batch5","","550","","","tol_tohand","","","","","","","","","tol_peg_3","550","550","0","[[0,0,0],[2,3],[0]]","6","[[1,0,0],[2,3],[0]]","5","0","","","","","","6","",""
"","","","","","single-stim-button","266","711512","0.0-3.0-25.5-1.5","6155e0bb17662cfd9293bfd5","E1","batch5","","783","","","tol_toboard","","","","","","","","","tol_peg_1","783","783","0","[[1,0,0],[2,3],[0]]","6","[[1,0,0],[2,3],[0]]","5","0","","","","","","6","",""
"","","","","","poldrack-single-stim","267","712517","0.0-3.0-26.0","6155e0bb17662cfd9293bfd5","E1","batch5","","-1","","","tol_feedback","true","","","","","","","","","1000","1000","500","","","","","","-1","none","true","52982","67630","","",""
"","","","","","html-button-response","268","713829","0.0-3.0-27.0","6155e0bb17662cfd9293bfd5","E1","batch5","","1311.2999999523163","<div class = centerbox><p class = center-block-text>problem <strong>7</strong> out of 25 problems</p></div>","0","tol_trial_num","","","","","","","","","","","","","","","","","","","","","","","","",""
"","","","","","single-stim-button","269","722912","0.0-3.0-28.0-0.0","6155e0bb17662cfd9293bfd5","E1","batch5","","9082","","","tol_tohand","","","","","","","","","tol_peg_3","9082","9082","0","[[2,1,0],[0,0],[0]]","1","[[1,2,0],[3,0],[0]]","6","0","","","","","","5","",""
"","","","","","single-stim-button","270","724128","0.0-3.0-28.0-1.0","6155e0bb17662cfd9293bfd5","E1","batch5","","1216","","","tol_toboard","","","","","","","","","tol_peg_2","1216","1216","0","[[2,1,0],[3,0],[0]]","1","[[1,2,0],[3,0],[0]]","6","0","","","","","","5","",""
"","","","","","single-stim-button","271","725045","0.0-3.0-28.1-0.1","6155e0bb17662cfd9293bfd5","E1","batch5","","916","","","tol_tohand","","","","","","","","","tol_peg_1","916","916","0","[[2,0,0],[3,0],[0]]","2","[[1,2,0],[3,0],[0]]","6","0","","","","","","5","",""
"","","","","","single-stim-button","272","731128","0.0-3.0-28.1-1.1","6155e0bb17662cfd9293bfd5","E1","batch5","","6083","","","tol_toboard","","","","","","","","","tol_peg_2","6083","6083","0","[[2,0,0],[3,1],[0]]","2","[[1,2,0],[3,0],[0]]","6","0","","","","","","5","",""
"","","","","","single-stim-button","273","731828","0.0-3.0-28.2-0.2","6155e0bb17662cfd9293bfd5","E1","batch5","","699","","","tol_tohand","","","","","","","","","tol_peg_1","699","699","0","[[0,0,0],[3,1],[0]]","3","[[1,2,0],[3,0],[0]]","6","0","","","","","","5","",""
"","","","","","single-stim-button","274","732512","0.0-3.0-28.2-1.2","6155e0bb17662cfd9293bfd5","E1","batch5","","683","","","tol_toboard","","","","","","","","","tol_peg_3","683","683","0","[[0,0,0],[3,1],[2]]","3","[[1,2,0],[3,0],[0]]","6","0","","","","","","5","",""
"","","","","","single-stim-button","275","733295","0.0-3.0-28.3-0.3","6155e0bb17662cfd9293bfd5","E1","batch5","","783","","","tol_tohand","","","","","","","","","tol_peg_2","783","783","0","[[0,0,0],[3,0],[2]]","4","[[1,2,0],[3,0],[0]]","6","0","","","","","","5","",""
"","","","","","single-stim-button","276","734061","0.0-3.0-28.3-1.3","6155e0bb17662cfd9293bfd5","E1","batch5","","765","","","tol_toboard","","","","","","","","","tol_peg_1","765","765","0","[[1,0,0],[3,0],[2]]","4","[[1,2,0],[3,0],[0]]","6","0","","","","","","5","",""
"","","","","","single-stim-button","277","734878","0.0-3.0-28.4-0.4","6155e0bb17662cfd9293bfd5","E1","batch5","","816","","","tol_tohand","","","","","","","","","tol_peg_3","816","816","0","[[1,0,0],[3,0],[0]]","5","[[1,2,0],[3,0],[0]]","6","0","","","","","","5","",""
"","","","","","single-stim-button","278","735944","0.0-3.0-28.4-1.4","6155e0bb17662cfd9293bfd5","E1","batch5","","1066","","","tol_toboard","","","","","","","","","tol_peg_1","1066","1066","0","[[1,2,0],[3,0],[0]]","5","[[1,2,0],[3,0],[0]]","6","0","","","","","","5","",""
"","","","","","poldrack-single-stim","279","736951","0.0-3.0-29.0","6155e0bb17662cfd9293bfd5","E1","batch5","","-1","","","tol_feedback","true","","","","","","","","","1000","1000","500","","","","","","-1","none","true","9082","12296","","",""
"","","","","","html-button-response","280","738078","0.0-3.0-30.0","6155e0bb17662cfd9293bfd5","E1","batch5","","1126","<div class = centerbox><p class = center-block-text>problem <strong>8</strong> out of 25 problems</p></div>","0","tol_trial_num","","","","","","","","","","","","","","","","","","","","","","","","",""
"","","","","","single-stim-button","281","742644","0.0-3.0-31.0-0.0","6155e0bb17662cfd9293bfd5","E1","batch5","","4566","","","tol_tohand","","","","","","","","","tol_peg_3","4566","4566","0","[[0,0,0],[2,3],[0]]","1","[[1,2,0],[3,0],[0]]","7","0","","","","","","4","",""
"","","","","","single-stim-button","282","743661","0.0-3.0-31.0-1.0","6155e0bb17662cfd9293bfd5","E1","batch5","","1016","","","tol_toboard","","","","","","","","","tol_peg_1","1016","1016","0","[[1,0,0],[2,3],[0]]","1","[[1,2,0],[3,0],[0]]","7","0","","","","","","4","",""
"","","","","","single-stim-button","283","744644","0.0-3.0-31.1-0.1","6155e0bb17662cfd9293bfd5","E1","batch5","","983","","","tol_tohand","","","","","","","","","tol_peg_2","983","983","0","[[1,0,0],[2,0],[0]]","2","[[1,2,0],[3,0],[0]]","7","0","","","","","","4","",""
"","","","","","single-stim-button","284","745411","0.0-3.0-31.1-1.1","6155e0bb17662cfd9293bfd5","E1","batch5","","766","","","tol_toboard","","","","","","","","","tol_peg_3","766","766","0","[[1,0,0],[2,0],[3]]","2","[[1,2,0],[3,0],[0]]","7","0","","","","","","4","",""
"","","","","","single-stim-button","285","746061","0.0-3.0-31.2-0.2","6155e0bb17662cfd9293bfd5","E1","batch5","","649","","","tol_tohand","","","","","","","","","tol_peg_2","649","649","0","[[1,0,0],[0,0],[3]]","3","[[1,2,0],[3,0],[0]]","7","0","","","","","","4","",""
"","","","","","single-stim-button","286","746677","0.0-3.0-31.2-1.2","6155e0bb17662cfd9293bfd5","E1","batch5","","615","","","tol_toboard","","","","","","","","","tol_peg_1","615","615","0","[[1,2,0],[0,0],[3]]","3","[[1,2,0],[3,0],[0]]","7","0","","","","","","4","",""
"","","","","","single-stim-button","287","747478","0.0-3.0-31.3-0.3","6155e0bb17662cfd9293bfd5","E1","batch5","","799","","","tol_tohand","","","","","","","","","tol_peg_3","799","799","0","[[1,2,0],[0,0],[0]]","4","[[1,2,0],[3,0],[0]]","7","0","","","","","","4","",""
"","","","","","single-stim-button","288","748145","0.0-3.0-31.3-1.3","6155e0bb17662cfd9293bfd5","E1","batch5","","667","","","tol_toboard","","","","","","","","","tol_peg_2","667","667","0","[[1,2,0],[3,0],[0]]","4","[[1,2,0],[3,0],[0]]","7","0","","","","","","4","",""
"","","","","","poldrack-single-stim","289","749148","0.0-3.0-32.0","6155e0bb17662cfd9293bfd5","E1","batch5","","-1","","","tol_feedback","true","","","","","","","","","1000","1000","500","","","","","","-1","none","true","4566","6997","","",""
"","","","","","html-button-response","290","750261","0.0-3.0-33.0","6155e0bb17662cfd9293bfd5","E1","batch5","","1111.7999999523163","<div class = centerbox><p class = center-block-text>problem <strong>9</strong> out of 25 problems</p></div>","0","tol_trial_num","","","","","","","","","","","","","","","","","","","","","","","","",""
"","","","","","single-stim-button","291","763610","0.0-3.0-34.0-0.0","6155e0bb17662cfd9293bfd5","E1","batch5","","13349","","","tol_tohand","","","","","","","","","tol_peg_3","13349","13349","0","[[3,2,0],[0,0],[0]]","1","[[2,1,0],[3,0],[0]]","8","0","","","","","","6","",""
"","","","","","single-stim-button","292","764227","0.0-3.0-34.0-1.0","6155e0bb17662cfd9293bfd5","E1","batch5","","616","","","tol_toboard","","","","","","","","","tol_peg_2","616","616","0","[[3,2,0],[1,0],[0]]","1","[[2,1,0],[3,0],[0]]","8","0","","","","","","6","",""
"","","","","","single-stim-button","293","767394","0.0-3.0-34.1-0.1","6155e0bb17662cfd9293bfd5","E1","batch5","","3166","","","tol_tohand","","","","","","","","","tol_peg_1","3166","3166","0","[[3,0,0],[1,0],[0]]","2","[[2,1,0],[3,0],[0]]","8","0","","","","","","6","",""
"","","","","","single-stim-button","294","768461","0.0-3.0-34.1-1.1","6155e0bb17662cfd9293bfd5","E1","batch5","","1067","","","tol_toboard","","","","","","","","","tol_peg_2","1067","1067","0","[[3,0,0],[1,2],[0]]","2","[[2,1,0],[3,0],[0]]","8","0","","","","","","6","",""
"","","","","","single-stim-button","295","769177","0.0-3.0-34.2-0.2","6155e0bb17662cfd9293bfd5","E1","batch5","","715","","","tol_tohand","","","","","","","","","tol_peg_1","715","715","0","[[0,0,0],[1,2],[0]]","3","[[2,1,0],[3,0],[0]]","8","0","","","","","","6","",""
"","","","","","single-stim-button","296","770017","0.0-3.0-34.2-1.2","6155e0bb17662cfd9293bfd5","E1","batch5","","840","","","tol_toboard","","","","","","","","","tol_peg_3","840","840","0","[[0,0,0],[1,2],[3]]","3","[[2,1,0],[3,0],[0]]","8","0","","","","","","6","",""
"","","","","","single-stim-button","297","771061","0.0-3.0-34.3-0.3","6155e0bb17662cfd9293bfd5","E1","batch5","","1043","","","tol_tohand","","","","","","","","","tol_peg_2","1043","1043","0","[[0,0,0],[1,0],[3]]","4","[[2,1,0],[3,0],[0]]","8","0","","","","","","6","",""
"","","","","","single-stim-button","298","772010","0.0-3.0-34.3-1.3","6155e0bb17662cfd9293bfd5","E1","batch5","","949","","","tol_toboard","","","","","","","","","tol_peg_1","949","949","0","[[2,0,0],[1,0],[3]]","4","[[2,1,0],[3,0],[0]]","8","0","","","","","","6","",""
"","","","","","single-stim-button","299","772960","0.0-3.0-34.4-0.4","6155e0bb17662cfd9293bfd5","E1","batch5","","949","","","tol_tohand","","","","","","","","","tol_peg_2","949","949","0","[[2,0,0],[0,0],[3]]","5","[[2,1,0],[3,0],[0]]","8","0","","","","","","6","",""
"","","","","","single-stim-button","300","773844","0.0-3.0-34.4-1.4","6155e0bb17662cfd9293bfd5","E1","batch5","","883","","","tol_toboard","","","","","","","","","tol_peg_1","883","883","0","[[2,1,0],[0,0],[3]]","5","[[2,1,0],[3,0],[0]]","8","0","","","","","","6","",""
"","","","","","single-stim-button","301","774710","0.0-3.0-34.5-0.5","6155e0bb17662cfd9293bfd5","E1","batch5","","865","","","tol_tohand","","","","","","","","","tol_peg_3","865","865","0","[[2,1,0],[0,0],[0]]","6","[[2,1,0],[3,0],[0]]","8","0","","","","","","6","",""
"","","","","","single-stim-button","302","775627","0.0-3.0-34.5-1.5","6155e0bb17662cfd9293bfd5","E1","batch5","","916","","","tol_toboard","","","","","","","","","tol_peg_2","916","916","0","[[2,1,0],[3,0],[0]]","6","[[2,1,0],[3,0],[0]]","8","0","","","","","","6","",""
"","","","","","poldrack-single-stim","303","776633","0.0-3.0-35.0","6155e0bb17662cfd9293bfd5","E1","batch5","","-1","","","tol_feedback","true","","","","","","","","","1000","1000","500","","","","","","-1","none","true","13349","20087","","",""
"","","","","","html-button-response","304","777744","0.0-3.0-36.0","6155e0bb17662cfd9293bfd5","E1","batch5","","1109.4000000953674","<div class = centerbox><p class = center-block-text>problem <strong>10</strong> out of 25 problems</p></div>","0","tol_trial_num","","","","","","","","","","","","","","","","","","","","","","","","",""
"","","","","","single-stim-button","305","780961","0.0-3.0-37.0-0.0","6155e0bb17662cfd9293bfd5","E1","batch5","","3216","","","tol_tohand","","","","","","","","","tol_peg_2","3216","3216","0","[[3,0,0],[0,0],[2]]","1","[[3,0,0],[2,1],[0]]","9","0","","","","","","3","",""
"","","","","","single-stim-button","306","782277","0.0-3.0-37.0-1.0","6155e0bb17662cfd9293bfd5","E1","batch5","","1316","","","tol_toboard","","","","","","","","","tol_peg_1","1316","1316","0","[[3,1,0],[0,0],[2]]","1","[[3,0,0],[2,1],[0]]","9","0","","","","","","3","",""
"","","","","","single-stim-button","307","782993","0.0-3.0-37.1-0.1","6155e0bb17662cfd9293bfd5","E1","batch5","","716","","","tol_tohand","","","","","","","","","tol_peg_3","716","716","0","[[3,1,0],[0,0],[0]]","2","[[3,0,0],[2,1],[0]]","9","0","","","","","","3","",""
"","","","","","single-stim-button","308","783593","0.0-3.0-37.1-1.1","6155e0bb17662cfd9293bfd5","E1","batch5","","599","","","tol_toboard","","","","","","","","","tol_peg_2","599","599","0","[[3,1,0],[2,0],[0]]","2","[[3,0,0],[2,1],[0]]","9","0","","","","","","3","",""
"","","","","","single-stim-button","309","784376","0.0-3.0-37.2-0.2","6155e0bb17662cfd9293bfd5","E1","batch5","","782","","","tol_tohand","","","","","","","","","tol_peg_1","782","782","0","[[3,0,0],[2,0],[0]]","3","[[3,0,0],[2,1],[0]]","9","0","","","","","","3","",""
"","","","","","single-stim-button","310","785060","0.0-3.0-37.2-1.2","6155e0bb17662cfd9293bfd5","E1","batch5","","683","","","tol_toboard","","","","","","","","","tol_peg_2","683","683","0","[[3,0,0],[2,1],[0]]","3","[[3,0,0],[2,1],[0]]","9","0","","","","","","3","",""
"","","","","","poldrack-single-stim","311","786066","0.0-3.0-38.0","6155e0bb17662cfd9293bfd5","E1","batch5","","-1","","","tol_feedback","true","","","","","","","","","1000","1000","500","","","","","","-1","none","true","3216","4714","","",""
"","","","","","html-button-response","312","787144","0.0-3.0-39.0","6155e0bb17662cfd9293bfd5","E1","batch5","","1077","<div class = centerbox><p class = center-block-text>problem <strong>11</strong> out of 25 problems</p></div>","0","tol_trial_num","","","","","","","","","","","","","","","","","","","","","","","","",""
"","","","","","single-stim-button","313","803726","0.0-3.0-40.0-0.0","6155e0bb17662cfd9293bfd5","E1","batch5","","16582","","","tol_tohand","","","","","","","","","tol_peg_1","16582","16582","0","[[1,0,0],[3,0],[0]]","1","[[2,0,0],[1,3],[0]]","10","0","","","","","","6","",""
"","","","","","single-stim-button","314","804576","0.0-3.0-40.0-1.0","6155e0bb17662cfd9293bfd5","E1","batch5","","849","","","tol_toboard","","","","","","","","","tol_peg_2","849","849","0","[[1,0,0],[3,2],[0]]","1","[[2,0,0],[1,3],[0]]","10","0","","","","","","6","",""
"","","","","","single-stim-button","315","805276","0.0-3.0-40.1-0.1","6155e0bb17662cfd9293bfd5","E1","batch5","","699","","","tol_tohand","","","","","","","","","tol_peg_1","699","699","0","[[0,0,0],[3,2],[0]]","2","[[2,0,0],[1,3],[0]]","10","0","","","","","","6","",""
"","","","","","single-stim-button","316","806426","0.0-3.0-40.1-1.1","6155e0bb17662cfd9293bfd5","E1","batch5","","1150","","","tol_toboard","","","","","","","","","tol_peg_3","1150","1150","0","[[0,0,0],[3,2],[1]]","2","[[2,0,0],[1,3],[0]]","10","0","","","","","","6","",""
"","","","","","single-stim-button","317","807493","0.0-3.0-40.2-0.2","6155e0bb17662cfd9293bfd5","E1","batch5","","1066","","","tol_tohand","","","","","","","","","tol_peg_2","1066","1066","0","[[0,0,0],[3,0],[1]]","3","[[2,0,0],[1,3],[0]]","10","0","","","","","","6","",""
"","","","","","single-stim-button","318","808843","0.0-3.0-40.2-1.2","6155e0bb17662cfd9293bfd5","E1","batch5","","1350","","","tol_toboard","","","","","","","","","tol_peg_1","1350","1350","0","[[2,0,0],[3,0],[1]]","3","[[2,0,0],[1,3],[0]]","10","0","","","","","","6","",""
"","","","","","single-stim-button","319","810192","0.0-3.0-40.3-0.3","6155e0bb17662cfd9293bfd5","E1","batch5","","1349","","","tol_tohand","","","","","","","","","tol_peg_2","1349","1349","0","[[2,0,0],[0,0],[1]]","4","[[2,0,0],[1,3],[0]]","10","0","","","","","","6","",""
"","","","","","single-stim-button","320","811110","0.0-3.0-40.3-1.3","6155e0bb17662cfd9293bfd5","E1","batch5","","916","","","tol_toboard","","","","","","","","","tol_peg_1","916","916","0","[[2,3,0],[0,0],[1]]","4","[[2,0,0],[1,3],[0]]","10","0","","","","","","6","",""
"","","","","","single-stim-button","321","811793","0.0-3.0-40.4-0.4","6155e0bb17662cfd9293bfd5","E1","batch5","","683","","","tol_tohand","","","","","","","","","tol_peg_3","683","683","0","[[2,3,0],[0,0],[0]]","5","[[2,0,0],[1,3],[0]]","10","0","","","","","","6","",""
"","","","","","single-stim-button","322","812560","0.0-3.0-40.4-1.4","6155e0bb17662cfd9293bfd5","E1","batch5","","766","","","tol_toboard","","","","","","","","","tol_peg_2","766","766","0","[[2,3,0],[1,0],[0]]","5","[[2,0,0],[1,3],[0]]","10","0","","","","","","6","",""
"","","","","","single-stim-button","323","813393","0.0-3.0-40.5-0.5","6155e0bb17662cfd9293bfd5","E1","batch5","","833","","","tol_tohand","","","","","","","","","tol_peg_1","833","833","0","[[2,0,0],[1,0],[0]]","6","[[2,0,0],[1,3],[0]]","10","0","","","","","","6","",""
"","","","","","single-stim-button","324","813926","0.0-3.0-40.5-1.5","6155e0bb17662cfd9293bfd5","E1","batch5","","533","","","tol_toboard","","","","","","","","","tol_peg_2","533","533","0","[[2,0,0],[1,3],[0]]","6","[[2,0,0],[1,3],[0]]","10","0","","","","","","6","",""
"","","","","","poldrack-single-stim","325","814931","0.0-3.0-41.0","6155e0bb17662cfd9293bfd5","E1","batch5","","-1","","","tol_feedback","true","","","","","","","","","1000","1000","500","","","","","","-1","none","true","16582","21212","","",""
"","","","","","html-button-response","326","815993","0.0-3.0-42.0","6155e0bb17662cfd9293bfd5","E1","batch5","","1061","<div class = centerbox><p class = center-block-text>problem <strong>12</strong> out of 25 problems</p></div>","0","tol_trial_num","","","","","","","","","","","","","","","","","","","","","","","","",""
"","","","","","single-stim-button","327","822192","0.0-3.0-43.0-0.0","6155e0bb17662cfd9293bfd5","E1","batch5","","6199","","","tol_tohand","","","","","","","","","tol_peg_1","6199","6199","0","[[1,0,0],[3,0],[0]]","1","[[2,3,0],[0,0],[1]]","11","0","","","","","","4","",""
"","","","","","single-stim-button","328","822826","0.0-3.0-43.0-1.0","6155e0bb17662cfd9293bfd5","E1","batch5","","632","","","tol_toboard","","","","","","","","","tol_peg_2","632","632","0","[[1,0,0],[3,2],[0]]","1","[[2,3,0],[0,0],[1]]","11","0","","","","","","4","",""
"","","","","","single-stim-button","329","823509","0.0-3.0-43.1-0.1","6155e0bb17662cfd9293bfd5","E1","batch5","","683","","","tol_tohand","","","","","","","","","tol_peg_1","683","683","0","[[0,0,0],[3,2],[0]]","2","[[2,3,0],[0,0],[1]]","11","0","","","","","","4","",""
"","","","","","single-stim-button","330","824359","0.0-3.0-43.1-1.1","6155e0bb17662cfd9293bfd5","E1","batch5","","849","","","tol_toboard","","","","","","","","","tol_peg_3","849","849","0","[[0,0,0],[3,2],[1]]","2","[[2,3,0],[0,0],[1]]","11","0","","","","","","4","",""
"","","","","","single-stim-button","331","825076","0.0-3.0-43.2-0.2","6155e0bb17662cfd9293bfd5","E1","batch5","","717","","","tol_tohand","","","","","","","","","tol_peg_2","717","717","0","[[0,0,0],[3,0],[1]]","3","[[2,3,0],[0,0],[1]]","11","0","","","","","","4","",""
"","","","","","single-stim-button","332","825876","0.0-3.0-43.2-1.2","6155e0bb17662cfd9293bfd5","E1","batch5","","800","","","tol_toboard","","","","","","","","","tol_peg_1","800","800","0","[[2,0,0],[3,0],[1]]","3","[[2,3,0],[0,0],[1]]","11","0","","","","","","4","",""
"","","","","","single-stim-button","333","826442","0.0-3.0-43.3-0.3","6155e0bb17662cfd9293bfd5","E1","batch5","","565","","","tol_tohand","","","","","","","","","tol_peg_2","565","565","0","[[2,0,0],[0,0],[1]]","4","[[2,3,0],[0,0],[1]]","11","0","","","","","","4","",""
"","","","","","single-stim-button","334","827243","0.0-3.0-43.3-1.3","6155e0bb17662cfd9293bfd5","E1","batch5","","800","","","tol_toboard","","","","","","","","","tol_peg_1","800","800","0","[[2,3,0],[0,0],[1]]","4","[[2,3,0],[0,0],[1]]","11","0","","","","","","4","",""
"","","","","","poldrack-single-stim","335","828247","0.0-3.0-44.0","6155e0bb17662cfd9293bfd5","E1","batch5","","-1","","","tol_feedback","true","","","","","","","","","1000","1000","500","","","","","","-1","none","true","6199","8164","","",""
"","","","","","html-button-response","336","829525","0.0-3.0-45.0","6155e0bb17662cfd9293bfd5","E1","batch5","","1278.2000000476837","<div class = centerbox><p class = center-block-text>problem <strong>13</strong> out of 25 problems</p></div>","0","tol_trial_num","","","","","","","","","","","","","","","","","","","","","","","","",""
"","","","","","single-stim-button","337","859275","0.0-3.0-46.0-0.0","6155e0bb17662cfd9293bfd5","E1","batch5","","29748","","","tol_tohand","","","","","","","","","tol_peg_2","29748","29748","0","[[1,2,0],[0,0],[0]]","1","[[0,0,0],[2,3],[1]]","12","0","","","","","","4","",""
"","","","","","single-stim-button","338","860175","0.0-3.0-46.0-1.0","6155e0bb17662cfd9293bfd5","E1","batch5","","899","","","tol_toboard","","","","","","","","","tol_peg_3","899","899","0","[[1,2,0],[0,0],[3]]","1","[[0,0,0],[2,3],[1]]","12","0","","","","","","4","",""
"","","","","","single-stim-button","339","861575","0.0-3.0-46.1-0.1","6155e0bb17662cfd9293bfd5","E1","batch5","","1399","","","tol_tohand","","","","","","","","","tol_peg_1","1399","1399","0","[[1,0,0],[0,0],[3]]","2","[[0,0,0],[2,3],[1]]","12","0","","","","","","4","",""
"","","","","","single-stim-button","340","863041","0.0-3.0-46.1-1.1","6155e0bb17662cfd9293bfd5","E1","batch5","","1466","","","tol_toboard","","","","","","","","","tol_peg_2","1466","1466","0","[[1,0,0],[2,0],[3]]","2","[[0,0,0],[2,3],[1]]","12","0","","","","","","4","",""
"","","","","","single-stim-button","341","863591","0.0-3.0-46.2-0.2","6155e0bb17662cfd9293bfd5","E1","batch5","","550","","","tol_tohand","","","","","","","","","tol_peg_3","550","550","0","[[1,0,0],[2,0],[0]]","3","[[0,0,0],[2,3],[1]]","12","0","","","","","","4","",""
"","","","","","single-stim-button","342","864474","0.0-3.0-46.2-1.2","6155e0bb17662cfd9293bfd5","E1","batch5","","883","","","tol_toboard","","","","","","","","","tol_peg_2","883","883","0","[[1,0,0],[2,3],[0]]","3","[[0,0,0],[2,3],[1]]","12","0","","","","","","4","",""
"","","","","","single-stim-button","343","865208","0.0-3.0-46.3-0.3","6155e0bb17662cfd9293bfd5","E1","batch5","","733","","","tol_tohand","","","","","","","","","tol_peg_1","733","733","0","[[0,0,0],[2,3],[0]]","4","[[0,0,0],[2,3],[1]]","12","0","","","","","","4","",""
"","","","","","single-stim-button","344","865991","0.0-3.0-46.3-1.3","6155e0bb17662cfd9293bfd5","E1","batch5","","783","","","tol_toboard","","","","","","","","","tol_peg_3","783","783","0","[[0,0,0],[2,3],[1]]","4","[[0,0,0],[2,3],[1]]","12","0","","","","","","4","",""
"","","","","","poldrack-single-stim","345","866995","0.0-3.0-47.0","6155e0bb17662cfd9293bfd5","E1","batch5","","-1","","","tol_feedback","true","","","","","","","","","1000","1000","500","","","","","","-1","none","true","29748","32430","","",""
"","","","","","html-button-response","346","870091","0.0-3.0-48.0","6155e0bb17662cfd9293bfd5","E1","batch5","","3094.7999999523163","<p class = block-text>How many balls are in your board<br></p>","1","attention_check","true","","","","","","","","","","","","","","","","","","","","","","","",""
"","","","","","html-button-response","347","871407","0.0-3.0-49.0","6155e0bb17662cfd9293bfd5","E1","batch5","","1315.6000001430511","<div class = centerbox><p class = center-block-text>problem <strong>14</strong> out of 25 problems</p></div>","0","tol_trial_num","","","","","","","","","","","","","","","","","","","","","","","","",""
"","","","","","single-stim-button","348","879990","0.0-3.0-50.0-0.0","6155e0bb17662cfd9293bfd5","E1","batch5","","8583","","","tol_tohand","","","","","","","","","tol_peg_1","8583","8583","0","[[2,0,0],[3,0],[0]]","1","[[1,2,0],[3,0],[0]]","13","0","","","","","","4","",""
