"success","timeout","failed_images","failed_audio","failed_video","trial_type","trial_index","time_elapsed","internal_node_id","subject_id","study_id","session_id","task","rt","stimulus","response","item","answer","correct","spm_correct","spm_rt","view_history","fiar_detect_rt","fiar_detect_correct","total_correct_fiar_detect","post_trial_gap","choices","mouse_click","stim_duration","block_duration","timing_post_trial","current_position","tol_num_moves_made","tol_target","tol_problem_id","tol_rt","key_press","possible_responses","tol_correct","preplanning","tol_rt_per_trial","tol_min_moves"
"true","false","[]","[]","[]","preload","0","1189","0.0-0.0","61588f27299f923d579de650","A3","batch1","","","","","","","","","","","","","","","","","","","","","","","","","","","","","",""
"true","","","","","fullscreen","1","18418","0.0-1.0-0.0","61588f27299f923d579de650","A3","batch1","","","","","","","","","","","","","","","","","","","","","","","","","","","","","",""
"true","","","","","fullscreen","2","21802","0.0-2.0-0.0","61588f27299f923d579de650","A3","batch1","spm_fullscreen","","","","","","","","","","","","","","","","","","","","","","","","","","","","",""
"","","","","","html-button-response","3","41614","0.0-2.0-1.0","61588f27299f923d579de650","A3","batch1","","19810.5","<p class = block-text><b>Instructions</b> <br>This is a widely used intelligence test in research. <br>In this test, a figure with a missing piece will be presented.<br>Below the figure are alternative pieces to complete the figure, only one of which is correct.<br> Different figures might involve different principles for obtaining the missing piece<br>Your job is to select the most logical piece to complete the figure.</p>","0","","","","","","","","","","","","","","","","","","","","","","","","","",""
"","","","","","html-keyboard-response","4","42416","0.0-2.0-2.0-0.0","61588f27299f923d579de650","A3","batch1","spm_show_trial_num","null","<p class=block-text>Trial 1 out of 60</p>","null","","","","","","","","","","","","","","","","","","","","","","","","","",""
"","","","","","image-button-response","5","53088","0.0-2.0-2.0-1.0","61588f27299f923d579de650","A3","batch1","spm_respsonse","10664.09999999404","img/question_1_1.jpeg","3","mat_01","4","1","1","10664.09999999404","","","","","","","","","","","","","","","","","","","","",""
"","","","","","html-keyboard-response","6","54154","0.0-2.0-2.0-0.1","61588f27299f923d579de650","A3","batch1","spm_show_trial_num","null","<p class=block-text>Trial 2 out of 60</p>","null","","","","","","","","","","","","","","","","","","","","","","","","","",""
"","","","","","image-button-response","7","56777","0.0-2.0-2.0-1.1","61588f27299f923d579de650","A3","batch1","spm_respsonse","2622.1000000089407","img/question_1_2.jpeg","4","mat_02","5","1","1","2622.1000000089407","","","","","","","","","","","","","","","","","","","","",""
"","","","","","html-keyboard-response","8","57841","0.0-2.0-2.0-0.2","61588f27299f923d579de650","A3","batch1","spm_show_trial_num","null","<p class=block-text>Trial 3 out of 60</p>","null","","","","","","","","","","","","","","","","","","","","","","","","","",""
"","","","","","image-button-response","9","60604","0.0-2.0-2.0-1.2","61588f27299f923d579de650","A3","batch1","spm_respsonse","2761.8999999910593","img/question_1_3.jpeg","0","mat_03","1","1","1","2761.8999999910593","","","","","","","","","","","","","","","","","","","","",""
"","","","","","html-keyboard-response","10","61658","0.0-2.0-2.0-0.3","61588f27299f923d579de650","A3","batch1","spm_show_trial_num","null","<p class=block-text>Trial 4 out of 60</p>","null","","","","","","","","","","","","","","","","","","","","","","","","","",""
"","","","","","image-button-response","11","67025","0.0-2.0-2.0-1.3","61588f27299f923d579de650","A3","batch1","spm_respsonse","5364.5999999940395","img/question_1_4.jpeg","1","mat_04","2","1","1","5364.5999999940395","","","","","","","","","","","","","","","","","","","","",""
"","","","","","html-keyboard-response","12","68091","0.0-2.0-2.0-0.4","61588f27299f923d579de650","A3","batch1","spm_show_trial_num","null","<p class=block-text>Trial 5 out of 60</p>","null","","","","","","","","","","","","","","","","","","","","","","","","","",""
"","","","","","image-button-response","13","71745","0.0-2.0-2.0-1.4","61588f27299f923d579de650","A3","batch1","spm_respsonse","3652.0999999940395","img/question_1_5.jpeg","5","mat_05","6","1","1","3652.0999999940395","","","","","","","","","","","","","","","","","","","","",""
"","","","","","html-keyboard-response","14","72814","0.0-2.0-2.0-0.5","61588f27299f923d579de650","A3","batch1","spm_show_trial_num","null","<p class=block-text>Trial 6 out of 60</p>","null","","","","","","","","","","","","","","","","","","","","","","","","","",""
"","","","","","image-button-response","15","75799","0.0-2.0-2.0-1.5","61588f27299f923d579de650","A3","batch1","spm_respsonse","2983.7999999970198","img/question_1_6.jpeg","2","mat_06","3","1","1","2983.7999999970198","","","","","","","","","","","","","","","","","","","","",""
"","","","","","html-keyboard-response","16","76866","0.0-2.0-2.0-0.6","61588f27299f923d579de650","A3","batch1","spm_show_trial_num","null","<p class=block-text>Trial 7 out of 60</p>","null","","","","","","","","","","","","","","","","","","","","","","","","","",""
"","","","","","image-button-response","17","83185","0.0-2.0-2.0-1.6","61588f27299f923d579de650","A3","batch1","spm_respsonse","6317.9000000059605","img/question_1_7.jpeg","5","mat_07","6","1","1","6317.9000000059605","","","","","","","","","","","","","","","","","","","","",""
"","","","","","html-keyboard-response","18","84253","0.0-2.0-2.0-0.7","61588f27299f923d579de650","A3","batch1","spm_show_trial_num","null","<p class=block-text>Trial 8 out of 60</p>","null","","","","","","","","","","","","","","","","","","","","","","","","","",""
"","","","","","image-button-response","19","91133","0.0-2.0-2.0-1.7","61588f27299f923d579de650","A3","batch1","spm_respsonse","6878.5","img/question_1_8.jpeg","1","mat_08","2","1","1","6878.5","","","","","","","","","","","","","","","","","","","","",""
"","","","","","html-keyboard-response","20","92194","0.0-2.0-2.0-0.8","61588f27299f923d579de650","A3","batch1","spm_show_trial_num","null","<p class=block-text>Trial 9 out of 60</p>","null","","","","","","","","","","","","","","","","","","","","","","","","","",""
"","","","","","image-button-response","21","98066","0.0-2.0-2.0-1.8","61588f27299f923d579de650","A3","batch1","spm_respsonse","5870.70000000298","img/question_1_9.jpeg","0","mat_09","1","1","1","5870.70000000298","","","","","","","","","","","","","","","","","","","","",""
"","","","","","html-keyboard-response","22","99131","0.0-2.0-2.0-0.9","61588f27299f923d579de650","A3","batch1","spm_show_trial_num","null","<p class=block-text>Trial 10 out of 60</p>","null","","","","","","","","","","","","","","","","","","","","","","","","","",""
"","","","","","image-button-response","23","108582","0.0-2.0-2.0-1.9","61588f27299f923d579de650","A3","batch1","spm_respsonse","9449.39999999106","img/question_1_10.jpeg","2","mat_10","3","1","1","9449.39999999106","","","","","","","","","","","","","","","","","","","","",""
"","","","","","html-keyboard-response","24","109642","0.0-2.0-2.0-0.10","61588f27299f923d579de650","A3","batch1","spm_show_trial_num","null","<p class=block-text>Trial 11 out of 60</p>","null","","","","","","","","","","","","","","","","","","","","","","","","","",""
"","","","","","image-button-response","25","125634","0.0-2.0-2.0-1.10","61588f27299f923d579de650","A3","batch1","spm_respsonse","15990.800000011921","img/question_1_11.jpeg","3","mat_11","4","1","1","15990.800000011921","","","","","","","","","","","","","","","","","","","","",""
"","","","","","html-keyboard-response","26","126702","0.0-2.0-2.0-0.11","61588f27299f923d579de650","A3","batch1","spm_show_trial_num","null","<p class=block-text>Trial 12 out of 60</p>","null","","","","","","","","","","","","","","","","","","","","","","","","","",""
"","","","","","image-button-response","27","135937","0.0-2.0-2.0-1.11","61588f27299f923d579de650","A3","batch1","spm_respsonse","9234.199999988079","img/question_1_12.jpeg","0","mat_12","5","0","0","9234.199999988079","","","","","","","","","","","","","","","","","","","","",""
"","","","","","html-keyboard-response","28","137003","0.0-2.0-2.0-0.12","61588f27299f923d579de650","A3","batch1","spm_show_trial_num","null","<p class=block-text>Trial 13 out of 60</p>","null","","","","","","","","","","","","","","","","","","","","","","","","","",""
"","","","","","image-button-response","29","138954","0.0-2.0-2.0-1.12","61588f27299f923d579de650","A3","batch1","spm_respsonse","1949.9000000059605","img/question_2_1.jpeg","1","mat_13","2","1","1","1949.9000000059605","","","","","","","","","","","","","","","","","","","","",""
"","","","","","html-keyboard-response","30","140021","0.0-2.0-2.0-0.13","61588f27299f923d579de650","A3","batch1","spm_show_trial_num","null","<p class=block-text>Trial 14 out of 60</p>","null","","","","","","","","","","","","","","","","","","","","","","","","","",""
"","","","","","image-button-response","31","144642","0.0-2.0-2.0-1.13","61588f27299f923d579de650","A3","batch1","spm_respsonse","4618.899999991059","img/question_2_2.jpeg","5","mat_14","6","1","1","4618.899999991059","","","","","","","","","","","","","","","","","","","","",""
"","","","","","html-keyboard-response","32","145710","0.0-2.0-2.0-0.14","61588f27299f923d579de650","A3","batch1","spm_show_trial_num","null","<p class=block-text>Trial 15 out of 60</p>","null","","","","","","","","","","","","","","","","","","","","","","","","","",""
"","","","","","image-button-response","33","148303","0.0-2.0-2.0-1.14","61588f27299f923d579de650","A3","batch1","spm_respsonse","2590.5999999940395","img/question_2_3.jpeg","0","mat_15","1","1","1","2590.5999999940395","","","","","","","","","","","","","","","","","","","","",""
"","","","","","html-keyboard-response","34","149366","0.0-2.0-2.0-0.15","61588f27299f923d579de650","A3","batch1","spm_show_trial_num","null","<p class=block-text>Trial 16 out of 60</p>","null","","","","","","","","","","","","","","","","","","","","","","","","","",""
"","","","","","image-button-response","35","151964","0.0-2.0-2.0-1.15","61588f27299f923d579de650","A3","batch1","spm_respsonse","2596.699999988079","img/question_2_4.jpeg","1","mat_16","2","1","1","2596.699999988079","","","","","","","","","","","","","","","","","","","","",""
"","","","","","html-keyboard-response","36","153027","0.0-2.0-2.0-0.16","61588f27299f923d579de650","A3","batch1","spm_show_trial_num","null","<p class=block-text>Trial 17 out of 60</p>","null","","","","","","","","","","","","","","","","","","","","","","","","","",""
"","","","","","image-button-response","37","156648","0.0-2.0-2.0-1.16","61588f27299f923d579de650","A3","batch1","spm_respsonse","3619.5","img/question_2_5.jpeg","0","mat_17","1","1","1","3619.5","","","","","","","","","","","","","","","","","","","","",""
"","","","","","html-keyboard-response","38","157710","0.0-2.0-2.0-0.17","61588f27299f923d579de650","A3","batch1","spm_show_trial_num","null","<p class=block-text>Trial 18 out of 60</p>","null","","","","","","","","","","","","","","","","","","","","","","","","","",""
"","","","","","image-button-response","39","164962","0.0-2.0-2.0-1.17","61588f27299f923d579de650","A3","batch1","spm_respsonse","7250","img/question_2_6.jpeg","2","mat_18","3","1","1","7250","","","","","","","","","","","","","","","","","","","","",""
"","","","","","html-keyboard-response","40","166032","0.0-2.0-2.0-0.18","61588f27299f923d579de650","A3","batch1","spm_show_trial_num","null","<p class=block-text>Trial 19 out of 60</p>","null","","","","","","","","","","","","","","","","","","","","","","","","","",""
"","","","","","image-button-response","41","170815","0.0-2.0-2.0-1.18","61588f27299f923d579de650","A3","batch1","spm_respsonse","4781","img/question_2_7.jpeg","4","mat_19","5","1","1","4781","","","","","","","","","","","","","","","","","","","","",""
"","","","","","html-keyboard-response","42","171877","0.0-2.0-2.0-0.19","61588f27299f923d579de650","A3","batch1","spm_show_trial_num","null","<p class=block-text>Trial 20 out of 60</p>","null","","","","","","","","","","","","","","","","","","","","","","","","","",""
"","","","","","image-button-response","43","177852","0.0-2.0-2.0-1.19","61588f27299f923d579de650","A3","batch1","spm_respsonse","5972.9000000059605","img/question_2_8.jpeg","5","mat_20","6","1","1","5972.9000000059605","","","","","","","","","","","","","","","","","","","","",""
"","","","","","html-keyboard-response","44","178915","0.0-2.0-2.0-0.20","61588f27299f923d579de650","A3","batch1","spm_show_trial_num","null","<p class=block-text>Trial 21 out of 60</p>","null","","","","","","","","","","","","","","","","","","","","","","","","","",""
"","","","","","image-button-response","45","192095","0.0-2.0-2.0-1.20","61588f27299f923d579de650","A3","batch1","spm_respsonse","13177.40000000596","img/question_2_9.jpeg","3","mat_21","4","1","1","13177.40000000596","","","","","","","","","","","","","","","","","","","","",""
"","","","","","html-keyboard-response","46","193160","0.0-2.0-2.0-0.21","61588f27299f923d579de650","A3","batch1","spm_show_trial_num","null","<p class=block-text>Trial 22 out of 60</p>","null","","","","","","","","","","","","","","","","","","","","","","","","","",""
"","","","","","image-button-response","47","201575","0.0-2.0-2.0-1.21","61588f27299f923d579de650","A3","batch1","spm_respsonse","8413","img/question_2_10.jpeg","2","mat_22","3","1","1","8413","","","","","","","","","","","","","","","","","","","","",""
"","","","","","html-keyboard-response","48","202638","0.0-2.0-2.0-0.22","61588f27299f923d579de650","A3","batch1","spm_show_trial_num","null","<p class=block-text>Trial 23 out of 60</p>","null","","","","","","","","","","","","","","","","","","","","","","","","","",""
"","","","","","image-button-response","49","210962","0.0-2.0-2.0-1.22","61588f27299f923d579de650","A3","batch1","spm_respsonse","8322.10000000894","img/question_2_11.jpeg","3","mat_23","4","1","1","8322.10000000894","","","","","","","","","","","","","","","","","","","","",""
"","","","","","html-keyboard-response","50","212030","0.0-2.0-2.0-0.23","61588f27299f923d579de650","A3","batch1","spm_show_trial_num","null","<p class=block-text>Trial 24 out of 60</p>","null","","","","","","","","","","","","","","","","","","","","","","","","","",""
"","","","","","image-button-response","51","223417","0.0-2.0-2.0-1.23","61588f27299f923d579de650","A3","batch1","spm_respsonse","11385.29999999702","img/question_2_12.jpeg","4","mat_24","5","1","1","11385.29999999702","","","","","","","","","","","","","","","","","","","","",""
"","","","","","html-button-response","52","225362","0.0-2.0-3.0","61588f27299f923d579de650","A3","batch1","attention_check","1687.6000000089407","<p class = block-text>Attention check: Please choose 1<br></p>","0","","","true","","","","","","","","","","","","","","","","","","","","","","",""
"","","","","","html-keyboard-response","53","226164","0.0-2.0-4.0-0.0","61588f27299f923d579de650","A3","batch1","spm_show_trial_num","null","<p class=block-text>Trial 25 out of 60</p>","null","","","","","","","","","","","","","","","","","","","","","","","","","",""
"","","","","","image-button-response","54","232431","0.0-2.0-4.0-1.0","61588f27299f923d579de650","A3","batch1","spm_respsonse","6264.100000008941","img/question_3_1.jpeg","7","mat_25","8","1","1","6264.100000008941","","","","","","","","","","","","","","","","","","","","",""
"","","","","","html-keyboard-response","55","233492","0.0-2.0-4.0-0.1","61588f27299f923d579de650","A3","batch1","spm_show_trial_num","null","<p class=block-text>Trial 26 out of 60</p>","null","","","","","","","","","","","","","","","","","","","","","","","","","",""
"","","","","","image-button-response","56","254607","0.0-2.0-4.0-1.1","61588f27299f923d579de650","A3","batch1","spm_respsonse","21112.79999999702","img/question_3_2.jpeg","2","mat_26","2","0","0","21112.79999999702","","","","","","","","","","","","","","","","","","","","",""
"","","","","","html-keyboard-response","57","255672","0.0-2.0-4.0-0.2","61588f27299f923d579de650","A3","batch1","spm_show_trial_num","null","<p class=block-text>Trial 27 out of 60</p>","null","","","","","","","","","","","","","","","","","","","","","","","","","",""
"","","","","","image-button-response","58","264997","0.0-2.0-4.0-1.2","61588f27299f923d579de650","A3","batch1","spm_respsonse","9322.90000000596","img/question_3_3.jpeg","2","mat_27","3","1","1","9322.90000000596","","","","","","","","","","","","","","","","","","","","",""
"","","","","","html-keyboard-response","59","266062","0.0-2.0-4.0-0.3","61588f27299f923d579de650","A3","batch1","spm_show_trial_num","null","<p class=block-text>Trial 28 out of 60</p>","null","","","","","","","","","","","","","","","","","","","","","","","","","",""
"","","","","","image-button-response","60","294829","0.0-2.0-4.0-1.3","61588f27299f923d579de650","A3","batch1","spm_respsonse","28765.19999998808","img/question_3_4.jpeg","7","mat_28","8","1","1","28765.19999998808","","","","","","","","","","","","","","","","","","","","",""
"","","","","","html-keyboard-response","61","295896","0.0-2.0-4.0-0.4","61588f27299f923d579de650","A3","batch1","spm_show_trial_num","null","<p class=block-text>Trial 29 out of 60</p>","null","","","","","","","","","","","","","","","","","","","","","","","","","",""
"","","","","","image-button-response","62","304644","0.0-2.0-4.0-1.4","61588f27299f923d579de650","A3","batch1","spm_respsonse","8746.5","img/question_3_5.jpeg","6","mat_29","7","1","1","8746.5","","","","","","","","","","","","","","","","","","","","",""
"","","","","","html-keyboard-response","63","305712","0.0-2.0-4.0-0.5","61588f27299f923d579de650","A3","batch1","spm_show_trial_num","null","<p class=block-text>Trial 30 out of 60</p>","null","","","","","","","","","","","","","","","","","","","","","","","","","",""
"","","","","","image-button-response","64","314265","0.0-2.0-4.0-1.5","61588f27299f923d579de650","A3","batch1","spm_respsonse","8550.90000000596","img/question_3_6.jpeg","3","mat_30","4","1","1","8550.90000000596","","","","","","","","","","","","","","","","","","","","",""
"","","","","","html-keyboard-response","65","315327","0.0-2.0-4.0-0.6","61588f27299f923d579de650","A3","batch1","spm_show_trial_num","null","<p class=block-text>Trial 31 out of 60</p>","null","","","","","","","","","","","","","","","","","","","","","","","","","",""
"","","","","","image-button-response","66","323418","0.0-2.0-4.0-1.6","61588f27299f923d579de650","A3","batch1","spm_respsonse","8088.4000000059605","img/question_3_7.jpeg","4","mat_31","5","1","1","8088.4000000059605","","","","","","","","","","","","","","","","","","","","",""
"","","","","","html-keyboard-response","67","324479","0.0-2.0-4.0-0.7","61588f27299f923d579de650","A3","batch1","spm_show_trial_num","null","<p class=block-text>Trial 32 out of 60</p>","null","","","","","","","","","","","","","","","","","","","","","","","","","",""
"","","","","","image-button-response","68","346763","0.0-2.0-4.0-1.7","61588f27299f923d579de650","A3","batch1","spm_respsonse","22281.40000000596","img/question_3_8.jpeg","0","mat_32","1","1","1","22281.40000000596","","","","","","","","","","","","","","","","","","","","",""
"","","","","","html-keyboard-response","69","347825","0.0-2.0-4.0-0.8","61588f27299f923d579de650","A3","batch1","spm_show_trial_num","null","<p class=block-text>Trial 33 out of 60</p>","null","","","","","","","","","","","","","","","","","","","","","","","","","",""
"","","","","","image-button-response","70","359189","0.0-2.0-4.0-1.8","61588f27299f923d579de650","A3","batch1","spm_respsonse","11361.59999999404","img/question_3_9.jpeg","6","mat_33","7","1","1","11361.59999999404","","","","","","","","","","","","","","","","","","","","",""
"","","","","","html-keyboard-response","71","360255","0.0-2.0-4.0-0.9","61588f27299f923d579de650","A3","batch1","spm_show_trial_num","null","<p class=block-text>Trial 34 out of 60</p>","null","","","","","","","","","","","","","","","","","","","","","","","","","",""
"","","","","","image-button-response","72","380968","0.0-2.0-4.0-1.9","61588f27299f923d579de650","A3","batch1","spm_respsonse","20711.29999999702","img/question_3_10.jpeg","7","mat_34","6","0","0","20711.29999999702","","","","","","","","","","","","","","","","","","","","",""
"","","","","","html-keyboard-response","73","382033","0.0-2.0-4.0-0.10","61588f27299f923d579de650","A3","batch1","spm_show_trial_num","null","<p class=block-text>Trial 35 out of 60</p>","null","","","","","","","","","","","","","","","","","","","","","","","","","",""
"","","","","","image-button-response","74","394242","0.0-2.0-4.0-1.10","61588f27299f923d579de650","A3","batch1","spm_respsonse","12207.70000000298","img/question_3_11.jpeg","4","mat_35","1","0","0","12207.70000000298","","","","","","","","","","","","","","","","","","","","",""
"","","","","","html-keyboard-response","75","395303","0.0-2.0-4.0-0.11","61588f27299f923d579de650","A3","batch1","spm_show_trial_num","null","<p class=block-text>Trial 36 out of 60</p>","null","","","","","","","","","","","","","","","","","","","","","","","","","",""
"","","","","","image-button-response","76","409099","0.0-2.0-4.0-1.11","61588f27299f923d579de650","A3","batch1","spm_respsonse","13794.59999999404","img/question_3_12.jpeg","2","mat_36","2","0","0","13794.59999999404","","","","","","","","","","","","","","","","","","","","",""
"","","","","","html-keyboard-response","77","410164","0.0-2.0-4.0-0.12","61588f27299f923d579de650","A3","batch1","spm_show_trial_num","null","<p class=block-text>Trial 37 out of 60</p>","null","","","","","","","","","","","","","","","","","","","","","","","","","",""
"","","","","","image-button-response","78","413006","0.0-2.0-4.0-1.12","61588f27299f923d579de650","A3","batch1","spm_respsonse","2839.2999999970198","img/question_4_1.jpeg","2","mat_37","3","1","1","2839.2999999970198","","","","","","","","","","","","","","","","","","","","",""
"","","","","","html-keyboard-response","79","414073","0.0-2.0-4.0-0.13","61588f27299f923d579de650","A3","batch1","spm_show_trial_num","null","<p class=block-text>Trial 38 out of 60</p>","null","","","","","","","","","","","","","","","","","","","","","","","","","",""
"","","","","","image-button-response","80","419530","0.0-2.0-4.0-1.13","61588f27299f923d579de650","A3","batch1","spm_respsonse","5454.600000008941","img/question_4_2.jpeg","3","mat_38","4","1","1","5454.600000008941","","","","","","","","","","","","","","","","","","","","",""
"","","","","","html-keyboard-response","81","420596","0.0-2.0-4.0-0.14","61588f27299f923d579de650","A3","batch1","spm_show_trial_num","null","<p class=block-text>Trial 39 out of 60</p>","null","","","","","","","","","","","","","","","","","","","","","","","","","",""
"","","","","","image-button-response","82","431387","0.0-2.0-4.0-1.14","61588f27299f923d579de650","A3","batch1","spm_respsonse","10788.59999999404","img/question_4_3.jpeg","2","mat_39","3","1","1","10788.59999999404","","","","","","","","","","","","","","","","","","","","",""
"","","","","","html-keyboard-response","83","432448","0.0-2.0-4.0-0.15","61588f27299f923d579de650","A3","batch1","spm_show_trial_num","null","<p class=block-text>Trial 40 out of 60</p>","null","","","","","","","","","","","","","","","","","","","","","","","","","",""
"","","","","","image-button-response","84","444872","0.0-2.0-4.0-1.15","61588f27299f923d579de650","A3","batch1","spm_respsonse","12422.29999999702","img/question_4_4.jpeg","6","mat_40","7","1","1","12422.29999999702","","","","","","","","","","","","","","","","","","","","",""
"","","","","","html-keyboard-response","85","445931","0.0-2.0-4.0-0.16","61588f27299f923d579de650","A3","batch1","spm_show_trial_num","null","<p class=block-text>Trial 41 out of 60</p>","null","","","","","","","","","","","","","","","","","","","","","","","","","",""
"","","","","","image-button-response","86","459151","0.0-2.0-4.0-1.16","61588f27299f923d579de650","A3","batch1","spm_respsonse","13217.09999999404","img/question_4_5.jpeg","7","mat_41","8","1","1","13217.09999999404","","","","","","","","","","","","","","","","","","","","",""
"","","","","","html-keyboard-response","87","460219","0.0-2.0-4.0-0.17","61588f27299f923d579de650","A3","batch1","spm_show_trial_num","null","<p class=block-text>Trial 42 out of 60</p>","null","","","","","","","","","","","","","","","","","","","","","","","","","",""
"","","","","","image-button-response","88","472471","0.0-2.0-4.0-1.17","61588f27299f923d579de650","A3","batch1","spm_respsonse","12249.79999999702","img/question_4_6.jpeg","5","mat_42","6","1","1","12249.79999999702","","","","","","","","","","","","","","","","","","","","",""
"","","","","","html-keyboard-response","89","473538","0.0-2.0-4.0-0.18","61588f27299f923d579de650","A3","batch1","spm_show_trial_num","null","<p class=block-text>Trial 43 out of 60</p>","null","","","","","","","","","","","","","","","","","","","","","","","","","",""
"","","","","","image-button-response","90","491676","0.0-2.0-4.0-1.18","61588f27299f923d579de650","A3","batch1","spm_respsonse","18136.09999999404","img/question_4_7.jpeg","4","mat_43","5","1","1","18136.09999999404","","","","","","","","","","","","","","","","","","","","",""
"","","","","","html-keyboard-response","91","492738","0.0-2.0-4.0-0.19","61588f27299f923d579de650","A3","batch1","spm_show_trial_num","null","<p class=block-text>Trial 44 out of 60</p>","null","","","","","","","","","","","","","","","","","","","","","","","","","",""
"","","","","","image-button-response","92","504235","0.0-2.0-4.0-1.19","61588f27299f923d579de650","A3","batch1","spm_respsonse","11494.40000000596","img/question_4_8.jpeg","3","mat_44","4","1","1","11494.40000000596","","","","","","","","","","","","","","","","","","","","",""
"","","","","","html-keyboard-response","93","505299","0.0-2.0-4.0-0.20","61588f27299f923d579de650","A3","batch1","spm_show_trial_num","null","<p class=block-text>Trial 45 out of 60</p>","null","","","","","","","","","","","","","","","","","","","","","","","","","",""
"","","","","","image-button-response","94","528090","0.0-2.0-4.0-1.20","61588f27299f923d579de650","A3","batch1","spm_respsonse","22788.60000000894","img/question_4_9.jpeg","0","mat_45","1","1","1","22788.60000000894","","","","","","","","","","","","","","","","","","","","",""
"","","","","","html-keyboard-response","95","529153","0.0-2.0-4.0-0.21","61588f27299f923d579de650","A3","batch1","spm_show_trial_num","null","<p class=block-text>Trial 46 out of 60</p>","null","","","","","","","","","","","","","","","","","","","","","","","","","",""
"","","","","","image-button-response","96","551431","0.0-2.0-4.0-1.21","61588f27299f923d579de650","A3","batch1","spm_respsonse","22276.90000000596","img/question_4_10.jpeg","1","mat_46","2","1","1","22276.90000000596","","","","","","","","","","","","","","","","","","","","",""
"","","","","","html-keyboard-response","97","552500","0.0-2.0-4.0-0.22","61588f27299f923d579de650","A3","batch1","spm_show_trial_num","null","<p class=block-text>Trial 47 out of 60</p>","null","","","","","","","","","","","","","","","","","","","","","","","","","",""
"","","","","","image-button-response","98","564993","0.0-2.0-4.0-1.22","61588f27299f923d579de650","A3","batch1","spm_respsonse","12490.5","img/question_4_11.jpeg","4","mat_47","5","1","1","12490.5","","","","","","","","","","","","","","","","","","","","",""
"","","","","","html-keyboard-response","99","566057","0.0-2.0-4.0-0.23","61588f27299f923d579de650","A3","batch1","spm_show_trial_num","null","<p class=block-text>Trial 48 out of 60</p>","null","","","","","","","","","","","","","","","","","","","","","","","","","",""
"","","","","","image-button-response","100","593934","0.0-2.0-4.0-1.23","61588f27299f923d579de650","A3","batch1","spm_respsonse","27875.10000000894","img/question_4_12.jpeg","6","mat_48","6","0","0","27875.10000000894","","","","","","","","","","","","","","","","","","","","",""
"","","","","","html-keyboard-response","101","594999","0.0-2.0-4.0-0.24","61588f27299f923d579de650","A3","batch1","spm_show_trial_num","null","<p class=block-text>Trial 49 out of 60</p>","null","","","","","","","","","","","","","","","","","","","","","","","","","",""
"","","","","","image-button-response","102","613837","0.0-2.0-4.0-1.24","61588f27299f923d579de650","A3","batch1","spm_respsonse","18836.10000000894","img/question_5_1.jpeg","6","mat_49","7","1","1","18836.10000000894","","","","","","","","","","","","","","","","","","","","",""
"","","","","","html-keyboard-response","103","614901","0.0-2.0-4.0-0.25","61588f27299f923d579de650","A3","batch1","spm_show_trial_num","null","<p class=block-text>Trial 50 out of 60</p>","null","","","","","","","","","","","","","","","","","","","","","","","","","",""
"","","","","","image-button-response","104","626744","0.0-2.0-4.0-1.25","61588f27299f923d579de650","A3","batch1","spm_respsonse","11841.29999999702","img/question_5_2.jpeg","5","mat_50","6","1","1","11841.29999999702","","","","","","","","","","","","","","","","","","","","",""
"","","","","","html-keyboard-response","105","627805","0.0-2.0-4.0-0.26","61588f27299f923d579de650","A3","batch1","spm_show_trial_num","null","<p class=block-text>Trial 51 out of 60</p>","null","","","","","","","","","","","","","","","","","","","","","","","","","",""
"","","","","","image-button-response","106","640153","0.0-2.0-4.0-1.26","61588f27299f923d579de650","A3","batch1","spm_respsonse","12345.59999999404","img/question_5_3.jpeg","7","mat_51","8","1","1","12345.59999999404","","","","","","","","","","","","","","","","","","","","",""
"","","","","","html-keyboard-response","107","641222","0.0-2.0-4.0-0.27","61588f27299f923d579de650","A3","batch1","spm_show_trial_num","null","<p class=block-text>Trial 52 out of 60</p>","null","","","","","","","","","","","","","","","","","","","","","","","","","",""
"","","","","","image-button-response","108","649999","0.0-2.0-4.0-1.27","61588f27299f923d579de650","A3","batch1","spm_respsonse","8774.29999999702","img/question_5_4.jpeg","1","mat_52","2","1","1","8774.29999999702","","","","","","","","","","","","","","","","","","","","",""
"","","","","","html-keyboard-response","109","651060","0.0-2.0-4.0-0.28","61588f27299f923d579de650","A3","batch1","spm_show_trial_num","null","<p class=block-text>Trial 53 out of 60</p>","null","","","","","","","","","","","","","","","","","","","","","","","","","",""
"","","","","","image-button-response","110","658182","0.0-2.0-4.0-1.28","61588f27299f923d579de650","A3","batch1","spm_respsonse","7120","img/question_5_5.jpeg","0","mat_53","1","1","1","7120","","","","","","","","","","","","","","","","","","","","",""
"","","","","","html-keyboard-response","111","659248","0.0-2.0-4.0-0.29","61588f27299f923d579de650","A3","batch1","spm_show_trial_num","null","<p class=block-text>Trial 54 out of 60</p>","null","","","","","","","","","","","","","","","","","","","","","","","","","",""
"","","","","","image-button-response","112","705973","0.0-2.0-4.0-1.29","61588f27299f923d579de650","A3","batch1","spm_respsonse","46722.60000000894","img/question_5_6.jpeg","4","mat_54","5","1","1","46722.60000000894","","","","","","","","","","","","","","","","","","","","",""
"","","","","","html-keyboard-response","113","707041","0.0-2.0-4.0-0.30","61588f27299f923d579de650","A3","batch1","spm_show_trial_num","null","<p class=block-text>Trial 55 out of 60</p>","null","","","","","","","","","","","","","","","","","","","","","","","","","",""
"","","","","","image-button-response","114","729683","0.0-2.0-4.0-1.30","61588f27299f923d579de650","A3","batch1","spm_respsonse","22639.79999999702","img/question_5_7.jpeg","4","mat_55","1","0","0","22639.79999999702","","","","","","","","","","","","","","","","","","","","",""
"","","","","","html-keyboard-response","115","730752","0.0-2.0-4.0-0.31","61588f27299f923d579de650","A3","batch1","spm_show_trial_num","null","<p class=block-text>Trial 56 out of 60</p>","null","","","","","","","","","","","","","","","","","","","","","","","","","",""
"","","","","","image-button-response","116","740580","0.0-2.0-4.0-1.31","61588f27299f923d579de650","A3","batch1","spm_respsonse","9825.59999999404","img/question_5_8.jpeg","5","mat_56","6","1","1","9825.59999999404","","","","","","","","","","","","","","","","","","","","",""
"","","","","","html-keyboard-response","117","741637","0.0-2.0-4.0-0.32","61588f27299f923d579de650","A3","batch1","spm_show_trial_num","null","<p class=block-text>Trial 57 out of 60</p>","null","","","","","","","","","","","","","","","","","","","","","","","","","",""
"","","","","","image-button-response","118","770828","0.0-2.0-4.0-1.32","61588f27299f923d579de650","A3","batch1","spm_respsonse","29188","img/question_5_9.jpeg","2","mat_57","3","1","1","29188","","","","","","","","","","","","","","","","","","","","",""
"","","","","","html-keyboard-response","119","771894","0.0-2.0-4.0-0.33","61588f27299f923d579de650","A3","batch1","spm_show_trial_num","null","<p class=block-text>Trial 58 out of 60</p>","null","","","","","","","","","","","","","","","","","","","","","","","","","",""
"","","","","","image-button-response","120","815980","0.0-2.0-4.0-1.33","61588f27299f923d579de650","A3","batch1","spm_respsonse","44084.29999999702","img/question_5_10.jpeg","1","mat_58","2","1","1","44084.29999999702","","","","","","","","","","","","","","","","","","","","",""
"","","","","","html-keyboard-response","121","817050","0.0-2.0-4.0-0.34","61588f27299f923d579de650","A3","batch1","spm_show_trial_num","null","<p class=block-text>Trial 59 out of 60</p>","null","","","","","","","","","","","","","","","","","","","","","","","","","",""
"","","","","","image-button-response","122","841962","0.0-2.0-4.0-1.34","61588f27299f923d579de650","A3","batch1","spm_respsonse","24909","img/question_5_11.jpeg","5","mat_59","4","0","0","24909","","","","","","","","","","","","","","","","","","","","",""
"","","","","","html-keyboard-response","123","843017","0.0-2.0-4.0-0.35","61588f27299f923d579de650","A3","batch1","spm_show_trial_num","null","<p class=block-text>Trial 60 out of 60</p>","null","","","","","","","","","","","","","","","","","","","","","","","","","",""
"","","","","","image-button-response","124","874707","0.0-2.0-4.0-1.35","61588f27299f923d579de650","A3","batch1","spm_respsonse","31688.20000000298","img/question_5_12.jpeg","0","mat_60","5","0","0","31688.20000000298","","","","","","","","","","","","","","","","","","","","",""
"","","","","","html-button-response","125","876995","0.0-2.0-5.0","61588f27299f923d579de650","A3","batch1","spm_goodbye","2035","<p class= block-text>This concludes the Standard Progressive Matrix game. Thank you for your responses!<br> When you are ready, click the button continue</p>","0","","","","","","","","","","","","","","","","","","","","","","","","","",""
"true","","","","","fullscreen","126","893236","0.0-3.0-0.0","61588f27299f923d579de650","A3","batch1","","","","","","","","","","","","","","","","","","","","","","","","","","","","","",""
"","","","","","instructions","127","932610","0.0-3.0-1.0-0.0","61588f27299f923d579de650","A3","batch1","","39372.20000000298","","","","","","","","[{""page_index"":0,""viewing_time"":30949.09999999404},{""page_index"":1,""viewing_time"":8422.90000000596}]","","","","","","","","","","","","","","","","","","","",""
"","","","","","html-button-response","128","935561","0.0-3.0-1.0-1.0-0.0","61588f27299f923d579de650","A3","batch1","pattern_enter_quiz","2950.7000000029802","<p class=block-text> Let's answer a few questions <br>","0","","","","","","","","","","","","","","","","","","","","","","","","","",""
"","","","","","html-button-response","129","937594","0.0-3.0-1.0-1.0-1.0","61588f27299f923d579de650","A3","batch1","pattern_quiz","2032.2000000029802","<p class = block-text>True or False: You will have as much time as you want to make each choice. <br></p>","1","","","true","","","","","","","","","","","","","","","","","","","","","","",""
"","","","","","html-button-response","130","938426","0.0-3.0-1.0-1.0-2.0","61588f27299f923d579de650","A3","batch1","pattern_quiz_feedback","830.2999999970198","<p class = block-text>Correct! You should make your choice <strong> as fast as you can</strong>.</p>","0","","","","","","","","","","","","","","","","","","","","","","","","","",""
"","","","","","html-button-response","131","940862","0.0-3.0-1.0-1.0-3.0","61588f27299f923d579de650","A3","batch1","pattern_quiz","2435.2000000029802","<p class = block-text>True or False: You will look for 4 pieces in black or white color connected in a row either horizontally, vertically or diagonally. <br></p>","0","","","true","","","","","","","","","","","","","","","","","","","","","","",""
"","","","","","html-button-response","132","941459","0.0-3.0-1.0-1.0-4.0","61588f27299f923d579de650","A3","batch1","pattern_quiz_feedback","596.0999999940395","<p class = block-text>Correct! </p>","0","","","","","","","","","","","","","","","","","","","","","","","","","",""
"","","","","","html-button-response","133","942853","0.0-3.0-2.0","61588f27299f923d579de650","A3","batch1","pattern_enter_practice","1392.5","<p class=block-text> Now that you've understood the game, let's do a few practice trials before we start!<br> <br>","0","","","","","","","","","","","","","","","","","","","","","","","","","",""
"","","","","","image-keyboard-response","134","945103","0.0-3.0-3.0-0.0","61588f27299f923d579de650","A3","batch1","pattern_practice","2248.2000000029802","stim/prac_no_16_1.png","j","","j","true","","","","","","","","","","","","","","","","","","","","","","",""
"","","","","","html-keyboard-response","135","946112","0.0-3.0-3.0-1.0","61588f27299f923d579de650","A3","batch1","pattern_feedback","null","<p style=""font-size:30px;color:green;"">Correct!</p>","null","","","","","","","","","","","","","","","","","","","","","","","","","",""
"","","","","","image-keyboard-response","136","947952","0.0-3.0-3.0-0.1","61588f27299f923d579de650","A3","batch1","pattern_practice","1839","stim/prac_yes_20_dia_b1.png","j","","f","false","","","","","","","","","","","","","","","","","","","","","","",""
"","","","","","html-keyboard-response","137","948960","0.0-3.0-3.0-1.1","61588f27299f923d579de650","A3","batch1","pattern_feedback","null","<p style=""font-size:30px;color:red;"">Wrong.</p>","null","","","","","","","","","","","","","","","","","","","","","","","","","",""
"","","","","","image-keyboard-response","138","950386","0.0-3.0-3.0-0.2","61588f27299f923d579de650","A3","batch1","pattern_practice","1424.8999999910593","stim/prac_no_18_1.png","j","","j","true","","","","","","","","","","","","","","","","","","","","","","",""
"","","","","","html-keyboard-response","139","951395","0.0-3.0-3.0-1.2","61588f27299f923d579de650","A3","batch1","pattern_feedback","null","<p style=""font-size:30px;color:green;"">Correct!</p>","null","","","","","","","","","","","","","","","","","","","","","","","","","",""
"","","","","","image-keyboard-response","140","952720","0.0-3.0-3.0-0.3","61588f27299f923d579de650","A3","batch1","pattern_practice","1324.1000000089407","stim/prac_yes_16_ver_w1.png","f","","f","true","","","","","","","","","","","","","","","","","","","","","","",""
"","","","","","html-keyboard-response","141","953728","0.0-3.0-3.0-1.3","61588f27299f923d579de650","A3","batch1","pattern_feedback","null","<p style=""font-size:30px;color:green;"">Correct!</p>","null","","","","","","","","","","","","","","","","","","","","","","","","","",""
"","","","","","image-keyboard-response","142","954905","0.0-3.0-3.0-0.4","61588f27299f923d579de650","A3","batch1","pattern_practice","1175.3999999910593","stim/prac_yes_18_hor_w1.png","f","","f","true","","","","","","","","","","","","","","","","","","","","","","",""
"","","","","","html-keyboard-response","143","955914","0.0-3.0-3.0-1.4","61588f27299f923d579de650","A3","batch1","pattern_feedback","null","<p style=""font-size:30px;color:green;"">Correct!</p>","null","","","","","","","","","","","","","","","","","","","","","","","","","",""
"","","","","","html-button-response","144","971398","0.0-3.0-4.0","61588f27299f923d579de650","A3","batch1","pattern_enter_official_trials","15482.39999999106","<p class=block-text> Good job! You are done with practice trials!<br>
        You responded correctly on 80% of the trials.<br>
        Press the button below to start official trials. Now you won't see any feedback about your response</p>","0","","","","","","","","","","","","","","","","","","","","","","","","","",""
"","","","","","html-keyboard-response","145","972202","0.0-3.0-5.0-0.0","61588f27299f923d579de650","A3","batch1","pattern_show_trial_num","null","<p class=block-text>Trial 1 out of 78</p>","null","","","","","","","","","","","","","","","","","","","","","","","","","",""
"","","","","","image-keyboard-response","146","974236","0.0-3.0-5.0-1.0","61588f27299f923d579de650","A3","batch1","pattern_response","2031.5999999940395","stim/yes_42_dia_w1_w.png","j","pattern_64","f","false","","","","2031.5999999940395","false","0","","","","","","","","","","","","","","","","",""
"","","","","","html-keyboard-response","147","975548","0.0-3.0-5.0-0.1","61588f27299f923d579de650","A3","batch1","pattern_show_trial_num","null","<p class=block-text>Trial 2 out of 78</p>","null","","","","","","","","","","","","","","","","","","","","","","","","","",""
"","","","","","image-keyboard-response","148","976997","0.0-3.0-5.0-1.1","61588f27299f923d579de650","A3","batch1","pattern_response","1446.8999999910593","stim/no_51_1.png","j","pattern_31","j","true","","","","1446.8999999910593","true","1","","","","","","","","","","","","","","","","",""
"","","","","","html-keyboard-response","149","978314","0.0-3.0-5.0-0.2","61588f27299f923d579de650","A3","batch1","pattern_show_trial_num","null","<p class=block-text>Trial 3 out of 78</p>","null","","","","","","","","","","","","","","","","","","","","","","","","","",""
"","","","","","image-keyboard-response","150","980446","0.0-3.0-5.0-1.2","61588f27299f923d579de650","A3","batch1","pattern_response","2131.2999999970198","stim/no_49_2_b.png","j","pattern_29","j","true","","","","2131.2999999970198","true","2","","","","","","","","","","","","","","","","",""
"","","","","","html-keyboard-response","151","981760","0.0-3.0-5.0-0.3","61588f27299f923d579de650","A3","batch1","pattern_show_trial_num","null","<p class=block-text>Trial 4 out of 78</p>","null","","","","","","","","","","","","","","","","","","","","","","","","","",""
"","","","","","image-keyboard-response","152","982473","0.0-3.0-5.0-1.3","61588f27299f923d579de650","A3","batch1","pattern_response","712.1000000089407","stim/yes_29_hor_b1_b.png","f","pattern_52","f","true","","","","712.1000000089407","true","3","","","","","","","","","","","","","","","","",""
"","","","","","html-keyboard-response","153","983786","0.0-3.0-5.0-0.4","61588f27299f923d579de650","A3","batch1","pattern_show_trial_num","null","<p class=block-text>Trial 5 out of 78</p>","null","","","","","","","","","","","","","","","","","","","","","","","","","",""
"","","","","","image-keyboard-response","154","984654","0.0-3.0-5.0-1.4","61588f27299f923d579de650","A3","batch1","pattern_response","866.9000000059605","stim/yes_39_hor_w1_w.png","f","pattern_62","f","true","","","","866.9000000059605","true","4","","","","","","","","","","","","","","","","",""
"","","","","","html-keyboard-response","155","985973","0.0-3.0-5.0-0.5","61588f27299f923d579de650","A3","batch1","pattern_show_trial_num","null","<p class=block-text>Trial 6 out of 78</p>","null","","","","","","","","","","","","","","","","","","","","","","","","","",""
"","","","","","image-keyboard-response","156","987340","0.0-3.0-5.0-1.5","61588f27299f923d579de650","A3","batch1","pattern_response","1365.4000000059605","stim/no_58_1_w.png","j","pattern_35","j","true","","","","1365.4000000059605","true","5","","","","","","","","","","","","","","","","",""
"","","","","","html-keyboard-response","157","988648","0.0-3.0-5.0-0.6","61588f27299f923d579de650","A3","batch1","pattern_show_trial_num","null","<p class=block-text>Trial 7 out of 78</p>","null","","","","","","","","","","","","","","","","","","","","","","","","","",""
"","","","","","image-keyboard-response","158","991075","0.0-3.0-5.0-1.6","61588f27299f923d579de650","A3","batch1","pattern_response","2425.9000000059605","stim/yes_63_dia_b1.png","j","pattern_78","f","false","","","","2425.9000000059605","false","5","","","","","","","","","","","","","","","","",""
"","","","","","html-keyboard-response","159","992384","0.0-3.0-5.0-0.7","61588f27299f923d579de650","A3","batch1","pattern_show_trial_num","null","<p class=block-text>Trial 8 out of 78</p>","null","","","","","","","","","","","","","","","","","","","","","","","","","",""
"","","","","","image-keyboard-response","160","993782","0.0-3.0-5.0-1.7","61588f27299f923d579de650","A3","batch1","pattern_response","1396.7000000029802","stim/no_43_2_b.png","j","pattern_23","j","true","","","","1396.7000000029802","true","6","","","","","","","","","","","","","","","","",""
"","","","","","html-keyboard-response","161","995100","0.0-3.0-5.0-0.8","61588f27299f923d579de650","A3","batch1","pattern_show_trial_num","null","<p class=block-text>Trial 9 out of 78</p>","null","","","","","","","","","","","","","","","","","","","","","","","","","",""
"","","","","","image-keyboard-response","162","996378","0.0-3.0-5.0-1.8","61588f27299f923d579de650","A3","batch1","pattern_response","1276.3999999910593","stim/no_37_2_w.png","j","pattern_19","j","true","","","","1276.3999999910593","true","7","","","","","","","","","","","","","","","","",""
"","","","","","html-keyboard-response","163","997690","0.0-3.0-5.0-0.9","61588f27299f923d579de650","A3","batch1","pattern_show_trial_num","null","<p class=block-text>Trial 10 out of 78</p>","null","","","","","","","","","","","","","","","","","","","","","","","","","",""
"","","","","","image-keyboard-response","164","999083","0.0-3.0-5.0-1.9","61588f27299f923d579de650","A3","batch1","pattern_response","1391.6000000089407","stim/no_45_1_w.png","j","pattern_25","j","true","","","","1391.6000000089407","true","8","","","","","","","","","","","","","","","","",""
"","","","","","html-keyboard-response","165","1000397","0.0-3.0-5.0-0.10","61588f27299f923d579de650","A3","batch1","pattern_show_trial_num","null","<p class=block-text>Trial 11 out of 78</p>","null","","","","","","","","","","","","","","","","","","","","","","","","","",""
"","","","","","image-keyboard-response","166","1001318","0.0-3.0-5.0-1.10","61588f27299f923d579de650","A3","batch1","pattern_response","919.4000000059605","stim/yes_49_hor_w1_b.png","f","pattern_70","f","true","","","","919.4000000059605","true","9","","","","","","","","","","","","","","","","",""
"","","","","","html-keyboard-response","167","1002636","0.0-3.0-5.0-0.11","61588f27299f923d579de650","A3","batch1","pattern_show_trial_num","null","<p class=block-text>Trial 12 out of 78</p>","null","","","","","","","","","","","","","","","","","","","","","","","","","",""
"","","","","","image-keyboard-response","168","1003309","0.0-3.0-5.0-1.11","61588f27299f923d579de650","A3","batch1","pattern_response","671.4000000059605","stim/yes_17_ver_b1_b.png","f","pattern_46","f","true","","","","671.4000000059605","true","10","","","","","","","","","","","","","","","","",""
"","","","","","html-keyboard-response","169","1004623","0.0-3.0-5.0-0.12","61588f27299f923d579de650","A3","batch1","pattern_show_trial_num","null","<p class=block-text>Trial 13 out of 78</p>","null","","","","","","","","","","","","","","","","","","","","","","","","","",""
"","","","","","image-keyboard-response","170","1005448","0.0-3.0-5.0-1.12","61588f27299f923d579de650","A3","batch1","pattern_response","824.3999999910593","stim/yes_30_ver_b1_b.png","f","pattern_54","f","true","","","","824.3999999910593","true","11","","","","","","","","","","","","","","","","",""
"","","","","","html-keyboard-response","171","1006761","0.0-3.0-5.0-0.13","61588f27299f923d579de650","A3","batch1","pattern_show_trial_num","null","<p class=block-text>Trial 14 out of 78</p>","null","","","","","","","","","","","","","","","","","","","","","","","","","",""
"","","","","","image-keyboard-response","172","1007625","0.0-3.0-5.0-1.13","61588f27299f923d579de650","A3","batch1","pattern_response","863","stim/no_28_2.png","j","pattern_11","j","true","","","","863","true","12","","","","","","","","","","","","","","","","",""
"","","","","","html-keyboard-response","173","1008937","0.0-3.0-5.0-0.14","61588f27299f923d579de650","A3","batch1","pattern_show_trial_num","null","<p class=block-text>Trial 15 out of 78</p>","null","","","","","","","","","","","","","","","","","","","","","","","","","",""
"","","","","","image-keyboard-response","174","1009594","0.0-3.0-5.0-1.14","61588f27299f923d579de650","A3","batch1","pattern_response","655.3999999910593","stim/yes_36_ver_w1_w.png","f","pattern_58","f","true","","","","655.3999999910593","true","13","","","","","","","","","","","","","","","","",""
"","","","","","html-keyboard-response","175","1010910","0.0-3.0-5.0-0.15","61588f27299f923d579de650","A3","batch1","pattern_show_trial_num","null","<p class=block-text>Trial 16 out of 78</p>","null","","","","","","","","","","","","","","","","","","","","","","","","","",""
"","","","","","image-keyboard-response","176","1012079","0.0-3.0-5.0-1.15","61588f27299f923d579de650","A3","batch1","pattern_response","1168.199999988079","stim/no_25_1_b.png","j","pattern_09","j","true","","","","1168.199999988079","true","14","","","","","","","","","","","","","","","","",""
"","","","","","html-keyboard-response","177","1013388","0.0-3.0-5.0-0.16","61588f27299f923d579de650","A3","batch1","pattern_show_trial_num","null","<p class=block-text>Trial 17 out of 78</p>","null","","","","","","","","","","","","","","","","","","","","","","","","","",""
"","","","","","image-keyboard-response","178","1014282","0.0-3.0-5.0-1.16","61588f27299f923d579de650","A3","batch1","pattern_response","893.1999999880791","stim/yes_26_dia_w2_w.png","j","pattern_50","f","false","","","","893.1999999880791","false","14","","","","","","","","","","","","","","","","",""
"","","","","","html-keyboard-response","179","1015596","0.0-3.0-5.0-0.17","61588f27299f923d579de650","A3","batch1","pattern_show_trial_num","null","<p class=block-text>Trial 18 out of 78</p>","null","","","","","","","","","","","","","","","","","","","","","","","","","",""
"","","","","","image-keyboard-response","180","1016651","0.0-3.0-5.0-1.17","61588f27299f923d579de650","A3","batch1","pattern_response","1053.5","stim/no_36_1_b.png","j","pattern_17","j","true","","","","1053.5","true","15","","","","","","","","","","","","","","","","",""
"","","","","","html-keyboard-response","181","1017968","0.0-3.0-5.0-0.18","61588f27299f923d579de650","A3","batch1","pattern_show_trial_num","null","<p class=block-text>Trial 19 out of 78</p>","null","","","","","","","","","","","","","","","","","","","","","","","","","",""
"","","","","","image-keyboard-response","182","1018564","0.0-3.0-5.0-1.18","61588f27299f923d579de650","A3","batch1","pattern_response","594.2000000029802","stim/yes_12_hor_w1_w.png","f","pattern_42","f","true","","","","594.2000000029802","true","16","","","","","","","","","","","","","","","","",""
"","","","","","html-keyboard-response","183","1019876","0.0-3.0-5.0-0.19","61588f27299f923d579de650","A3","batch1","pattern_show_trial_num","null","<p class=block-text>Trial 20 out of 78</p>","null","","","","","","","","","","","","","","","","","","","","","","","","","",""
"","","","","","image-keyboard-response","184","1020556","0.0-3.0-5.0-1.19","61588f27299f923d579de650","A3","batch1","pattern_response","678.7999999970198","stim/no_12_1.png","j","pattern_01","j","true","","","","678.7999999970198","true","17","","","","","","","","","","","","","","","","",""
"","","","","","html-keyboard-response","185","1021868","0.0-3.0-5.0-0.20","61588f27299f923d579de650","A3","batch1","pattern_show_trial_num","null","<p class=block-text>Trial 21 out of 78</p>","null","","","","","","","","","","","","","","","","","","","","","","","","","",""
"","","","","","image-keyboard-response","186","1023134","0.0-3.0-5.0-1.20","61588f27299f923d579de650","A3","batch1","pattern_response","1264.4000000059605","stim/no_53_1_b.png","j","pattern_33","j","true","","","","1264.4000000059605","true","18","","","","","","","","","","","","","","","","",""
"","","","","","html-keyboard-response","187","1024445","0.0-3.0-5.0-0.21","61588f27299f923d579de650","A3","batch1","pattern_show_trial_num","null","<p class=block-text>Trial 22 out of 78</p>","null","","","","","","","","","","","","","","","","","","","","","","","","","",""
"","","","","","image-keyboard-response","188","1026068","0.0-3.0-5.0-1.21","61588f27299f923d579de650","A3","batch1","pattern_response","1621.7000000029802","stim/yes_58_dia_w1_w.png","j","pattern_76","f","false","","","","1621.7000000029802","false","18","","","","","","","","","","","","","","","","",""
"","","","","","html-keyboard-response","189","1027381","0.0-3.0-5.0-0.22","61588f27299f923d579de650","A3","batch1","pattern_show_trial_num","null","<p class=block-text>Trial 23 out of 78</p>","null","","","","","","","","","","","","","","","","","","","","","","","","","",""
"","","","","","image-keyboard-response","190","1028272","0.0-3.0-5.0-1.22","61588f27299f923d579de650","A3","batch1","pattern_response","889.5","stim/no_22_1_b.png","j","pattern_07","j","true","","","","889.5","true","19","","","","","","","","","","","","","","","","",""
"","","","","","html-keyboard-response","191","1029587","0.0-3.0-5.0-0.23","61588f27299f923d579de650","A3","batch1","pattern_show_trial_num","null","<p class=block-text>Trial 24 out of 78</p>","null","","","","","","","","","","","","","","","","","","","","","","","","","",""
"","","","","","image-keyboard-response","192","1030710","0.0-3.0-5.0-1.23","61588f27299f923d579de650","A3","batch1","pattern_response","1122.5999999940395","stim/yes_23_ver_b1.png","f","pattern_48","f","true","","","","1122.5999999940395","true","20","","","","","","","","","","","","","","","","",""
"","","","","","html-keyboard-response","193","1032031","0.0-3.0-5.0-0.24","61588f27299f923d579de650","A3","batch1","pattern_show_trial_num","null","<p class=block-text>Trial 25 out of 78</p>","null","","","","","","","","","","","","","","","","","","","","","","","","","",""
"","","","","","image-keyboard-response","194","1032751","0.0-3.0-5.0-1.24","61588f27299f923d579de650","A3","batch1","pattern_response","718.2999999970198","stim/no_18_1_b.png","j","pattern_05","j","true","","","","718.2999999970198","true","21","","","","","","","","","","","","","","","","",""
"","","","","","html-keyboard-response","195","1034067","0.0-3.0-5.0-0.25","61588f27299f923d579de650","A3","batch1","pattern_show_trial_num","null","<p class=block-text>Trial 26 out of 78</p>","null","","","","","","","","","","","","","","","","","","","","","","","","","",""
"","","","","","image-keyboard-response","196","1035053","0.0-3.0-5.0-1.25","61588f27299f923d579de650","A3","batch1","pattern_response","984.1000000089407","stim/yes_33_dia_w1_w.png","f","pattern_56","f","true","","","","984.1000000089407","true","22","","","","","","","","","","","","","","","","",""
"","","","","","html-keyboard-response","197","1036367","0.0-3.0-5.0-0.26","61588f27299f923d579de650","A3","batch1","pattern_show_trial_num","null","<p class=block-text>Trial 27 out of 78</p>","null","","","","","","","","","","","","","","","","","","","","","","","","","",""
"","","","","","image-keyboard-response","198","1038745","0.0-3.0-5.0-1.26","61588f27299f923d579de650","A3","batch1","pattern_response","2377","stim/yes_70_ver_b1.png","j","pattern_80","f","false","","","","2377","false","22","","","","","","","","","","","","","","","","",""
"","","","","","html-keyboard-response","199","1040063","0.0-3.0-5.0-0.27","61588f27299f923d579de650","A3","batch1","pattern_show_trial_num","null","<p class=block-text>Trial 28 out of 78</p>","null","","","","","","","","","","","","","","","","","","","","","","","","","",""
"","","","","","image-keyboard-response","200","1042423","0.0-3.0-5.0-1.27","61588f27299f923d579de650","A3","batch1","pattern_response","2358.0999999940395","stim/no_39_1_w.png","j","pattern_21","j","true","","","","2358.0999999940395","true","23","","","","","","","","","","","","","","","","",""
"","","","","","html-keyboard-response","201","1043738","0.0-3.0-5.0-0.28","61588f27299f923d579de650","A3","batch1","pattern_show_trial_num","null","<p class=block-text>Trial 29 out of 78</p>","null","","","","","","","","","","","","","","","","","","","","","","","","","",""
"","","","","","image-keyboard-response","202","1045684","0.0-3.0-5.0-1.28","61588f27299f923d579de650","A3","batch1","pattern_response","1944.699999988079","stim/no_47_1_b.png","j","pattern_27","j","true","","","","1944.699999988079","true","24","","","","","","","","","","","","","","","","",""
"","","","","","html-keyboard-response","203","1046999","0.0-3.0-5.0-0.29","61588f27299f923d579de650","A3","batch1","pattern_show_trial_num","null","<p class=block-text>Trial 30 out of 78</p>","null","","","","","","","","","","","","","","","","","","","","","","","","","",""
"","","","","","image-keyboard-response","204","1049683","0.0-3.0-5.0-1.29","61588f27299f923d579de650","A3","batch1","pattern_response","2683.5","stim/no_33_1_b.png","j","pattern_15","j","true","","","","2683.5","true","25","","","","","","","","","","","","","","","","",""
"","","","","","html-keyboard-response","205","1050996","0.0-3.0-5.0-0.30","61588f27299f923d579de650","A3","batch1","pattern_show_trial_num","null","<p class=block-text>Trial 31 out of 78</p>","null","","","","","","","","","","","","","","","","","","","","","","","","","",""
"","","","","","image-keyboard-response","206","1053077","0.0-3.0-5.0-1.30","61588f27299f923d579de650","A3","batch1","pattern_response","2079.5","stim/no_30_1_b.png","j","pattern_13","j","true","","","","2079.5","true","26","","","","","","","","","","","","","","","","",""
"","","","","","html-keyboard-response","207","1054387","0.0-3.0-5.0-0.31","61588f27299f923d579de650","A3","batch1","pattern_show_trial_num","null","<p class=block-text>Trial 32 out of 78</p>","null","","","","","","","","","","","","","","","","","","","","","","","","","",""
"","","","","","image-keyboard-response","208","1055268","0.0-3.0-5.0-1.31","61588f27299f923d579de650","A3","batch1","pattern_response","879.2000000029802","stim/yes_37_hor_w1_w.png","f","pattern_60","f","true","","","","879.2000000029802","true","27","","","","","","","","","","","","","","","","",""
"","","","","","html-keyboard-response","209","1056579","0.0-3.0-5.0-0.32","61588f27299f923d579de650","A3","batch1","pattern_show_trial_num","null","<p class=block-text>Trial 33 out of 78</p>","null","","","","","","","","","","","","","","","","","","","","","","","","","",""
"","","","","","image-keyboard-response","210","1057663","0.0-3.0-5.0-1.32","61588f27299f923d579de650","A3","batch1","pattern_response","1083.3999999910593","stim/yes_46_ver_b1_b.png","j","pattern_68","f","false","","","","1083.3999999910593","false","27","","","","","","","","","","","","","","","","",""
"","","","","","html-keyboard-response","211","1058981","0.0-3.0-5.0-0.33","61588f27299f923d579de650","A3","batch1","pattern_show_trial_num","null","<p class=block-text>Trial 34 out of 78</p>","null","","","","","","","","","","","","","","","","","","","","","","","","","",""
"","","","","","image-keyboard-response","212","1060785","0.0-3.0-5.0-1.33","61588f27299f923d579de650","A3","batch1","pattern_response","1803.4000000059605","stim/yes_51_dia_b1.png","j","pattern_72","f","false","","","","1803.4000000059605","false","27","","","","","","","","","","","","","","","","",""
"","","","","","html-keyboard-response","213","1062101","0.0-3.0-5.0-0.34","61588f27299f923d579de650","A3","batch1","pattern_show_trial_num","null","<p class=block-text>Trial 35 out of 78</p>","null","","","","","","","","","","","","","","","","","","","","","","","","","",""
"","","","","","image-keyboard-response","214","1062781","0.0-3.0-5.0-1.34","61588f27299f923d579de650","A3","batch1","pattern_response","679.2999999970198","stim/no_15_1_w.png","j","pattern_03","j","true","","","","679.2999999970198","true","28","","","","","","","","","","","","","","","","",""
"","","","","","html-keyboard-response","215","1064093","0.0-3.0-5.0-0.35","61588f27299f923d579de650","A3","batch1","pattern_show_trial_num","null","<p class=block-text>Trial 36 out of 78</p>","null","","","","","","","","","","","","","","","","","","","","","","","","","",""
"","","","","","image-keyboard-response","216","1066099","0.0-3.0-5.0-1.35","61588f27299f923d579de650","A3","batch1","pattern_response","2004.0999999940395","stim/yes_44_ver_w1_w.png","f","pattern_66","f","true","","","","2004.0999999940395","true","29","","","","","","","","","","","","","","","","",""
"","","","","","html-keyboard-response","217","1067415","0.0-3.0-5.0-0.36","61588f27299f923d579de650","A3","batch1","pattern_show_trial_num","null","<p class=block-text>Trial 37 out of 78</p>","null","","","","","","","","","","","","","","","","","","","","","","","","","",""
"","","","","","image-keyboard-response","218","1068822","0.0-3.0-5.0-1.36","61588f27299f923d579de650","A3","batch1","pattern_response","1406.5999999940395","stim/yes_15_dia_b1u_b.png","f","pattern_44","f","true","","","","1406.5999999940395","true","30","","","","","","","","","","","","","","","","",""
"","","","","","html-keyboard-response","219","1070138","0.0-3.0-5.0-0.37","61588f27299f923d579de650","A3","batch1","pattern_show_trial_num","null","<p class=block-text>Trial 38 out of 78</p>","null","","","","","","","","","","","","","","","","","","","","","","","","","",""
"","","","","","image-keyboard-response","220","1071726","0.0-3.0-5.0-1.37","61588f27299f923d579de650","A3","batch1","pattern_response","1586.5","stim/yes_53_ver_b1_b.png","f","pattern_74","f","true","","","","1586.5","true","31","","","","","","","","","","","","","","","","",""
"","","","","","html-keyboard-response","221","1073046","0.0-3.0-5.0-0.38","61588f27299f923d579de650","A3","batch1","pattern_show_trial_num","null","<p class=block-text>Trial 39 out of 78</p>","null","","","","","","","","","","","","","","","","","","","","","","","","","",""
"","","","","","image-keyboard-response","222","1076786","0.0-3.0-5.0-1.38","61588f27299f923d579de650","A3","batch1","pattern_response","3738.7000000029802","stim/no_67_1.png","j","pattern_39","j","true","","","","3738.7000000029802","true","32","","","","","","","","","","","","","","","","",""
"","","","","","image-keyboard-response","223","1078761","0.0-3.0-6.0","61588f27299f923d579de650","A3","batch1","attention_check","1464.8999999910593","stim/empty_board.png","j","","j","true","","","","","","","500","[""f"",""j""]","","","","","","","","","","","","","","",""
"","","","","","html-keyboard-response","224","1079567","0.0-3.0-7.0-0.0","61588f27299f923d579de650","A3","batch1","pattern_show_trial_num","null","<p class=block-text>Trial 40 out of 78</p>","null","","","","","","","","","","","","","","","","","","","","","","","","","",""
"","","","","","image-keyboard-response","225","1081821","0.0-3.0-7.0-1.0","61588f27299f923d579de650","A3","batch1","pattern_response","2251.8999999910593","stim/no_34_1_b.png","j","pattern_16","j","true","","","","2251.8999999910593","true","33","","","","","","","","","","","","","","","","",""
"","","","","","html-keyboard-response","226","1083134","0.0-3.0-7.0-0.1","61588f27299f923d579de650","A3","batch1","pattern_show_trial_num","null","<p class=block-text>Trial 41 out of 78</p>","null","","","","","","","","","","","","","","","","","","","","","","","","","",""
"","","","","","image-keyboard-response","227","1084045","0.0-3.0-7.0-1.1","61588f27299f923d579de650","A3","batch1","pattern_response","909.9000000059605","stim/yes_43_ver_w1_w.png","f","pattern_65","f","true","","","","909.9000000059605","true","34","","","","","","","","","","","","","","","","",""
"","","","","","html-keyboard-response","228","1085355","0.0-3.0-7.0-0.2","61588f27299f923d579de650","A3","batch1","pattern_show_trial_num","null","<p class=block-text>Trial 42 out of 78</p>","null","","","","","","","","","","","","","","","","","","","","","","","","","",""
"","","","","","image-keyboard-response","229","1086708","0.0-3.0-7.0-1.2","61588f27299f923d579de650","A3","batch1","pattern_response","1351.7999999970198","stim/no_17_1_w.png","j","pattern_04","j","true","","","","1351.7999999970198","true","35","","","","","","","","","","","","","","","","",""
"","","","","","html-keyboard-response","230","1088021","0.0-3.0-7.0-0.3","61588f27299f923d579de650","A3","batch1","pattern_show_trial_num","null","<p class=block-text>Trial 43 out of 78</p>","null","","","","","","","","","","","","","","","","","","","","","","","","","",""
"","","","","","image-keyboard-response","231","1089015","0.0-3.0-7.0-1.3","61588f27299f923d579de650","A3","batch1","pattern_response","993.2000000029802","stim/yes_17_dia_w1.png","f","pattern_45","f","true","","","","993.2000000029802","true","36","","","","","","","","","","","","","","","","",""
"","","","","","html-keyboard-response","232","1090334","0.0-3.0-7.0-0.4","61588f27299f923d579de650","A3","batch1","pattern_show_trial_num","null","<p class=block-text>Trial 44 out of 78</p>","null","","","","","","","","","","","","","","","","","","","","","","","","","",""
"","","","","","image-keyboard-response","233","1091248","0.0-3.0-7.0-1.4","61588f27299f923d579de650","A3","batch1","pattern_response","912.5999999940395","stim/yes_25_hor_b1_b.png","f","pattern_49","f","true","","","","912.5999999940395","true","37","","","","","","","","","","","","","","","","",""
"","","","","","html-keyboard-response","234","1092567","0.0-3.0-7.0-0.5","61588f27299f923d579de650","A3","batch1","pattern_show_trial_num","null","<p class=block-text>Trial 45 out of 78</p>","null","","","","","","","","","","","","","","","","","","","","","","","","","",""
"","","","","","image-keyboard-response","235","1094404","0.0-3.0-7.0-1.5","61588f27299f923d579de650","A3","batch1","pattern_response","1835.0999999940395","stim/yes_29_ver_w1.png","f","pattern_53","f","true","","","","1835.0999999940395","true","38","","","","","","","","","","","","","","","","",""
"","","","","","html-keyboard-response","236","1095717","0.0-3.0-7.0-0.6","61588f27299f923d579de650","A3","batch1","pattern_show_trial_num","null","<p class=block-text>Trial 46 out of 78</p>","null","","","","","","","","","","","","","","","","","","","","","","","","","",""
"","","","","","image-keyboard-response","237","1098322","0.0-3.0-7.0-1.6","61588f27299f923d579de650","A3","batch1","pattern_response","2603.2999999970198","stim/no_52_1.png","j","pattern_32","j","true","","","","2603.2999999970198","true","39","","","","","","","","","","","","","","","","",""
"","","","","","html-keyboard-response","238","1099637","0.0-3.0-7.0-0.7","61588f27299f923d579de650","A3","batch1","pattern_show_trial_num","null","<p class=block-text>Trial 47 out of 78</p>","null","","","","","","","","","","","","","","","","","","","","","","","","","",""
"","","","","","image-keyboard-response","239","1101405","0.0-3.0-7.0-1.7","61588f27299f923d579de650","A3","batch1","pattern_response","1766.6000000089407","stim/no_38_1_b.png","j","pattern_20","j","true","","","","1766.6000000089407","true","40","","","","","","","","","","","","","","","","",""
"","","","","","html-keyboard-response","240","1102717","0.0-3.0-7.0-0.8","61588f27299f923d579de650","A3","batch1","pattern_show_trial_num","null","<p class=block-text>Trial 48 out of 78</p>","null","","","","","","","","","","","","","","","","","","","","","","","","","",""
"","","","","","image-keyboard-response","241","1104823","0.0-3.0-7.0-1.8","61588f27299f923d579de650","A3","batch1","pattern_response","2103.9000000059605","stim/no_42_1_w.png","j","pattern_22","j","true","","","","2103.9000000059605","true","41","","","","","","","","","","","","","","","","",""
"","","","","","html-keyboard-response","242","1106143","0.0-3.0-7.0-0.9","61588f27299f923d579de650","A3","batch1","pattern_show_trial_num","null","<p class=block-text>Trial 49 out of 78</p>","null","","","","","","","","","","","","","","","","","","","","","","","","","",""
"","","","","","image-keyboard-response","243","1108532","0.0-3.0-7.0-1.9","61588f27299f923d579de650","A3","batch1","pattern_response","2386.8999999910593","stim/yes_40_dia_b1_b.png","j","pattern_63","f","false","","","","2386.8999999910593","false","41","","","","","","","","","","","","","","","","",""
"","","","","","html-keyboard-response","244","1109843","0.0-3.0-7.0-0.10","61588f27299f923d579de650","A3","batch1","pattern_show_trial_num","null","<p class=block-text>Trial 50 out of 78</p>","null","","","","","","","","","","","","","","","","","","","","","","","","","",""
"","","","","","image-keyboard-response","245","1111375","0.0-3.0-7.0-1.10","61588f27299f923d579de650","A3","batch1","pattern_response","1531.7999999970198","stim/yes_48_dia_w1_w.png","f","pattern_69","f","true","","","","1531.7999999970198","true","42","","","","","","","","","","","","","","","","",""
"","","","","","html-keyboard-response","246","1112691","0.0-3.0-7.0-0.11","61588f27299f923d579de650","A3","batch1","pattern_show_trial_num","null","<p class=block-text>Trial 51 out of 78</p>","null","","","","","","","","","","","","","","","","","","","","","","","","","",""
"","","","","","image-keyboard-response","247","1114431","0.0-3.0-7.0-1.11","61588f27299f923d579de650","A3","batch1","pattern_response","1738.699999988079","stim/yes_38_hor_b1_b.png","j","pattern_61","f","false","","","","1738.699999988079","false","42","","","","","","","","","","","","","","","","",""
"","","","","","html-keyboard-response","248","1115751","0.0-3.0-7.0-0.12","61588f27299f923d579de650","A3","batch1","pattern_show_trial_num","null","<p class=block-text>Trial 52 out of 78</p>","null","","","","","","","","","","","","","","","","","","","","","","","","","",""
"","","","","","image-keyboard-response","249","1118482","0.0-3.0-7.0-1.12","61588f27299f923d579de650","A3","batch1","pattern_response","2730.1000000089407","stim/no_65_1_b.png","j","pattern_38","j","true","","","","2730.1000000089407","true","43","","","","","","","","","","","","","","","","",""
"","","","","","html-keyboard-response","250","1119798","0.0-3.0-7.0-0.13","61588f27299f923d579de650","A3","batch1","pattern_show_trial_num","null","<p class=block-text>Trial 53 out of 78</p>","null","","","","","","","","","","","","","","","","","","","","","","","","","",""
"","","","","","image-keyboard-response","251","1120785","0.0-3.0-7.0-1.13","61588f27299f923d579de650","A3","batch1","pattern_response","985.2999999970198","stim/yes_22_ver_w1.png","f","pattern_47","f","true","","","","985.2999999970198","true","44","","","","","","","","","","","","","","","","",""
"","","","","","html-keyboard-response","252","1122101","0.0-3.0-7.0-0.14","61588f27299f923d579de650","A3","batch1","pattern_show_trial_num","null","<p class=block-text>Trial 54 out of 78</p>","null","","","","","","","","","","","","","","","","","","","","","","","","","",""
"","","","","","image-keyboard-response","253","1124199","0.0-3.0-7.0-1.14","61588f27299f923d579de650","A3","batch1","pattern_response","2097.6000000089407","stim/no_62_1_w.png","f","pattern_36","j","false","","","","2097.6000000089407","false","44","","","","","","","","","","","","","","","","",""
"","","","","","html-keyboard-response","254","1125519","0.0-3.0-7.0-0.15","61588f27299f923d579de650","A3","batch1","pattern_show_trial_num","null","<p class=block-text>Trial 55 out of 78</p>","null","","","","","","","","","","","","","","","","","","","","","","","","","",""
"","","","","","image-keyboard-response","255","1128870","0.0-3.0-7.0-1.15","61588f27299f923d579de650","A3","batch1","pattern_response","3349.0999999940395","stim/yes_50_dia_w1.png","j","pattern_71","f","false","","","","3349.0999999940395","false","44","","","","","","","","","","","","","","","","",""
"","","","","","html-keyboard-response","256","1130182","0.0-3.0-7.0-0.16","61588f27299f923d579de650","A3","batch1","pattern_show_trial_num","null","<p class=block-text>Trial 56 out of 78</p>","null","","","","","","","","","","","","","","","","","","","","","","","","","",""
"","","","","","image-keyboard-response","257","1132443","0.0-3.0-7.0-1.16","61588f27299f923d579de650","A3","batch1","pattern_response","2259.2999999970198","stim/no_26_1_w.png","j","pattern_10","j","true","","","","2259.2999999970198","true","45","","","","","","","","","","","","","","","","",""
"","","","","","html-keyboard-response","258","1133756","0.0-3.0-7.0-0.17","61588f27299f923d579de650","A3","batch1","pattern_show_trial_num","null","<p class=block-text>Trial 57 out of 78</p>","null","","","","","","","","","","","","","","","","","","","","","","","","","",""
"","","","","","image-keyboard-response","259","1136283","0.0-3.0-7.0-1.17","61588f27299f923d579de650","A3","batch1","pattern_response","2526.1000000089407","stim/no_48_1_w.png","j","pattern_28","j","true","","","","2526.1000000089407","true","46","","","","","","","","","","","","","","","","",""
"","","","","","html-keyboard-response","260","1137596","0.0-3.0-7.0-0.18","61588f27299f923d579de650","A3","batch1","pattern_show_trial_num","null","<p class=block-text>Trial 58 out of 78</p>","null","","","","","","","","","","","","","","","","","","","","","","","","","",""
"","","","","","image-keyboard-response","261","1139107","0.0-3.0-7.0-1.18","61588f27299f923d579de650","A3","batch1","pattern_response","1509.5999999940395","stim/no_32_1_w.png","j","pattern_14","j","true","","","","1509.5999999940395","true","47","","","","","","","","","","","","","","","","",""
"","","","","","html-keyboard-response","262","1140419","0.0-3.0-7.0-0.19","61588f27299f923d579de650","A3","batch1","pattern_show_trial_num","null","<p class=block-text>Trial 59 out of 78</p>","null","","","","","","","","","","","","","","","","","","","","","","","","","",""
"","","","","","image-keyboard-response","263","1141827","0.0-3.0-7.0-1.19","61588f27299f923d579de650","A3","batch1","pattern_response","1405.8999999910593","stim/yes_67_hor_b1.png","f","pattern_79","f","true","","","","1405.8999999910593","true","48","","","","","","","","","","","","","","","","",""
"","","","","","html-keyboard-response","264","1143139","0.0-3.0-7.0-0.20","61588f27299f923d579de650","A3","batch1","pattern_show_trial_num","null","<p class=block-text>Trial 60 out of 78</p>","null","","","","","","","","","","","","","","","","","","","","","","","","","",""
"","","","","","image-keyboard-response","265","1144167","0.0-3.0-7.0-1.20","61588f27299f923d579de650","A3","batch1","pattern_response","1026.7999999970198","stim/yes_28_ver_b1.png","f","pattern_51","f","true","","","","1026.7999999970198","true","49","","","","","","","","","","","","","","","","",""
"","","","","","html-keyboard-response","266","1145485","0.0-3.0-7.0-0.21","61588f27299f923d579de650","A3","batch1","pattern_show_trial_num","null","<p class=block-text>Trial 61 out of 78</p>","null","","","","","","","","","","","","","","","","","","","","","","","","","",""
"","","","","","image-keyboard-response","267","1147735","0.0-3.0-7.0-1.21","61588f27299f923d579de650","A3","batch1","pattern_response","2248.8999999910593","stim/no_29_1_b.png","j","pattern_12","j","true","","","","2248.8999999910593","true","50","","","","","","","","","","","","","","","","",""
"","","","","","html-keyboard-response","268","1149044","0.0-3.0-7.0-0.22","61588f27299f923d579de650","A3","batch1","pattern_show_trial_num","null","<p class=block-text>Trial 62 out of 78</p>","null","","","","","","","","","","","","","","","","","","","","","","","","","",""
"","","","","","image-keyboard-response","269","1151675","0.0-3.0-7.0-1.22","61588f27299f923d579de650","A3","batch1","pattern_response","2629.3999999910593","stim/no_46_1_b.png","j","pattern_26","j","true","","","","2629.3999999910593","true","51","","","","","","","","","","","","","","","","",""
"","","","","","html-keyboard-response","270","1152987","0.0-3.0-7.0-0.23","61588f27299f923d579de650","A3","batch1","pattern_show_trial_num","null","<p class=block-text>Trial 63 out of 78</p>","null","","","","","","","","","","","","","","","","","","","","","","","","","",""
"","","","","","image-keyboard-response","271","1153815","0.0-3.0-7.0-1.23","61588f27299f923d579de650","A3","batch1","pattern_response","826.4000000059605","stim/no_13_2_b.png","j","pattern_02","j","true","","","","826.4000000059605","true","52","","","","","","","","","","","","","","","","",""
"","","","","","html-keyboard-response","272","1155123","0.0-3.0-7.0-0.24","61588f27299f923d579de650","A3","batch1","pattern_show_trial_num","null","<p class=block-text>Trial 64 out of 78</p>","null","","","","","","","","","","","","","","","","","","","","","","","","","",""
"","","","","","image-keyboard-response","273","1157446","0.0-3.0-7.0-1.24","61588f27299f923d579de650","A3","batch1","pattern_response","2321.7000000029802","stim/yes_52_ver_w1.png","f","pattern_73","f","true","","","","2321.7000000029802","true","53","","","","","","","","","","","","","","","","",""
"","","","","","html-keyboard-response","274","1158756","0.0-3.0-7.0-0.25","61588f27299f923d579de650","A3","batch1","pattern_show_trial_num","null","<p class=block-text>Trial 65 out of 78</p>","null","","","","","","","","","","","","","","","","","","","","","","","","","",""
"","","","","","image-keyboard-response","275","1160668","0.0-3.0-7.0-1.25","61588f27299f923d579de650","A3","batch1","pattern_response","1910.9000000059605","stim/yes_31_hor_b1.png","f","pattern_55","f","true","","","","1910.9000000059605","true","54","","","","","","","","","","","","","","","","",""
"","","","","","html-keyboard-response","276","1161982","0.0-3.0-7.0-0.26","61588f27299f923d579de650","A3","batch1","pattern_show_trial_num","null","<p class=block-text>Trial 66 out of 78</p>","null","","","","","","","","","","","","","","","","","","","","","","","","","",""
"","","","","","image-keyboard-response","277","1165483","0.0-3.0-7.0-1.26","61588f27299f923d579de650","A3","batch1","pattern_response","3499.7999999970198","stim/no_44_1.png","j","pattern_24","j","true","","","","3499.7999999970198","true","55","","","","","","","","","","","","","","","","",""
"","","","","","html-keyboard-response","278","1166795","0.0-3.0-7.0-0.27","61588f27299f923d579de650","A3","batch1","pattern_show_trial_num","null","<p class=block-text>Trial 67 out of 78</p>","null","","","","","","","","","","","","","","","","","","","","","","","","","",""
"","","","","","image-keyboard-response","279","1168776","0.0-3.0-7.0-1.27","61588f27299f923d579de650","A3","batch1","pattern_response","1979.300000011921","stim/yes_60_ver_b1_b.png","f","pattern_77","f","true","","","","1979.300000011921","true","56","","","","","","","","","","","","","","","","",""
"","","","","","html-keyboard-response","280","1170094","0.0-3.0-7.0-0.28","61588f27299f923d579de650","A3","batch1","pattern_show_trial_num","null","<p class=block-text>Trial 68 out of 78</p>","null","","","","","","","","","","","","","","","","","","","","","","","","","",""
"","","","","","image-keyboard-response","281","1172910","0.0-3.0-7.0-1.28","61588f27299f923d579de650","A3","batch1","pattern_response","2814","stim/yes_37_dia_w1.png","f","pattern_59","f","true","","","","2814","true","57","","","","","","","","","","","","","","","","",""
"","","","","","html-keyboard-response","282","1174220","0.0-3.0-7.0-0.29","61588f27299f923d579de650","A3","batch1","pattern_show_trial_num","null","<p class=block-text>Trial 69 out of 78</p>","null","","","","","","","","","","","","","","","","","","","","","","","","","",""
"","","","","","image-keyboard-response","283","1177255","0.0-3.0-7.0-1.29","61588f27299f923d579de650","A3","batch1","pattern_response","3032.9000000059605","stim/no_55_1_w.png","j","pattern_34","j","true","","","","3032.9000000059605","true","58","","","","","","","","","","","","","","","","",""
"","","","","","html-keyboard-response","284","1178568","0.0-3.0-7.0-0.30","61588f27299f923d579de650","A3","batch1","pattern_show_trial_num","null","<p class=block-text>Trial 70 out of 78</p>","null","","","","","","","","","","","","","","","","","","","","","","","","","",""
"","","","","","image-keyboard-response","285","1179847","0.0-3.0-7.0-1.30","61588f27299f923d579de650","A3","batch1","pattern_response","1276.7999999970198","stim/yes_45_hor_b2_b.png","f","pattern_67","f","true","","","","1276.7999999970198","true","59","","","","","","","","","","","","","","","","",""
"","","","","","html-keyboard-response","286","1181161","0.0-3.0-7.0-0.31","61588f27299f923d579de650","A3","batch1","pattern_show_trial_num","null","<p class=block-text>Trial 71 out of 78</p>","null","","","","","","","","","","","","","","","","","","","","","","","","","",""
"","","","","","image-keyboard-response","287","1183718","0.0-3.0-7.0-1.31","61588f27299f923d579de650","A3","batch1","pattern_response","2555.5","stim/yes_55_hor_w1_w.png","f","pattern_75","f","true","","","","2555.5","true","60","","","","","","","","","","","","","","","","",""
"","","","","","html-keyboard-response","288","1185029","0.0-3.0-7.0-0.32","61588f27299f923d579de650","A3","batch1","pattern_show_trial_num","null","<p class=block-text>Trial 72 out of 78</p>","null","","","","","","","","","","","","","","","","","","","","","","","","","",""
"","","","","","image-keyboard-response","289","1186652","0.0-3.0-7.0-1.32","61588f27299f923d579de650","A3","batch1","pattern_response","1622.1000000089407","stim/yes_35_dia_b1.png","j","pattern_57","f","false","","","","1622.1000000089407","false","60","","","","","","","","","","","","","","","","",""
"","","","","","html-keyboard-response","290","1187969","0.0-3.0-7.0-0.33","61588f27299f923d579de650","A3","batch1","pattern_show_trial_num","null","<p class=block-text>Trial 73 out of 78</p>","null","","","","","","","","","","","","","","","","","","","","","","","","","",""
"","","","","","image-keyboard-response","291","1191648","0.0-3.0-7.0-1.33","61588f27299f923d579de650","A3","batch1","pattern_response","3677.7999999970198","stim/no_36_2_w.png","j","pattern_18","j","true","","","","3677.7999999970198","true","61","","","","","","","","","","","","","","","","",""
"","","","","","html-keyboard-response","292","1192969","0.0-3.0-7.0-0.34","61588f27299f923d579de650","A3","batch1","pattern_show_trial_num","null","<p class=block-text>Trial 74 out of 78</p>","null","","","","","","","","","","","","","","","","","","","","","","","","","",""
"","","","","","image-keyboard-response","293","1194023","0.0-3.0-7.0-1.34","61588f27299f923d579de650","A3","batch1","pattern_response","1053.5999999940395","stim/no_20_1_w.png","j","pattern_06","j","true","","","","1053.5999999940395","true","62","","","","","","","","","","","","","","","","",""
"","","","","","html-keyboard-response","294","1195335","0.0-3.0-7.0-0.35","61588f27299f923d579de650","A3","batch1","pattern_show_trial_num","null","<p class=block-text>Trial 75 out of 78</p>","null","","","","","","","","","","","","","","","","","","","","","","","","","",""
"","","","","","image-keyboard-response","295","1197218","0.0-3.0-7.0-1.35","61588f27299f923d579de650","A3","batch1","pattern_response","1882.7000000029802","stim/no_70_2.png","f","pattern_40","j","false","","","","1882.7000000029802","false","62","","","","","","","","","","","","","","","","",""
"","","","","","html-keyboard-response","296","1198536","0.0-3.0-7.0-0.36","61588f27299f923d579de650","A3","batch1","pattern_show_trial_num","null","<p class=block-text>Trial 76 out of 78</p>","null","","","","","","","","","","","","","","","","","","","","","","","","","",""
"","","","","","image-keyboard-response","297","1199530","0.0-3.0-7.0-1.36","61588f27299f923d579de650","A3","batch1","pattern_response","993.2999999970198","stim/yes_14_hor_b1_w.png","f","pattern_43","f","true","","","","993.2999999970198","true","63","","","","","","","","","","","","","","","","",""
"","","","","","html-keyboard-response","298","1200846","0.0-3.0-7.0-0.37","61588f27299f923d579de650","A3","batch1","pattern_show_trial_num","null","<p class=block-text>Trial 77 out of 78</p>","null","","","","","","","","","","","","","","","","","","","","","","","","","",""
"","","","","","image-keyboard-response","299","1202676","0.0-3.0-7.0-1.37","61588f27299f923d579de650","A3","batch1","pattern_response","1829.5","stim/no_23_1.png","j","pattern_08","j","true","","","","1829.5","true","64","","","","","","","","","","","","","","","","",""
"","","","","","html-keyboard-response","300","1203993","0.0-3.0-7.0-0.38","61588f27299f923d579de650","A3","batch1","pattern_show_trial_num","null","<p class=block-text>Trial 78 out of 78</p>","null","","","","","","","","","","","","","","","","","","","","","","","","","",""
"","","","","","image-keyboard-response","301","1207360","0.0-3.0-7.0-1.38","61588f27299f923d579de650","A3","batch1","pattern_response","3365.7000000029802","stim/no_50_1.png","j","pattern_30","j","true","","","","3365.7000000029802","true","65","","","","","","","","","","","","","","","","",""
"","","","","","html-button-response","302","1211951","0.0-3.0-8.0","61588f27299f923d579de650","A3","batch1","","4081.0999999940395","<p class = block-text>This concludes the 4-in-a-row detection game.Thank you for your responses!<br>
            You responded correctly on 83% of the trials.<br>
            When you are ready, press ""Continue"" button to continue </p>","0","","","","","","","","","","","","","","","","","","","","","","","","","",""
"true","","","","","fullscreen","303","1273666","0.0-4.0-0.0","61588f27299f923d579de650","A3","batch1","","","","","","","","","","","","","","","","","","","","","","","","","","","","","",""
"","","","","","instructions","304","1318766","0.0-4.0-1.0-0.0-0.0","61588f27299f923d579de650","A3","batch1","tol-instructions","45098.79999999702","","","","","","","","[{""page_index"":0,""viewing_time"":9927.5},{""page_index"":1,""viewing_time"":3937.7999999970198},{""page_index"":2,""viewing_time"":3688.0999999940395},{""page_index"":3,""viewing_time"":6846},{""page_index"":4,""viewing_time"":7584},{""page_index"":5,""viewing_time"":10576},{""page_index"":6,""viewing_time"":2539.2000000029802}]","","","","","","","","","","","","","","","","","","","",""
"","","","","","html-button-response","305","1319661","0.0-4.0-1.0-1.0-0.0","61588f27299f923d579de650","A3","batch1","tol_enter_quiz","894.2999999970198","<p class=block-text> Let's answer a few questions <br>","0","","","","","","","","","","","","","","","","","","","","","","","","","",""
"","","","","","html-button-response","306","1322128","0.0-4.0-1.0-1.0-1.0","61588f27299f923d579de650","A3","batch1","tol_quiz","2466.2999999970198","<p class = block-text>True or False: You can only move the ball on top of a peg. <br></p>","0","","","true","","","","","","","","","","","","","","","","","","","","","","",""
"","","","","","html-button-response","307","1322914","0.0-4.0-1.0-1.0-2.0","61588f27299f923d579de650","A3","batch1","tol_quiz_feedback","784.9000000059605","<p class = block-text>Correct! You can only move the ball on top of a peg.</p>","0","","","","","","","","","","","","","","","","","","","","","","","","","",""
"","","","","","html-button-response","308","1325048","0.0-4.0-1.0-1.0-3.0","61588f27299f923d579de650","A3","batch1","tol_quiz","2132.7000000029802","<p class = block-text>True or False: You should try to match your board with the target board with fewest moves possible. <br></p>","0","","","true","","","","","","","","","","","","","","","","","","","","","","",""
"","","","","","html-button-response","309","1325655","0.0-4.0-1.0-1.0-4.0","61588f27299f923d579de650","A3","batch1","tol_quiz_feedback","605.7999999970198","<p class = block-text>Correct! </p>","0","","","","","","","","","","","","","","","","","","","","","","","","","",""
"","","","","","html-button-response","310","1327082","0.0-4.0-2.0","61588f27299f923d579de650","A3","batch1","","1426.1000000089407","<p class=block-text> Now that you've understood the game, let's practice a few easier examples before we start!<br> <br>","0","","","","","","","","","","","","","","","","","","","","","","","","","",""
"","","","","","single-stim-button","311","1330172","0.0-4.0-3.0-0.0","61588f27299f923d579de650","A3","batch1","tol_practice","3089","","","","","","","","","","","","","","tol_peg_2","3089","3089","0","[[1,2,0],[0,0],[0]]","1","[[1,2,0],[0,0],[3]]","practice","3089","","","","","",""
"","","","","","single-stim-button","312","1331422","0.0-4.0-3.0-1.0","61588f27299f923d579de650","A3","batch1","tol_practice","1249","","","","","","","","","","","","","","tol_peg_3","1249","1249","0","[[1,2,0],[0,0],[3]]","1","[[1,2,0],[0,0],[3]]","practice","1249","","","","","",""
"","","","","","poldrack-single-stim","313","1332432","0.0-4.0-4.0","61588f27299f923d579de650","A3","batch1","tol_feedback","-1","","","","","true","","","","","","","","","","1000","1000","500","","","","","","-1","none","true","","0",""
"","","","","","single-stim-button","314","1334395","0.0-4.0-5.0-0.0","61588f27299f923d579de650","A3","batch1","tol_practice","1962","","","","","","","","","","","","","","tol_peg_1","1962","1962","0","[[1,0,0],[3,0],[0]]","2","[[0,0,0],[3,1],[2]]","practice","1962","","","","","",""
"","","","","","single-stim-button","315","1336052","0.0-4.0-5.0-1.0","61588f27299f923d579de650","A3","batch1","tol_practice","1656","","","","","","","","","","","","","","tol_peg_3","1656","1656","0","[[1,0,0],[3,0],[2]]","2","[[0,0,0],[3,1],[2]]","practice","1656","","","","","",""
"","","","","","single-stim-button","316","1337622","0.0-4.0-5.1-0.1","61588f27299f923d579de650","A3","batch1","tol_practice","1569","","","","","","","","","","","","","","tol_peg_1","1569","1569","0","[[0,0,0],[3,0],[2]]","3","[[0,0,0],[3,1],[2]]","practice","1569","","","","","",""
"","","","","","single-stim-button","317","1338430","0.0-4.0-5.1-1.1","61588f27299f923d579de650","A3","batch1","tol_practice","808","","","","","","","","","","","","","","tol_peg_2","808","808","0","[[0,0,0],[3,1],[2]]","3","[[0,0,0],[3,1],[2]]","practice","808","","","","","",""
"","","","","","poldrack-single-stim","318","1339439","0.0-4.0-6.0","61588f27299f923d579de650","A3","batch1","tol_feedback","-1","","","","","true","","","","","","","","","","1000","1000","500","","","","","","-1","none","true","","0",""
"","","","","","single-stim-button","319","1341151","0.0-4.0-7.0-0.0","61588f27299f923d579de650","A3","batch1","tol_practice","1712","","","","","","","","","","","","","","tol_peg_2","1712","1712","0","[[1,2,0],[0,0],[0]]","4","[[1,0,0],[2,0],[3]]","practice","1712","","","","","",""
"","","","","","single-stim-button","320","1341994","0.0-4.0-7.0-1.0","61588f27299f923d579de650","A3","batch1","tol_practice","843","","","","","","","","","","","","","","tol_peg_3","843","843","0","[[1,2,0],[0,0],[3]]","4","[[1,0,0],[2,0],[3]]","practice","843","","","","","",""
"","","","","","single-stim-button","321","1343034","0.0-4.0-7.1-0.1","61588f27299f923d579de650","A3","batch1","tol_practice","1038","","","","","","","","","","","","","","tol_peg_1","1038","1038","0","[[1,0,0],[0,0],[3]]","5","[[1,0,0],[2,0],[3]]","practice","1038","","","","","",""
"","","","","","single-stim-button","322","1343873","0.0-4.0-7.1-1.1","61588f27299f923d579de650","A3","batch1","tol_practice","839","","","","","","","","","","","","","","tol_peg_2","839","839","0","[[1,0,0],[2,0],[3]]","5","[[1,0,0],[2,0],[3]]","practice","839","","","","","",""
"","","","","","poldrack-single-stim","323","1344879","0.0-4.0-8.0","61588f27299f923d579de650","A3","batch1","tol_feedback","-1","","","","","true","","","","","","","","","","1000","1000","500","","","","","","-1","none","true","","0",""
"","","","","","html-button-response","324","1350633","0.0-4.0-9.0","61588f27299f923d579de650","A3","batch1","tol_instruction","5753.4000000059605","<div class = centerbox><p class = center-block-text>Great job! You are done with practice trials<br>You are about to start official trials.<br> <br> Problem <strong>1</strong> out of 25 problems</p></div>","0","","","","","","","","","","","","","","","","","","","","","","","","","",""
"","","","","","single-stim-button","325","1354408","0.0-4.0-10.0-0.0","61588f27299f923d579de650","A3","batch1","tol_tohand","2769","","","","","","","","","","","","","","tol_peg_2","2769","2769","0","[[1,2,0],[0,0],[0]]","1","[[1,3,0],[2,0],[0]]","0","0","","","","","","3"
"","","","","","single-stim-button","326","1355508","0.0-4.0-10.0-1.0","61588f27299f923d579de650","A3","batch1","tol_toboard","1099","","","","","","","","","","","","","","tol_peg_3","1099","1099","0","[[1,2,0],[0,0],[3]]","1","[[1,3,0],[2,0],[0]]","0","0","","","","","","3"
"","","","","","single-stim-button","327","1356529","0.0-4.0-10.1-0.1","61588f27299f923d579de650","A3","batch1","tol_tohand","1021","","","","","","","","","","","","","","tol_peg_1","1021","1021","0","[[1,0,0],[0,0],[3]]","2","[[1,3,0],[2,0],[0]]","0","0","","","","","","3"
"","","","","","single-stim-button","328","1357604","0.0-4.0-10.1-1.1","61588f27299f923d579de650","A3","batch1","tol_toboard","1074","","","","","","","","","","","","","","tol_peg_2","1074","1074","0","[[1,0,0],[2,0],[3]]","2","[[1,3,0],[2,0],[0]]","0","0","","","","","","3"
"","","","","","single-stim-button","329","1358338","0.0-4.0-10.2-0.2","61588f27299f923d579de650","A3","batch1","tol_tohand","734","","","","","","","","","","","","","","tol_peg_3","734","734","0","[[1,0,0],[2,0],[0]]","3","[[1,3,0],[2,0],[0]]","0","0","","","","","","3"
"","","","","","single-stim-button","330","1359308","0.0-4.0-10.2-1.2","61588f27299f923d579de650","A3","batch1","tol_toboard","969","","","","","","","","","","","","","","tol_peg_1","969","969","0","[[1,3,0],[2,0],[0]]","3","[[1,3,0],[2,0],[0]]","0","0","","","","","","3"
"","","","","","poldrack-single-stim","331","1360313","0.0-4.0-11.0","61588f27299f923d579de650","A3","batch1","tol_feedback","-1","","","","","true","","","","","","","","","","1000","1000","500","","","","","","-1","none","true","2769","4524",""
"","","","","","html-button-response","332","1361266","0.0-4.0-12.0","61588f27299f923d579de650","A3","batch1","tol_trial_num","951.8999999910593","<div class = centerbox><p class = center-block-text>problem <strong>2</strong> out of 25 problems</p></div>","0","","","","","","","","","","","","","","","","","","","","","","","","","",""
"","","","","","single-stim-button","333","1363794","0.0-4.0-13.0-0.0","61588f27299f923d579de650","A3","batch1","tol_tohand","2527","","","","","","","","","","","","","","tol_peg_1","2527","2527","0","[[1,0,0],[3,0],[0]]","1","[[2,1,3],[0,0],[0]]","1","0","","","","","","5"
"","","","","","single-stim-button","334","1366065","0.0-4.0-13.0-1.0","61588f27299f923d579de650","A3","batch1","tol_toboard","2270","","","","","","","","","","","","","","tol_peg_3","2270","2270","0","[[1,0,0],[3,0],[2]]","1","[[2,1,3],[0,0],[0]]","1","0","","","","","","5"
"","","","","","single-stim-button","335","1370131","0.0-4.0-13.1-0.1","61588f27299f923d579de650","A3","batch1","tol_tohand","4066","","","","","","","","","","","","","","tol_peg_1","4066","4066","0","[[0,0,0],[3,0],[2]]","2","[[2,1,3],[0,0],[0]]","1","0","","","","","","5"
"","","","","","single-stim-button","336","1371620","0.0-4.0-13.1-1.1","61588f27299f923d579de650","A3","batch1","tol_toboard","1488","","","","","","","","","","","","","","tol_peg_2","1488","1488","0","[[0,0,0],[3,1],[2]]","2","[[2,1,3],[0,0],[0]]","1","0","","","","","","5"
"","","","","","single-stim-button","337","1372361","0.0-4.0-13.2-0.2","61588f27299f923d579de650","A3","batch1","tol_tohand","741","","","","","","","","","","","","","","tol_peg_3","741","741","0","[[0,0,0],[3,1],[0]]","3","[[2,1,3],[0,0],[0]]","1","0","","","","","","5"
"","","","","","single-stim-button","338","1373501","0.0-4.0-13.2-1.2","61588f27299f923d579de650","A3","batch1","tol_toboard","1139","","","","","","","","","","","","","","tol_peg_1","1139","1139","0","[[2,0,0],[3,1],[0]]","3","[[2,1,3],[0,0],[0]]","1","0","","","","","","5"
"","","","","","single-stim-button","339","1375713","0.0-4.0-13.3-0.3","61588f27299f923d579de650","A3","batch1","tol_tohand","2210","","","","","","","","","","","","","","tol_peg_2","2210","2210","0","[[2,0,0],[3,0],[0]]","4","[[2,1,3],[0,0],[0]]","1","0","","","","","","5"
"","","","","","single-stim-button","340","1376455","0.0-4.0-13.3-1.3","61588f27299f923d579de650","A3","batch1","tol_toboard","742","","","","","","","","","","","","","","tol_peg_1","742","742","0","[[2,1,0],[3,0],[0]]","4","[[2,1,3],[0,0],[0]]","1","0","","","","","","5"
"","","","","","single-stim-button","341","1377526","0.0-4.0-13.4-0.4","61588f27299f923d579de650","A3","batch1","tol_tohand","1069","","","","","","","","","","","","","","tol_peg_2","1069","1069","0","[[2,1,0],[0,0],[0]]","5","[[2,1,3],[0,0],[0]]","1","0","","","","","","5"
"","","","","","single-stim-button","342","1378281","0.0-4.0-13.4-1.4","61588f27299f923d579de650","A3","batch1","tol_toboard","755","","","","","","","","","","","","","","tol_peg_1","755","755","0","[[2,1,3],[0,0],[0]]","5","[[2,1,3],[0,0],[0]]","1","0","","","","","","5"
"","","","","","poldrack-single-stim","343","1379289","0.0-4.0-14.0","61588f27299f923d579de650","A3","batch1","tol_feedback","-1","","","","","true","","","","","","","","","","1000","1000","500","","","","","","-1","none","true","2527","10613",""
"","","","","","html-button-response","344","1380116","0.0-4.0-15.0","61588f27299f923d579de650","A3","batch1","tol_trial_num","826.9000000059605","<div class = centerbox><p class = center-block-text>problem <strong>3</strong> out of 25 problems</p></div>","0","","","","","","","","","","","","","","","","","","","","","","","","","",""
"","","","","","single-stim-button","345","1382539","0.0-4.0-16.0-0.0","61588f27299f923d579de650","A3","batch1","tol_tohand","2422","","","","","","","","","","","","","","tol_peg_1","2422","2422","0","[[2,0,0],[0,0],[1]]","1","[[1,2,0],[3,0],[0]]","2","0","","","","","","4"
"","","","","","single-stim-button","346","1384129","0.0-4.0-16.0-1.0","61588f27299f923d579de650","A3","batch1","tol_toboard","1590","","","","","","","","","","","","","","tol_peg_2","1590","1590","0","[[2,0,0],[3,0],[1]]","1","[[1,2,0],[3,0],[0]]","2","0","","","","","","4"
