"success","timeout","failed_images","failed_audio","failed_video","trial_type","trial_index","time_elapsed","internal_node_id","subject_id","study_id","session_id","view_history","rt","task","stimulus","response","correct","mouse_click","stim_duration","block_duration","timing_post_trial","current_position","tol_num_moves_made","tol_target","tol_problem_id","tol_rt","key_press","possible_responses","tol_correct","preplanning","tol_rt_per_trial","tol_min_moves","answer","item","fiar_detect_rt","fiar_detect_correct","total_correct_fiar_detect","post_trial_gap","choices","spm_correct","spm_rt"
"true","false","[]","[]","[]","preload","0","4503","0.0-0.0","615c777509f34c8977bc45a7","D2","batch4","","","","","","","","","","","","","","","","","","","","","","","","","","","","","",""
"true","","","","","fullscreen","1","14742","0.0-1.0-0.0","615c777509f34c8977bc45a7","D2","batch4","","","","","","","","","","","","","","","","","","","","","","","","","","","","","",""
"true","","","","","fullscreen","2","17726","0.0-2.0-0.0","615c777509f34c8977bc45a7","D2","batch4","","","","","","","","","","","","","","","","","","","","","","","","","","","","","",""
"","","","","","instructions","3","70908","0.0-2.0-1.0-0.0-0.0","615c777509f34c8977bc45a7","D2","batch4","[{""page_index"":0,""viewing_time"":10815.19999999972},{""page_index"":1,""viewing_time"":5383.700000000186},{""page_index"":2,""viewing_time"":4730.100000000093},{""page_index"":3,""viewing_time"":6716},{""page_index"":4,""viewing_time"":8427.100000000093},{""page_index"":5,""viewing_time"":14178.5},{""page_index"":6,""viewing_time"":2929.6999999997206}]","53180.60000000009","tol-instructions","","","","","","","","","","","","","","","","","","","","","","","","","","",""
"","","","","","html-button-response","4","71944","0.0-2.0-1.0-1.0-0.0","615c777509f34c8977bc45a7","D2","batch4","","1035.3999999999069","tol_enter_quiz","<p class=block-text> Let's answer a few questions <br>","0","","","","","","","","","","","","","","","","","","","","","","","","",""
"","","","","","html-button-response","5","78760","0.0-2.0-1.0-1.0-1.0","615c777509f34c8977bc45a7","D2","batch4","","6814.5","tol_quiz","<p class = block-text>True or False: You can only move the ball on top of a peg. <br></p>","0","true","","","","","","","","","","","","","","","","","","","","","","","",""
"","","","","","html-button-response","6","79670","0.0-2.0-1.0-1.0-2.0","615c777509f34c8977bc45a7","D2","batch4","","908.1000000000931","tol_quiz_feedback","<p class = block-text>Correct! You can only move the ball on top of a peg.</p>","0","","","","","","","","","","","","","","","","","","","","","","","","",""
"","","","","","html-button-response","7","83101","0.0-2.0-1.0-1.0-3.0","615c777509f34c8977bc45a7","D2","batch4","","3429.6999999997206","tol_quiz","<p class = block-text>True or False: You should try to match your board with the target board with fewest moves possible. <br></p>","0","true","","","","","","","","","","","","","","","","","","","","","","","",""
"","","","","","html-button-response","8","83852","0.0-2.0-1.0-1.0-4.0","615c777509f34c8977bc45a7","D2","batch4","","750.2000000001863","tol_quiz_feedback","<p class = block-text>Correct! </p>","0","","","","","","","","","","","","","","","","","","","","","","","","",""
"","","","","","html-button-response","9","84827","0.0-2.0-2.0","615c777509f34c8977bc45a7","D2","batch4","","973.7000000001863","","<p class=block-text> Now that you've understood the game, let's practice a few easier examples before we start!<br> <br>","0","","","","","","","","","","","","","","","","","","","","","","","","",""
"","","","","","single-stim-button","10","88615","0.0-2.0-3.0-0.0","615c777509f34c8977bc45a7","D2","batch4","","3786","tol_practice","","","","tol_peg_2","3786","3786","0","[[1,2,0],[0,0],[0]]","1","[[1,2,0],[0,0],[3]]","practice","3786","","","","","","","","","","","","","","",""
"","","","","","single-stim-button","11","89783","0.0-2.0-3.0-1.0","615c777509f34c8977bc45a7","D2","batch4","","1167","tol_practice","","","","tol_peg_3","1167","1167","0","[[1,2,0],[0,0],[3]]","1","[[1,2,0],[0,0],[3]]","practice","1167","","","","","","","","","","","","","","",""
"","","","","","poldrack-single-stim","12","90790","0.0-2.0-4.0","615c777509f34c8977bc45a7","D2","batch4","","-1","tol_feedback","","","true","","1000","1000","500","","","","","","-1","none","true","","0","","","","","","","","","",""
"","","","","","single-stim-button","13","94928","0.0-2.0-5.0-0.0","615c777509f34c8977bc45a7","D2","batch4","","4136","tol_practice","","","","tol_peg_1","4136","4136","0","[[1,0,0],[3,0],[0]]","2","[[0,0,0],[3,1],[2]]","practice","4136","","","","","","","","","","","","","","",""
"","","","","","single-stim-button","14","95794","0.0-2.0-5.0-1.0","615c777509f34c8977bc45a7","D2","batch4","","865","tol_practice","","","","tol_peg_3","865","865","0","[[1,0,0],[3,0],[2]]","2","[[0,0,0],[3,1],[2]]","practice","865","","","","","","","","","","","","","","",""
"","","","","","single-stim-button","15","97044","0.0-2.0-5.1-0.1","615c777509f34c8977bc45a7","D2","batch4","","1249","tol_practice","","","","tol_peg_1","1249","1249","0","[[0,0,0],[3,0],[2]]","3","[[0,0,0],[3,1],[2]]","practice","1249","","","","","","","","","","","","","","",""
"","","","","","single-stim-button","16","98418","0.0-2.0-5.1-1.1","615c777509f34c8977bc45a7","D2","batch4","","1374","tol_practice","","","","tol_peg_2","1374","1374","0","[[0,0,0],[3,1],[2]]","3","[[0,0,0],[3,1],[2]]","practice","1374","","","","","","","","","","","","","","",""
"","","","","","poldrack-single-stim","17","99419","0.0-2.0-6.0","615c777509f34c8977bc45a7","D2","batch4","","-1","tol_feedback","","","true","","1000","1000","500","","","","","","-1","none","true","","0","","","","","","","","","",""
"","","","","","single-stim-button","18","101643","0.0-2.0-7.0-0.0","615c777509f34c8977bc45a7","D2","batch4","","2224","tol_practice","","","","tol_peg_2","2224","2224","0","[[1,2,0],[0,0],[0]]","4","[[1,0,0],[2,0],[3]]","practice","2224","","","","","","","","","","","","","","",""
"","","","","","single-stim-button","19","102493","0.0-2.0-7.0-1.0","615c777509f34c8977bc45a7","D2","batch4","","848","tol_practice","","","","tol_peg_3","848","848","0","[[1,2,0],[0,0],[3]]","4","[[1,0,0],[2,0],[3]]","practice","848","","","","","","","","","","","","","","",""
"","","","","","single-stim-button","20","103533","0.0-2.0-7.1-0.1","615c777509f34c8977bc45a7","D2","batch4","","1040","tol_practice","","","","tol_peg_1","1040","1040","0","[[1,0,0],[0,0],[3]]","5","[[1,0,0],[2,0],[3]]","practice","1040","","","","","","","","","","","","","","",""
"","","","","","single-stim-button","21","104398","0.0-2.0-7.1-1.1","615c777509f34c8977bc45a7","D2","batch4","","864","tol_practice","","","","tol_peg_2","864","864","0","[[1,0,0],[2,0],[3]]","5","[[1,0,0],[2,0],[3]]","practice","864","","","","","","","","","","","","","","",""
"","","","","","poldrack-single-stim","22","105399","0.0-2.0-8.0","615c777509f34c8977bc45a7","D2","batch4","","-1","tol_feedback","","","true","","1000","1000","500","","","","","","-1","none","true","","0","","","","","","","","","",""
"","","","","","html-button-response","23","107462","0.0-2.0-9.0","615c777509f34c8977bc45a7","D2","batch4","","2061.899999999907","tol_instruction","<div class = centerbox><p class = center-block-text>Great job! You are done with practice trials<br>You are about to start official trials.<br> <br> Problem <strong>1</strong> out of 25 problems</p></div>","0","","","","","","","","","","","","","","","","","","","","","","","","",""
"","","","","","single-stim-button","24","117922","0.0-2.0-10.0-0.0","615c777509f34c8977bc45a7","D2","batch4","","9458","tol_tohand","","","","tol_peg_1","9458","9458","0","[[1,0,0],[3,0],[0]]","1","[[1,3,0],[2,0],[0]]","0","0","","","","","","3","","","","","","","","",""
"","","","","","single-stim-button","25","122357","0.0-2.0-10.0-1.0","615c777509f34c8977bc45a7","D2","batch4","","4435","tol_toboard","","","","tol_peg_3","4435","4435","0","[[1,0,0],[3,0],[2]]","1","[[1,3,0],[2,0],[0]]","0","0","","","","","","3","","","","","","","","",""
"","","","","","single-stim-button","26","123587","0.0-2.0-10.1-0.1","615c777509f34c8977bc45a7","D2","batch4","","1229","tol_tohand","","","","tol_peg_2","1229","1229","0","[[1,0,0],[0,0],[2]]","2","[[1,3,0],[2,0],[0]]","0","0","","","","","","3","","","","","","","","",""
"","","","","","single-stim-button","27","124258","0.0-2.0-10.1-1.1","615c777509f34c8977bc45a7","D2","batch4","","669","tol_toboard","","","","tol_peg_1","669","669","0","[[1,3,0],[0,0],[2]]","2","[[1,3,0],[2,0],[0]]","0","0","","","","","","3","","","","","","","","",""
"","","","","","single-stim-button","28","126434","0.0-2.0-10.2-0.2","615c777509f34c8977bc45a7","D2","batch4","","2175","tol_tohand","","","","tol_peg_3","2175","2175","0","[[1,3,0],[0,0],[0]]","3","[[1,3,0],[2,0],[0]]","0","0","","","","","","3","","","","","","","","",""
"","","","","","single-stim-button","29","127043","0.0-2.0-10.2-1.2","615c777509f34c8977bc45a7","D2","batch4","","608","tol_toboard","","","","tol_peg_2","608","608","0","[[1,3,0],[2,0],[0]]","3","[[1,3,0],[2,0],[0]]","0","0","","","","","","3","","","","","","","","",""
"","","","","","poldrack-single-stim","30","128044","0.0-2.0-11.0","615c777509f34c8977bc45a7","D2","batch4","","-1","tol_feedback","","","true","","1000","1000","500","","","","","","-1","none","true","9458","12862","","","","","","","","","",""
"","","","","","html-button-response","31","129023","0.0-2.0-12.0","615c777509f34c8977bc45a7","D2","batch4","","978","tol_trial_num","<div class = centerbox><p class = center-block-text>problem <strong>2</strong> out of 25 problems</p></div>","0","","","","","","","","","","","","","","","","","","","","","","","","",""
"","","","","","single-stim-button","32","136836","0.0-2.0-13.0-0.0","615c777509f34c8977bc45a7","D2","batch4","","7812","tol_tohand","","","","tol_peg_1","7812","7812","0","[[1,0,0],[3,0],[0]]","1","[[2,1,3],[0,0],[0]]","1","0","","","","","","5","","","","","","","","",""
"","","","","","single-stim-button","33","137805","0.0-2.0-13.0-1.0","615c777509f34c8977bc45a7","D2","batch4","","969","tol_toboard","","","","tol_peg_3","969","969","0","[[1,0,0],[3,0],[2]]","1","[[2,1,3],[0,0],[0]]","1","0","","","","","","5","","","","","","","","",""
"","","","","","single-stim-button","34","139514","0.0-2.0-13.1-0.1","615c777509f34c8977bc45a7","D2","batch4","","1709","tol_tohand","","","","tol_peg_1","1709","1709","0","[[0,0,0],[3,0],[2]]","2","[[2,1,3],[0,0],[0]]","1","0","","","","","","5","","","","","","","","",""
"","","","","","single-stim-button","35","140341","0.0-2.0-13.1-1.1","615c777509f34c8977bc45a7","D2","batch4","","827","tol_toboard","","","","tol_peg_2","827","827","0","[[0,0,0],[3,1],[2]]","2","[[2,1,3],[0,0],[0]]","1","0","","","","","","5","","","","","","","","",""
"","","","","","single-stim-button","36","141499","0.0-2.0-13.2-0.2","615c777509f34c8977bc45a7","D2","batch4","","1158","tol_tohand","","","","tol_peg_3","1158","1158","0","[[0,0,0],[3,1],[0]]","3","[[2,1,3],[0,0],[0]]","1","0","","","","","","5","","","","","","","","",""
"","","","","","single-stim-button","37","142401","0.0-2.0-13.2-1.2","615c777509f34c8977bc45a7","D2","batch4","","902","tol_toboard","","","","tol_peg_1","902","902","0","[[2,0,0],[3,1],[0]]","3","[[2,1,3],[0,0],[0]]","1","0","","","","","","5","","","","","","","","",""
"","","","","","single-stim-button","38","147149","0.0-2.0-13.3-0.3","615c777509f34c8977bc45a7","D2","batch4","","4746","tol_tohand","","","","tol_peg_2","4746","4746","0","[[2,0,0],[3,0],[0]]","4","[[2,1,3],[0,0],[0]]","1","0","","","","","","5","","","","","","","","",""
"","","","","","single-stim-button","39","148125","0.0-2.0-13.3-1.3","615c777509f34c8977bc45a7","D2","batch4","","975","tol_toboard","","","","tol_peg_3","975","975","0","[[2,0,0],[3,0],[1]]","4","[[2,1,3],[0,0],[0]]","1","0","","","","","","5","","","","","","","","",""
"","","","","","single-stim-button","40","148540","0.0-2.0-13.4-0.4","615c777509f34c8977bc45a7","D2","batch4","","414","tol_tohand","","","","tol_peg_2","414","414","0","[[2,0,0],[0,0],[1]]","5","[[2,1,3],[0,0],[0]]","1","0","","","","","","5","","","","","","","","",""
"","","","","","single-stim-button","41","149156","0.0-2.0-13.4-1.4","615c777509f34c8977bc45a7","D2","batch4","","616","tol_toboard","","","","tol_peg_1","616","616","0","[[2,3,0],[0,0],[1]]","5","[[2,1,3],[0,0],[0]]","1","0","","","","","","5","","","","","","","","",""
"","","","","","single-stim-button","42","149745","0.0-2.0-13.5-0.5","615c777509f34c8977bc45a7","D2","batch4","","588","tol_tohand","","","","tol_peg_3","588","588","0","[[2,3,0],[0,0],[0]]","6","[[2,1,3],[0,0],[0]]","1","0","","","","","","5","","","","","","","","",""
"","","","","","single-stim-button","43","150355","0.0-2.0-13.5-1.5","615c777509f34c8977bc45a7","D2","batch4","","608","tol_toboard","","","","tol_peg_1","608","608","0","[[2,3,1],[0,0],[0]]","6","[[2,1,3],[0,0],[0]]","1","0","","","","","","5","","","","","","","","",""
"","","","","","single-stim-button","44","154350","0.0-2.0-13.6-0.6","615c777509f34c8977bc45a7","D2","batch4","","3994","tol_tohand","","","","tol_peg_1","3994","3994","0","[[2,3,0],[0,0],[0]]","7","[[2,1,3],[0,0],[0]]","1","0","","","","","","5","","","","","","","","",""
"","","","","","single-stim-button","45","154815","0.0-2.0-13.6-1.6","615c777509f34c8977bc45a7","D2","batch4","","465","tol_toboard","","","","tol_peg_1","465","465","0","[[2,3,1],[0,0],[0]]","7","[[2,1,3],[0,0],[0]]","1","0","","","","","","5","","","","","","","","",""
"","","","","","single-stim-button","46","155754","0.0-2.0-13.7-0.7","615c777509f34c8977bc45a7","D2","batch4","","939","tol_tohand","","","","tol_peg_1","939","939","0","[[2,3,0],[0,0],[0]]","8","[[2,1,3],[0,0],[0]]","1","0","","","","","","5","","","","","","","","",""
"","","","","","single-stim-button","47","156670","0.0-2.0-13.7-1.7","615c777509f34c8977bc45a7","D2","batch4","","916","tol_toboard","","","","tol_peg_3","916","916","0","[[2,3,0],[0,0],[1]]","8","[[2,1,3],[0,0],[0]]","1","0","","","","","","5","","","","","","","","",""
"","","","","","single-stim-button","48","157320","0.0-2.0-13.8-0.8","615c777509f34c8977bc45a7","D2","batch4","","649","tol_tohand","","","","tol_peg_1","649","649","0","[[2,0,0],[0,0],[1]]","9","[[2,1,3],[0,0],[0]]","1","0","","","","","","5","","","","","","","","",""
"","","","","","single-stim-button","49","158096","0.0-2.0-13.8-1.8","615c777509f34c8977bc45a7","D2","batch4","","776","tol_toboard","","","","tol_peg_2","776","776","0","[[2,0,0],[3,0],[1]]","9","[[2,1,3],[0,0],[0]]","1","0","","","","","","5","","","","","","","","",""
"","","","","","single-stim-button","50","158888","0.0-2.0-13.9-0.9","615c777509f34c8977bc45a7","D2","batch4","","792","tol_tohand","","","","tol_peg_3","792","792","0","[[2,0,0],[3,0],[0]]","10","[[2,1,3],[0,0],[0]]","1","0","","","","","","5","","","","","","","","",""
"","","","","","single-stim-button","51","159536","0.0-2.0-13.9-1.9","615c777509f34c8977bc45a7","D2","batch4","","648","tol_toboard","","","","tol_peg_1","648","648","0","[[2,1,0],[3,0],[0]]","10","[[2,1,3],[0,0],[0]]","1","0","","","","","","5","","","","","","","","",""
"","","","","","single-stim-button","52","160027","0.0-2.0-13.10-0.10","615c777509f34c8977bc45a7","D2","batch4","","491","tol_tohand","","","","tol_peg_2","491","491","0","[[2,1,0],[0,0],[0]]","11","[[2,1,3],[0,0],[0]]","1","0","","","","","","5","","","","","","","","",""
"","","","","","single-stim-button","53","161057","0.0-2.0-13.10-1.10","615c777509f34c8977bc45a7","D2","batch4","","1030","tol_toboard","","","","tol_peg_1","1030","1030","0","[[2,1,3],[0,0],[0]]","11","[[2,1,3],[0,0],[0]]","1","0","","","","","","5","","","","","","","","",""
"","","","","","poldrack-single-stim","54","162059","0.0-2.0-14.0","615c777509f34c8977bc45a7","D2","batch4","","-1","tol_feedback","","","true","","1000","1000","500","","","","","","-1","none","true","7812","23292","","","","","","","","","",""
"","","","","","html-button-response","55","162965","0.0-2.0-15.0","615c777509f34c8977bc45a7","D2","batch4","","905.3999999999069","tol_trial_num","<div class = centerbox><p class = center-block-text>problem <strong>3</strong> out of 25 problems</p></div>","0","","","","","","","","","","","","","","","","","","","","","","","","",""
"","","","","","single-stim-button","56","167703","0.0-2.0-16.0-0.0","615c777509f34c8977bc45a7","D2","batch4","","4737","tol_tohand","","","","tol_peg_1","4737","4737","0","[[2,0,0],[0,0],[1]]","1","[[1,2,0],[3,0],[0]]","2","0","","","","","","4","","","","","","","","",""
"","","","","","single-stim-button","57","168453","0.0-2.0-16.0-1.0","615c777509f34c8977bc45a7","D2","batch4","","750","tol_toboard","","","","tol_peg_2","750","750","0","[[2,0,0],[3,0],[1]]","1","[[1,2,0],[3,0],[0]]","2","0","","","","","","4","","","","","","","","",""
"","","","","","single-stim-button","58","170840","0.0-2.0-16.1-0.1","615c777509f34c8977bc45a7","D2","batch4","","2386","tol_tohand","","","","tol_peg_1","2386","2386","0","[[0,0,0],[3,0],[1]]","2","[[1,2,0],[3,0],[0]]","2","0","","","","","","4","","","","","","","","",""
"","","","","","single-stim-button","59","172293","0.0-2.0-16.1-1.1","615c777509f34c8977bc45a7","D2","batch4","","1452","tol_toboard","","","","tol_peg_2","1452","1452","0","[[0,0,0],[3,2],[1]]","2","[[1,2,0],[3,0],[0]]","2","0","","","","","","4","","","","","","","","",""
"","","","","","single-stim-button","60","172970","0.0-2.0-16.2-0.2","615c777509f34c8977bc45a7","D2","batch4","","676","tol_tohand","","","","tol_peg_3","676","676","0","[[0,0,0],[3,2],[0]]","3","[[1,2,0],[3,0],[0]]","2","0","","","","","","4","","","","","","","","",""
"","","","","","single-stim-button","61","173904","0.0-2.0-16.2-1.2","615c777509f34c8977bc45a7","D2","batch4","","934","tol_toboard","","","","tol_peg_1","934","934","0","[[1,0,0],[3,2],[0]]","3","[[1,2,0],[3,0],[0]]","2","0","","","","","","4","","","","","","","","",""
"","","","","","single-stim-button","62","174507","0.0-2.0-16.3-0.3","615c777509f34c8977bc45a7","D2","batch4","","603","tol_tohand","","","","tol_peg_2","603","603","0","[[1,0,0],[3,0],[0]]","4","[[1,2,0],[3,0],[0]]","2","0","","","","","","4","","","","","","","","",""
"","","","","","single-stim-button","63","175073","0.0-2.0-16.3-1.3","615c777509f34c8977bc45a7","D2","batch4","","565","tol_toboard","","","","tol_peg_1","565","565","0","[[1,2,0],[3,0],[0]]","4","[[1,2,0],[3,0],[0]]","2","0","","","","","","4","","","","","","","","",""
"","","","","","poldrack-single-stim","64","176075","0.0-2.0-17.0","615c777509f34c8977bc45a7","D2","batch4","","-1","tol_feedback","","","true","","1000","1000","500","","","","","","-1","none","true","4737","8402","","","","","","","","","",""
"","","","","","html-button-response","65","176879","0.0-2.0-18.0","615c777509f34c8977bc45a7","D2","batch4","","803","tol_trial_num","<div class = centerbox><p class = center-block-text>problem <strong>4</strong> out of 25 problems</p></div>","0","","","","","","","","","","","","","","","","","","","","","","","","",""
"","","","","","single-stim-button","66","180223","0.0-2.0-19.0-0.0","615c777509f34c8977bc45a7","D2","batch4","","3344","tol_tohand","","","","tol_peg_2","3344","3344","0","[[3,0,0],[2,0],[0]]","1","[[3,0,0],[1,0],[2]]","3","0","","","","","","3","","","","","","","","",""
"","","","","","single-stim-button","67","180733","0.0-2.0-19.0-1.0","615c777509f34c8977bc45a7","D2","batch4","","508","tol_toboard","","","","tol_peg_1","508","508","0","[[3,1,0],[2,0],[0]]","1","[[3,0,0],[1,0],[2]]","3","0","","","","","","3","","","","","","","","",""
"","","","","","single-stim-button","68","181385","0.0-2.0-19.1-0.1","615c777509f34c8977bc45a7","D2","batch4","","651","tol_tohand","","","","tol_peg_2","651","651","0","[[3,1,0],[0,0],[0]]","2","[[3,0,0],[1,0],[2]]","3","0","","","","","","3","","","","","","","","",""
"","","","","","single-stim-button","69","182292","0.0-2.0-19.1-1.1","615c777509f34c8977bc45a7","D2","batch4","","907","tol_toboard","","","","tol_peg_3","907","907","0","[[3,1,0],[0,0],[2]]","2","[[3,0,0],[1,0],[2]]","3","0","","","","","","3","","","","","","","","",""
"","","","","","single-stim-button","70","182884","0.0-2.0-19.2-0.2","615c777509f34c8977bc45a7","D2","batch4","","591","tol_tohand","","","","tol_peg_1","591","591","0","[[3,0,0],[0,0],[2]]","3","[[3,0,0],[1,0],[2]]","3","0","","","","","","3","","","","","","","","",""
"","","","","","single-stim-button","71","183510","0.0-2.0-19.2-1.2","615c777509f34c8977bc45a7","D2","batch4","","625","tol_toboard","","","","tol_peg_2","625","625","0","[[3,0,0],[1,0],[2]]","3","[[3,0,0],[1,0],[2]]","3","0","","","","","","3","","","","","","","","",""
"","","","","","poldrack-single-stim","72","184511","0.0-2.0-20.0","615c777509f34c8977bc45a7","D2","batch4","","-1","tol_feedback","","","true","","1000","1000","500","","","","","","-1","none","true","3344","4586","","","","","","","","","",""
"","","","","","html-button-response","73","185292","0.0-2.0-21.0","615c777509f34c8977bc45a7","D2","batch4","","780.5","tol_trial_num","<div class = centerbox><p class = center-block-text>problem <strong>5</strong> out of 25 problems</p></div>","0","","","","","","","","","","","","","","","","","","","","","","","","",""
"","","","","","single-stim-button","74","189887","0.0-2.0-22.0-0.0","615c777509f34c8977bc45a7","D2","batch4","","4595","tol_tohand","","","","tol_peg_2","4595","4595","0","[[1,0,0],[0,0],[3]]","1","[[0,0,0],[1,2],[3]]","4","0","","","","","","7","","","","","","","","",""
"","","","","","single-stim-button","75","198022","0.0-2.0-22.0-1.0","615c777509f34c8977bc45a7","D2","batch4","","8133","tol_toboard","","","","tol_peg_2","8133","8133","0","[[1,0,0],[2,0],[3]]","1","[[0,0,0],[1,2],[3]]","4","0","","","","","","7","","","","","","","","",""
"","","","","","single-stim-button","76","207894","0.0-2.0-22.1-0.1","615c777509f34c8977bc45a7","D2","batch4","","9871","tol_tohand","","","","tol_peg_3","9871","9871","0","[[1,0,0],[2,0],[0]]","2","[[0,0,0],[1,2],[3]]","4","0","","","","","","7","","","","","","","","",""
"","","","","","single-stim-button","77","208604","0.0-2.0-22.1-1.1","615c777509f34c8977bc45a7","D2","batch4","","709","tol_toboard","","","","tol_peg_1","709","709","0","[[1,3,0],[2,0],[0]]","2","[[0,0,0],[1,2],[3]]","4","0","","","","","","7","","","","","","","","",""
"","","","","","single-stim-button","78","211621","0.0-2.0-22.2-0.2","615c777509f34c8977bc45a7","D2","batch4","","3017","tol_tohand","","","","tol_peg_2","3017","3017","0","[[1,3,0],[0,0],[0]]","3","[[0,0,0],[1,2],[3]]","4","0","","","","","","7","","","","","","","","",""
"","","","","","single-stim-button","79","219894","0.0-2.0-22.2-1.2","615c777509f34c8977bc45a7","D2","batch4","","8273","tol_toboard","","","","tol_peg_3","8273","8273","0","[[1,3,0],[0,0],[2]]","3","[[0,0,0],[1,2],[3]]","4","0","","","","","","7","","","","","","","","",""
"","","","","","single-stim-button","80","220496","0.0-2.0-22.3-0.3","615c777509f34c8977bc45a7","D2","batch4","","601","tol_tohand","","","","tol_peg_1","601","601","0","[[1,0,0],[0,0],[2]]","4","[[0,0,0],[1,2],[3]]","4","0","","","","","","7","","","","","","","","",""
"","","","","","single-stim-button","81","221194","0.0-2.0-22.3-1.3","615c777509f34c8977bc45a7","D2","batch4","","697","tol_toboard","","","","tol_peg_2","697","697","0","[[1,0,0],[3,0],[2]]","4","[[0,0,0],[1,2],[3]]","4","0","","","","","","7","","","","","","","","",""
"","","","","","single-stim-button","82","221792","0.0-2.0-22.4-0.4","615c777509f34c8977bc45a7","D2","batch4","","597","tol_tohand","","","","tol_peg_3","597","597","0","[[1,0,0],[3,0],[0]]","5","[[0,0,0],[1,2],[3]]","4","0","","","","","","7","","","","","","","","",""
"","","","","","single-stim-button","83","222990","0.0-2.0-22.4-1.4","615c777509f34c8977bc45a7","D2","batch4","","1198","tol_toboard","","","","tol_peg_1","1198","1198","0","[[1,2,0],[3,0],[0]]","5","[[0,0,0],[1,2],[3]]","4","0","","","","","","7","","","","","","","","",""
"","","","","","single-stim-button","84","223595","0.0-2.0-22.5-0.5","615c777509f34c8977bc45a7","D2","batch4","","603","tol_tohand","","","","tol_peg_2","603","603","0","[[1,2,0],[0,0],[0]]","6","[[0,0,0],[1,2],[3]]","4","0","","","","","","7","","","","","","","","",""
"","","","","","single-stim-button","85","223947","0.0-2.0-22.5-1.5","615c777509f34c8977bc45a7","D2","batch4","","352","tol_toboard","","","","tol_peg_3","352","352","0","[[1,2,0],[0,0],[3]]","6","[[0,0,0],[1,2],[3]]","4","0","","","","","","7","","","","","","","","",""
"","","","","","single-stim-button","86","230299","0.0-2.0-22.6-0.6","615c777509f34c8977bc45a7","D2","batch4","","6352","tol_tohand","","","","tol_peg_1","6352","6352","0","[[1,0,0],[0,0],[3]]","7","[[0,0,0],[1,2],[3]]","4","0","","","","","","7","","","","","","","","",""
"","","","","","single-stim-button","87","232674","0.0-2.0-22.6-1.6","615c777509f34c8977bc45a7","D2","batch4","","2374","tol_toboard","","","","tol_peg_2","2374","2374","0","[[1,0,0],[2,0],[3]]","7","[[0,0,0],[1,2],[3]]","4","0","","","","","","7","","","","","","","","",""
"","","","","","single-stim-button","88","233215","0.0-2.0-22.7-0.7","615c777509f34c8977bc45a7","D2","batch4","","540","tol_tohand","","","","tol_peg_1","540","540","0","[[0,0,0],[2,0],[3]]","8","[[0,0,0],[1,2],[3]]","4","0","","","","","","7","","","","","","","","",""
"","","","","","single-stim-button","89","234773","0.0-2.0-22.7-1.7","615c777509f34c8977bc45a7","D2","batch4","","1558","tol_toboard","","","","tol_peg_2","1558","1558","0","[[0,0,0],[2,1],[3]]","8","[[0,0,0],[1,2],[3]]","4","0","","","","","","7","","","","","","","","",""
"","","","","","single-stim-button","90","236566","0.0-2.0-22.8-0.8","615c777509f34c8977bc45a7","D2","batch4","","1793","tol_tohand","","","","tol_peg_2","1793","1793","0","[[0,0,0],[2,0],[3]]","9","[[0,0,0],[1,2],[3]]","4","0","","","","","","7","","","","","","","","",""
"","","","","","single-stim-button","91","239579","0.0-2.0-22.8-1.8","615c777509f34c8977bc45a7","D2","batch4","","3011","tol_toboard","","","","tol_peg_1","3011","3011","0","[[1,0,0],[2,0],[3]]","9","[[0,0,0],[1,2],[3]]","4","0","","","","","","7","","","","","","","","",""
"","","","","","single-stim-button","92","240025","0.0-2.0-22.9-0.9","615c777509f34c8977bc45a7","D2","batch4","","446","tol_tohand","","","","tol_peg_3","446","446","0","[[1,0,0],[2,0],[0]]","10","[[0,0,0],[1,2],[3]]","4","0","","","","","","7","","","","","","","","",""
"","","","","","single-stim-button","93","240592","0.0-2.0-22.9-1.9","615c777509f34c8977bc45a7","D2","batch4","","567","tol_toboard","","","","tol_peg_1","567","567","0","[[1,3,0],[2,0],[0]]","10","[[0,0,0],[1,2],[3]]","4","0","","","","","","7","","","","","","","","",""
"","","","","","single-stim-button","94","241303","0.0-2.0-22.10-0.10","615c777509f34c8977bc45a7","D2","batch4","","711","tol_tohand","","","","tol_peg_2","711","711","0","[[1,3,0],[0,0],[0]]","11","[[0,0,0],[1,2],[3]]","4","0","","","","","","7","","","","","","","","",""
"","","","","","single-stim-button","95","241657","0.0-2.0-22.10-1.10","615c777509f34c8977bc45a7","D2","batch4","","353","tol_toboard","","","","tol_peg_3","353","353","0","[[1,3,0],[0,0],[2]]","11","[[0,0,0],[1,2],[3]]","4","0","","","","","","7","","","","","","","","",""
"","","","","","single-stim-button","96","246521","0.0-2.0-22.11-0.11","615c777509f34c8977bc45a7","D2","batch4","","4863","tol_tohand","","","","tol_peg_3","4863","4863","0","[[1,3,0],[0,0],[0]]","12","[[0,0,0],[1,2],[3]]","4","0","","","","","","7","","","","","","","","",""
"","","","","","single-stim-button","97","247124","0.0-2.0-22.11-1.11","615c777509f34c8977bc45a7","D2","batch4","","602","tol_toboard","","","","tol_peg_2","602","602","0","[[1,3,0],[2,0],[0]]","12","[[0,0,0],[1,2],[3]]","4","0","","","","","","7","","","","","","","","",""
"","","","","","single-stim-button","98","248095","0.0-2.0-22.12-0.12","615c777509f34c8977bc45a7","D2","batch4","","971","tol_tohand","","","","tol_peg_1","971","971","0","[[1,0,0],[2,0],[0]]","13","[[0,0,0],[1,2],[3]]","4","0","","","","","","7","","","","","","","","",""
"","","","","","single-stim-button","99","248622","0.0-2.0-22.12-1.12","615c777509f34c8977bc45a7","D2","batch4","","527","tol_toboard","","","","tol_peg_3","527","527","0","[[1,0,0],[2,0],[3]]","13","[[0,0,0],[1,2],[3]]","4","0","","","","","","7","","","","","","","","",""
"","","","","","single-stim-button","100","250570","0.0-2.0-22.13-0.13","615c777509f34c8977bc45a7","D2","batch4","","1947","tol_tohand","","","","tol_peg_2","1947","1947","0","[[1,0,0],[0,0],[3]]","14","[[0,0,0],[1,2],[3]]","4","0","","","","","","7","","","","","","","","",""
"","","","","","single-stim-button","101","252158","0.0-2.0-22.13-1.13","615c777509f34c8977bc45a7","D2","batch4","","1587","tol_toboard","","","","tol_peg_1","1587","1587","0","[[1,2,0],[0,0],[3]]","14","[[0,0,0],[1,2],[3]]","4","0","","","","","","7","","","","","","","","",""
"","","","","","single-stim-button","102","253072","0.0-2.0-22.14-0.14","615c777509f34c8977bc45a7","D2","batch4","","914","tol_tohand","","","","tol_peg_1","914","914","0","[[1,0,0],[0,0],[3]]","15","[[0,0,0],[1,2],[3]]","4","0","","","","","","7","","","","","","","","",""
"","","","","","single-stim-button","103","256010","0.0-2.0-22.14-1.14","615c777509f34c8977bc45a7","D2","batch4","","2937","tol_toboard","","","","tol_peg_2","2937","2937","0","[[1,0,0],[2,0],[3]]","15","[[0,0,0],[1,2],[3]]","4","0","","","","","","7","","","","","","","","",""
"","","","","","single-stim-button","104","260102","0.0-2.0-22.15-0.15","615c777509f34c8977bc45a7","D2","batch4","","4092","tol_tohand","","","","tol_peg_1","4092","4092","0","[[0,0,0],[2,0],[3]]","16","[[0,0,0],[1,2],[3]]","4","0","","","","","","7","","","","","","","","",""
"","","","","","single-stim-button","105","260769","0.0-2.0-22.15-1.15","615c777509f34c8977bc45a7","D2","batch4","","665","tol_toboard","","","","tol_peg_2","665","665","0","[[0,0,0],[2,1],[3]]","16","[[0,0,0],[1,2],[3]]","4","0","","","","","","7","","","","","","","","",""
"","","","","","single-stim-button","106","262875","0.0-2.0-22.16-0.16","615c777509f34c8977bc45a7","D2","batch4","","2106","tol_tohand","","","","tol_peg_2","2106","2106","0","[[0,0,0],[2,0],[3]]","17","[[0,0,0],[1,2],[3]]","4","0","","","","","","7","","","","","","","","",""
"","","","","","single-stim-button","107","265301","0.0-2.0-22.16-1.16","615c777509f34c8977bc45a7","D2","batch4","","2425","tol_toboard","","","","tol_peg_1","2425","2425","0","[[1,0,0],[2,0],[3]]","17","[[0,0,0],[1,2],[3]]","4","0","","","","","","7","","","","","","","","",""
"","","","","","single-stim-button","108","267579","0.0-2.0-22.17-0.17","615c777509f34c8977bc45a7","D2","batch4","","2277","tol_tohand","","","","tol_peg_2","2277","2277","0","[[1,0,0],[0,0],[3]]","18","[[0,0,0],[1,2],[3]]","4","0","","","","","","7","","","","","","","","",""
"","","","","","single-stim-button","109","268306","0.0-2.0-22.17-1.17","615c777509f34c8977bc45a7","D2","batch4","","727","tol_toboard","","","","tol_peg_1","727","727","0","[[1,2,0],[0,0],[3]]","18","[[0,0,0],[1,2],[3]]","4","0","","","","","","7","","","","","","","","",""
"","","","","","single-stim-button","110","268982","0.0-2.0-22.18-0.18","615c777509f34c8977bc45a7","D2","batch4","","675","tol_tohand","","","","tol_peg_3","675","675","0","[[1,2,0],[0,0],[0]]","19","[[0,0,0],[1,2],[3]]","4","0","","","","","","7","","","","","","","","",""
"","","","","","single-stim-button","111","269478","0.0-2.0-22.18-1.18","615c777509f34c8977bc45a7","D2","batch4","","495","tol_toboard","","","","tol_peg_2","495","495","0","[[1,2,0],[3,0],[0]]","19","[[0,0,0],[1,2],[3]]","4","0","","","","","","7","","","","","","","","",""
"","","","","","single-stim-button","112","270114","0.0-2.0-22.19-0.19","615c777509f34c8977bc45a7","D2","batch4","","635","tol_tohand","","","","tol_peg_1","635","635","0","[[1,0,0],[3,0],[0]]","20","[[0,0,0],[1,2],[3]]","4","0","","","","","","7","","","","","","","","",""
"","","","","","single-stim-button","113","272917","0.0-2.0-22.19-1.19","615c777509f34c8977bc45a7","D2","batch4","","2803","tol_toboard","","","","tol_peg_3","2803","2803","0","[[1,0,0],[3,0],[2]]","20","[[0,0,0],[1,2],[3]]","4","0","","","","","","7","","","","","","","","",""
"","","","","","single-stim-button","114","273475","0.0-2.0-22.20-0.20","615c777509f34c8977bc45a7","D2","batch4","","557","tol_tohand","","","","tol_peg_2","557","557","0","[[1,0,0],[0,0],[2]]","21","[[0,0,0],[1,2],[3]]","4","0","","","","","","7","","","","","","","","",""
"","","","","","single-stim-button","115","275756","0.0-2.0-22.20-1.20","615c777509f34c8977bc45a7","D2","batch4","","2280","tol_toboard","","","","tol_peg_1","2280","2280","0","[[1,3,0],[0,0],[2]]","21","[[0,0,0],[1,2],[3]]","4","0","","","","","","7","","","","","","","","",""
"","","","","","single-stim-button","116","276220","0.0-2.0-22.21-0.21","615c777509f34c8977bc45a7","D2","batch4","","464","tol_tohand","","","","tol_peg_1","464","464","0","[[1,0,0],[0,0],[2]]","22","[[0,0,0],[1,2],[3]]","4","0","","","","","","7","","","","","","","","",""
"","","","","","single-stim-button","117","277607","0.0-2.0-22.21-1.21","615c777509f34c8977bc45a7","D2","batch4","","1385","tol_toboard","","","","tol_peg_2","1385","1385","0","[[1,0,0],[3,0],[2]]","22","[[0,0,0],[1,2],[3]]","4","0","","","","","","7","","","","","","","","",""
"","","","","","single-stim-button","118","291900","0.0-2.0-22.22-0.22","615c777509f34c8977bc45a7","D2","batch4","","14293","tol_tohand","","","","tol_peg_3","14293","14293","0","[[1,0,0],[3,0],[0]]","23","[[0,0,0],[1,2],[3]]","4","0","","","","","","7","","","","","","","","",""
"","","","","","single-stim-button","119","293417","0.0-2.0-22.22-1.22","615c777509f34c8977bc45a7","D2","batch4","","1516","tol_toboard","","","","tol_peg_1","1516","1516","0","[[1,2,0],[3,0],[0]]","23","[[0,0,0],[1,2],[3]]","4","0","","","","","","7","","","","","","","","",""
"","","","","","single-stim-button","120","295244","0.0-2.0-22.23-0.23","615c777509f34c8977bc45a7","D2","batch4","","1826","tol_tohand","","","","tol_peg_2","1826","1826","0","[[1,2,0],[0,0],[0]]","24","[[0,0,0],[1,2],[3]]","4","0","","","","","","7","","","","","","","","",""
"","","","","","single-stim-button","121","296162","0.0-2.0-22.23-1.23","615c777509f34c8977bc45a7","D2","batch4","","918","tol_toboard","","","","tol_peg_3","918","918","0","[[1,2,0],[0,0],[3]]","24","[[0,0,0],[1,2],[3]]","4","0","","","","","","7","","","","","","","","",""
"","","","","","single-stim-button","122","302533","0.0-2.0-22.24-0.24","615c777509f34c8977bc45a7","D2","batch4","","6371","tol_tohand","","","","tol_peg_3","6371","6371","0","[[1,2,0],[0,0],[0]]","25","[[0,0,0],[1,2],[3]]","4","0","","","","","","7","","","","","","","","",""
"","","","","","single-stim-button","123","303157","0.0-2.0-22.24-1.24","615c777509f34c8977bc45a7","D2","batch4","","623","tol_toboard","","","","tol_peg_2","623","623","0","[[1,2,0],[3,0],[0]]","25","[[0,0,0],[1,2],[3]]","4","0","","","","","","7","","","","","","","","",""
"","","","","","single-stim-button","124","303661","0.0-2.0-22.25-0.25","615c777509f34c8977bc45a7","D2","batch4","","503","tol_tohand","","","","tol_peg_1","503","503","0","[[1,0,0],[3,0],[0]]","26","[[0,0,0],[1,2],[3]]","4","0","","","","","","7","","","","","","","","",""
"","","","","","single-stim-button","125","304254","0.0-2.0-22.25-1.25","615c777509f34c8977bc45a7","D2","batch4","","591","tol_toboard","","","","tol_peg_2","591","591","0","[[1,0,0],[3,2],[0]]","26","[[0,0,0],[1,2],[3]]","4","0","","","","","","7","","","","","","","","",""
"","","","","","single-stim-button","126","304942","0.0-2.0-22.26-0.26","615c777509f34c8977bc45a7","D2","batch4","","688","tol_tohand","","","","tol_peg_1","688","688","0","[[0,0,0],[3,2],[0]]","27","[[0,0,0],[1,2],[3]]","4","0","","","","","","7","","","","","","","","",""
"","","","","","single-stim-button","127","305479","0.0-2.0-22.26-1.26","615c777509f34c8977bc45a7","D2","batch4","","537","tol_toboard","","","","tol_peg_3","537","537","0","[[0,0,0],[3,2],[1]]","27","[[0,0,0],[1,2],[3]]","4","0","","","","","","7","","","","","","","","",""
"","","","","","single-stim-button","128","309585","0.0-2.0-22.27-0.27","615c777509f34c8977bc45a7","D2","batch4","","4105","tol_tohand","","","","tol_peg_2","4105","4105","0","[[0,0,0],[3,0],[1]]","28","[[0,0,0],[1,2],[3]]","4","0","","","","","","7","","","","","","","","",""
"","","","","","single-stim-button","129","310260","0.0-2.0-22.27-1.27","615c777509f34c8977bc45a7","D2","batch4","","674","tol_toboard","","","","tol_peg_1","674","674","0","[[2,0,0],[3,0],[1]]","28","[[0,0,0],[1,2],[3]]","4","0","","","","","","7","","","","","","","","",""
"","","","","","single-stim-button","130","310653","0.0-2.0-22.28-0.28","615c777509f34c8977bc45a7","D2","batch4","","393","tol_tohand","","","","tol_peg_2","393","393","0","[[2,0,0],[0,0],[1]]","29","[[0,0,0],[1,2],[3]]","4","0","","","","","","7","","","","","","","","",""
"","","","","","single-stim-button","131","311503","0.0-2.0-22.28-1.28","615c777509f34c8977bc45a7","D2","batch4","","850","tol_toboard","","","","tol_peg_1","850","850","0","[[2,3,0],[0,0],[1]]","29","[[0,0,0],[1,2],[3]]","4","0","","","","","","7","","","","","","","","",""
"","","","","","single-stim-button","132","312257","0.0-2.0-22.29-0.29","615c777509f34c8977bc45a7","D2","batch4","","754","tol_tohand","","","","tol_peg_3","754","754","0","[[2,3,0],[0,0],[0]]","30","[[0,0,0],[1,2],[3]]","4","0","","","","","","7","","","","","","","","",""
"","","","","","single-stim-button","133","312705","0.0-2.0-22.29-1.29","615c777509f34c8977bc45a7","D2","batch4","","447","tol_toboard","","","","tol_peg_2","447","447","0","[[2,3,0],[1,0],[0]]","30","[[0,0,0],[1,2],[3]]","4","0","","","","","","7","","","","","","","","",""
"","","","","","single-stim-button","134","313146","0.0-2.0-22.30-0.30","615c777509f34c8977bc45a7","D2","batch4","","441","tol_tohand","","","","tol_peg_1","441","441","0","[[2,0,0],[1,0],[0]]","31","[[0,0,0],[1,2],[3]]","4","0","","","","","","7","","","","","","","","",""
"","","","","","single-stim-button","135","313836","0.0-2.0-22.30-1.30","615c777509f34c8977bc45a7","D2","batch4","","690","tol_toboard","","","","tol_peg_3","690","690","0","[[2,0,0],[1,0],[3]]","31","[[0,0,0],[1,2],[3]]","4","0","","","","","","7","","","","","","","","",""
"","","","","","single-stim-button","136","314489","0.0-2.0-22.31-0.31","615c777509f34c8977bc45a7","D2","batch4","","653","tol_tohand","","","","tol_peg_1","653","653","0","[[0,0,0],[1,0],[3]]","32","[[0,0,0],[1,2],[3]]","4","0","","","","","","7","","","","","","","","",""
"","","","","","single-stim-button","137","314851","0.0-2.0-22.31-1.31","615c777509f34c8977bc45a7","D2","batch4","","361","tol_toboard","","","","tol_peg_2","361","361","0","[[0,0,0],[1,2],[3]]","32","[[0,0,0],[1,2],[3]]","4","0","","","","","","7","","","","","","","","",""
"","","","","","poldrack-single-stim","138","315852","0.0-2.0-23.0","615c777509f34c8977bc45a7","D2","batch4","","-1","tol_feedback","","","true","","1000","1000","500","","","","","","-1","none","true","4595","78654","","","","","","","","","",""
"","","","","","html-button-response","139","316854","0.0-2.0-24.0","615c777509f34c8977bc45a7","D2","batch4","","1000.7000000001863","tol_trial_num","<div class = centerbox><p class = center-block-text>problem <strong>6</strong> out of 25 problems</p></div>","0","","","","","","","","","","","","","","","","","","","","","","","","",""
"","","","","","single-stim-button","140","325317","0.0-2.0-25.0-0.0","615c777509f34c8977bc45a7","D2","batch4","","8463","tol_tohand","","","","tol_peg_2","8463","8463","0","[[0,0,0],[1,0],[3]]","1","[[1,0,0],[2,3],[0]]","5","0","","","","","","6","","","","","","","","",""
"","","","","","single-stim-button","141","326595","0.0-2.0-25.0-1.0","615c777509f34c8977bc45a7","D2","batch4","","1277","tol_toboard","","","","tol_peg_1","1277","1277","0","[[2,0,0],[1,0],[3]]","1","[[1,0,0],[2,3],[0]]","5","0","","","","","","6","","","","","","","","",""
"","","","","","single-stim-button","142","332050","0.0-2.0-25.1-0.1","615c777509f34c8977bc45a7","D2","batch4","","5453","tol_tohand","","","","tol_peg_3","5453","5453","0","[[2,0,0],[1,0],[0]]","2","[[1,0,0],[2,3],[0]]","5","0","","","","","","6","","","","","","","","",""
"","","","","","single-stim-button","143","332815","0.0-2.0-25.1-1.1","615c777509f34c8977bc45a7","D2","batch4","","764","tol_toboard","","","","tol_peg_1","764","764","0","[[2,3,0],[1,0],[0]]","2","[[1,0,0],[2,3],[0]]","5","0","","","","","","6","","","","","","","","",""
"","","","","","single-stim-button","144","333958","0.0-2.0-25.2-0.2","615c777509f34c8977bc45a7","D2","batch4","","1142","tol_tohand","","","","tol_peg_2","1142","1142","0","[[2,3,0],[0,0],[0]]","3","[[1,0,0],[2,3],[0]]","5","0","","","","","","6","","","","","","","","",""
"","","","","","single-stim-button","145","334626","0.0-2.0-25.2-1.2","615c777509f34c8977bc45a7","D2","batch4","","667","tol_toboard","","","","tol_peg_3","667","667","0","[[2,3,0],[0,0],[1]]","3","[[1,0,0],[2,3],[0]]","5","0","","","","","","6","","","","","","","","",""
"","","","","","single-stim-button","146","339426","0.0-2.0-25.3-0.3","615c777509f34c8977bc45a7","D2","batch4","","4800","tol_tohand","","","","tol_peg_3","4800","4800","0","[[2,3,0],[0,0],[0]]","4","[[1,0,0],[2,3],[0]]","5","0","","","","","","6","","","","","","","","",""
"","","","","","single-stim-button","147","340024","0.0-2.0-25.3-1.3","615c777509f34c8977bc45a7","D2","batch4","","597","tol_toboard","","","","tol_peg_2","597","597","0","[[2,3,0],[1,0],[0]]","4","[[1,0,0],[2,3],[0]]","5","0","","","","","","6","","","","","","","","",""
"","","","","","single-stim-button","148","342608","0.0-2.0-25.4-0.4","615c777509f34c8977bc45a7","D2","batch4","","2583","tol_tohand","","","","tol_peg_1","2583","2583","0","[[2,0,0],[1,0],[0]]","5","[[1,0,0],[2,3],[0]]","5","0","","","","","","6","","","","","","","","",""
"","","","","","single-stim-button","149","343319","0.0-2.0-25.4-1.4","615c777509f34c8977bc45a7","D2","batch4","","711","tol_toboard","","","","tol_peg_2","711","711","0","[[2,0,0],[1,3],[0]]","5","[[1,0,0],[2,3],[0]]","5","0","","","","","","6","","","","","","","","",""
"","","","","","single-stim-button","150","344548","0.0-2.0-25.5-0.5","615c777509f34c8977bc45a7","D2","batch4","","1229","tol_tohand","","","","tol_peg_1","1229","1229","0","[[0,0,0],[1,3],[0]]","6","[[1,0,0],[2,3],[0]]","5","0","","","","","","6","","","","","","","","",""
"","","","","","single-stim-button","151","345361","0.0-2.0-25.5-1.5","615c777509f34c8977bc45a7","D2","batch4","","811","tol_toboard","","","","tol_peg_3","811","811","0","[[0,0,0],[1,3],[2]]","6","[[1,0,0],[2,3],[0]]","5","0","","","","","","6","","","","","","","","",""
"","","","","","single-stim-button","152","345835","0.0-2.0-25.6-0.6","615c777509f34c8977bc45a7","D2","batch4","","473","tol_tohand","","","","tol_peg_2","473","473","0","[[0,0,0],[1,0],[2]]","7","[[1,0,0],[2,3],[0]]","5","0","","","","","","6","","","","","","","","",""
"","","","","","single-stim-button","153","348390","0.0-2.0-25.6-1.6","615c777509f34c8977bc45a7","D2","batch4","","2555","tol_toboard","","","","tol_peg_1","2555","2555","0","[[3,0,0],[1,0],[2]]","7","[[1,0,0],[2,3],[0]]","5","0","","","","","","6","","","","","","","","",""
"","","","","","single-stim-button","154","349425","0.0-2.0-25.7-0.7","615c777509f34c8977bc45a7","D2","batch4","","1033","tol_tohand","","","","tol_peg_2","1033","1033","0","[[3,0,0],[0,0],[2]]","8","[[1,0,0],[2,3],[0]]","5","0","","","","","","6","","","","","","","","",""
"","","","","","single-stim-button","155","350926","0.0-2.0-25.7-1.7","615c777509f34c8977bc45a7","D2","batch4","","1501","tol_toboard","","","","tol_peg_1","1501","1501","0","[[3,1,0],[0,0],[2]]","8","[[1,0,0],[2,3],[0]]","5","0","","","","","","6","","","","","","","","",""
"","","","","","single-stim-button","156","352786","0.0-2.0-25.8-0.8","615c777509f34c8977bc45a7","D2","batch4","","1859","tol_tohand","","","","tol_peg_1","1859","1859","0","[[3,0,0],[0,0],[2]]","9","[[1,0,0],[2,3],[0]]","5","0","","","","","","6","","","","","","","","",""
"","","","","","single-stim-button","157","353544","0.0-2.0-25.8-1.8","615c777509f34c8977bc45a7","D2","batch4","","757","tol_toboard","","","","tol_peg_1","757","757","0","[[3,1,0],[0,0],[2]]","9","[[1,0,0],[2,3],[0]]","5","0","","","","","","6","","","","","","","","",""
"","","","","","single-stim-button","158","357805","0.0-2.0-25.9-0.9","615c777509f34c8977bc45a7","D2","batch4","","4261","tol_tohand","","","","tol_peg_3","4261","4261","0","[[3,1,0],[0,0],[0]]","10","[[1,0,0],[2,3],[0]]","5","0","","","","","","6","","","","","","","","",""
"","","","","","single-stim-button","159","358319","0.0-2.0-25.9-1.9","615c777509f34c8977bc45a7","D2","batch4","","513","tol_toboard","","","","tol_peg_2","513","513","0","[[3,1,0],[2,0],[0]]","10","[[1,0,0],[2,3],[0]]","5","0","","","","","","6","","","","","","","","",""
"","","","","","single-stim-button","160","361391","0.0-2.0-25.10-0.10","615c777509f34c8977bc45a7","D2","batch4","","3071","tol_tohand","","","","tol_peg_1","3071","3071","0","[[3,0,0],[2,0],[0]]","11","[[1,0,0],[2,3],[0]]","5","0","","","","","","6","","","","","","","","",""
"","","","","","single-stim-button","161","365251","0.0-2.0-25.10-1.10","615c777509f34c8977bc45a7","D2","batch4","","3859","tol_toboard","","","","tol_peg_3","3859","3859","0","[[3,0,0],[2,0],[1]]","11","[[1,0,0],[2,3],[0]]","5","0","","","","","","6","","","","","","","","",""
"","","","","","single-stim-button","162","371714","0.0-2.0-25.11-0.11","615c777509f34c8977bc45a7","D2","batch4","","6462","tol_tohand","","","","tol_peg_2","6462","6462","0","[[3,0,0],[0,0],[1]]","12","[[1,0,0],[2,3],[0]]","5","0","","","","","","6","","","","","","","","",""
"","","","","","single-stim-button","163","372174","0.0-2.0-25.11-1.11","615c777509f34c8977bc45a7","D2","batch4","","460","tol_toboard","","","","tol_peg_1","460","460","0","[[3,2,0],[0,0],[1]]","12","[[1,0,0],[2,3],[0]]","5","0","","","","","","6","","","","","","","","",""
"","","","","","single-stim-button","164","374179","0.0-2.0-25.12-0.12","615c777509f34c8977bc45a7","D2","batch4","","2004","tol_tohand","","","","tol_peg_3","2004","2004","0","[[3,2,0],[0,0],[0]]","13","[[1,0,0],[2,3],[0]]","5","0","","","","","","6","","","","","","","","",""
"","","","","","single-stim-button","165","374738","0.0-2.0-25.12-1.12","615c777509f34c8977bc45a7","D2","batch4","","558","tol_toboard","","","","tol_peg_2","558","558","0","[[3,2,0],[1,0],[0]]","13","[[1,0,0],[2,3],[0]]","5","0","","","","","","6","","","","","","","","",""
"","","","","","single-stim-button","166","375158","0.0-2.0-25.13-0.13","615c777509f34c8977bc45a7","D2","batch4","","419","tol_tohand","","","","tol_peg_1","419","419","0","[[3,0,0],[1,0],[0]]","14","[[1,0,0],[2,3],[0]]","5","0","","","","","","6","","","","","","","","",""
"","","","","","single-stim-button","167","375730","0.0-2.0-25.13-1.13","615c777509f34c8977bc45a7","D2","batch4","","572","tol_toboard","","","","tol_peg_3","572","572","0","[[3,0,0],[1,0],[2]]","14","[[1,0,0],[2,3],[0]]","5","0","","","","","","6","","","","","","","","",""
"","","","","","single-stim-button","168","381070","0.0-2.0-25.14-0.14","615c777509f34c8977bc45a7","D2","batch4","","5340","tol_tohand","","","","tol_peg_2","5340","5340","0","[[3,0,0],[0,0],[2]]","15","[[1,0,0],[2,3],[0]]","5","0","","","","","","6","","","","","","","","",""
"","","","","","single-stim-button","169","382156","0.0-2.0-25.14-1.14","615c777509f34c8977bc45a7","D2","batch4","","1085","tol_toboard","","","","tol_peg_1","1085","1085","0","[[3,1,0],[0,0],[2]]","15","[[1,0,0],[2,3],[0]]","5","0","","","","","","6","","","","","","","","",""
"","","","","","single-stim-button","170","385410","0.0-2.0-25.15-0.15","615c777509f34c8977bc45a7","D2","batch4","","3253","tol_tohand","","","","tol_peg_3","3253","3253","0","[[3,1,0],[0,0],[0]]","16","[[1,0,0],[2,3],[0]]","5","0","","","","","","6","","","","","","","","",""
"","","","","","single-stim-button","171","386583","0.0-2.0-25.15-1.15","615c777509f34c8977bc45a7","D2","batch4","","1172","tol_toboard","","","","tol_peg_2","1172","1172","0","[[3,1,0],[2,0],[0]]","16","[[1,0,0],[2,3],[0]]","5","0","","","","","","6","","","","","","","","",""
"","","","","","single-stim-button","172","387306","0.0-2.0-25.16-0.16","615c777509f34c8977bc45a7","D2","batch4","","722","tol_tohand","","","","tol_peg_1","722","722","0","[[3,0,0],[2,0],[0]]","17","[[1,0,0],[2,3],[0]]","5","0","","","","","","6","","","","","","","","",""
"","","","","","single-stim-button","173","387910","0.0-2.0-25.16-1.16","615c777509f34c8977bc45a7","D2","batch4","","604","tol_toboard","","","","tol_peg_3","604","604","0","[[3,0,0],[2,0],[1]]","17","[[1,0,0],[2,3],[0]]","5","0","","","","","","6","","","","","","","","",""
"","","","","","single-stim-button","174","388498","0.0-2.0-25.17-0.17","615c777509f34c8977bc45a7","D2","batch4","","588","tol_tohand","","","","tol_peg_1","588","588","0","[[0,0,0],[2,0],[1]]","18","[[1,0,0],[2,3],[0]]","5","0","","","","","","6","","","","","","","","",""
"","","","","","single-stim-button","175","389144","0.0-2.0-25.17-1.17","615c777509f34c8977bc45a7","D2","batch4","","646","tol_toboard","","","","tol_peg_2","646","646","0","[[0,0,0],[2,3],[1]]","18","[[1,0,0],[2,3],[0]]","5","0","","","","","","6","","","","","","","","",""
"","","","","","single-stim-button","176","389665","0.0-2.0-25.18-0.18","615c777509f34c8977bc45a7","D2","batch4","","520","tol_tohand","","","","tol_peg_3","520","520","0","[[0,0,0],[2,3],[0]]","19","[[1,0,0],[2,3],[0]]","5","0","","","","","","6","","","","","","","","",""
"","","","","","single-stim-button","177","390356","0.0-2.0-25.18-1.18","615c777509f34c8977bc45a7","D2","batch4","","691","tol_toboard","","","","tol_peg_1","691","691","0","[[1,0,0],[2,3],[0]]","19","[[1,0,0],[2,3],[0]]","5","0","","","","","","6","","","","","","","","",""
"","","","","","poldrack-single-stim","178","391358","0.0-2.0-26.0","615c777509f34c8977bc45a7","D2","batch4","","-1","tol_feedback","","","true","","1000","1000","500","","","","","","-1","none","true","8463","53675","","","","","","","","","",""
"","","","","","html-button-response","179","392355","0.0-2.0-27.0","615c777509f34c8977bc45a7","D2","batch4","","996.2999999998137","tol_trial_num","<div class = centerbox><p class = center-block-text>problem <strong>7</strong> out of 25 problems</p></div>","0","","","","","","","","","","","","","","","","","","","","","","","","",""
"","","","","","single-stim-button","180","397277","0.0-2.0-28.0-0.0","615c777509f34c8977bc45a7","D2","batch4","","4922","tol_tohand","","","","tol_peg_3","4922","4922","0","[[2,1,0],[0,0],[0]]","1","[[1,2,0],[3,0],[0]]","6","0","","","","","","5","","","","","","","","",""
"","","","","","single-stim-button","181","397707","0.0-2.0-28.0-1.0","615c777509f34c8977bc45a7","D2","batch4","","428","tol_toboard","","","","tol_peg_2","428","428","0","[[2,1,0],[3,0],[0]]","1","[[1,2,0],[3,0],[0]]","6","0","","","","","","5","","","","","","","","",""
"","","","","","single-stim-button","182","399844","0.0-2.0-28.1-0.1","615c777509f34c8977bc45a7","D2","batch4","","2137","tol_tohand","","","","tol_peg_1","2137","2137","0","[[2,0,0],[3,0],[0]]","2","[[1,2,0],[3,0],[0]]","6","0","","","","","","5","","","","","","","","",""
"","","","","","single-stim-button","183","405384","0.0-2.0-28.1-1.1","615c777509f34c8977bc45a7","D2","batch4","","5540","tol_toboard","","","","tol_peg_3","5540","5540","0","[[2,0,0],[3,0],[1]]","2","[[1,2,0],[3,0],[0]]","6","0","","","","","","5","","","","","","","","",""
"","","","","","single-stim-button","184","406815","0.0-2.0-28.2-0.2","615c777509f34c8977bc45a7","D2","batch4","","1431","tol_tohand","","","","tol_peg_1","1431","1431","0","[[0,0,0],[3,0],[1]]","3","[[1,2,0],[3,0],[0]]","6","0","","","","","","5","","","","","","","","",""
"","","","","","single-stim-button","185","407248","0.0-2.0-28.2-1.2","615c777509f34c8977bc45a7","D2","batch4","","432","tol_toboard","","","","tol_peg_2","432","432","0","[[0,0,0],[3,2],[1]]","3","[[1,2,0],[3,0],[0]]","6","0","","","","","","5","","","","","","","","",""
"","","","","","single-stim-button","186","407745","0.0-2.0-28.3-0.3","615c777509f34c8977bc45a7","D2","batch4","","496","tol_tohand","","","","tol_peg_3","496","496","0","[[0,0,0],[3,2],[0]]","4","[[1,2,0],[3,0],[0]]","6","0","","","","","","5","","","","","","","","",""
"","","","","","single-stim-button","187","408481","0.0-2.0-28.3-1.3","615c777509f34c8977bc45a7","D2","batch4","","735","tol_toboard","","","","tol_peg_1","735","735","0","[[1,0,0],[3,2],[0]]","4","[[1,2,0],[3,0],[0]]","6","0","","","","","","5","","","","","","","","",""
"","","","","","single-stim-button","188","409099","0.0-2.0-28.4-0.4","615c777509f34c8977bc45a7","D2","batch4","","618","tol_tohand","","","","tol_peg_2","618","618","0","[[1,0,0],[3,0],[0]]","5","[[1,2,0],[3,0],[0]]","6","0","","","","","","5","","","","","","","","",""
"","","","","","single-stim-button","189","409662","0.0-2.0-28.4-1.4","615c777509f34c8977bc45a7","D2","batch4","","562","tol_toboard","","","","tol_peg_1","562","562","0","[[1,2,0],[3,0],[0]]","5","[[1,2,0],[3,0],[0]]","6","0","","","","","","5","","","","","","","","",""
"","","","","","poldrack-single-stim","190","410664","0.0-2.0-29.0","615c777509f34c8977bc45a7","D2","batch4","","-1","tol_feedback","","","true","","1000","1000","500","","","","","","-1","none","true","4922","9604","","","","","","","","","",""
"","","","","","html-button-response","191","411788","0.0-2.0-30.0","615c777509f34c8977bc45a7","D2","batch4","","1123","tol_trial_num","<div class = centerbox><p class = center-block-text>problem <strong>8</strong> out of 25 problems</p></div>","0","","","","","","","","","","","","","","","","","","","","","","","","",""
"","","","","","single-stim-button","192","415972","0.0-2.0-31.0-0.0","615c777509f34c8977bc45a7","D2","batch4","","4183","tol_tohand","","","","tol_peg_3","4183","4183","0","[[0,0,0],[2,3],[0]]","1","[[1,2,0],[3,0],[0]]","7","0","","","","","","4","","","","","","","","",""
"","","","","","single-stim-button","193","416713","0.0-2.0-31.0-1.0","615c777509f34c8977bc45a7","D2","batch4","","740","tol_toboard","","","","tol_peg_1","740","740","0","[[1,0,0],[2,3],[0]]","1","[[1,2,0],[3,0],[0]]","7","0","","","","","","4","","","","","","","","",""
"","","","","","single-stim-button","194","417654","0.0-2.0-31.1-0.1","615c777509f34c8977bc45a7","D2","batch4","","940","tol_tohand","","","","tol_peg_2","940","940","0","[[1,0,0],[2,0],[0]]","2","[[1,2,0],[3,0],[0]]","7","0","","","","","","4","","","","","","","","",""
"","","","","","single-stim-button","195","418398","0.0-2.0-31.1-1.1","615c777509f34c8977bc45a7","D2","batch4","","744","tol_toboard","","","","tol_peg_3","744","744","0","[[1,0,0],[2,0],[3]]","2","[[1,2,0],[3,0],[0]]","7","0","","","","","","4","","","","","","","","",""
"","","","","","single-stim-button","196","419015","0.0-2.0-31.2-0.2","615c777509f34c8977bc45a7","D2","batch4","","616","tol_tohand","","","","tol_peg_2","616","616","0","[[1,0,0],[0,0],[3]]","3","[[1,2,0],[3,0],[0]]","7","0","","","","","","4","","","","","","","","",""
"","","","","","single-stim-button","197","419696","0.0-2.0-31.2-1.2","615c777509f34c8977bc45a7","D2","batch4","","680","tol_toboard","","","","tol_peg_1","680","680","0","[[1,2,0],[0,0],[3]]","3","[[1,2,0],[3,0],[0]]","7","0","","","","","","4","","","","","","","","",""
"","","","","","single-stim-button","198","421904","0.0-2.0-31.3-0.3","615c777509f34c8977bc45a7","D2","batch4","","2208","tol_tohand","","","","tol_peg_3","2208","2208","0","[[1,2,0],[0,0],[0]]","4","[[1,2,0],[3,0],[0]]","7","0","","","","","","4","","","","","","","","",""
"","","","","","single-stim-button","199","422398","0.0-2.0-31.3-1.3","615c777509f34c8977bc45a7","D2","batch4","","493","tol_toboard","","","","tol_peg_2","493","493","0","[[1,2,0],[3,0],[0]]","4","[[1,2,0],[3,0],[0]]","7","0","","","","","","4","","","","","","","","",""
"","","","","","poldrack-single-stim","200","423413","0.0-2.0-32.0","615c777509f34c8977bc45a7","D2","batch4","","-1","tol_feedback","","","true","","1000","1000","500","","","","","","-1","none","true","4183","7947","","","","","","","","","",""
"","","","","","html-button-response","201","424728","0.0-2.0-33.0","615c777509f34c8977bc45a7","D2","batch4","","1314.6000000000931","tol_trial_num","<div class = centerbox><p class = center-block-text>problem <strong>9</strong> out of 25 problems</p></div>","0","","","","","","","","","","","","","","","","","","","","","","","","",""
"","","","","","single-stim-button","202","432177","0.0-2.0-34.0-0.0","615c777509f34c8977bc45a7","D2","batch4","","7448","tol_tohand","","","","tol_peg_3","7448","7448","0","[[3,2,0],[0,0],[0]]","1","[[2,1,0],[3,0],[0]]","8","0","","","","","","6","","","","","","","","",""
"","","","","","single-stim-button","203","432767","0.0-2.0-34.0-1.0","615c777509f34c8977bc45a7","D2","batch4","","589","tol_toboard","","","","tol_peg_2","589","589","0","[[3,2,0],[1,0],[0]]","1","[[2,1,0],[3,0],[0]]","8","0","","","","","","6","","","","","","","","",""
"","","","","","single-stim-button","204","433266","0.0-2.0-34.1-0.1","615c777509f34c8977bc45a7","D2","batch4","","498","tol_tohand","","","","tol_peg_1","498","498","0","[[3,0,0],[1,0],[0]]","2","[[2,1,0],[3,0],[0]]","8","0","","","","","","6","","","","","","","","",""
"","","","","","single-stim-button","205","433674","0.0-2.0-34.1-1.1","615c777509f34c8977bc45a7","D2","batch4","","408","tol_toboard","","","","tol_peg_2","408","408","0","[[3,0,0],[1,2],[0]]","2","[[2,1,0],[3,0],[0]]","8","0","","","","","","6","","","","","","","","",""
"","","","","","single-stim-button","206","434216","0.0-2.0-34.2-0.2","615c777509f34c8977bc45a7","D2","batch4","","541","tol_tohand","","","","tol_peg_1","541","541","0","[[0,0,0],[1,2],[0]]","3","[[2,1,0],[3,0],[0]]","8","0","","","","","","6","","","","","","","","",""
"","","","","","single-stim-button","207","435103","0.0-2.0-34.2-1.2","615c777509f34c8977bc45a7","D2","batch4","","886","tol_toboard","","","","tol_peg_3","886","886","0","[[0,0,0],[1,2],[3]]","3","[[2,1,0],[3,0],[0]]","8","0","","","","","","6","","","","","","","","",""
"","","","","","single-stim-button","208","437554","0.0-2.0-34.3-0.3","615c777509f34c8977bc45a7","D2","batch4","","2450","tol_tohand","","","","tol_peg_2","2450","2450","0","[[0,0,0],[1,0],[3]]","4","[[2,1,0],[3,0],[0]]","8","0","","","","","","6","","","","","","","","",""
"","","","","","single-stim-button","209","438027","0.0-2.0-34.3-1.3","615c777509f34c8977bc45a7","D2","batch4","","472","tol_toboard","","","","tol_peg_1","472","472","0","[[2,0,0],[1,0],[3]]","4","[[2,1,0],[3,0],[0]]","8","0","","","","","","6","","","","","","","","",""
"","","","","","single-stim-button","210","438621","0.0-2.0-34.4-0.4","615c777509f34c8977bc45a7","D2","batch4","","592","tol_tohand","","","","tol_peg_2","592","592","0","[[2,0,0],[0,0],[3]]","5","[[2,1,0],[3,0],[0]]","8","0","","","","","","6","","","","","","","","",""
"","","","","","single-stim-button","211","439486","0.0-2.0-34.4-1.4","615c777509f34c8977bc45a7","D2","batch4","","865","tol_toboard","","","","tol_peg_1","865","865","0","[[2,1,0],[0,0],[3]]","5","[[2,1,0],[3,0],[0]]","8","0","","","","","","6","","","","","","","","",""
"","","","","","single-stim-button","212","440169","0.0-2.0-34.5-0.5","615c777509f34c8977bc45a7","D2","batch4","","681","tol_tohand","","","","tol_peg_3","681","681","0","[[2,1,0],[0,0],[0]]","6","[[2,1,0],[3,0],[0]]","8","0","","","","","","6","","","","","","","","",""
"","","","","","single-stim-button","213","440601","0.0-2.0-34.5-1.5","615c777509f34c8977bc45a7","D2","batch4","","432","tol_toboard","","","","tol_peg_2","432","432","0","[[2,1,0],[3,0],[0]]","6","[[2,1,0],[3,0],[0]]","8","0","","","","","","6","","","","","","","","",""
"","","","","","poldrack-single-stim","214","441602","0.0-2.0-35.0","615c777509f34c8977bc45a7","D2","batch4","","-1","tol_feedback","","","true","","1000","1000","500","","","","","","-1","none","true","7448","12210","","","","","","","","","",""
"","","","","","html-button-response","215","442479","0.0-2.0-36.0","615c777509f34c8977bc45a7","D2","batch4","","876.1999999997206","tol_trial_num","<div class = centerbox><p class = center-block-text>problem <strong>10</strong> out of 25 problems</p></div>","0","","","","","","","","","","","","","","","","","","","","","","","","",""
"","","","","","single-stim-button","216","446104","0.0-2.0-37.0-0.0","615c777509f34c8977bc45a7","D2","batch4","","3624","tol_tohand","","","","tol_peg_3","3624","3624","0","[[3,0,0],[1,0],[0]]","1","[[3,0,0],[2,1],[0]]","9","0","","","","","","3","","","","","","","","",""
"","","","","","single-stim-button","217","447291","0.0-2.0-37.0-1.0","615c777509f34c8977bc45a7","D2","batch4","","1186","tol_toboard","","","","tol_peg_1","1186","1186","0","[[3,2,0],[1,0],[0]]","1","[[3,0,0],[2,1],[0]]","9","0","","","","","","3","","","","","","","","",""
"","","","","","single-stim-button","218","447919","0.0-2.0-37.1-0.1","615c777509f34c8977bc45a7","D2","batch4","","627","tol_tohand","","","","tol_peg_2","627","627","0","[[3,2,0],[0,0],[0]]","2","[[3,0,0],[2,1],[0]]","9","0","","","","","","3","","","","","","","","",""
"","","","","","single-stim-button","219","448343","0.0-2.0-37.1-1.1","615c777509f34c8977bc45a7","D2","batch4","","424","tol_toboard","","","","tol_peg_3","424","424","0","[[3,2,0],[0,0],[1]]","2","[[3,0,0],[2,1],[0]]","9","0","","","","","","3","","","","","","","","",""
"","","","","","single-stim-button","220","448888","0.0-2.0-37.2-0.2","615c777509f34c8977bc45a7","D2","batch4","","544","tol_tohand","","","","tol_peg_1","544","544","0","[[3,0,0],[0,0],[1]]","3","[[3,0,0],[2,1],[0]]","9","0","","","","","","3","","","","","","","","",""
"","","","","","single-stim-button","221","449349","0.0-2.0-37.2-1.2","615c777509f34c8977bc45a7","D2","batch4","","460","tol_toboard","","","","tol_peg_2","460","460","0","[[3,0,0],[2,0],[1]]","3","[[3,0,0],[2,1],[0]]","9","0","","","","","","3","","","","","","","","",""
"","","","","","single-stim-button","222","449749","0.0-2.0-37.3-0.3","615c777509f34c8977bc45a7","D2","batch4","","398","tol_tohand","","","","tol_peg_3","398","398","0","[[3,0,0],[2,0],[0]]","4","[[3,0,0],[2,1],[0]]","9","0","","","","","","3","","","","","","","","",""
"","","","","","single-stim-button","223","450262","0.0-2.0-37.3-1.3","615c777509f34c8977bc45a7","D2","batch4","","512","tol_toboard","","","","tol_peg_2","512","512","0","[[3,0,0],[2,1],[0]]","4","[[3,0,0],[2,1],[0]]","9","0","","","","","","3","","","","","","","","",""
"","","","","","poldrack-single-stim","224","451262","0.0-2.0-38.0","615c777509f34c8977bc45a7","D2","batch4","","-1","tol_feedback","","","true","","1000","1000","500","","","","","","-1","none","true","3624","5193","","","","","","","","","",""
"","","","","","html-button-response","225","452152","0.0-2.0-39.0","615c777509f34c8977bc45a7","D2","batch4","","889.1000000000931","tol_trial_num","<div class = centerbox><p class = center-block-text>problem <strong>11</strong> out of 25 problems</p></div>","0","","","","","","","","","","","","","","","","","","","","","","","","",""
"","","","","","single-stim-button","226","456703","0.0-2.0-40.0-0.0","615c777509f34c8977bc45a7","D2","batch4","","4550","tol_tohand","","","","tol_peg_1","4550","4550","0","[[1,0,0],[3,0],[0]]","1","[[2,0,0],[1,3],[0]]","10","0","","","","","","6","","","","","","","","",""
"","","","","","single-stim-button","227","458155","0.0-2.0-40.0-1.0","615c777509f34c8977bc45a7","D2","batch4","","1451","tol_toboard","","","","tol_peg_3","1451","1451","0","[[1,0,0],[3,0],[2]]","1","[[2,0,0],[1,3],[0]]","10","0","","","","","","6","","","","","","","","",""
"","","","","","single-stim-button","228","458620","0.0-2.0-40.1-0.1","615c777509f34c8977bc45a7","D2","batch4","","464","tol_tohand","","","","tol_peg_2","464","464","0","[[1,0,0],[0,0],[2]]","2","[[2,0,0],[1,3],[0]]","10","0","","","","","","6","","","","","","","","",""
"","","","","","single-stim-button","229","461493","0.0-2.0-40.1-1.1","615c777509f34c8977bc45a7","D2","batch4","","2873","tol_toboard","","","","tol_peg_2","2873","2873","0","[[1,0,0],[3,0],[2]]","2","[[2,0,0],[1,3],[0]]","10","0","","","","","","6","","","","","","","","",""
"","","","","","single-stim-button","230","464407","0.0-2.0-40.2-0.2","615c777509f34c8977bc45a7","D2","batch4","","2913","tol_tohand","","","","tol_peg_3","2913","2913","0","[[1,0,0],[3,0],[0]]","3","[[2,0,0],[1,3],[0]]","10","0","","","","","","6","","","","","","","","",""
"","","","","","single-stim-button","231","464879","0.0-2.0-40.2-1.2","615c777509f34c8977bc45a7","D2","batch4","","472","tol_toboard","","","","tol_peg_2","472","472","0","[[1,0,0],[3,2],[0]]","3","[[2,0,0],[1,3],[0]]","10","0","","","","","","6","","","","","","","","",""
"","","","","","single-stim-button","232","465333","0.0-2.0-40.3-0.3","615c777509f34c8977bc45a7","D2","batch4","","454","tol_tohand","","","","tol_peg_1","454","454","0","[[0,0,0],[3,2],[0]]","4","[[2,0,0],[1,3],[0]]","10","0","","","","","","6","","","","","","","","",""
"","","","","","single-stim-button","233","466297","0.0-2.0-40.3-1.3","615c777509f34c8977bc45a7","D2","batch4","","964","tol_toboard","","","","tol_peg_3","964","964","0","[[0,0,0],[3,2],[1]]","4","[[2,0,0],[1,3],[0]]","10","0","","","","","","6","","","","","","","","",""
"","","","","","single-stim-button","234","467108","0.0-2.0-40.4-0.4","615c777509f34c8977bc45a7","D2","batch4","","811","tol_tohand","","","","tol_peg_2","811","811","0","[[0,0,0],[3,0],[1]]","5","[[2,0,0],[1,3],[0]]","10","0","","","","","","6","","","","","","","","",""
"","","","","","single-stim-button","235","467642","0.0-2.0-40.4-1.4","615c777509f34c8977bc45a7","D2","batch4","","533","tol_toboard","","","","tol_peg_1","533","533","0","[[2,0,0],[3,0],[1]]","5","[[2,0,0],[1,3],[0]]","10","0","","","","","","6","","","","","","","","",""
"","","","","","single-stim-button","236","468629","0.0-2.0-40.5-0.5","615c777509f34c8977bc45a7","D2","batch4","","987","tol_tohand","","","","tol_peg_2","987","987","0","[[2,0,0],[0,0],[1]]","6","[[2,0,0],[1,3],[0]]","10","0","","","","","","6","","","","","","","","",""
"","","","","","single-stim-button","237","469162","0.0-2.0-40.5-1.5","615c777509f34c8977bc45a7","D2","batch4","","532","tol_toboard","","","","tol_peg_1","532","532","0","[[2,3,0],[0,0],[1]]","6","[[2,0,0],[1,3],[0]]","10","0","","","","","","6","","","","","","","","",""
"","","","","","single-stim-button","238","469665","0.0-2.0-40.6-0.6","615c777509f34c8977bc45a7","D2","batch4","","503","tol_tohand","","","","tol_peg_3","503","503","0","[[2,3,0],[0,0],[0]]","7","[[2,0,0],[1,3],[0]]","10","0","","","","","","6","","","","","","","","",""
"","","","","","single-stim-button","239","470122","0.0-2.0-40.6-1.6","615c777509f34c8977bc45a7","D2","batch4","","457","tol_toboard","","","","tol_peg_2","457","457","0","[[2,3,0],[1,0],[0]]","7","[[2,0,0],[1,3],[0]]","10","0","","","","","","6","","","","","","","","",""
"","","","","","single-stim-button","240","470700","0.0-2.0-40.7-0.7","615c777509f34c8977bc45a7","D2","batch4","","578","tol_tohand","","","","tol_peg_1","578","578","0","[[2,0,0],[1,0],[0]]","8","[[2,0,0],[1,3],[0]]","10","0","","","","","","6","","","","","","","","",""
"","","","","","single-stim-button","241","471219","0.0-2.0-40.7-1.7","615c777509f34c8977bc45a7","D2","batch4","","519","tol_toboard","","","","tol_peg_2","519","519","0","[[2,0,0],[1,3],[0]]","8","[[2,0,0],[1,3],[0]]","10","0","","","","","","6","","","","","","","","",""
"","","","","","poldrack-single-stim","242","472222","0.0-2.0-41.0","615c777509f34c8977bc45a7","D2","batch4","","-1","tol_feedback","","","true","","1000","1000","500","","","","","","-1","none","true","4550","11260","","","","","","","","","",""
"","","","","","html-button-response","243","473101","0.0-2.0-42.0","615c777509f34c8977bc45a7","D2","batch4","","878","tol_trial_num","<div class = centerbox><p class = center-block-text>problem <strong>12</strong> out of 25 problems</p></div>","0","","","","","","","","","","","","","","","","","","","","","","","","",""
"","","","","","single-stim-button","244","476752","0.0-2.0-43.0-0.0","615c777509f34c8977bc45a7","D2","batch4","","3651","tol_tohand","","","","tol_peg_1","3651","3651","0","[[1,0,0],[3,0],[0]]","1","[[2,3,0],[0,0],[1]]","11","0","","","","","","4","","","","","","","","",""
"","","","","","single-stim-button","245","477462","0.0-2.0-43.0-1.0","615c777509f34c8977bc45a7","D2","batch4","","708","tol_toboard","","","","tol_peg_2","708","708","0","[[1,0,0],[3,2],[0]]","1","[[2,3,0],[0,0],[1]]","11","0","","","","","","4","","","","","","","","",""
"","","","","","single-stim-button","246","478134","0.0-2.0-43.1-0.1","615c777509f34c8977bc45a7","D2","batch4","","672","tol_tohand","","","","tol_peg_1","672","672","0","[[0,0,0],[3,2],[0]]","2","[[2,3,0],[0,0],[1]]","11","0","","","","","","4","","","","","","","","",""
"","","","","","single-stim-button","247","478999","0.0-2.0-43.1-1.1","615c777509f34c8977bc45a7","D2","batch4","","864","tol_toboard","","","","tol_peg_3","864","864","0","[[0,0,0],[3,2],[1]]","2","[[2,3,0],[0,0],[1]]","11","0","","","","","","4","","","","","","","","",""
"","","","","","single-stim-button","248","479502","0.0-2.0-43.2-0.2","615c777509f34c8977bc45a7","D2","batch4","","502","tol_tohand","","","","tol_peg_2","502","502","0","[[0,0,0],[3,0],[1]]","3","[[2,3,0],[0,0],[1]]","11","0","","","","","","4","","","","","","","","",""
"","","","","","single-stim-button","249","480077","0.0-2.0-43.2-1.2","615c777509f34c8977bc45a7","D2","batch4","","575","tol_toboard","","","","tol_peg_1","575","575","0","[[2,0,0],[3,0],[1]]","3","[[2,3,0],[0,0],[1]]","11","0","","","","","","4","","","","","","","","",""
"","","","","","single-stim-button","250","480636","0.0-2.0-43.3-0.3","615c777509f34c8977bc45a7","D2","batch4","","559","tol_tohand","","","","tol_peg_2","559","559","0","[[2,0,0],[0,0],[1]]","4","[[2,3,0],[0,0],[1]]","11","0","","","","","","4","","","","","","","","",""
"","","","","","single-stim-button","251","481372","0.0-2.0-43.3-1.3","615c777509f34c8977bc45a7","D2","batch4","","735","tol_toboard","","","","tol_peg_1","735","735","0","[[2,3,0],[0,0],[1]]","4","[[2,3,0],[0,0],[1]]","11","0","","","","","","4","","","","","","","","",""
"","","","","","poldrack-single-stim","252","482373","0.0-2.0-44.0","615c777509f34c8977bc45a7","D2","batch4","","-1","tol_feedback","","","true","","1000","1000","500","","","","","","-1","none","true","3651","5384","","","","","","","","","",""
"","","","","","html-button-response","253","483341","0.0-2.0-45.0","615c777509f34c8977bc45a7","D2","batch4","","967.1999999997206","tol_trial_num","<div class = centerbox><p class = center-block-text>problem <strong>13</strong> out of 25 problems</p></div>","0","","","","","","","","","","","","","","","","","","","","","","","","",""
"","","","","","single-stim-button","254","486374","0.0-2.0-46.0-0.0","615c777509f34c8977bc45a7","D2","batch4","","3033","tol_tohand","","","","tol_peg_1","3033","3033","0","[[1,0,0],[3,0],[0]]","1","[[0,0,0],[2,3],[1]]","12","0","","","","","","4","","","","","","","","",""
"","","","","","single-stim-button","255","486972","0.0-2.0-46.0-1.0","615c777509f34c8977bc45a7","D2","batch4","","597","tol_toboard","","","","tol_peg_2","597","597","0","[[1,0,0],[3,2],[0]]","1","[[0,0,0],[2,3],[1]]","12","0","","","","","","4","","","","","","","","",""
"","","","","","single-stim-button","256","487462","0.0-2.0-46.1-0.1","615c777509f34c8977bc45a7","D2","batch4","","489","tol_tohand","","","","tol_peg_1","489","489","0","[[0,0,0],[3,2],[0]]","2","[[0,0,0],[2,3],[1]]","12","0","","","","","","4","","","","","","","","",""
"","","","","","single-stim-button","257","488438","0.0-2.0-46.1-1.1","615c777509f34c8977bc45a7","D2","batch4","","975","tol_toboard","","","","tol_peg_3","975","975","0","[[0,0,0],[3,2],[1]]","2","[[0,0,0],[2,3],[1]]","12","0","","","","","","4","","","","","","","","",""
"","","","","","single-stim-button","258","499171","0.0-2.0-46.2-0.2","615c777509f34c8977bc45a7","D2","batch4","","10733","tol_tohand","","","","tol_peg_3","10733","10733","0","[[0,0,0],[3,2],[0]]","3","[[0,0,0],[2,3],[1]]","12","0","","","","","","4","","","","","","","","",""
"","","","","","single-stim-button","259","500188","0.0-2.0-46.2-1.2","615c777509f34c8977bc45a7","D2","batch4","","1016","tol_toboard","","","","tol_peg_1","1016","1016","0","[[1,0,0],[3,2],[0]]","3","[[0,0,0],[2,3],[1]]","12","0","","","","","","4","","","","","","","","",""
"","","","","","single-stim-button","260","500726","0.0-2.0-46.3-0.3","615c777509f34c8977bc45a7","D2","batch4","","537","tol_tohand","","","","tol_peg_2","537","537","0","[[1,0,0],[3,0],[0]]","4","[[0,0,0],[2,3],[1]]","12","0","","","","","","4","","","","","","","","",""
"","","","","","single-stim-button","261","502331","0.0-2.0-46.3-1.3","615c777509f34c8977bc45a7","D2","batch4","","1605","tol_toboard","","","","tol_peg_3","1605","1605","0","[[1,0,0],[3,0],[2]]","4","[[0,0,0],[2,3],[1]]","12","0","","","","","","4","","","","","","","","",""
"","","","","","single-stim-button","262","502746","0.0-2.0-46.4-0.4","615c777509f34c8977bc45a7","D2","batch4","","414","tol_tohand","","","","tol_peg_2","414","414","0","[[1,0,0],[0,0],[2]]","5","[[0,0,0],[2,3],[1]]","12","0","","","","","","4","","","","","","","","",""
"","","","","","single-stim-button","263","503176","0.0-2.0-46.4-1.4","615c777509f34c8977bc45a7","D2","batch4","","430","tol_toboard","","","","tol_peg_1","430","430","0","[[1,3,0],[0,0],[2]]","5","[[0,0,0],[2,3],[1]]","12","0","","","","","","4","","","","","","","","",""
"","","","","","single-stim-button","264","503756","0.0-2.0-46.5-0.5","615c777509f34c8977bc45a7","D2","batch4","","579","tol_tohand","","","","tol_peg_3","579","579","0","[[1,3,0],[0,0],[0]]","6","[[0,0,0],[2,3],[1]]","12","0","","","","","","4","","","","","","","","",""
"","","","","","single-stim-button","265","504355","0.0-2.0-46.5-1.5","615c777509f34c8977bc45a7","D2","batch4","","597","tol_toboard","","","","tol_peg_2","597","597","0","[[1,3,0],[2,0],[0]]","6","[[0,0,0],[2,3],[1]]","12","0","","","","","","4","","","","","","","","",""
"","","","","","single-stim-button","266","504848","0.0-2.0-46.6-0.6","615c777509f34c8977bc45a7","D2","batch4","","492","tol_tohand","","","","tol_peg_1","492","492","0","[[1,0,0],[2,0],[0]]","7","[[0,0,0],[2,3],[1]]","12","0","","","","","","4","","","","","","","","",""
"","","","","","single-stim-button","267","505249","0.0-2.0-46.6-1.6","615c777509f34c8977bc45a7","D2","batch4","","401","tol_toboard","","","","tol_peg_2","401","401","0","[[1,0,0],[2,3],[0]]","7","[[0,0,0],[2,3],[1]]","12","0","","","","","","4","","","","","","","","",""
"","","","","","single-stim-button","268","505674","0.0-2.0-46.7-0.7","615c777509f34c8977bc45a7","D2","batch4","","423","tol_tohand","","","","tol_peg_1","423","423","0","[[0,0,0],[2,3],[0]]","8","[[0,0,0],[2,3],[1]]","12","0","","","","","","4","","","","","","","","",""
"","","","","","single-stim-button","269","506119","0.0-2.0-46.7-1.7","615c777509f34c8977bc45a7","D2","batch4","","444","tol_toboard","","","","tol_peg_3","444","444","0","[[0,0,0],[2,3],[1]]","8","[[0,0,0],[2,3],[1]]","12","0","","","","","","4","","","","","","","","",""
"","","","","","poldrack-single-stim","270","507120","0.0-2.0-47.0","615c777509f34c8977bc45a7","D2","batch4","","-1","tol_feedback","","","true","","1000","1000","500","","","","","","-1","none","true","3033","16700","","","","","","","","","",""
"","","","","","html-button-response","271","512875","0.0-2.0-48.0","615c777509f34c8977bc45a7","D2","batch4","","5754.200000000186","attention_check","<p class = block-text>How many balls are in your board<br></p>","1","true","","","","","","","","","","","","","","","","","","","","","","","",""
"","","","","","html-button-response","272","514008","0.0-2.0-49.0","615c777509f34c8977bc45a7","D2","batch4","","1132.2999999998137","tol_trial_num","<div class = centerbox><p class = center-block-text>problem <strong>14</strong> out of 25 problems</p></div>","0","","","","","","","","","","","","","","","","","","","","","","","","",""
"","","","","","single-stim-button","273","519969","0.0-2.0-50.0-0.0","615c777509f34c8977bc45a7","D2","batch4","","5960","tol_tohand","","","","tol_peg_1","5960","5960","0","[[2,0,0],[3,0],[0]]","1","[[1,2,0],[3,0],[0]]","13","0","","","","","","4","","","","","","","","",""
"","","","","","single-stim-button","274","520679","0.0-2.0-50.0-1.0","615c777509f34c8977bc45a7","D2","batch4","","710","tol_toboard","","","","tol_peg_3","710","710","0","[[2,0,0],[3,0],[1]]","1","[[1,2,0],[3,0],[0]]","13","0","","","","","","4","","","","","","","","",""
"","","","","","single-stim-button","275","521312","0.0-2.0-50.1-0.1","615c777509f34c8977bc45a7","D2","batch4","","632","tol_tohand","","","","tol_peg_1","632","632","0","[[0,0,0],[3,0],[1]]","2","[[1,2,0],[3,0],[0]]","13","0","","","","","","4","","","","","","","","",""
"","","","","","single-stim-button","276","521730","0.0-2.0-50.1-1.1","615c777509f34c8977bc45a7","D2","batch4","","418","tol_toboard","","","","tol_peg_2","418","418","0","[[0,0,0],[3,2],[1]]","2","[[1,2,0],[3,0],[0]]","13","0","","","","","","4","","","","","","","","",""
"","","","","","single-stim-button","277","522125","0.0-2.0-50.2-0.2","615c777509f34c8977bc45a7","D2","batch4","","394","tol_tohand","","","","tol_peg_3","394","394","0","[[0,0,0],[3,2],[0]]","3","[[1,2,0],[3,0],[0]]","13","0","","","","","","4","","","","","","","","",""
"","","","","","single-stim-button","278","522662","0.0-2.0-50.2-1.2","615c777509f34c8977bc45a7","D2","batch4","","536","tol_toboard","","","","tol_peg_1","536","536","0","[[1,0,0],[3,2],[0]]","3","[[1,2,0],[3,0],[0]]","13","0","","","","","","4","","","","","","","","",""
"","","","","","single-stim-button","279","523098","0.0-2.0-50.3-0.3","615c777509f34c8977bc45a7","D2","batch4","","436","tol_tohand","","","","tol_peg_2","436","436","0","[[1,0,0],[3,0],[0]]","4","[[1,2,0],[3,0],[0]]","13","0","","","","","","4","","","","","","","","",""
"","","","","","single-stim-button","280","523477","0.0-2.0-50.3-1.3","615c777509f34c8977bc45a7","D2","batch4","","378","tol_toboard","","","","tol_peg_1","378","378","0","[[1,2,0],[3,0],[0]]","4","[[1,2,0],[3,0],[0]]","13","0","","","","","","4","","","","","","","","",""
"","","","","","poldrack-single-stim","281","524492","0.0-2.0-51.0","615c777509f34c8977bc45a7","D2","batch4","","-1","tol_feedback","","","true","","1000","1000","500","","","","","","-1","none","true","5960","7422","","","","","","","","","",""
"","","","","","html-button-response","282","525369","0.0-2.0-52.0","615c777509f34c8977bc45a7","D2","batch4","","875.5999999996275","tol_trial_num","<div class = centerbox><p class = center-block-text>problem <strong>15</strong> out of 25 problems</p></div>","0","","","","","","","","","","","","","","","","","","","","","","","","",""
"","","","","","single-stim-button","283","527607","0.0-2.0-53.0-0.0","615c777509f34c8977bc45a7","D2","batch4","","2238","tol_tohand","","","","tol_peg_1","2238","2238","0","[[1,0,0],[3,0],[0]]","1","[[2,0,0],[3,0],[1]]","14","0","","","","","","3","","","","","","","","",""
"","","","","","single-stim-button","284","528167","0.0-2.0-53.0-1.0","615c777509f34c8977bc45a7","D2","batch4","","560","tol_toboard","","","","tol_peg_2","560","560","0","[[1,0,0],[3,2],[0]]","1","[[2,0,0],[3,0],[1]]","14","0","","","","","","3","","","","","","","","",""
"","","","","","single-stim-button","285","528683","0.0-2.0-53.1-0.1","615c777509f34c8977bc45a7","D2","batch4","","516","tol_tohand","","","","tol_peg_1","516","516","0","[[0,0,0],[3,2],[0]]","2","[[2,0,0],[3,0],[1]]","14","0","","","","","","3","","","","","","","","",""
"","","","","","single-stim-button","286","529212","0.0-2.0-53.1-1.1","615c777509f34c8977bc45a7","D2","batch4","","528","tol_toboard","","","","tol_peg_3","528","528","0","[[0,0,0],[3,2],[1]]","2","[[2,0,0],[3,0],[1]]","14","0","","","","","","3","","","","","","","","",""
"","","","","","single-stim-button","287","530510","0.0-2.0-53.2-0.2","615c777509f34c8977bc45a7","D2","batch4","","1297","tol_tohand","","","","tol_peg_2","1297","1297","0","[[0,0,0],[3,0],[1]]","3","[[2,0,0],[3,0],[1]]","14","0","","","","","","3","","","","","","","","",""
"","","","","","single-stim-button","288","531027","0.0-2.0-53.2-1.2","615c777509f34c8977bc45a7","D2","batch4","","517","tol_toboard","","","","tol_peg_1","517","517","0","[[2,0,0],[3,0],[1]]","3","[[2,0,0],[3,0],[1]]","14","0","","","","","","3","","","","","","","","",""
"","","","","","poldrack-single-stim","289","532029","0.0-2.0-54.0","615c777509f34c8977bc45a7","D2","batch4","","-1","tol_feedback","","","true","","1000","1000","500","","","","","","-1","none","true","2238","4051","","","","","","","","","",""
"","","","","","html-button-response","290","532710","0.0-2.0-55.0","615c777509f34c8977bc45a7","D2","batch4","","679.9000000003725","tol_trial_num","<div class = centerbox><p class = center-block-text>problem <strong>16</strong> out of 25 problems</p></div>","0","","","","","","","","","","","","","","","","","","","","","","","","",""
"","","","","","single-stim-button","291","538366","0.0-2.0-56.0-0.0","615c777509f34c8977bc45a7","D2","batch4","","5656","tol_tohand","","","","tol_peg_2","5656","5656","0","[[0,0,0],[2,0],[1]]","1","[[2,3,0],[1,0],[0]]","15","0","","","","","","7","","","","","","","","",""
"","","","","","single-stim-button","292","538956","0.0-2.0-56.0-1.0","615c777509f34c8977bc45a7","D2","batch4","","589","tol_toboard","","","","tol_peg_1","589","589","0","[[3,0,0],[2,0],[1]]","1","[[2,3,0],[1,0],[0]]","15","0","","","","","","7","","","","","","","","",""
"","","","","","single-stim-button","293","539531","0.0-2.0-56.1-0.1","615c777509f34c8977bc45a7","D2","batch4","","575","tol_tohand","","","","tol_peg_2","575","575","0","[[3,0,0],[0,0],[1]]","2","[[2,3,0],[1,0],[0]]","15","0","","","","","","7","","","","","","","","",""
"","","","","","single-stim-button","294","540437","0.0-2.0-56.1-1.1","615c777509f34c8977bc45a7","D2","batch4","","904","tol_toboard","","","","tol_peg_1","904","904","0","[[3,2,0],[0,0],[1]]","2","[[2,3,0],[1,0],[0]]","15","0","","","","","","7","","","","","","","","",""
"","","","","","single-stim-button","295","541067","0.0-2.0-56.2-0.2","615c777509f34c8977bc45a7","D2","batch4","","630","tol_tohand","","","","tol_peg_3","630","630","0","[[3,2,0],[0,0],[0]]","3","[[2,3,0],[1,0],[0]]","15","0","","","","","","7","","","","","","","","",""
"","","","","","single-stim-button","296","541487","0.0-2.0-56.2-1.2","615c777509f34c8977bc45a7","D2","batch4","","418","tol_toboard","","","","tol_peg_2","418","418","0","[[3,2,0],[1,0],[0]]","3","[[2,3,0],[1,0],[0]]","15","0","","","","","","7","","","","","","","","",""
"","","","","","single-stim-button","297","543288","0.0-2.0-56.3-0.3","615c777509f34c8977bc45a7","D2","batch4","","1801","tol_tohand","","","","tol_peg_1","1801","1801","0","[[3,0,0],[1,0],[0]]","4","[[2,3,0],[1,0],[0]]","15","0","","","","","","7","","","","","","","","",""
"","","","","","single-stim-button","298","544132","0.0-2.0-56.3-1.3","615c777509f34c8977bc45a7","D2","batch4","","843","tol_toboard","","","","tol_peg_3","843","843","0","[[3,0,0],[1,0],[2]]","4","[[2,3,0],[1,0],[0]]","15","0","","","","","","7","","","","","","","","",""
"","","","","","single-stim-button","299","544718","0.0-2.0-56.4-0.4","615c777509f34c8977bc45a7","D2","batch4","","586","tol_tohand","","","","tol_peg_1","586","586","0","[[0,0,0],[1,0],[2]]","5","[[2,3,0],[1,0],[0]]","15","0","","","","","","7","","","","","","","","",""
"","","","","","single-stim-button","300","545108","0.0-2.0-56.4-1.4","615c777509f34c8977bc45a7","D2","batch4","","389","tol_toboard","","","","tol_peg_2","389","389","0","[[0,0,0],[1,3],[2]]","5","[[2,3,0],[1,0],[0]]","15","0","","","","","","7","","","","","","","","",""
"","","","","","single-stim-button","301","545472","0.0-2.0-56.5-0.5","615c777509f34c8977bc45a7","D2","batch4","","364","tol_tohand","","","","tol_peg_3","364","364","0","[[0,0,0],[1,3],[0]]","6","[[2,3,0],[1,0],[0]]","15","0","","","","","","7","","","","","","","","",""
"","","","","","single-stim-button","302","546002","0.0-2.0-56.5-1.5","615c777509f34c8977bc45a7","D2","batch4","","530","tol_toboard","","","","tol_peg_1","530","530","0","[[2,0,0],[1,3],[0]]","6","[[2,3,0],[1,0],[0]]","15","0","","","","","","7","","","","","","","","",""
"","","","","","single-stim-button","303","546663","0.0-2.0-56.6-0.6","615c777509f34c8977bc45a7","D2","batch4","","659","tol_tohand","","","","tol_peg_2","659","659","0","[[2,0,0],[1,0],[0]]","7","[[2,3,0],[1,0],[0]]","15","0","","","","","","7","","","","","","","","",""
"","","","","","single-stim-button","304","547044","0.0-2.0-56.6-1.6","615c777509f34c8977bc45a7","D2","batch4","","380","tol_toboard","","","","tol_peg_1","380","380","0","[[2,3,0],[1,0],[0]]","7","[[2,3,0],[1,0],[0]]","15","0","","","","","","7","","","","","","","","",""
"","","","","","poldrack-single-stim","305","548045","0.0-2.0-57.0","615c777509f34c8977bc45a7","D2","batch4","","-1","tol_feedback","","","true","","1000","1000","500","","","","","","-1","none","true","5656","10271","","","","","","","","","",""
"","","","","","html-button-response","306","548770","0.0-2.0-58.0","615c777509f34c8977bc45a7","D2","batch4","","724.7999999998137","tol_trial_num","<div class = centerbox><p class = center-block-text>problem <strong>17</strong> out of 25 problems</p></div>","0","","","","","","","","","","","","","","","","","","","","","","","","",""
"","","","","","single-stim-button","307","550895","0.0-2.0-59.0-0.0","615c777509f34c8977bc45a7","D2","batch4","","2124","tol_tohand","","","","tol_peg_2","2124","2124","0","[[1,2,0],[0,0],[0]]","1","[[3,1,0],[2,0],[0]]","16","0","","","","","","5","","","","","","","","",""
"","","","","","single-stim-button","308","551810","0.0-2.0-59.0-1.0","615c777509f34c8977bc45a7","D2","batch4","","914","tol_toboard","","","","tol_peg_3","914","914","0","[[1,2,0],[0,0],[3]]","1","[[3,1,0],[2,0],[0]]","16","0","","","","","","5","","","","","","","","",""
"","","","","","single-stim-button","309","552393","0.0-2.0-59.1-0.1","615c777509f34c8977bc45a7","D2","batch4","","582","tol_tohand","","","","tol_peg_1","582","582","0","[[1,0,0],[0,0],[3]]","2","[[3,1,0],[2,0],[0]]","16","0","","","","","","5","","","","","","","","",""
"","","","","","single-stim-button","310","553356","0.0-2.0-59.1-1.1","615c777509f34c8977bc45a7","D2","batch4","","963","tol_toboard","","","","tol_peg_2","963","963","0","[[1,0,0],[2,0],[3]]","2","[[3,1,0],[2,0],[0]]","16","0","","","","","","5","","","","","","","","",""
"","","","","","single-stim-button","311","554622","0.0-2.0-59.2-0.2","615c777509f34c8977bc45a7","D2","batch4","","1265","tol_tohand","","","","tol_peg_3","1265","1265","0","[[1,0,0],[2,0],[0]]","3","[[3,1,0],[2,0],[0]]","16","0","","","","","","5","","","","","","","","",""
"","","","","","single-stim-button","312","555091","0.0-2.0-59.2-1.2","615c777509f34c8977bc45a7","D2","batch4","","469","tol_toboard","","","","tol_peg_2","469","469","0","[[1,0,0],[2,3],[0]]","3","[[3,1,0],[2,0],[0]]","16","0","","","","","","5","","","","","","","","",""
"","","","","","single-stim-button","313","555473","0.0-2.0-59.3-0.3","615c777509f34c8977bc45a7","D2","batch4","","381","tol_tohand","","","","tol_peg_1","381","381","0","[[0,0,0],[2,3],[0]]","4","[[3,1,0],[2,0],[0]]","16","0","","","","","","5","","","","","","","","",""
"","","","","","single-stim-button","314","556086","0.0-2.0-59.3-1.3","615c777509f34c8977bc45a7","D2","batch4","","613","tol_toboard","","","","tol_peg_3","613","613","0","[[0,0,0],[2,3],[1]]","4","[[3,1,0],[2,0],[0]]","16","0","","","","","","5","","","","","","","","",""
"","","","","","single-stim-button","315","556609","0.0-2.0-59.4-0.4","615c777509f34c8977bc45a7","D2","batch4","","521","tol_tohand","","","","tol_peg_2","521","521","0","[[0,0,0],[2,0],[1]]","5","[[3,1,0],[2,0],[0]]","16","0","","","","","","5","","","","","","","","",""
"","","","","","single-stim-button","316","557193","0.0-2.0-59.4-1.4","615c777509f34c8977bc45a7","D2","batch4","","584","tol_toboard","","","","tol_peg_1","584","584","0","[[3,0,0],[2,0],[1]]","5","[[3,1,0],[2,0],[0]]","16","0","","","","","","5","","","","","","","","",""
"","","","","","single-stim-button","317","557667","0.0-2.0-59.5-0.5","615c777509f34c8977bc45a7","D2","batch4","","472","tol_tohand","","","","tol_peg_3","472","472","0","[[3,0,0],[2,0],[0]]","6","[[3,1,0],[2,0],[0]]","16","0","","","","","","5","","","","","","","","",""
"","","","","","single-stim-button","318","558197","0.0-2.0-59.5-1.5","615c777509f34c8977bc45a7","D2","batch4","","530","tol_toboard","","","","tol_peg_1","530","530","0","[[3,1,0],[2,0],[0]]","6","[[3,1,0],[2,0],[0]]","16","0","","","","","","5","","","","","","","","",""
"","","","","","poldrack-single-stim","319","559198","0.0-2.0-60.0","615c777509f34c8977bc45a7","D2","batch4","","-1","tol_feedback","","","true","","1000","1000","500","","","","","","-1","none","true","2124","5345","","","","","","","","","",""
"","","","","","html-button-response","320","559954","0.0-2.0-61.0","615c777509f34c8977bc45a7","D2","batch4","","755.2999999998137","tol_trial_num","<div class = centerbox><p class = center-block-text>problem <strong>18</strong> out of 25 problems</p></div>","0","","","","","","","","","","","","","","","","","","","","","","","","",""
"","","","","","single-stim-button","321","562828","0.0-2.0-62.0-0.0","615c777509f34c8977bc45a7","D2","batch4","","2873","tol_tohand","","","","tol_peg_1","2873","2873","0","[[1,0,0],[3,0],[0]]","1","[[3,0,0],[2,0],[1]]","17","0","","","","","","5","","","","","","","","",""
"","","","","","single-stim-button","322","563386","0.0-2.0-62.0-1.0","615c777509f34c8977bc45a7","D2","batch4","","558","tol_toboard","","","","tol_peg_2","558","558","0","[[1,0,0],[3,2],[0]]","1","[[3,0,0],[2,0],[1]]","17","0","","","","","","5","","","","","","","","",""
"","","","","","single-stim-button","323","564084","0.0-2.0-62.1-0.1","615c777509f34c8977bc45a7","D2","batch4","","697","tol_tohand","","","","tol_peg_1","697","697","0","[[0,0,0],[3,2],[0]]","2","[[3,0,0],[2,0],[1]]","17","0","","","","","","5","","","","","","","","",""
"","","","","","single-stim-button","324","564695","0.0-2.0-62.1-1.1","615c777509f34c8977bc45a7","D2","batch4","","610","tol_toboard","","","","tol_peg_3","610","610","0","[[0,0,0],[3,2],[1]]","2","[[3,0,0],[2,0],[1]]","17","0","","","","","","5","","","","","","","","",""
"","","","","","single-stim-button","325","565584","0.0-2.0-62.2-0.2","615c777509f34c8977bc45a7","D2","batch4","","889","tol_tohand","","","","tol_peg_2","889","889","0","[[0,0,0],[3,0],[1]]","3","[[3,0,0],[2,0],[1]]","17","0","","","","","","5","","","","","","","","",""
"","","","","","single-stim-button","326","572444","0.0-2.0-62.2-1.2","615c777509f34c8977bc45a7","D2","batch4","","6860","tol_toboard","","","","tol_peg_1","6860","6860","0","[[2,0,0],[3,0],[1]]","3","[[3,0,0],[2,0],[1]]","17","0","","","","","","5","","","","","","","","",""
"","","","","","single-stim-button","327","573161","0.0-2.0-62.3-0.3","615c777509f34c8977bc45a7","D2","batch4","","717","tol_tohand","","","","tol_peg_3","717","717","0","[[2,0,0],[3,0],[0]]","4","[[3,0,0],[2,0],[1]]","17","0","","","","","","5","","","","","","","","",""
"","","","","","single-stim-button","328","573665","0.0-2.0-62.3-1.3","615c777509f34c8977bc45a7","D2","batch4","","504","tol_toboard","","","","tol_peg_1","504","504","0","[[2,1,0],[3,0],[0]]","4","[[3,0,0],[2,0],[1]]","17","0","","","","","","5","","","","","","","","",""
"","","","","","single-stim-button","329","574014","0.0-2.0-62.4-0.4","615c777509f34c8977bc45a7","D2","batch4","","348","tol_tohand","","","","tol_peg_2","348","348","0","[[2,1,0],[0,0],[0]]","5","[[3,0,0],[2,0],[1]]","17","0","","","","","","5","","","","","","","","",""
"","","","","","single-stim-button","330","574691","0.0-2.0-62.4-1.4","615c777509f34c8977bc45a7","D2","batch4","","676","tol_toboard","","","","tol_peg_1","676","676","0","[[2,1,3],[0,0],[0]]","5","[[3,0,0],[2,0],[1]]","17","0","","","","","","5","","","","","","","","",""
"","","","","","single-stim-button","331","577090","0.0-2.0-62.5-0.5","615c777509f34c8977bc45a7","D2","batch4","","2399","tol_tohand","","","","tol_peg_1","2399","2399","0","[[2,1,0],[0,0],[0]]","6","[[3,0,0],[2,0],[1]]","17","0","","","","","","5","","","","","","","","",""
"","","","","","single-stim-button","332","577559","0.0-2.0-62.5-1.5","615c777509f34c8977bc45a7","D2","batch4","","468","tol_toboard","","","","tol_peg_3","468","468","0","[[2,1,0],[0,0],[3]]","6","[[3,0,0],[2,0],[1]]","17","0","","","","","","5","","","","","","","","",""
"","","","","","single-stim-button","333","582660","0.0-2.0-62.6-0.6","615c777509f34c8977bc45a7","D2","batch4","","5101","tol_tohand","","","","tol_peg_1","5101","5101","0","[[2,0,0],[0,0],[3]]","7","[[3,0,0],[2,0],[1]]","17","0","","","","","","5","","","","","","","","",""
"","","","","","single-stim-button","334","583095","0.0-2.0-62.6-1.6","615c777509f34c8977bc45a7","D2","batch4","","434","tol_toboard","","","","tol_peg_2","434","434","0","[[2,0,0],[1,0],[3]]","7","[[3,0,0],[2,0],[1]]","17","0","","","","","","5","","","","","","","","",""
"","","","","","single-stim-button","335","583872","0.0-2.0-62.7-0.7","615c777509f34c8977bc45a7","D2","batch4","","777","tol_tohand","","","","tol_peg_1","777","777","0","[[0,0,0],[1,0],[3]]","8","[[3,0,0],[2,0],[1]]","17","0","","","","","","5","","","","","","","","",""
"","","","","","single-stim-button","336","584476","0.0-2.0-62.7-1.7","615c777509f34c8977bc45a7","D2","batch4","","604","tol_toboard","","","","tol_peg_2","604","604","0","[[0,0,0],[1,2],[3]]","8","[[3,0,0],[2,0],[1]]","17","0","","","","","","5","","","","","","","","",""
"","","","","","single-stim-button","337","585124","0.0-2.0-62.8-0.8","615c777509f34c8977bc45a7","D2","batch4","","648","tol_tohand","","","","tol_peg_3","648","648","0","[[0,0,0],[1,2],[0]]","9","[[3,0,0],[2,0],[1]]","17","0","","","","","","5","","","","","","","","",""
"","","","","","single-stim-button","338","585612","0.0-2.0-62.8-1.8","615c777509f34c8977bc45a7","D2","batch4","","486","tol_toboard","","","","tol_peg_1","486","486","0","[[3,0,0],[1,2],[0]]","9","[[3,0,0],[2,0],[1]]","17","0","","","","","","5","","","","","","","","",""
"","","","","","single-stim-button","339","586936","0.0-2.0-62.9-0.9","615c777509f34c8977bc45a7","D2","batch4","","1323","tol_tohand","","","","tol_peg_2","1323","1323","0","[[3,0,0],[1,0],[0]]","10","[[3,0,0],[2,0],[1]]","17","0","","","","","","5","","","","","","","","",""
"","","","","","single-stim-button","340","587400","0.0-2.0-62.9-1.9","615c777509f34c8977bc45a7","D2","batch4","","464","tol_toboard","","","","tol_peg_1","464","464","0","[[3,2,0],[1,0],[0]]","10","[[3,0,0],[2,0],[1]]","17","0","","","","","","5","","","","","","","","",""
"","","","","","single-stim-button","341","587799","0.0-2.0-62.10-0.10","615c777509f34c8977bc45a7","D2","batch4","","399","tol_tohand","","","","tol_peg_2","399","399","0","[[3,2,0],[0,0],[0]]","11","[[3,0,0],[2,0],[1]]","17","0","","","","","","5","","","","","","","","",""
"","","","","","single-stim-button","342","588148","0.0-2.0-62.10-1.10","615c777509f34c8977bc45a7","D2","batch4","","348","tol_toboard","","","","tol_peg_3","348","348","0","[[3,2,0],[0,0],[1]]","11","[[3,0,0],[2,0],[1]]","17","0","","","","","","5","","","","","","","","",""
"","","","","","single-stim-button","343","588607","0.0-2.0-62.11-0.11","615c777509f34c8977bc45a7","D2","batch4","","459","tol_tohand","","","","tol_peg_1","459","459","0","[[3,0,0],[0,0],[1]]","12","[[3,0,0],[2,0],[1]]","17","0","","","","","","5","","","","","","","","",""
"","","","","","single-stim-button","344","589236","0.0-2.0-62.11-1.11","615c777509f34c8977bc45a7","D2","batch4","","629","tol_toboard","","","","tol_peg_2","629","629","0","[[3,0,0],[2,0],[1]]","12","[[3,0,0],[2,0],[1]]","17","0","","","","","","5","","","","","","","","",""
"","","","","","poldrack-single-stim","345","590237","0.0-2.0-63.0","615c777509f34c8977bc45a7","D2","batch4","","-1","tol_feedback","","","true","","1000","1000","500","","","","","","-1","none","true","2873","16630","","","","","","","","","",""
"","","","","","html-button-response","346","591478","0.0-2.0-64.0","615c777509f34c8977bc45a7","D2","batch4","","1240.1000000000931","tol_trial_num","<div class = centerbox><p class = center-block-text>problem <strong>19</strong> out of 25 problems</p></div>","0","","","","","","","","","","","","","","","","","","","","","","","","",""
"","","","","","single-stim-button","347","595370","0.0-2.0-65.0-0.0","615c777509f34c8977bc45a7","D2","batch4","","3891","tol_tohand","","","","tol_peg_2","3891","3891","0","[[1,2,0],[0,0],[0]]","1","[[0,0,0],[1,2],[3]]","18","0","","","","","","7","","","","","","","","",""
"","","","","","single-stim-button","348","600473","0.0-2.0-65.0-1.0","615c777509f34c8977bc45a7","D2","batch4","","5103","tol_toboard","","","","tol_peg_3","5103","5103","0","[[1,2,0],[0,0],[3]]","1","[[0,0,0],[1,2],[3]]","18","0","","","","","","7","","","","","","","","",""
"","","","","","single-stim-button","349","609403","0.0-2.0-65.1-0.1","615c777509f34c8977bc45a7","D2","batch4","","8929","tol_tohand","","","","tol_peg_1","8929","8929","0","[[1,0,0],[0,0],[3]]","2","[[0,0,0],[1,2],[3]]","18","0","","","","","","7","","","","","","","","",""
"","","","","","single-stim-button","350","611059","0.0-2.0-65.1-1.1","615c777509f34c8977bc45a7","D2","batch4","","1655","tol_toboard","","","","tol_peg_2","1655","1655","0","[[1,0,0],[2,0],[3]]","2","[[0,0,0],[1,2],[3]]","18","0","","","","","","7","","","","","","","","",""
"","","","","","single-stim-button","351","612153","0.0-2.0-65.2-0.2","615c777509f34c8977bc45a7","D2","batch4","","1093","tol_tohand","","","","tol_peg_1","1093","1093","0","[[0,0,0],[2,0],[3]]","3","[[0,0,0],[1,2],[3]]","18","0","","","","","","7","","","","","","","","",""
"","","","","","single-stim-button","352","612740","0.0-2.0-65.2-1.2","615c777509f34c8977bc45a7","D2","batch4","","587","tol_toboard","","","","tol_peg_2","587","587","0","[[0,0,0],[2,1],[3]]","3","[[0,0,0],[1,2],[3]]","18","0","","","","","","7","","","","","","","","",""
"","","","","","single-stim-button","353","618013","0.0-2.0-65.3-0.3","615c777509f34c8977bc45a7","D2","batch4","","5272","tol_tohand","","","","tol_peg_3","5272","5272","0","[[0,0,0],[2,1],[0]]","4","[[0,0,0],[1,2],[3]]","18","0","","","","","","7","","","","","","","","",""
"","","","","","single-stim-button","354","620955","0.0-2.0-65.3-1.3","615c777509f34c8977bc45a7","D2","batch4","","2942","tol_toboard","","","","tol_peg_3","2942","2942","0","[[0,0,0],[2,1],[3]]","4","[[0,0,0],[1,2],[3]]","18","0","","","","","","7","","","","","","","","",""
"","","","","","single-stim-button","355","621798","0.0-2.0-65.4-0.4","615c777509f34c8977bc45a7","D2","batch4","","843","tol_tohand","","","","tol_peg_2","843","843","0","[[0,0,0],[2,0],[3]]","5","[[0,0,0],[1,2],[3]]","18","0","","","","","","7","","","","","","","","",""
"","","","","","single-stim-button","356","624989","0.0-2.0-65.4-1.4","615c777509f34c8977bc45a7","D2","batch4","","3190","tol_toboard","","","","tol_peg_1","3190","3190","0","[[1,0,0],[2,0],[3]]","5","[[0,0,0],[1,2],[3]]","18","0","","","","","","7","","","","","","","","",""
