"success","timeout","failed_images","failed_audio","failed_video","trial_type","trial_index","time_elapsed","internal_node_id","subject_id","study_id","session_id","view_history","rt","task","stimulus","response","correct","mouse_click","stim_duration","block_duration","timing_post_trial","current_position","tol_num_moves_made","tol_target","tol_problem_id","tol_rt","key_press","possible_responses","tol_correct","preplanning","tol_rt_per_trial","tol_min_moves","answer","item","fiar_detect_rt","fiar_detect_correct","total_correct_fiar_detect","post_trial_gap","choices","spm_correct","spm_rt"
"true","false","[]","[]","[]","preload","0","607","0.0-0.0","615eddb82c272bfc2abe6904","B2","batch2","","","","","","","","","","","","","","","","","","","","","","","","","","","","","",""
"true","","","","","fullscreen","1","14706","0.0-1.0-0.0","615eddb82c272bfc2abe6904","B2","batch2","","","","","","","","","","","","","","","","","","","","","","","","","","","","","",""
"true","","","","","fullscreen","2","18152","0.0-2.0-0.0","615eddb82c272bfc2abe6904","B2","batch2","","","","","","","","","","","","","","","","","","","","","","","","","","","","","",""
"","","","","","instructions","3","58933","0.0-2.0-1.0-0.0-0.0","615eddb82c272bfc2abe6904","B2","batch2","[{""page_index"":0,""viewing_time"":10838.900000035763},{""page_index"":1,""viewing_time"":8951.799999952316},{""page_index"":2,""viewing_time"":4173.900000035763},{""page_index"":3,""viewing_time"":5812.099999964237},{""page_index"":4,""viewing_time"":5850},{""page_index"":5,""viewing_time"":2546},{""page_index"":6,""viewing_time"":2608.100000023842}]","40781","tol-instructions","","","","","","","","","","","","","","","","","","","","","","","","","","",""
"","","","","","html-button-response","4","60062","0.0-2.0-1.0-1.0-0.0","615eddb82c272bfc2abe6904","B2","batch2","","1127.4000000357628","tol_enter_quiz","<p class=block-text> Let's answer a few questions <br>","0","","","","","","","","","","","","","","","","","","","","","","","","",""
"","","","","","html-button-response","5","64267","0.0-2.0-1.0-1.0-1.0","615eddb82c272bfc2abe6904","B2","batch2","","4205.100000023842","tol_quiz","<p class = block-text>True or False: You can only move the ball on top of a peg. <br></p>","0","true","","","","","","","","","","","","","","","","","","","","","","","",""
"","","","","","html-button-response","6","66300","0.0-2.0-1.0-1.0-2.0","615eddb82c272bfc2abe6904","B2","batch2","","2032.1000000238419","tol_quiz_feedback","<p class = block-text>Correct! You can only move the ball on top of a peg.</p>","0","","","","","","","","","","","","","","","","","","","","","","","","",""
"","","","","","html-button-response","7","70262","0.0-2.0-1.0-1.0-3.0","615eddb82c272bfc2abe6904","B2","batch2","","3961.600000023842","tol_quiz","<p class = block-text>True or False: You should try to match your board with the target board with fewest moves possible. <br></p>","0","true","","","","","","","","","","","","","","","","","","","","","","","",""
"","","","","","html-button-response","8","70883","0.0-2.0-1.0-1.0-4.0","615eddb82c272bfc2abe6904","B2","batch2","","620.1000000238419","tol_quiz_feedback","<p class = block-text>Correct! </p>","0","","","","","","","","","","","","","","","","","","","","","","","","",""
"","","","","","html-button-response","9","72181","0.0-2.0-2.0","615eddb82c272bfc2abe6904","B2","batch2","","1297.199999988079","","<p class=block-text> Now that you've understood the game, let's practice a few easier examples before we start!<br> <br>","0","","","","","","","","","","","","","","","","","","","","","","","","",""
"","","","","","single-stim-button","10","75389","0.0-2.0-3.0-0.0","615eddb82c272bfc2abe6904","B2","batch2","","3206","tol_practice","","","","tol_peg_2","3206","3206","0","[[1,2,0],[0,0],[0]]","1","[[1,2,0],[0,0],[3]]","practice","3206","","","","","","","","","","","","","","",""
"","","","","","single-stim-button","11","77112","0.0-2.0-3.0-1.0","615eddb82c272bfc2abe6904","B2","batch2","","1723","tol_practice","","","","tol_peg_3","1723","1723","0","[[1,2,0],[0,0],[3]]","1","[[1,2,0],[0,0],[3]]","practice","1723","","","","","","","","","","","","","","",""
"","","","","","poldrack-single-stim","12","78114","0.0-2.0-4.0","615eddb82c272bfc2abe6904","B2","batch2","","-1","tol_feedback","","","true","","1000","1000","500","","","","","","-1","none","true","","0","","","","","","","","","",""
"","","","","","single-stim-button","13","81697","0.0-2.0-5.0-0.0","615eddb82c272bfc2abe6904","B2","batch2","","3583","tol_practice","","","","tol_peg_1","3583","3583","0","[[1,0,0],[3,0],[0]]","2","[[0,0,0],[3,1],[2]]","practice","3583","","","","","","","","","","","","","","",""
"","","","","","single-stim-button","14","82632","0.0-2.0-5.0-1.0","615eddb82c272bfc2abe6904","B2","batch2","","934","tol_practice","","","","tol_peg_3","934","934","0","[[1,0,0],[3,0],[2]]","2","[[0,0,0],[3,1],[2]]","practice","934","","","","","","","","","","","","","","",""
"","","","","","single-stim-button","15","83317","0.0-2.0-5.1-0.1","615eddb82c272bfc2abe6904","B2","batch2","","684","tol_practice","","","","tol_peg_1","684","684","0","[[0,0,0],[3,0],[2]]","3","[[0,0,0],[3,1],[2]]","practice","684","","","","","","","","","","","","","","",""
"","","","","","single-stim-button","16","83819","0.0-2.0-5.1-1.1","615eddb82c272bfc2abe6904","B2","batch2","","501","tol_practice","","","","tol_peg_2","501","501","0","[[0,0,0],[3,1],[2]]","3","[[0,0,0],[3,1],[2]]","practice","501","","","","","","","","","","","","","","",""
"","","","","","poldrack-single-stim","17","84832","0.0-2.0-6.0","615eddb82c272bfc2abe6904","B2","batch2","","-1","tol_feedback","","","true","","1000","1000","500","","","","","","-1","none","true","","0","","","","","","","","","",""
"","","","","","single-stim-button","18","87509","0.0-2.0-7.0-0.0","615eddb82c272bfc2abe6904","B2","batch2","","2676","tol_practice","","","","tol_peg_2","2676","2676","0","[[1,2,0],[0,0],[0]]","4","[[1,0,0],[2,0],[3]]","practice","2676","","","","","","","","","","","","","","",""
"","","","","","single-stim-button","19","88368","0.0-2.0-7.0-1.0","615eddb82c272bfc2abe6904","B2","batch2","","859","tol_practice","","","","tol_peg_3","859","859","0","[[1,2,0],[0,0],[3]]","4","[[1,0,0],[2,0],[3]]","practice","859","","","","","","","","","","","","","","",""
"","","","","","single-stim-button","20","88932","0.0-2.0-7.1-0.1","615eddb82c272bfc2abe6904","B2","batch2","","563","tol_practice","","","","tol_peg_1","563","563","0","[[1,0,0],[0,0],[3]]","5","[[1,0,0],[2,0],[3]]","practice","563","","","","","","","","","","","","","","",""
"","","","","","single-stim-button","21","89457","0.0-2.0-7.1-1.1","615eddb82c272bfc2abe6904","B2","batch2","","524","tol_practice","","","","tol_peg_2","524","524","0","[[1,0,0],[2,0],[3]]","5","[[1,0,0],[2,0],[3]]","practice","524","","","","","","","","","","","","","","",""
"","","","","","poldrack-single-stim","22","90462","0.0-2.0-8.0","615eddb82c272bfc2abe6904","B2","batch2","","-1","tol_feedback","","","true","","1000","1000","500","","","","","","-1","none","true","","0","","","","","","","","","",""
"","","","","","html-button-response","23","92358","0.0-2.0-9.0","615eddb82c272bfc2abe6904","B2","batch2","","1896.4000000357628","tol_instruction","<div class = centerbox><p class = center-block-text>Great job! You are done with practice trials<br>You are about to start official trials.<br> <br> Problem <strong>1</strong> out of 25 problems</p></div>","0","","","","","","","","","","","","","","","","","","","","","","","","",""
"","","","","","single-stim-button","24","97747","0.0-2.0-10.0-0.0","615eddb82c272bfc2abe6904","B2","batch2","","4387","tol_tohand","","","","tol_peg_2","4387","4387","0","[[1,2,0],[0,0],[0]]","1","[[1,3,0],[2,0],[0]]","0","0","","","","","","3","","","","","","","","",""
"","","","","","single-stim-button","25","101366","0.0-2.0-10.0-1.0","615eddb82c272bfc2abe6904","B2","batch2","","3617","tol_toboard","","","","tol_peg_3","3617","3617","0","[[1,2,0],[0,0],[3]]","1","[[1,3,0],[2,0],[0]]","0","0","","","","","","3","","","","","","","","",""
"","","","","","single-stim-button","26","102510","0.0-2.0-10.1-0.1","615eddb82c272bfc2abe6904","B2","batch2","","1144","tol_tohand","","","","tol_peg_1","1144","1144","0","[[1,0,0],[0,0],[3]]","2","[[1,3,0],[2,0],[0]]","0","0","","","","","","3","","","","","","","","",""
"","","","","","single-stim-button","27","103073","0.0-2.0-10.1-1.1","615eddb82c272bfc2abe6904","B2","batch2","","562","tol_toboard","","","","tol_peg_2","562","562","0","[[1,0,0],[2,0],[3]]","2","[[1,3,0],[2,0],[0]]","0","0","","","","","","3","","","","","","","","",""
"","","","","","single-stim-button","28","103445","0.0-2.0-10.2-0.2","615eddb82c272bfc2abe6904","B2","batch2","","372","tol_tohand","","","","tol_peg_3","372","372","0","[[1,0,0],[2,0],[0]]","3","[[1,3,0],[2,0],[0]]","0","0","","","","","","3","","","","","","","","",""
"","","","","","single-stim-button","29","104209","0.0-2.0-10.2-1.2","615eddb82c272bfc2abe6904","B2","batch2","","764","tol_toboard","","","","tol_peg_1","764","764","0","[[1,3,0],[2,0],[0]]","3","[[1,3,0],[2,0],[0]]","0","0","","","","","","3","","","","","","","","",""
"","","","","","poldrack-single-stim","30","105218","0.0-2.0-11.0","615eddb82c272bfc2abe6904","B2","batch2","","-1","tol_feedback","","","true","","1000","1000","500","","","","","","-1","none","true","4387","5903","","","","","","","","","",""
"","","","","","html-button-response","31","106084","0.0-2.0-12.0","615eddb82c272bfc2abe6904","B2","batch2","","866","tol_trial_num","<div class = centerbox><p class = center-block-text>problem <strong>2</strong> out of 25 problems</p></div>","0","","","","","","","","","","","","","","","","","","","","","","","","",""
"","","","","","single-stim-button","32","109520","0.0-2.0-13.0-0.0","615eddb82c272bfc2abe6904","B2","batch2","","3435","tol_tohand","","","","tol_peg_1","3435","3435","0","[[1,0,0],[3,0],[0]]","1","[[2,1,3],[0,0],[0]]","1","0","","","","","","5","","","","","","","","",""
"","","","","","single-stim-button","33","110205","0.0-2.0-13.0-1.0","615eddb82c272bfc2abe6904","B2","batch2","","684","tol_toboard","","","","tol_peg_3","684","684","0","[[1,0,0],[3,0],[2]]","1","[[2,1,3],[0,0],[0]]","1","0","","","","","","5","","","","","","","","",""
"","","","","","single-stim-button","34","112827","0.0-2.0-13.1-0.1","615eddb82c272bfc2abe6904","B2","batch2","","2621","tol_tohand","","","","tol_peg_1","2621","2621","0","[[0,0,0],[3,0],[2]]","2","[[2,1,3],[0,0],[0]]","1","0","","","","","","5","","","","","","","","",""
"","","","","","single-stim-button","35","113381","0.0-2.0-13.1-1.1","615eddb82c272bfc2abe6904","B2","batch2","","553","tol_toboard","","","","tol_peg_2","553","553","0","[[0,0,0],[3,1],[2]]","2","[[2,1,3],[0,0],[0]]","1","0","","","","","","5","","","","","","","","",""
"","","","","","single-stim-button","36","113797","0.0-2.0-13.2-0.2","615eddb82c272bfc2abe6904","B2","batch2","","416","tol_tohand","","","","tol_peg_3","416","416","0","[[0,0,0],[3,1],[0]]","3","[[2,1,3],[0,0],[0]]","1","0","","","","","","5","","","","","","","","",""
"","","","","","single-stim-button","37","114790","0.0-2.0-13.2-1.2","615eddb82c272bfc2abe6904","B2","batch2","","993","tol_toboard","","","","tol_peg_1","993","993","0","[[2,0,0],[3,1],[0]]","3","[[2,1,3],[0,0],[0]]","1","0","","","","","","5","","","","","","","","",""
"","","","","","single-stim-button","38","115237","0.0-2.0-13.3-0.3","615eddb82c272bfc2abe6904","B2","batch2","","447","tol_tohand","","","","tol_peg_2","447","447","0","[[2,0,0],[3,0],[0]]","4","[[2,1,3],[0,0],[0]]","1","0","","","","","","5","","","","","","","","",""
"","","","","","single-stim-button","39","115511","0.0-2.0-13.3-1.3","615eddb82c272bfc2abe6904","B2","batch2","","273","tol_toboard","","","","tol_peg_1","273","273","0","[[2,1,0],[3,0],[0]]","4","[[2,1,3],[0,0],[0]]","1","0","","","","","","5","","","","","","","","",""
"","","","","","single-stim-button","40","115883","0.0-2.0-13.4-0.4","615eddb82c272bfc2abe6904","B2","batch2","","372","tol_tohand","","","","tol_peg_2","372","372","0","[[2,1,0],[0,0],[0]]","5","[[2,1,3],[0,0],[0]]","1","0","","","","","","5","","","","","","","","",""
"","","","","","single-stim-button","41","116326","0.0-2.0-13.4-1.4","615eddb82c272bfc2abe6904","B2","batch2","","441","tol_toboard","","","","tol_peg_1","441","441","0","[[2,1,3],[0,0],[0]]","5","[[2,1,3],[0,0],[0]]","1","0","","","","","","5","","","","","","","","",""
"","","","","","poldrack-single-stim","42","117326","0.0-2.0-14.0","615eddb82c272bfc2abe6904","B2","batch2","","-1","tol_feedback","","","true","","1000","1000","500","","","","","","-1","none","true","3435","7291","","","","","","","","","",""
"","","","","","html-button-response","43","118236","0.0-2.0-15.0","615eddb82c272bfc2abe6904","B2","batch2","","909.6000000238419","tol_trial_num","<div class = centerbox><p class = center-block-text>problem <strong>3</strong> out of 25 problems</p></div>","0","","","","","","","","","","","","","","","","","","","","","","","","",""
"","","","","","single-stim-button","44","123105","0.0-2.0-16.0-0.0","615eddb82c272bfc2abe6904","B2","batch2","","4867","tol_tohand","","","","tol_peg_1","4867","4867","0","[[2,0,0],[0,0],[1]]","1","[[1,2,0],[3,0],[0]]","2","0","","","","","","4","","","","","","","","",""
"","","","","","single-stim-button","45","123865","0.0-2.0-16.0-1.0","615eddb82c272bfc2abe6904","B2","batch2","","760","tol_toboard","","","","tol_peg_2","760","760","0","[[2,0,0],[3,0],[1]]","1","[[1,2,0],[3,0],[0]]","2","0","","","","","","4","","","","","","","","",""
"","","","","","single-stim-button","46","124435","0.0-2.0-16.1-0.1","615eddb82c272bfc2abe6904","B2","batch2","","570","tol_tohand","","","","tol_peg_1","570","570","0","[[0,0,0],[3,0],[1]]","2","[[1,2,0],[3,0],[0]]","2","0","","","","","","4","","","","","","","","",""
"","","","","","single-stim-button","47","124880","0.0-2.0-16.1-1.1","615eddb82c272bfc2abe6904","B2","batch2","","443","tol_toboard","","","","tol_peg_2","443","443","0","[[0,0,0],[3,2],[1]]","2","[[1,2,0],[3,0],[0]]","2","0","","","","","","4","","","","","","","","",""
"","","","","","single-stim-button","48","125223","0.0-2.0-16.2-0.2","615eddb82c272bfc2abe6904","B2","batch2","","343","tol_tohand","","","","tol_peg_3","343","343","0","[[0,0,0],[3,2],[0]]","3","[[1,2,0],[3,0],[0]]","2","0","","","","","","4","","","","","","","","",""
"","","","","","single-stim-button","49","125804","0.0-2.0-16.2-1.2","615eddb82c272bfc2abe6904","B2","batch2","","580","tol_toboard","","","","tol_peg_1","580","580","0","[[1,0,0],[3,2],[0]]","3","[[1,2,0],[3,0],[0]]","2","0","","","","","","4","","","","","","","","",""
"","","","","","single-stim-button","50","126148","0.0-2.0-16.3-0.3","615eddb82c272bfc2abe6904","B2","batch2","","344","tol_tohand","","","","tol_peg_2","344","344","0","[[1,0,0],[3,0],[0]]","4","[[1,2,0],[3,0],[0]]","2","0","","","","","","4","","","","","","","","",""
"","","","","","single-stim-button","51","126556","0.0-2.0-16.3-1.3","615eddb82c272bfc2abe6904","B2","batch2","","407","tol_toboard","","","","tol_peg_1","407","407","0","[[1,2,0],[3,0],[0]]","4","[[1,2,0],[3,0],[0]]","2","0","","","","","","4","","","","","","","","",""
"","","","","","poldrack-single-stim","52","127557","0.0-2.0-17.0","615eddb82c272bfc2abe6904","B2","batch2","","-1","tol_feedback","","","true","","1000","1000","500","","","","","","-1","none","true","4867","6124","","","","","","","","","",""
"","","","","","html-button-response","53","128442","0.0-2.0-18.0","615eddb82c272bfc2abe6904","B2","batch2","","883.6999999880791","tol_trial_num","<div class = centerbox><p class = center-block-text>problem <strong>4</strong> out of 25 problems</p></div>","0","","","","","","","","","","","","","","","","","","","","","","","","",""
"","","","","","single-stim-button","54","132066","0.0-2.0-19.0-0.0","615eddb82c272bfc2abe6904","B2","batch2","","3623","tol_tohand","","","","tol_peg_2","3623","3623","0","[[3,0,0],[2,0],[0]]","1","[[3,0,0],[1,0],[2]]","3","0","","","","","","3","","","","","","","","",""
"","","","","","single-stim-button","55","132571","0.0-2.0-19.0-1.0","615eddb82c272bfc2abe6904","B2","batch2","","504","tol_toboard","","","","tol_peg_1","504","504","0","[[3,1,0],[2,0],[0]]","1","[[3,0,0],[1,0],[2]]","3","0","","","","","","3","","","","","","","","",""
"","","","","","single-stim-button","56","133037","0.0-2.0-19.1-0.1","615eddb82c272bfc2abe6904","B2","batch2","","466","tol_tohand","","","","tol_peg_2","466","466","0","[[3,1,0],[0,0],[0]]","2","[[3,0,0],[1,0],[2]]","3","0","","","","","","3","","","","","","","","",""
"","","","","","single-stim-button","57","133447","0.0-2.0-19.1-1.1","615eddb82c272bfc2abe6904","B2","batch2","","408","tol_toboard","","","","tol_peg_3","408","408","0","[[3,1,0],[0,0],[2]]","2","[[3,0,0],[1,0],[2]]","3","0","","","","","","3","","","","","","","","",""
"","","","","","single-stim-button","58","133947","0.0-2.0-19.2-0.2","615eddb82c272bfc2abe6904","B2","batch2","","500","tol_tohand","","","","tol_peg_1","500","500","0","[[3,0,0],[0,0],[2]]","3","[[3,0,0],[1,0],[2]]","3","0","","","","","","3","","","","","","","","",""
"","","","","","single-stim-button","59","134254","0.0-2.0-19.2-1.2","615eddb82c272bfc2abe6904","B2","batch2","","307","tol_toboard","","","","tol_peg_2","307","307","0","[[3,0,0],[1,0],[2]]","3","[[3,0,0],[1,0],[2]]","3","0","","","","","","3","","","","","","","","",""
"","","","","","poldrack-single-stim","60","135269","0.0-2.0-20.0","615eddb82c272bfc2abe6904","B2","batch2","","-1","tol_feedback","","","true","","1000","1000","500","","","","","","-1","none","true","3623","4589","","","","","","","","","",""
"","","","","","html-button-response","61","136193","0.0-2.0-21.0","615eddb82c272bfc2abe6904","B2","batch2","","922.9000000357628","tol_trial_num","<div class = centerbox><p class = center-block-text>problem <strong>5</strong> out of 25 problems</p></div>","0","","","","","","","","","","","","","","","","","","","","","","","","",""
"","","","","","single-stim-button","62","185006","0.0-2.0-22.0-0.0","615eddb82c272bfc2abe6904","B2","batch2","","48812","tol_tohand","","","","tol_peg_3","48812","48812","0","[[1,0,0],[2,0],[0]]","1","[[0,0,0],[1,2],[3]]","4","0","","","","","","7","","","","","","","","",""
"","","","","","single-stim-button","63","186571","0.0-2.0-22.0-1.0","615eddb82c272bfc2abe6904","B2","batch2","","1565","tol_toboard","","","","tol_peg_2","1565","1565","0","[[1,0,0],[2,3],[0]]","1","[[0,0,0],[1,2],[3]]","4","0","","","","","","7","","","","","","","","",""
"","","","","","single-stim-button","64","187154","0.0-2.0-22.1-0.1","615eddb82c272bfc2abe6904","B2","batch2","","582","tol_tohand","","","","tol_peg_1","582","582","0","[[0,0,0],[2,3],[0]]","2","[[0,0,0],[1,2],[3]]","4","0","","","","","","7","","","","","","","","",""
"","","","","","single-stim-button","65","188198","0.0-2.0-22.1-1.1","615eddb82c272bfc2abe6904","B2","batch2","","1044","tol_toboard","","","","tol_peg_3","1044","1044","0","[[0,0,0],[2,3],[1]]","2","[[0,0,0],[1,2],[3]]","4","0","","","","","","7","","","","","","","","",""
"","","","","","single-stim-button","66","193644","0.0-2.0-22.2-0.2","615eddb82c272bfc2abe6904","B2","batch2","","5445","tol_tohand","","","","tol_peg_2","5445","5445","0","[[0,0,0],[2,0],[1]]","3","[[0,0,0],[1,2],[3]]","4","0","","","","","","7","","","","","","","","",""
"","","","","","single-stim-button","67","194128","0.0-2.0-22.2-1.2","615eddb82c272bfc2abe6904","B2","batch2","","483","tol_toboard","","","","tol_peg_1","483","483","0","[[3,0,0],[2,0],[1]]","3","[[0,0,0],[1,2],[3]]","4","0","","","","","","7","","","","","","","","",""
"","","","","","single-stim-button","68","194726","0.0-2.0-22.3-0.3","615eddb82c272bfc2abe6904","B2","batch2","","598","tol_tohand","","","","tol_peg_2","598","598","0","[[3,0,0],[0,0],[1]]","4","[[0,0,0],[1,2],[3]]","4","0","","","","","","7","","","","","","","","",""
"","","","","","single-stim-button","69","195498","0.0-2.0-22.3-1.3","615eddb82c272bfc2abe6904","B2","batch2","","771","tol_toboard","","","","tol_peg_1","771","771","0","[[3,2,0],[0,0],[1]]","4","[[0,0,0],[1,2],[3]]","4","0","","","","","","7","","","","","","","","",""
"","","","","","single-stim-button","70","196687","0.0-2.0-22.4-0.4","615eddb82c272bfc2abe6904","B2","batch2","","1188","tol_tohand","","","","tol_peg_3","1188","1188","0","[[3,2,0],[0,0],[0]]","5","[[0,0,0],[1,2],[3]]","4","0","","","","","","7","","","","","","","","",""
"","","","","","single-stim-button","71","197412","0.0-2.0-22.4-1.4","615eddb82c272bfc2abe6904","B2","batch2","","724","tol_toboard","","","","tol_peg_2","724","724","0","[[3,2,0],[1,0],[0]]","5","[[0,0,0],[1,2],[3]]","4","0","","","","","","7","","","","","","","","",""
"","","","","","single-stim-button","72","197934","0.0-2.0-22.5-0.5","615eddb82c272bfc2abe6904","B2","batch2","","521","tol_tohand","","","","tol_peg_1","521","521","0","[[3,0,0],[1,0],[0]]","6","[[0,0,0],[1,2],[3]]","4","0","","","","","","7","","","","","","","","",""
"","","","","","single-stim-button","73","198267","0.0-2.0-22.5-1.5","615eddb82c272bfc2abe6904","B2","batch2","","333","tol_toboard","","","","tol_peg_2","333","333","0","[[3,0,0],[1,2],[0]]","6","[[0,0,0],[1,2],[3]]","4","0","","","","","","7","","","","","","","","",""
"","","","","","single-stim-button","74","198662","0.0-2.0-22.6-0.6","615eddb82c272bfc2abe6904","B2","batch2","","395","tol_tohand","","","","tol_peg_1","395","395","0","[[0,0,0],[1,2],[0]]","7","[[0,0,0],[1,2],[3]]","4","0","","","","","","7","","","","","","","","",""
"","","","","","single-stim-button","75","199006","0.0-2.0-22.6-1.6","615eddb82c272bfc2abe6904","B2","batch2","","343","tol_toboard","","","","tol_peg_3","343","343","0","[[0,0,0],[1,2],[3]]","7","[[0,0,0],[1,2],[3]]","4","0","","","","","","7","","","","","","","","",""
"","","","","","poldrack-single-stim","76","200007","0.0-2.0-23.0","615eddb82c272bfc2abe6904","B2","batch2","","-1","tol_feedback","","","true","","1000","1000","500","","","","","","-1","none","true","48812","57541","","","","","","","","","",""
"","","","","","html-button-response","77","201555","0.0-2.0-24.0","615eddb82c272bfc2abe6904","B2","batch2","","1547.800000011921","tol_trial_num","<div class = centerbox><p class = center-block-text>problem <strong>6</strong> out of 25 problems</p></div>","0","","","","","","","","","","","","","","","","","","","","","","","","",""
"","","","","","single-stim-button","78","204808","0.0-2.0-25.0-0.0","615eddb82c272bfc2abe6904","B2","batch2","","3252","tol_tohand","","","","tol_peg_2","3252","3252","0","[[0,0,0],[1,0],[3]]","1","[[1,0,0],[2,3],[0]]","5","0","","","","","","6","","","","","","","","",""
"","","","","","single-stim-button","79","205962","0.0-2.0-25.0-1.0","615eddb82c272bfc2abe6904","B2","batch2","","1153","tol_toboard","","","","tol_peg_1","1153","1153","0","[[2,0,0],[1,0],[3]]","1","[[1,0,0],[2,3],[0]]","5","0","","","","","","6","","","","","","","","",""
"","","","","","single-stim-button","80","206485","0.0-2.0-25.1-0.1","615eddb82c272bfc2abe6904","B2","batch2","","521","tol_tohand","","","","tol_peg_2","521","521","0","[[2,0,0],[0,0],[3]]","2","[[1,0,0],[2,3],[0]]","5","0","","","","","","6","","","","","","","","",""
"","","","","","single-stim-button","81","208542","0.0-2.0-25.1-1.1","615eddb82c272bfc2abe6904","B2","batch2","","2057","tol_toboard","","","","tol_peg_1","2057","2057","0","[[2,1,0],[0,0],[3]]","2","[[1,0,0],[2,3],[0]]","5","0","","","","","","6","","","","","","","","",""
"","","","","","single-stim-button","82","209011","0.0-2.0-25.2-0.2","615eddb82c272bfc2abe6904","B2","batch2","","468","tol_tohand","","","","tol_peg_3","468","468","0","[[2,1,0],[0,0],[0]]","3","[[1,0,0],[2,3],[0]]","5","0","","","","","","6","","","","","","","","",""
"","","","","","single-stim-button","83","209660","0.0-2.0-25.2-1.2","615eddb82c272bfc2abe6904","B2","batch2","","648","tol_toboard","","","","tol_peg_2","648","648","0","[[2,1,0],[3,0],[0]]","3","[[1,0,0],[2,3],[0]]","5","0","","","","","","6","","","","","","","","",""
"","","","","","single-stim-button","84","210931","0.0-2.0-25.3-0.3","615eddb82c272bfc2abe6904","B2","batch2","","1270","tol_tohand","","","","tol_peg_1","1270","1270","0","[[2,0,0],[3,0],[0]]","4","[[1,0,0],[2,3],[0]]","5","0","","","","","","6","","","","","","","","",""
"","","","","","single-stim-button","85","212290","0.0-2.0-25.3-1.3","615eddb82c272bfc2abe6904","B2","batch2","","1359","tol_toboard","","","","tol_peg_3","1359","1359","0","[[2,0,0],[3,0],[1]]","4","[[1,0,0],[2,3],[0]]","5","0","","","","","","6","","","","","","","","",""
"","","","","","single-stim-button","86","212793","0.0-2.0-25.4-0.4","615eddb82c272bfc2abe6904","B2","batch2","","502","tol_tohand","","","","tol_peg_1","502","502","0","[[0,0,0],[3,0],[1]]","5","[[1,0,0],[2,3],[0]]","5","0","","","","","","6","","","","","","","","",""
"","","","","","single-stim-button","87","213110","0.0-2.0-25.4-1.4","615eddb82c272bfc2abe6904","B2","batch2","","316","tol_toboard","","","","tol_peg_2","316","316","0","[[0,0,0],[3,2],[1]]","5","[[1,0,0],[2,3],[0]]","5","0","","","","","","6","","","","","","","","",""
"","","","","","single-stim-button","88","213453","0.0-2.0-25.5-0.5","615eddb82c272bfc2abe6904","B2","batch2","","342","tol_tohand","","","","tol_peg_3","342","342","0","[[0,0,0],[3,2],[0]]","6","[[1,0,0],[2,3],[0]]","5","0","","","","","","6","","","","","","","","",""
"","","","","","single-stim-button","89","213915","0.0-2.0-25.5-1.5","615eddb82c272bfc2abe6904","B2","batch2","","462","tol_toboard","","","","tol_peg_1","462","462","0","[[1,0,0],[3,2],[0]]","6","[[1,0,0],[2,3],[0]]","5","0","","","","","","6","","","","","","","","",""
"","","","","","single-stim-button","90","215682","0.0-2.0-25.6-0.6","615eddb82c272bfc2abe6904","B2","batch2","","1766","tol_tohand","","","","tol_peg_2","1766","1766","0","[[1,0,0],[3,0],[0]]","7","[[1,0,0],[2,3],[0]]","5","0","","","","","","6","","","","","","","","",""
"","","","","","single-stim-button","91","216128","0.0-2.0-25.6-1.6","615eddb82c272bfc2abe6904","B2","batch2","","445","tol_toboard","","","","tol_peg_1","445","445","0","[[1,2,0],[3,0],[0]]","7","[[1,0,0],[2,3],[0]]","5","0","","","","","","6","","","","","","","","",""
"","","","","","single-stim-button","92","216591","0.0-2.0-25.7-0.7","615eddb82c272bfc2abe6904","B2","batch2","","462","tol_tohand","","","","tol_peg_2","462","462","0","[[1,2,0],[0,0],[0]]","8","[[1,0,0],[2,3],[0]]","5","0","","","","","","6","","","","","","","","",""
"","","","","","single-stim-button","93","217001","0.0-2.0-25.7-1.7","615eddb82c272bfc2abe6904","B2","batch2","","409","tol_toboard","","","","tol_peg_3","409","409","0","[[1,2,0],[0,0],[3]]","8","[[1,0,0],[2,3],[0]]","5","0","","","","","","6","","","","","","","","",""
"","","","","","single-stim-button","94","218109","0.0-2.0-25.8-0.8","615eddb82c272bfc2abe6904","B2","batch2","","1107","tol_tohand","","","","tol_peg_1","1107","1107","0","[[1,0,0],[0,0],[3]]","9","[[1,0,0],[2,3],[0]]","5","0","","","","","","6","","","","","","","","",""
"","","","","","single-stim-button","95","218396","0.0-2.0-25.8-1.8","615eddb82c272bfc2abe6904","B2","batch2","","287","tol_toboard","","","","tol_peg_2","287","287","0","[[1,0,0],[2,0],[3]]","9","[[1,0,0],[2,3],[0]]","5","0","","","","","","6","","","","","","","","",""
"","","","","","single-stim-button","96","218726","0.0-2.0-25.9-0.9","615eddb82c272bfc2abe6904","B2","batch2","","330","tol_tohand","","","","tol_peg_3","330","330","0","[[1,0,0],[2,0],[0]]","10","[[1,0,0],[2,3],[0]]","5","0","","","","","","6","","","","","","","","",""
"","","","","","single-stim-button","97","218969","0.0-2.0-25.9-1.9","615eddb82c272bfc2abe6904","B2","batch2","","243","tol_toboard","","","","tol_peg_2","243","243","0","[[1,0,0],[2,3],[0]]","10","[[1,0,0],[2,3],[0]]","5","0","","","","","","6","","","","","","","","",""
"","","","","","poldrack-single-stim","98","219978","0.0-2.0-26.0","615eddb82c272bfc2abe6904","B2","batch2","","-1","tol_feedback","","","true","","1000","1000","500","","","","","","-1","none","true","3252","10020","","","","","","","","","",""
"","","","","","html-button-response","99","220643","0.0-2.0-27.0","615eddb82c272bfc2abe6904","B2","batch2","","664.1999999880791","tol_trial_num","<div class = centerbox><p class = center-block-text>problem <strong>7</strong> out of 25 problems</p></div>","0","","","","","","","","","","","","","","","","","","","","","","","","",""
"","","","","","single-stim-button","100","224604","0.0-2.0-28.0-0.0","615eddb82c272bfc2abe6904","B2","batch2","","3961","tol_tohand","","","","tol_peg_1","3961","3961","0","[[2,0,0],[0,0],[3]]","1","[[1,2,0],[3,0],[0]]","6","0","","","","","","5","","","","","","","","",""
"","","","","","single-stim-button","101","228253","0.0-2.0-28.0-1.0","615eddb82c272bfc2abe6904","B2","batch2","","3648","tol_toboard","","","","tol_peg_2","3648","3648","0","[[2,0,0],[1,0],[3]]","1","[[1,2,0],[3,0],[0]]","6","0","","","","","","5","","","","","","","","",""
"","","","","","single-stim-button","102","228629","0.0-2.0-28.1-0.1","615eddb82c272bfc2abe6904","B2","batch2","","375","tol_tohand","","","","tol_peg_1","375","375","0","[[0,0,0],[1,0],[3]]","2","[[1,2,0],[3,0],[0]]","6","0","","","","","","5","","","","","","","","",""
"","","","","","single-stim-button","103","231037","0.0-2.0-28.1-1.1","615eddb82c272bfc2abe6904","B2","batch2","","2408","tol_toboard","","","","tol_peg_1","2408","2408","0","[[2,0,0],[1,0],[3]]","2","[[1,2,0],[3,0],[0]]","6","0","","","","","","5","","","","","","","","",""
"","","","","","single-stim-button","104","231673","0.0-2.0-28.2-0.2","615eddb82c272bfc2abe6904","B2","batch2","","635","tol_tohand","","","","tol_peg_3","635","635","0","[[2,0,0],[1,0],[0]]","3","[[1,2,0],[3,0],[0]]","6","0","","","","","","5","","","","","","","","",""
"","","","","","single-stim-button","105","232666","0.0-2.0-28.2-1.2","615eddb82c272bfc2abe6904","B2","batch2","","993","tol_toboard","","","","tol_peg_2","993","993","0","[[2,0,0],[1,3],[0]]","3","[[1,2,0],[3,0],[0]]","6","0","","","","","","5","","","","","","","","",""
"","","","","","single-stim-button","106","233133","0.0-2.0-28.3-0.3","615eddb82c272bfc2abe6904","B2","batch2","","466","tol_tohand","","","","tol_peg_1","466","466","0","[[0,0,0],[1,3],[0]]","4","[[1,2,0],[3,0],[0]]","6","0","","","","","","5","","","","","","","","",""
"","","","","","single-stim-button","107","233766","0.0-2.0-28.3-1.3","615eddb82c272bfc2abe6904","B2","batch2","","632","tol_toboard","","","","tol_peg_3","632","632","0","[[0,0,0],[1,3],[2]]","4","[[1,2,0],[3,0],[0]]","6","0","","","","","","5","","","","","","","","",""
"","","","","","single-stim-button","108","234849","0.0-2.0-28.4-0.4","615eddb82c272bfc2abe6904","B2","batch2","","1083","tol_tohand","","","","tol_peg_2","1083","1083","0","[[0,0,0],[1,0],[2]]","5","[[1,2,0],[3,0],[0]]","6","0","","","","","","5","","","","","","","","",""
"","","","","","single-stim-button","109","235765","0.0-2.0-28.4-1.4","615eddb82c272bfc2abe6904","B2","batch2","","915","tol_toboard","","","","tol_peg_1","915","915","0","[[3,0,0],[1,0],[2]]","5","[[1,2,0],[3,0],[0]]","6","0","","","","","","5","","","","","","","","",""
"","","","","","single-stim-button","110","236269","0.0-2.0-28.5-0.5","615eddb82c272bfc2abe6904","B2","batch2","","503","tol_tohand","","","","tol_peg_2","503","503","0","[[3,0,0],[0,0],[2]]","6","[[1,2,0],[3,0],[0]]","6","0","","","","","","5","","","","","","","","",""
"","","","","","single-stim-button","111","237547","0.0-2.0-28.5-1.5","615eddb82c272bfc2abe6904","B2","batch2","","1277","tol_toboard","","","","tol_peg_1","1277","1277","0","[[3,1,0],[0,0],[2]]","6","[[1,2,0],[3,0],[0]]","6","0","","","","","","5","","","","","","","","",""
"","","","","","single-stim-button","112","238026","0.0-2.0-28.6-0.6","615eddb82c272bfc2abe6904","B2","batch2","","479","tol_tohand","","","","tol_peg_3","479","479","0","[[3,1,0],[0,0],[0]]","7","[[1,2,0],[3,0],[0]]","6","0","","","","","","5","","","","","","","","",""
"","","","","","single-stim-button","113","238338","0.0-2.0-28.6-1.6","615eddb82c272bfc2abe6904","B2","batch2","","311","tol_toboard","","","","tol_peg_2","311","311","0","[[3,1,0],[2,0],[0]]","7","[[1,2,0],[3,0],[0]]","6","0","","","","","","5","","","","","","","","",""
"","","","","","single-stim-button","114","238729","0.0-2.0-28.7-0.7","615eddb82c272bfc2abe6904","B2","batch2","","390","tol_tohand","","","","tol_peg_1","390","390","0","[[3,0,0],[2,0],[0]]","8","[[1,2,0],[3,0],[0]]","6","0","","","","","","5","","","","","","","","",""
"","","","","","single-stim-button","115","239023","0.0-2.0-28.7-1.7","615eddb82c272bfc2abe6904","B2","batch2","","294","tol_toboard","","","","tol_peg_2","294","294","0","[[3,0,0],[2,1],[0]]","8","[[1,2,0],[3,0],[0]]","6","0","","","","","","5","","","","","","","","",""
"","","","","","single-stim-button","116","239401","0.0-2.0-28.8-0.8","615eddb82c272bfc2abe6904","B2","batch2","","377","tol_tohand","","","","tol_peg_1","377","377","0","[[0,0,0],[2,1],[0]]","9","[[1,2,0],[3,0],[0]]","6","0","","","","","","5","","","","","","","","",""
"","","","","","single-stim-button","117","240434","0.0-2.0-28.8-1.8","615eddb82c272bfc2abe6904","B2","batch2","","1032","tol_toboard","","","","tol_peg_3","1032","1032","0","[[0,0,0],[2,1],[3]]","9","[[1,2,0],[3,0],[0]]","6","0","","","","","","5","","","","","","","","",""
"","","","","","single-stim-button","118","240975","0.0-2.0-28.9-0.9","615eddb82c272bfc2abe6904","B2","batch2","","540","tol_tohand","","","","tol_peg_2","540","540","0","[[0,0,0],[2,0],[3]]","10","[[1,2,0],[3,0],[0]]","6","0","","","","","","5","","","","","","","","",""
"","","","","","single-stim-button","119","241445","0.0-2.0-28.9-1.9","615eddb82c272bfc2abe6904","B2","batch2","","469","tol_toboard","","","","tol_peg_1","469","469","0","[[1,0,0],[2,0],[3]]","10","[[1,2,0],[3,0],[0]]","6","0","","","","","","5","","","","","","","","",""
"","","","","","single-stim-button","120","241761","0.0-2.0-28.10-0.10","615eddb82c272bfc2abe6904","B2","batch2","","315","tol_tohand","","","","tol_peg_2","315","315","0","[[1,0,0],[0,0],[3]]","11","[[1,2,0],[3,0],[0]]","6","0","","","","","","5","","","","","","","","",""
"","","","","","single-stim-button","121","242079","0.0-2.0-28.10-1.10","615eddb82c272bfc2abe6904","B2","batch2","","316","tol_toboard","","","","tol_peg_1","316","316","0","[[1,2,0],[0,0],[3]]","11","[[1,2,0],[3,0],[0]]","6","0","","","","","","5","","","","","","","","",""
"","","","","","single-stim-button","122","242827","0.0-2.0-28.11-0.11","615eddb82c272bfc2abe6904","B2","batch2","","748","tol_tohand","","","","tol_peg_3","748","748","0","[[1,2,0],[0,0],[0]]","12","[[1,2,0],[3,0],[0]]","6","0","","","","","","5","","","","","","","","",""
"","","","","","single-stim-button","123","243190","0.0-2.0-28.11-1.11","615eddb82c272bfc2abe6904","B2","batch2","","362","tol_toboard","","","","tol_peg_2","362","362","0","[[1,2,0],[3,0],[0]]","12","[[1,2,0],[3,0],[0]]","6","0","","","","","","5","","","","","","","","",""
"","","","","","poldrack-single-stim","124","244191","0.0-2.0-29.0","615eddb82c272bfc2abe6904","B2","batch2","","-1","tol_feedback","","","true","","1000","1000","500","","","","","","-1","none","true","3961","9872","","","","","","","","","",""
"","","","","","html-button-response","125","245002","0.0-2.0-30.0","615eddb82c272bfc2abe6904","B2","batch2","","810.5","tol_trial_num","<div class = centerbox><p class = center-block-text>problem <strong>8</strong> out of 25 problems</p></div>","0","","","","","","","","","","","","","","","","","","","","","","","","",""
"","","","","","single-stim-button","126","247820","0.0-2.0-31.0-0.0","615eddb82c272bfc2abe6904","B2","batch2","","2816","tol_tohand","","","","tol_peg_3","2816","2816","0","[[0,0,0],[2,3],[0]]","1","[[1,2,0],[3,0],[0]]","7","0","","","","","","4","","","","","","","","",""
"","","","","","single-stim-button","127","248493","0.0-2.0-31.0-1.0","615eddb82c272bfc2abe6904","B2","batch2","","673","tol_toboard","","","","tol_peg_1","673","673","0","[[1,0,0],[2,3],[0]]","1","[[1,2,0],[3,0],[0]]","7","0","","","","","","4","","","","","","","","",""
"","","","","","single-stim-button","128","248952","0.0-2.0-31.1-0.1","615eddb82c272bfc2abe6904","B2","batch2","","458","tol_tohand","","","","tol_peg_2","458","458","0","[[1,0,0],[2,0],[0]]","2","[[1,2,0],[3,0],[0]]","7","0","","","","","","4","","","","","","","","",""
"","","","","","single-stim-button","129","249491","0.0-2.0-31.1-1.1","615eddb82c272bfc2abe6904","B2","batch2","","538","tol_toboard","","","","tol_peg_3","538","538","0","[[1,0,0],[2,0],[3]]","2","[[1,2,0],[3,0],[0]]","7","0","","","","","","4","","","","","","","","",""
"","","","","","single-stim-button","130","249864","0.0-2.0-31.2-0.2","615eddb82c272bfc2abe6904","B2","batch2","","373","tol_tohand","","","","tol_peg_2","373","373","0","[[1,0,0],[0,0],[3]]","3","[[1,2,0],[3,0],[0]]","7","0","","","","","","4","","","","","","","","",""
"","","","","","single-stim-button","131","250210","0.0-2.0-31.2-1.2","615eddb82c272bfc2abe6904","B2","batch2","","345","tol_toboard","","","","tol_peg_1","345","345","0","[[1,2,0],[0,0],[3]]","3","[[1,2,0],[3,0],[0]]","7","0","","","","","","4","","","","","","","","",""
"","","","","","single-stim-button","132","250653","0.0-2.0-31.3-0.3","615eddb82c272bfc2abe6904","B2","batch2","","441","tol_tohand","","","","tol_peg_3","441","441","0","[[1,2,0],[0,0],[0]]","4","[[1,2,0],[3,0],[0]]","7","0","","","","","","4","","","","","","","","",""
"","","","","","single-stim-button","133","251445","0.0-2.0-31.3-1.3","615eddb82c272bfc2abe6904","B2","batch2","","792","tol_toboard","","","","tol_peg_2","792","792","0","[[1,2,0],[3,0],[0]]","4","[[1,2,0],[3,0],[0]]","7","0","","","","","","4","","","","","","","","",""
"","","","","","poldrack-single-stim","134","252447","0.0-2.0-32.0","615eddb82c272bfc2abe6904","B2","batch2","","-1","tol_feedback","","","true","","1000","1000","500","","","","","","-1","none","true","2816","4088","","","","","","","","","",""
"","","","","","html-button-response","135","253104","0.0-2.0-33.0","615eddb82c272bfc2abe6904","B2","batch2","","657.1000000238419","tol_trial_num","<div class = centerbox><p class = center-block-text>problem <strong>9</strong> out of 25 problems</p></div>","0","","","","","","","","","","","","","","","","","","","","","","","","",""
"","","","","","single-stim-button","136","258581","0.0-2.0-34.0-0.0","615eddb82c272bfc2abe6904","B2","batch2","","5476","tol_tohand","","","","tol_peg_1","5476","5476","0","[[3,0,0],[0,0],[1]]","1","[[2,1,0],[3,0],[0]]","8","0","","","","","","6","","","","","","","","",""
"","","","","","single-stim-button","137","259339","0.0-2.0-34.0-1.0","615eddb82c272bfc2abe6904","B2","batch2","","757","tol_toboard","","","","tol_peg_2","757","757","0","[[3,0,0],[2,0],[1]]","1","[[2,1,0],[3,0],[0]]","8","0","","","","","","6","","","","","","","","",""
"","","","","","single-stim-button","138","260933","0.0-2.0-34.1-0.1","615eddb82c272bfc2abe6904","B2","batch2","","1594","tol_tohand","","","","tol_peg_1","1594","1594","0","[[0,0,0],[2,0],[1]]","2","[[2,1,0],[3,0],[0]]","8","0","","","","","","6","","","","","","","","",""
"","","","","","single-stim-button","139","261285","0.0-2.0-34.1-1.1","615eddb82c272bfc2abe6904","B2","batch2","","351","tol_toboard","","","","tol_peg_2","351","351","0","[[0,0,0],[2,3],[1]]","2","[[2,1,0],[3,0],[0]]","8","0","","","","","","6","","","","","","","","",""
"","","","","","single-stim-button","140","261666","0.0-2.0-34.2-0.2","615eddb82c272bfc2abe6904","B2","batch2","","380","tol_tohand","","","","tol_peg_3","380","380","0","[[0,0,0],[2,3],[0]]","3","[[2,1,0],[3,0],[0]]","8","0","","","","","","6","","","","","","","","",""
"","","","","","single-stim-button","141","263013","0.0-2.0-34.2-1.2","615eddb82c272bfc2abe6904","B2","batch2","","1345","tol_toboard","","","","tol_peg_1","1345","1345","0","[[1,0,0],[2,3],[0]]","3","[[2,1,0],[3,0],[0]]","8","0","","","","","","6","","","","","","","","",""
"","","","","","single-stim-button","142","263468","0.0-2.0-34.3-0.3","615eddb82c272bfc2abe6904","B2","batch2","","455","tol_tohand","","","","tol_peg_2","455","455","0","[[1,0,0],[2,0],[0]]","4","[[2,1,0],[3,0],[0]]","8","0","","","","","","6","","","","","","","","",""
"","","","","","single-stim-button","143","263839","0.0-2.0-34.3-1.3","615eddb82c272bfc2abe6904","B2","batch2","","369","tol_toboard","","","","tol_peg_3","369","369","0","[[1,0,0],[2,0],[3]]","4","[[2,1,0],[3,0],[0]]","8","0","","","","","","6","","","","","","","","",""
"","","","","","single-stim-button","144","264797","0.0-2.0-34.4-0.4","615eddb82c272bfc2abe6904","B2","batch2","","958","tol_tohand","","","","tol_peg_2","958","958","0","[[1,0,0],[0,0],[3]]","5","[[2,1,0],[3,0],[0]]","8","0","","","","","","6","","","","","","","","",""
"","","","","","single-stim-button","145","266353","0.0-2.0-34.4-1.4","615eddb82c272bfc2abe6904","B2","batch2","","1555","tol_toboard","","","","tol_peg_2","1555","1555","0","[[1,0,0],[2,0],[3]]","5","[[2,1,0],[3,0],[0]]","8","0","","","","","","6","","","","","","","","",""
"","","","","","single-stim-button","146","266758","0.0-2.0-34.5-0.5","615eddb82c272bfc2abe6904","B2","batch2","","405","tol_tohand","","","","tol_peg_1","405","405","0","[[0,0,0],[2,0],[3]]","6","[[2,1,0],[3,0],[0]]","8","0","","","","","","6","","","","","","","","",""
"","","","","","single-stim-button","147","267030","0.0-2.0-34.5-1.5","615eddb82c272bfc2abe6904","B2","batch2","","272","tol_toboard","","","","tol_peg_2","272","272","0","[[0,0,0],[2,1],[3]]","6","[[2,1,0],[3,0],[0]]","8","0","","","","","","6","","","","","","","","",""
"","","","","","single-stim-button","148","267513","0.0-2.0-34.6-0.6","615eddb82c272bfc2abe6904","B2","batch2","","482","tol_tohand","","","","tol_peg_2","482","482","0","[[0,0,0],[2,0],[3]]","7","[[2,1,0],[3,0],[0]]","8","0","","","","","","6","","","","","","","","",""
"","","","","","single-stim-button","149","267904","0.0-2.0-34.6-1.6","615eddb82c272bfc2abe6904","B2","batch2","","390","tol_toboard","","","","tol_peg_2","390","390","0","[[0,0,0],[2,1],[3]]","7","[[2,1,0],[3,0],[0]]","8","0","","","","","","6","","","","","","","","",""
"","","","","","single-stim-button","150","268317","0.0-2.0-34.7-0.7","615eddb82c272bfc2abe6904","B2","batch2","","413","tol_tohand","","","","tol_peg_2","413","413","0","[[0,0,0],[2,0],[3]]","8","[[2,1,0],[3,0],[0]]","8","0","","","","","","6","","","","","","","","",""
"","","","","","single-stim-button","151","268866","0.0-2.0-34.7-1.7","615eddb82c272bfc2abe6904","B2","batch2","","548","tol_toboard","","","","tol_peg_1","548","548","0","[[1,0,0],[2,0],[3]]","8","[[2,1,0],[3,0],[0]]","8","0","","","","","","6","","","","","","","","",""
"","","","","","single-stim-button","152","269352","0.0-2.0-34.8-0.8","615eddb82c272bfc2abe6904","B2","batch2","","485","tol_tohand","","","","tol_peg_3","485","485","0","[[1,0,0],[2,0],[0]]","9","[[2,1,0],[3,0],[0]]","8","0","","","","","","6","","","","","","","","",""
"","","","","","single-stim-button","153","269831","0.0-2.0-34.8-1.8","615eddb82c272bfc2abe6904","B2","batch2","","478","tol_toboard","","","","tol_peg_1","478","478","0","[[1,3,0],[2,0],[0]]","9","[[2,1,0],[3,0],[0]]","8","0","","","","","","6","","","","","","","","",""
"","","","","","single-stim-button","154","270254","0.0-2.0-34.9-0.9","615eddb82c272bfc2abe6904","B2","batch2","","421","tol_tohand","","","","tol_peg_2","421","421","0","[[1,3,0],[0,0],[0]]","10","[[2,1,0],[3,0],[0]]","8","0","","","","","","6","","","","","","","","",""
"","","","","","single-stim-button","155","270498","0.0-2.0-34.9-1.9","615eddb82c272bfc2abe6904","B2","batch2","","244","tol_toboard","","","","tol_peg_3","244","244","0","[[1,3,0],[0,0],[2]]","10","[[2,1,0],[3,0],[0]]","8","0","","","","","","6","","","","","","","","",""
"","","","","","single-stim-button","156","270998","0.0-2.0-34.10-0.10","615eddb82c272bfc2abe6904","B2","batch2","","499","tol_tohand","","","","tol_peg_1","499","499","0","[[1,0,0],[0,0],[2]]","11","[[2,1,0],[3,0],[0]]","8","0","","","","","","6","","","","","","","","",""
"","","","","","single-stim-button","157","271496","0.0-2.0-34.10-1.10","615eddb82c272bfc2abe6904","B2","batch2","","498","tol_toboard","","","","tol_peg_2","498","498","0","[[1,0,0],[3,0],[2]]","11","[[2,1,0],[3,0],[0]]","8","0","","","","","","6","","","","","","","","",""
"","","","","","single-stim-button","158","272021","0.0-2.0-34.11-0.11","615eddb82c272bfc2abe6904","B2","batch2","","523","tol_tohand","","","","tol_peg_1","523","523","0","[[0,0,0],[3,0],[2]]","12","[[2,1,0],[3,0],[0]]","8","0","","","","","","6","","","","","","","","",""
"","","","","","single-stim-button","159","272481","0.0-2.0-34.11-1.11","615eddb82c272bfc2abe6904","B2","batch2","","460","tol_toboard","","","","tol_peg_2","460","460","0","[[0,0,0],[3,1],[2]]","12","[[2,1,0],[3,0],[0]]","8","0","","","","","","6","","","","","","","","",""
"","","","","","single-stim-button","160","272801","0.0-2.0-34.12-0.12","615eddb82c272bfc2abe6904","B2","batch2","","320","tol_tohand","","","","tol_peg_3","320","320","0","[[0,0,0],[3,1],[0]]","13","[[2,1,0],[3,0],[0]]","8","0","","","","","","6","","","","","","","","",""
"","","","","","single-stim-button","161","273214","0.0-2.0-34.12-1.12","615eddb82c272bfc2abe6904","B2","batch2","","412","tol_toboard","","","","tol_peg_1","412","412","0","[[2,0,0],[3,1],[0]]","13","[[2,1,0],[3,0],[0]]","8","0","","","","","","6","","","","","","","","",""
"","","","","","single-stim-button","162","273911","0.0-2.0-34.13-0.13","615eddb82c272bfc2abe6904","B2","batch2","","697","tol_tohand","","","","tol_peg_2","697","697","0","[[2,0,0],[3,0],[0]]","14","[[2,1,0],[3,0],[0]]","8","0","","","","","","6","","","","","","","","",""
"","","","","","single-stim-button","163","274235","0.0-2.0-34.13-1.13","615eddb82c272bfc2abe6904","B2","batch2","","323","tol_toboard","","","","tol_peg_1","323","323","0","[[2,1,0],[3,0],[0]]","14","[[2,1,0],[3,0],[0]]","8","0","","","","","","6","","","","","","","","",""
"","","","","","poldrack-single-stim","164","275236","0.0-2.0-35.0","615eddb82c272bfc2abe6904","B2","batch2","","-1","tol_feedback","","","true","","1000","1000","500","","","","","","-1","none","true","5476","13108","","","","","","","","","",""
"","","","","","html-button-response","165","275961","0.0-2.0-36.0","615eddb82c272bfc2abe6904","B2","batch2","","724.5","tol_trial_num","<div class = centerbox><p class = center-block-text>problem <strong>10</strong> out of 25 problems</p></div>","0","","","","","","","","","","","","","","","","","","","","","","","","",""
"","","","","","single-stim-button","166","279820","0.0-2.0-37.0-0.0","615eddb82c272bfc2abe6904","B2","batch2","","3857","tol_tohand","","","","tol_peg_2","3857","3857","0","[[3,0,0],[0,0],[2]]","1","[[3,0,0],[2,1],[0]]","9","0","","","","","","3","","","","","","","","",""
"","","","","","single-stim-button","167","280874","0.0-2.0-37.0-1.0","615eddb82c272bfc2abe6904","B2","batch2","","1053","tol_toboard","","","","tol_peg_1","1053","1053","0","[[3,1,0],[0,0],[2]]","1","[[3,0,0],[2,1],[0]]","9","0","","","","","","3","","","","","","","","",""
"","","","","","single-stim-button","168","281345","0.0-2.0-37.1-0.1","615eddb82c272bfc2abe6904","B2","batch2","","471","tol_tohand","","","","tol_peg_3","471","471","0","[[3,1,0],[0,0],[0]]","2","[[3,0,0],[2,1],[0]]","9","0","","","","","","3","","","","","","","","",""
"","","","","","single-stim-button","169","281597","0.0-2.0-37.1-1.1","615eddb82c272bfc2abe6904","B2","batch2","","250","tol_toboard","","","","tol_peg_2","250","250","0","[[3,1,0],[2,0],[0]]","2","[[3,0,0],[2,1],[0]]","9","0","","","","","","3","","","","","","","","",""
"","","","","","single-stim-button","170","281910","0.0-2.0-37.2-0.2","615eddb82c272bfc2abe6904","B2","batch2","","313","tol_tohand","","","","tol_peg_1","313","313","0","[[3,0,0],[2,0],[0]]","3","[[3,0,0],[2,1],[0]]","9","0","","","","","","3","","","","","","","","",""
"","","","","","single-stim-button","171","282177","0.0-2.0-37.2-1.2","615eddb82c272bfc2abe6904","B2","batch2","","267","tol_toboard","","","","tol_peg_2","267","267","0","[[3,0,0],[2,1],[0]]","3","[[3,0,0],[2,1],[0]]","9","0","","","","","","3","","","","","","","","",""
"","","","","","poldrack-single-stim","172","283178","0.0-2.0-38.0","615eddb82c272bfc2abe6904","B2","batch2","","-1","tol_feedback","","","true","","1000","1000","500","","","","","","-1","none","true","3857","4641","","","","","","","","","",""
"","","","","","html-button-response","173","283859","0.0-2.0-39.0","615eddb82c272bfc2abe6904","B2","batch2","","679.8999999761581","tol_trial_num","<div class = centerbox><p class = center-block-text>problem <strong>11</strong> out of 25 problems</p></div>","0","","","","","","","","","","","","","","","","","","","","","","","","",""
"","","","","","single-stim-button","174","286514","0.0-2.0-40.0-0.0","615eddb82c272bfc2abe6904","B2","batch2","","2655","tol_tohand","","","","tol_peg_2","2655","2655","0","[[1,2,0],[0,0],[0]]","1","[[2,0,0],[1,3],[0]]","10","0","","","","","","6","","","","","","","","",""
"","","","","","single-stim-button","175","286762","0.0-2.0-40.0-1.0","615eddb82c272bfc2abe6904","B2","batch2","","248","tol_toboard","","","","tol_peg_3","248","248","0","[[1,2,0],[0,0],[3]]","1","[[2,0,0],[1,3],[0]]","10","0","","","","","","6","","","","","","","","",""
"","","","","","single-stim-button","176","287213","0.0-2.0-40.1-0.1","615eddb82c272bfc2abe6904","B2","batch2","","450","tol_tohand","","","","tol_peg_1","450","450","0","[[1,0,0],[0,0],[3]]","2","[[2,0,0],[1,3],[0]]","10","0","","","","","","6","","","","","","","","",""
"","","","","","single-stim-button","177","287675","0.0-2.0-40.1-1.1","615eddb82c272bfc2abe6904","B2","batch2","","462","tol_toboard","","","","tol_peg_2","462","462","0","[[1,0,0],[2,0],[3]]","2","[[2,0,0],[1,3],[0]]","10","0","","","","","","6","","","","","","","","",""
"","","","","","single-stim-button","178","288627","0.0-2.0-40.2-0.2","615eddb82c272bfc2abe6904","B2","batch2","","950","tol_tohand","","","","tol_peg_1","950","950","0","[[0,0,0],[2,0],[3]]","3","[[2,0,0],[1,3],[0]]","10","0","","","","","","6","","","","","","","","",""
"","","","","","single-stim-button","179","289142","0.0-2.0-40.2-1.2","615eddb82c272bfc2abe6904","B2","batch2","","515","tol_toboard","","","","tol_peg_2","515","515","0","[[0,0,0],[2,1],[3]]","3","[[2,0,0],[1,3],[0]]","10","0","","","","","","6","","","","","","","","",""
"","","","","","single-stim-button","180","291074","0.0-2.0-40.3-0.3","615eddb82c272bfc2abe6904","B2","batch2","","1930","tol_tohand","","","","tol_peg_2","1930","1930","0","[[0,0,0],[2,0],[3]]","4","[[2,0,0],[1,3],[0]]","10","0","","","","","","6","","","","","","","","",""
"","","","","","single-stim-button","181","291430","0.0-2.0-40.3-1.3","615eddb82c272bfc2abe6904","B2","batch2","","356","tol_toboard","","","","tol_peg_1","356","356","0","[[1,0,0],[2,0],[3]]","4","[[2,0,0],[1,3],[0]]","10","0","","","","","","6","","","","","","","","",""
"","","","","","single-stim-button","182","292387","0.0-2.0-40.4-0.4","615eddb82c272bfc2abe6904","B2","batch2","","955","tol_tohand","","","","tol_peg_3","955","955","0","[[1,0,0],[2,0],[0]]","5","[[2,0,0],[1,3],[0]]","10","0","","","","","","6","","","","","","","","",""
"","","","","","single-stim-button","183","292742","0.0-2.0-40.4-1.4","615eddb82c272bfc2abe6904","B2","batch2","","355","tol_toboard","","","","tol_peg_1","355","355","0","[[1,3,0],[2,0],[0]]","5","[[2,0,0],[1,3],[0]]","10","0","","","","","","6","","","","","","","","",""
"","","","","","single-stim-button","184","293276","0.0-2.0-40.5-0.5","615eddb82c272bfc2abe6904","B2","batch2","","532","tol_tohand","","","","tol_peg_2","532","532","0","[[1,3,0],[0,0],[0]]","6","[[2,0,0],[1,3],[0]]","10","0","","","","","","6","","","","","","","","",""
"","","","","","single-stim-button","185","294223","0.0-2.0-40.5-1.5","615eddb82c272bfc2abe6904","B2","batch2","","947","tol_toboard","","","","tol_peg_3","947","947","0","[[1,3,0],[0,0],[2]]","6","[[2,0,0],[1,3],[0]]","10","0","","","","","","6","","","","","","","","",""
"","","","","","single-stim-button","186","295233","0.0-2.0-40.6-0.6","615eddb82c272bfc2abe6904","B2","batch2","","1010","tol_tohand","","","","tol_peg_1","1010","1010","0","[[1,0,0],[0,0],[2]]","7","[[2,0,0],[1,3],[0]]","10","0","","","","","","6","","","","","","","","",""
"","","","","","single-stim-button","187","295886","0.0-2.0-40.6-1.6","615eddb82c272bfc2abe6904","B2","batch2","","653","tol_toboard","","","","tol_peg_2","653","653","0","[[1,0,0],[3,0],[2]]","7","[[2,0,0],[1,3],[0]]","10","0","","","","","","6","","","","","","","","",""
"","","","","","single-stim-button","188","296286","0.0-2.0-40.7-0.7","615eddb82c272bfc2abe6904","B2","batch2","","400","tol_tohand","","","","tol_peg_1","400","400","0","[[0,0,0],[3,0],[2]]","8","[[2,0,0],[1,3],[0]]","10","0","","","","","","6","","","","","","","","",""
"","","","","","single-stim-button","189","296543","0.0-2.0-40.7-1.7","615eddb82c272bfc2abe6904","B2","batch2","","257","tol_toboard","","","","tol_peg_2","257","257","0","[[0,0,0],[3,1],[2]]","8","[[2,0,0],[1,3],[0]]","10","0","","","","","","6","","","","","","","","",""
"","","","","","single-stim-button","190","297109","0.0-2.0-40.8-0.8","615eddb82c272bfc2abe6904","B2","batch2","","565","tol_tohand","","","","tol_peg_2","565","565","0","[[0,0,0],[3,0],[2]]","9","[[2,0,0],[1,3],[0]]","10","0","","","","","","6","","","","","","","","",""
"","","","","","single-stim-button","191","298013","0.0-2.0-40.8-1.8","615eddb82c272bfc2abe6904","B2","batch2","","903","tol_toboard","","","","tol_peg_1","903","903","0","[[1,0,0],[3,0],[2]]","9","[[2,0,0],[1,3],[0]]","10","0","","","","","","6","","","","","","","","",""
"","","","","","single-stim-button","192","298528","0.0-2.0-40.9-0.9","615eddb82c272bfc2abe6904","B2","batch2","","514","tol_tohand","","","","tol_peg_3","514","514","0","[[1,0,0],[3,0],[0]]","10","[[2,0,0],[1,3],[0]]","10","0","","","","","","6","","","","","","","","",""
"","","","","","single-stim-button","193","298852","0.0-2.0-40.9-1.9","615eddb82c272bfc2abe6904","B2","batch2","","324","tol_toboard","","","","tol_peg_1","324","324","0","[[1,2,0],[3,0],[0]]","10","[[2,0,0],[1,3],[0]]","10","0","","","","","","6","","","","","","","","",""
"","","","","","single-stim-button","194","299208","0.0-2.0-40.10-0.10","615eddb82c272bfc2abe6904","B2","batch2","","355","tol_tohand","","","","tol_peg_2","355","355","0","[[1,2,0],[0,0],[0]]","11","[[2,0,0],[1,3],[0]]","10","0","","","","","","6","","","","","","","","",""
"","","","","","single-stim-button","195","299795","0.0-2.0-40.10-1.10","615eddb82c272bfc2abe6904","B2","batch2","","587","tol_toboard","","","","tol_peg_1","587","587","0","[[1,2,3],[0,0],[0]]","11","[[2,0,0],[1,3],[0]]","10","0","","","","","","6","","","","","","","","",""
"","","","","","single-stim-button","196","300852","0.0-2.0-40.11-0.11","615eddb82c272bfc2abe6904","B2","batch2","","1055","tol_tohand","","","","tol_peg_1","1055","1055","0","[[1,2,0],[0,0],[0]]","12","[[2,0,0],[1,3],[0]]","10","0","","","","","","6","","","","","","","","",""
"","","","","","single-stim-button","197","301296","0.0-2.0-40.11-1.11","615eddb82c272bfc2abe6904","B2","batch2","","443","tol_toboard","","","","tol_peg_3","443","443","0","[[1,2,0],[0,0],[3]]","12","[[2,0,0],[1,3],[0]]","10","0","","","","","","6","","","","","","","","",""
"","","","","","single-stim-button","198","301839","0.0-2.0-40.12-0.12","615eddb82c272bfc2abe6904","B2","batch2","","542","tol_tohand","","","","tol_peg_1","542","542","0","[[1,0,0],[0,0],[3]]","13","[[2,0,0],[1,3],[0]]","10","0","","","","","","6","","","","","","","","",""
"","","","","","single-stim-button","199","302085","0.0-2.0-40.12-1.12","615eddb82c272bfc2abe6904","B2","batch2","","246","tol_toboard","","","","tol_peg_2","246","246","0","[[1,0,0],[2,0],[3]]","13","[[2,0,0],[1,3],[0]]","10","0","","","","","","6","","","","","","","","",""
"","","","","","single-stim-button","200","303718","0.0-2.0-40.13-0.13","615eddb82c272bfc2abe6904","B2","batch2","","1632","tol_tohand","","","","tol_peg_3","1632","1632","0","[[1,0,0],[2,0],[0]]","14","[[2,0,0],[1,3],[0]]","10","0","","","","","","6","","","","","","","","",""
"","","","","","single-stim-button","201","304102","0.0-2.0-40.13-1.13","615eddb82c272bfc2abe6904","B2","batch2","","384","tol_toboard","","","","tol_peg_1","384","384","0","[[1,3,0],[2,0],[0]]","14","[[2,0,0],[1,3],[0]]","10","0","","","","","","6","","","","","","","","",""
"","","","","","single-stim-button","202","305064","0.0-2.0-40.14-0.14","615eddb82c272bfc2abe6904","B2","batch2","","962","tol_tohand","","","","tol_peg_2","962","962","0","[[1,3,0],[0,0],[0]]","15","[[2,0,0],[1,3],[0]]","10","0","","","","","","6","","","","","","","","",""
"","","","","","single-stim-button","203","305338","0.0-2.0-40.14-1.14","615eddb82c272bfc2abe6904","B2","batch2","","273","tol_toboard","","","","tol_peg_3","273","273","0","[[1,3,0],[0,0],[2]]","15","[[2,0,0],[1,3],[0]]","10","0","","","","","","6","","","","","","","","",""
"","","","","","single-stim-button","204","305682","0.0-2.0-40.15-0.15","615eddb82c272bfc2abe6904","B2","batch2","","344","tol_tohand","","","","tol_peg_1","344","344","0","[[1,0,0],[0,0],[2]]","16","[[2,0,0],[1,3],[0]]","10","0","","","","","","6","","","","","","","","",""
"","","","","","single-stim-button","205","305963","0.0-2.0-40.15-1.15","615eddb82c272bfc2abe6904","B2","batch2","","280","tol_toboard","","","","tol_peg_2","280","280","0","[[1,0,0],[3,0],[2]]","16","[[2,0,0],[1,3],[0]]","10","0","","","","","","6","","","","","","","","",""
"","","","","","single-stim-button","206","306268","0.0-2.0-40.16-0.16","615eddb82c272bfc2abe6904","B2","batch2","","305","tol_tohand","","","","tol_peg_1","305","305","0","[[0,0,0],[3,0],[2]]","17","[[2,0,0],[1,3],[0]]","10","0","","","","","","6","","","","","","","","",""
"","","","","","single-stim-button","207","307131","0.0-2.0-40.16-1.16","615eddb82c272bfc2abe6904","B2","batch2","","863","tol_toboard","","","","tol_peg_2","863","863","0","[[0,0,0],[3,1],[2]]","17","[[2,0,0],[1,3],[0]]","10","0","","","","","","6","","","","","","","","",""
"","","","","","single-stim-button","208","307942","0.0-2.0-40.17-0.17","615eddb82c272bfc2abe6904","B2","batch2","","811","tol_tohand","","","","tol_peg_3","811","811","0","[[0,0,0],[3,1],[0]]","18","[[2,0,0],[1,3],[0]]","10","0","","","","","","6","","","","","","","","",""
"","","","","","single-stim-button","209","308437","0.0-2.0-40.17-1.17","615eddb82c272bfc2abe6904","B2","batch2","","495","tol_toboard","","","","tol_peg_1","495","495","0","[[2,0,0],[3,1],[0]]","18","[[2,0,0],[1,3],[0]]","10","0","","","","","","6","","","","","","","","",""
"","","","","","single-stim-button","210","308954","0.0-2.0-40.18-0.18","615eddb82c272bfc2abe6904","B2","batch2","","517","tol_tohand","","","","tol_peg_2","517","517","0","[[2,0,0],[3,0],[0]]","19","[[2,0,0],[1,3],[0]]","10","0","","","","","","6","","","","","","","","",""
"","","","","","single-stim-button","211","309294","0.0-2.0-40.18-1.18","615eddb82c272bfc2abe6904","B2","batch2","","339","tol_toboard","","","","tol_peg_3","339","339","0","[[2,0,0],[3,0],[1]]","19","[[2,0,0],[1,3],[0]]","10","0","","","","","","6","","","","","","","","",""
"","","","","","single-stim-button","212","309794","0.0-2.0-40.19-0.19","615eddb82c272bfc2abe6904","B2","batch2","","500","tol_tohand","","","","tol_peg_2","500","500","0","[[2,0,0],[0,0],[1]]","20","[[2,0,0],[1,3],[0]]","10","0","","","","","","6","","","","","","","","",""
"","","","","","single-stim-button","213","310074","0.0-2.0-40.19-1.19","615eddb82c272bfc2abe6904","B2","batch2","","280","tol_toboard","","","","tol_peg_1","280","280","0","[[2,3,0],[0,0],[1]]","20","[[2,0,0],[1,3],[0]]","10","0","","","","","","6","","","","","","","","",""
"","","","","","single-stim-button","214","310463","0.0-2.0-40.20-0.20","615eddb82c272bfc2abe6904","B2","batch2","","389","tol_tohand","","","","tol_peg_3","389","389","0","[[2,3,0],[0,0],[0]]","21","[[2,0,0],[1,3],[0]]","10","0","","","","","","6","","","","","","","","",""
"","","","","","single-stim-button","215","311030","0.0-2.0-40.20-1.20","615eddb82c272bfc2abe6904","B2","batch2","","567","tol_toboard","","","","tol_peg_2","567","567","0","[[2,3,0],[1,0],[0]]","21","[[2,0,0],[1,3],[0]]","10","0","","","","","","6","","","","","","","","",""
"","","","","","single-stim-button","216","311323","0.0-2.0-40.21-0.21","615eddb82c272bfc2abe6904","B2","batch2","","293","tol_tohand","","","","tol_peg_1","293","293","0","[[2,0,0],[1,0],[0]]","22","[[2,0,0],[1,3],[0]]","10","0","","","","","","6","","","","","","","","",""
"","","","","","single-stim-button","217","311575","0.0-2.0-40.21-1.21","615eddb82c272bfc2abe6904","B2","batch2","","252","tol_toboard","","","","tol_peg_2","252","252","0","[[2,0,0],[1,3],[0]]","22","[[2,0,0],[1,3],[0]]","10","0","","","","","","6","","","","","","","","",""
"","","","","","poldrack-single-stim","218","312581","0.0-2.0-41.0","615eddb82c272bfc2abe6904","B2","batch2","","-1","tol_feedback","","","true","","1000","1000","500","","","","","","-1","none","true","2655","17666","","","","","","","","","",""
"","","","","","html-button-response","219","313282","0.0-2.0-42.0","615eddb82c272bfc2abe6904","B2","batch2","","700.2999999523163","tol_trial_num","<div class = centerbox><p class = center-block-text>problem <strong>12</strong> out of 25 problems</p></div>","0","","","","","","","","","","","","","","","","","","","","","","","","",""
"","","","","","single-stim-button","220","316238","0.0-2.0-43.0-0.0","615eddb82c272bfc2abe6904","B2","batch2","","2956","tol_tohand","","","","tol_peg_2","2956","2956","0","[[1,2,0],[0,0],[0]]","1","[[2,3,0],[0,0],[1]]","11","0","","","","","","4","","","","","","","","",""
"","","","","","single-stim-button","221","316552","0.0-2.0-43.0-1.0","615eddb82c272bfc2abe6904","B2","batch2","","314","tol_toboard","","","","tol_peg_3","314","314","0","[[1,2,0],[0,0],[3]]","1","[[2,3,0],[0,0],[1]]","11","0","","","","","","4","","","","","","","","",""
"","","","","","single-stim-button","222","316975","0.0-2.0-43.1-0.1","615eddb82c272bfc2abe6904","B2","batch2","","423","tol_tohand","","","","tol_peg_1","423","423","0","[[1,0,0],[0,0],[3]]","2","[[2,3,0],[0,0],[1]]","11","0","","","","","","4","","","","","","","","",""
"","","","","","single-stim-button","223","317809","0.0-2.0-43.1-1.1","615eddb82c272bfc2abe6904","B2","batch2","","834","tol_toboard","","","","tol_peg_2","834","834","0","[[1,0,0],[2,0],[3]]","2","[[2,3,0],[0,0],[1]]","11","0","","","","","","4","","","","","","","","",""
"","","","","","single-stim-button","224","319044","0.0-2.0-43.2-0.2","615eddb82c272bfc2abe6904","B2","batch2","","1235","tol_tohand","","","","tol_peg_1","1235","1235","0","[[0,0,0],[2,0],[3]]","3","[[2,3,0],[0,0],[1]]","11","0","","","","","","4","","","","","","","","",""
"","","","","","single-stim-button","225","319581","0.0-2.0-43.2-1.2","615eddb82c272bfc2abe6904","B2","batch2","","537","tol_toboard","","","","tol_peg_2","537","537","0","[[0,0,0],[2,1],[3]]","3","[[2,3,0],[0,0],[1]]","11","0","","","","","","4","","","","","","","","",""
"","","","","","single-stim-button","226","321576","0.0-2.0-43.3-0.3","615eddb82c272bfc2abe6904","B2","batch2","","1995","tol_tohand","","","","tol_peg_3","1995","1995","0","[[0,0,0],[2,1],[0]]","4","[[2,3,0],[0,0],[1]]","11","0","","","","","","4","","","","","","","","",""
"","","","","","single-stim-button","227","322570","0.0-2.0-43.3-1.3","615eddb82c272bfc2abe6904","B2","batch2","","994","tol_toboard","","","","tol_peg_1","994","994","0","[[3,0,0],[2,1],[0]]","4","[[2,3,0],[0,0],[1]]","11","0","","","","","","4","","","","","","","","",""
"","","","","","single-stim-button","228","322994","0.0-2.0-43.4-0.4","615eddb82c272bfc2abe6904","B2","batch2","","424","tol_tohand","","","","tol_peg_2","424","424","0","[[3,0,0],[2,0],[0]]","5","[[2,3,0],[0,0],[1]]","11","0","","","","","","4","","","","","","","","",""
"","","","","","single-stim-button","229","323349","0.0-2.0-43.4-1.4","615eddb82c272bfc2abe6904","B2","batch2","","355","tol_toboard","","","","tol_peg_3","355","355","0","[[3,0,0],[2,0],[1]]","5","[[2,3,0],[0,0],[1]]","11","0","","","","","","4","","","","","","","","",""
"","","","","","single-stim-button","230","327456","0.0-2.0-43.5-0.5","615eddb82c272bfc2abe6904","B2","batch2","","4107","tol_tohand","","","","tol_peg_1","4107","4107","0","[[0,0,0],[2,0],[1]]","6","[[2,3,0],[0,0],[1]]","11","0","","","","","","4","","","","","","","","",""
"","","","","","single-stim-button","231","327762","0.0-2.0-43.5-1.5","615eddb82c272bfc2abe6904","B2","batch2","","306","tol_toboard","","","","tol_peg_2","306","306","0","[[0,0,0],[2,3],[1]]","6","[[2,3,0],[0,0],[1]]","11","0","","","","","","4","","","","","","","","",""
"","","","","","single-stim-button","232","329022","0.0-2.0-43.6-0.6","615eddb82c272bfc2abe6904","B2","batch2","","1260","tol_tohand","","","","tol_peg_3","1260","1260","0","[[0,0,0],[2,3],[0]]","7","[[2,3,0],[0,0],[1]]","11","0","","","","","","4","","","","","","","","",""
"","","","","","single-stim-button","233","329993","0.0-2.0-43.6-1.6","615eddb82c272bfc2abe6904","B2","batch2","","971","tol_toboard","","","","tol_peg_1","971","971","0","[[1,0,0],[2,3],[0]]","7","[[2,3,0],[0,0],[1]]","11","0","","","","","","4","","","","","","","","",""
"","","","","","single-stim-button","234","331562","0.0-2.0-43.7-0.7","615eddb82c272bfc2abe6904","B2","batch2","","1569","tol_tohand","","","","tol_peg_2","1569","1569","0","[[1,0,0],[2,0],[0]]","8","[[2,3,0],[0,0],[1]]","11","0","","","","","","4","","","","","","","","",""
"","","","","","single-stim-button","235","332672","0.0-2.0-43.7-1.7","615eddb82c272bfc2abe6904","B2","batch2","","1110","tol_toboard","","","","tol_peg_3","1110","1110","0","[[1,0,0],[2,0],[3]]","8","[[2,3,0],[0,0],[1]]","11","0","","","","","","4","","","","","","","","",""
"","","","","","single-stim-button","236","333147","0.0-2.0-43.8-0.8","615eddb82c272bfc2abe6904","B2","batch2","","475","tol_tohand","","","","tol_peg_1","475","475","0","[[0,0,0],[2,0],[3]]","9","[[2,3,0],[0,0],[1]]","11","0","","","","","","4","","","","","","","","",""
"","","","","","single-stim-button","237","334225","0.0-2.0-43.8-1.8","615eddb82c272bfc2abe6904","B2","batch2","","1078","tol_toboard","","","","tol_peg_2","1078","1078","0","[[0,0,0],[2,1],[3]]","9","[[2,3,0],[0,0],[1]]","11","0","","","","","","4","","","","","","","","",""
"","","","","","single-stim-button","238","336323","0.0-2.0-43.9-0.9","615eddb82c272bfc2abe6904","B2","batch2","","2098","tol_tohand","","","","tol_peg_2","2098","2098","0","[[0,0,0],[2,0],[3]]","10","[[2,3,0],[0,0],[1]]","11","0","","","","","","4","","","","","","","","",""
"","","","","","single-stim-button","239","337154","0.0-2.0-43.9-1.9","615eddb82c272bfc2abe6904","B2","batch2","","831","tol_toboard","","","","tol_peg_1","831","831","0","[[1,0,0],[2,0],[3]]","10","[[2,3,0],[0,0],[1]]","11","0","","","","","","4","","","","","","","","",""
"","","","","","single-stim-button","240","337561","0.0-2.0-43.10-0.10","615eddb82c272bfc2abe6904","B2","batch2","","407","tol_tohand","","","","tol_peg_2","407","407","0","[[1,0,0],[0,0],[3]]","11","[[2,3,0],[0,0],[1]]","11","0","","","","","","4","","","","","","","","",""
"","","","","","single-stim-button","241","337840","0.0-2.0-43.10-1.10","615eddb82c272bfc2abe6904","B2","batch2","","279","tol_toboard","","","","tol_peg_1","279","279","0","[[1,2,0],[0,0],[3]]","11","[[2,3,0],[0,0],[1]]","11","0","","","","","","4","","","","","","","","",""
"","","","","","single-stim-button","242","338383","0.0-2.0-43.11-0.11","615eddb82c272bfc2abe6904","B2","batch2","","543","tol_tohand","","","","tol_peg_3","543","543","0","[[1,2,0],[0,0],[0]]","12","[[2,3,0],[0,0],[1]]","11","0","","","","","","4","","","","","","","","",""
"","","","","","single-stim-button","243","338648","0.0-2.0-43.11-1.11","615eddb82c272bfc2abe6904","B2","batch2","","265","tol_toboard","","","","tol_peg_2","265","265","0","[[1,2,0],[3,0],[0]]","12","[[2,3,0],[0,0],[1]]","11","0","","","","","","4","","","","","","","","",""
"","","","","","single-stim-button","244","339657","0.0-2.0-43.12-0.12","615eddb82c272bfc2abe6904","B2","batch2","","1009","tol_tohand","","","","tol_peg_1","1009","1009","0","[[1,0,0],[3,0],[0]]","13","[[2,3,0],[0,0],[1]]","11","0","","","","","","4","","","","","","","","",""
"","","","","","single-stim-button","245","340506","0.0-2.0-43.12-1.12","615eddb82c272bfc2abe6904","B2","batch2","","849","tol_toboard","","","","tol_peg_2","849","849","0","[[1,0,0],[3,2],[0]]","13","[[2,3,0],[0,0],[1]]","11","0","","","","","","4","","","","","","","","",""
"","","","","","single-stim-button","246","340913","0.0-2.0-43.13-0.13","615eddb82c272bfc2abe6904","B2","batch2","","407","tol_tohand","","","","tol_peg_1","407","407","0","[[0,0,0],[3,2],[0]]","14","[[2,3,0],[0,0],[1]]","11","0","","","","","","4","","","","","","","","",""
"","","","","","single-stim-button","247","341374","0.0-2.0-43.13-1.13","615eddb82c272bfc2abe6904","B2","batch2","","461","tol_toboard","","","","tol_peg_3","461","461","0","[[0,0,0],[3,2],[1]]","14","[[2,3,0],[0,0],[1]]","11","0","","","","","","4","","","","","","","","",""
"","","","","","single-stim-button","248","341786","0.0-2.0-43.14-0.14","615eddb82c272bfc2abe6904","B2","batch2","","412","tol_tohand","","","","tol_peg_2","412","412","0","[[0,0,0],[3,0],[1]]","15","[[2,3,0],[0,0],[1]]","11","0","","","","","","4","","","","","","","","",""
"","","","","","single-stim-button","249","342138","0.0-2.0-43.14-1.14","615eddb82c272bfc2abe6904","B2","batch2","","352","tol_toboard","","","","tol_peg_1","352","352","0","[[2,0,0],[3,0],[1]]","15","[[2,3,0],[0,0],[1]]","11","0","","","","","","4","","","","","","","","",""
"","","","","","single-stim-button","250","342500","0.0-2.0-43.15-0.15","615eddb82c272bfc2abe6904","B2","batch2","","362","tol_tohand","","","","tol_peg_2","362","362","0","[[2,0,0],[0,0],[1]]","16","[[2,3,0],[0,0],[1]]","11","0","","","","","","4","","","","","","","","",""
"","","","","","single-stim-button","251","342847","0.0-2.0-43.15-1.15","615eddb82c272bfc2abe6904","B2","batch2","","347","tol_toboard","","","","tol_peg_1","347","347","0","[[2,3,0],[0,0],[1]]","16","[[2,3,0],[0,0],[1]]","11","0","","","","","","4","","","","","","","","",""
"","","","","","poldrack-single-stim","252","343858","0.0-2.0-44.0","615eddb82c272bfc2abe6904","B2","batch2","","-1","tol_feedback","","","true","","1000","1000","500","","","","","","-1","none","true","2956","19682","","","","","","","","","",""
"","","","","","html-button-response","253","344738","0.0-2.0-45.0","615eddb82c272bfc2abe6904","B2","batch2","","879.5999999642372","tol_trial_num","<div class = centerbox><p class = center-block-text>problem <strong>13</strong> out of 25 problems</p></div>","0","","","","","","","","","","","","","","","","","","","","","","","","",""
"","","","","","single-stim-button","254","355157","0.0-2.0-46.0-0.0","615eddb82c272bfc2abe6904","B2","batch2","","10419","tol_tohand","","","","tol_peg_1","10419","10419","0","[[1,0,0],[3,0],[0]]","1","[[0,0,0],[2,3],[1]]","12","0","","","","","","4","","","","","","","","",""
"","","","","","single-stim-button","255","355404","0.0-2.0-46.0-1.0","615eddb82c272bfc2abe6904","B2","batch2","","247","tol_toboard","","","","tol_peg_2","247","247","0","[[1,0,0],[3,2],[0]]","1","[[0,0,0],[2,3],[1]]","12","0","","","","","","4","","","","","","","","",""
"","","","","","single-stim-button","256","355843","0.0-2.0-46.1-0.1","615eddb82c272bfc2abe6904","B2","batch2","","439","tol_tohand","","","","tol_peg_1","439","439","0","[[0,0,0],[3,2],[0]]","2","[[0,0,0],[2,3],[1]]","12","0","","","","","","4","","","","","","","","",""
"","","","","","single-stim-button","257","356491","0.0-2.0-46.1-1.1","615eddb82c272bfc2abe6904","B2","batch2","","648","tol_toboard","","","","tol_peg_3","648","648","0","[[0,0,0],[3,2],[1]]","2","[[0,0,0],[2,3],[1]]","12","0","","","","","","4","","","","","","","","",""
"","","","","","single-stim-button","258","357974","0.0-2.0-46.2-0.2","615eddb82c272bfc2abe6904","B2","batch2","","1483","tol_tohand","","","","tol_peg_2","1483","1483","0","[[0,0,0],[3,0],[1]]","3","[[0,0,0],[2,3],[1]]","12","0","","","","","","4","","","","","","","","",""
"","","","","","single-stim-button","259","358617","0.0-2.0-46.2-1.2","615eddb82c272bfc2abe6904","B2","batch2","","643","tol_toboard","","","","tol_peg_1","643","643","0","[[2,0,0],[3,0],[1]]","3","[[0,0,0],[2,3],[1]]","12","0","","","","","","4","","","","","","","","",""
"","","","","","single-stim-button","260","359659","0.0-2.0-46.3-0.3","615eddb82c272bfc2abe6904","B2","batch2","","1042","tol_tohand","","","","tol_peg_3","1042","1042","0","[[2,0,0],[3,0],[0]]","4","[[0,0,0],[2,3],[1]]","12","0","","","","","","4","","","","","","","","",""
"","","","","","single-stim-button","261","359957","0.0-2.0-46.3-1.3","615eddb82c272bfc2abe6904","B2","batch2","","298","tol_toboard","","","","tol_peg_2","298","298","0","[[2,0,0],[3,1],[0]]","4","[[0,0,0],[2,3],[1]]","12","0","","","","","","4","","","","","","","","",""
"","","","","","single-stim-button","262","360607","0.0-2.0-46.4-0.4","615eddb82c272bfc2abe6904","B2","batch2","","650","tol_tohand","","","","tol_peg_1","650","650","0","[[0,0,0],[3,1],[0]]","5","[[0,0,0],[2,3],[1]]","12","0","","","","","","4","","","","","","","","",""
"","","","","","single-stim-button","263","360909","0.0-2.0-46.4-1.4","615eddb82c272bfc2abe6904","B2","batch2","","302","tol_toboard","","","","tol_peg_3","302","302","0","[[0,0,0],[3,1],[2]]","5","[[0,0,0],[2,3],[1]]","12","0","","","","","","4","","","","","","","","",""
"","","","","","single-stim-button","264","361252","0.0-2.0-46.5-0.5","615eddb82c272bfc2abe6904","B2","batch2","","343","tol_tohand","","","","tol_peg_2","343","343","0","[[0,0,0],[3,0],[2]]","6","[[0,0,0],[2,3],[1]]","12","0","","","","","","4","","","","","","","","",""
"","","","","","single-stim-button","265","362137","0.0-2.0-46.5-1.5","615eddb82c272bfc2abe6904","B2","batch2","","885","tol_toboard","","","","tol_peg_1","885","885","0","[[1,0,0],[3,0],[2]]","6","[[0,0,0],[2,3],[1]]","12","0","","","","","","4","","","","","","","","",""
"","","","","","single-stim-button","266","362312","0.0-2.0-46.6-0.6","615eddb82c272bfc2abe6904","B2","batch2","","175","tol_tohand","","","","tol_peg_1","175","175","0","[[0,0,0],[3,0],[2]]","7","[[0,0,0],[2,3],[1]]","12","0","","","","","","4","","","","","","","","",""
"","","","","","single-stim-button","267","363577","0.0-2.0-46.6-1.6","615eddb82c272bfc2abe6904","B2","batch2","","1265","tol_toboard","","","","tol_peg_1","1265","1265","0","[[1,0,0],[3,0],[2]]","7","[[0,0,0],[2,3],[1]]","12","0","","","","","","4","","","","","","","","",""
"","","","","","single-stim-button","268","363910","0.0-2.0-46.7-0.7","615eddb82c272bfc2abe6904","B2","batch2","","333","tol_tohand","","","","tol_peg_2","333","333","0","[[1,0,0],[0,0],[2]]","8","[[0,0,0],[2,3],[1]]","12","0","","","","","","4","","","","","","","","",""
"","","","","","single-stim-button","269","364717","0.0-2.0-46.7-1.7","615eddb82c272bfc2abe6904","B2","batch2","","806","tol_toboard","","","","tol_peg_1","806","806","0","[[1,3,0],[0,0],[2]]","8","[[0,0,0],[2,3],[1]]","12","0","","","","","","4","","","","","","","","",""
"","","","","","single-stim-button","270","365237","0.0-2.0-46.8-0.8","615eddb82c272bfc2abe6904","B2","batch2","","520","tol_tohand","","","","tol_peg_3","520","520","0","[[1,3,0],[0,0],[0]]","9","[[0,0,0],[2,3],[1]]","12","0","","","","","","4","","","","","","","","",""
"","","","","","single-stim-button","271","365889","0.0-2.0-46.8-1.8","615eddb82c272bfc2abe6904","B2","batch2","","651","tol_toboard","","","","tol_peg_2","651","651","0","[[1,3,0],[2,0],[0]]","9","[[0,0,0],[2,3],[1]]","12","0","","","","","","4","","","","","","","","",""
"","","","","","single-stim-button","272","366266","0.0-2.0-46.9-0.9","615eddb82c272bfc2abe6904","B2","batch2","","376","tol_tohand","","","","tol_peg_1","376","376","0","[[1,0,0],[2,0],[0]]","10","[[0,0,0],[2,3],[1]]","12","0","","","","","","4","","","","","","","","",""
"","","","","","single-stim-button","273","367051","0.0-2.0-46.9-1.9","615eddb82c272bfc2abe6904","B2","batch2","","785","tol_toboard","","","","tol_peg_2","785","785","0","[[1,0,0],[2,3],[0]]","10","[[0,0,0],[2,3],[1]]","12","0","","","","","","4","","","","","","","","",""
"","","","","","single-stim-button","274","368258","0.0-2.0-46.10-0.10","615eddb82c272bfc2abe6904","B2","batch2","","1206","tol_tohand","","","","tol_peg_1","1206","1206","0","[[0,0,0],[2,3],[0]]","11","[[0,0,0],[2,3],[1]]","12","0","","","","","","4","","","","","","","","",""
"","","","","","single-stim-button","275","368585","0.0-2.0-46.10-1.10","615eddb82c272bfc2abe6904","B2","batch2","","326","tol_toboard","","","","tol_peg_3","326","326","0","[[0,0,0],[2,3],[1]]","11","[[0,0,0],[2,3],[1]]","12","0","","","","","","4","","","","","","","","",""
"","","","","","poldrack-single-stim","276","369597","0.0-2.0-47.0","615eddb82c272bfc2abe6904","B2","batch2","","-1","tol_feedback","","","true","","1000","1000","500","","","","","","-1","none","true","10419","16986","","","","","","","","","",""
"","","","","","html-button-response","277","373001","0.0-2.0-48.0","615eddb82c272bfc2abe6904","B2","batch2","","3403.800000011921","attention_check","<p class = block-text>How many balls are in your board<br></p>","1","true","","","","","","","","","","","","","","","","","","","","","","","",""
"","","","","","html-button-response","278","373814","0.0-2.0-49.0","615eddb82c272bfc2abe6904","B2","batch2","","812.3000000119209","tol_trial_num","<div class = centerbox><p class = center-block-text>problem <strong>14</strong> out of 25 problems</p></div>","0","","","","","","","","","","","","","","","","","","","","","","","","",""
"","","","","","single-stim-button","279","378690","0.0-2.0-50.0-0.0","615eddb82c272bfc2abe6904","B2","batch2","","4874","tol_tohand","","","","tol_peg_1","4874","4874","0","[[2,0,0],[3,0],[0]]","1","[[1,2,0],[3,0],[0]]","13","0","","","","","","4","","","","","","","","",""
"","","","","","single-stim-button","280","379207","0.0-2.0-50.0-1.0","615eddb82c272bfc2abe6904","B2","batch2","","517","tol_toboard","","","","tol_peg_3","517","517","0","[[2,0,0],[3,0],[1]]","1","[[1,2,0],[3,0],[0]]","13","0","","","","","","4","","","","","","","","",""
"","","","","","single-stim-button","281","379620","0.0-2.0-50.1-0.1","615eddb82c272bfc2abe6904","B2","batch2","","412","tol_tohand","","","","tol_peg_1","412","412","0","[[0,0,0],[3,0],[1]]","2","[[1,2,0],[3,0],[0]]","13","0","","","","","","4","","","","","","","","",""
"","","","","","single-stim-button","282","379955","0.0-2.0-50.1-1.1","615eddb82c272bfc2abe6904","B2","batch2","","334","tol_toboard","","","","tol_peg_2","334","334","0","[[0,0,0],[3,2],[1]]","2","[[1,2,0],[3,0],[0]]","13","0","","","","","","4","","","","","","","","",""
"","","","","","single-stim-button","283","380641","0.0-2.0-50.2-0.2","615eddb82c272bfc2abe6904","B2","batch2","","685","tol_tohand","","","","tol_peg_3","685","685","0","[[0,0,0],[3,2],[0]]","3","[[1,2,0],[3,0],[0]]","13","0","","","","","","4","","","","","","","","",""
"","","","","","single-stim-button","284","381065","0.0-2.0-50.2-1.2","615eddb82c272bfc2abe6904","B2","batch2","","423","tol_toboard","","","","tol_peg_1","423","423","0","[[1,0,0],[3,2],[0]]","3","[[1,2,0],[3,0],[0]]","13","0","","","","","","4","","","","","","","","",""
"","","","","","single-stim-button","285","381477","0.0-2.0-50.3-0.3","615eddb82c272bfc2abe6904","B2","batch2","","411","tol_tohand","","","","tol_peg_2","411","411","0","[[1,0,0],[3,0],[0]]","4","[[1,2,0],[3,0],[0]]","13","0","","","","","","4","","","","","","","","",""
"","","","","","single-stim-button","286","381766","0.0-2.0-50.3-1.3","615eddb82c272bfc2abe6904","B2","batch2","","288","tol_toboard","","","","tol_peg_1","288","288","0","[[1,2,0],[3,0],[0]]","4","[[1,2,0],[3,0],[0]]","13","0","","","","","","4","","","","","","","","",""
"","","","","","poldrack-single-stim","287","382767","0.0-2.0-51.0","615eddb82c272bfc2abe6904","B2","batch2","","-1","tol_feedback","","","true","","1000","1000","500","","","","","","-1","none","true","4874","6382","","","","","","","","","",""
"","","","","","html-button-response","288","383978","0.0-2.0-52.0","615eddb82c272bfc2abe6904","B2","batch2","","1210.5","tol_trial_num","<div class = centerbox><p class = center-block-text>problem <strong>15</strong> out of 25 problems</p></div>","0","","","","","","","","","","","","","","","","","","","","","","","","",""
"","","","","","single-stim-button","289","386716","0.0-2.0-53.0-0.0","615eddb82c272bfc2abe6904","B2","batch2","","2737","tol_tohand","","","","tol_peg_1","2737","2737","0","[[1,0,0],[3,0],[0]]","1","[[2,0,0],[3,0],[1]]","14","0","","","","","","3","","","","","","","","",""
"","","","","","single-stim-button","290","387190","0.0-2.0-53.0-1.0","615eddb82c272bfc2abe6904","B2","batch2","","473","tol_toboard","","","","tol_peg_2","473","473","0","[[1,0,0],[3,2],[0]]","1","[[2,0,0],[3,0],[1]]","14","0","","","","","","3","","","","","","","","",""
"","","","","","single-stim-button","291","387757","0.0-2.0-53.1-0.1","615eddb82c272bfc2abe6904","B2","batch2","","566","tol_tohand","","","","tol_peg_1","566","566","0","[[0,0,0],[3,2],[0]]","2","[[2,0,0],[3,0],[1]]","14","0","","","","","","3","","","","","","","","",""
"","","","","","single-stim-button","292","388181","0.0-2.0-53.1-1.1","615eddb82c272bfc2abe6904","B2","batch2","","424","tol_toboard","","","","tol_peg_3","424","424","0","[[0,0,0],[3,2],[1]]","2","[[2,0,0],[3,0],[1]]","14","0","","","","","","3","","","","","","","","",""
"","","","","","single-stim-button","293","388494","0.0-2.0-53.2-0.2","615eddb82c272bfc2abe6904","B2","batch2","","312","tol_tohand","","","","tol_peg_2","312","312","0","[[0,0,0],[3,0],[1]]","3","[[2,0,0],[3,0],[1]]","14","0","","","","","","3","","","","","","","","",""
"","","","","","single-stim-button","294","389116","0.0-2.0-53.2-1.2","615eddb82c272bfc2abe6904","B2","batch2","","621","tol_toboard","","","","tol_peg_1","621","621","0","[[2,0,0],[3,0],[1]]","3","[[2,0,0],[3,0],[1]]","14","0","","","","","","3","","","","","","","","",""
"","","","","","poldrack-single-stim","295","390117","0.0-2.0-54.0","615eddb82c272bfc2abe6904","B2","batch2","","-1","tol_feedback","","","true","","1000","1000","500","","","","","","-1","none","true","2737","3615","","","","","","","","","",""
"","","","","","html-button-response","296","390683","0.0-2.0-55.0","615eddb82c272bfc2abe6904","B2","batch2","","566.1000000238419","tol_trial_num","<div class = centerbox><p class = center-block-text>problem <strong>16</strong> out of 25 problems</p></div>","0","","","","","","","","","","","","","","","","","","","","","","","","",""
"","","","","","single-stim-button","297","393808","0.0-2.0-56.0-0.0","615eddb82c272bfc2abe6904","B2","batch2","","3124","tol_tohand","","","","tol_peg_2","3124","3124","0","[[0,0,0],[2,0],[1]]","1","[[2,3,0],[1,0],[0]]","15","0","","","","","","7","","","","","","","","",""
"","","","","","single-stim-button","298","394119","0.0-2.0-56.0-1.0","615eddb82c272bfc2abe6904","B2","batch2","","310","tol_toboard","","","","tol_peg_1","310","310","0","[[3,0,0],[2,0],[1]]","1","[[2,3,0],[1,0],[0]]","15","0","","","","","","7","","","","","","","","",""
"","","","","","single-stim-button","299","394491","0.0-2.0-56.1-0.1","615eddb82c272bfc2abe6904","B2","batch2","","371","tol_tohand","","","","tol_peg_3","371","371","0","[[3,0,0],[2,0],[0]]","2","[[2,3,0],[1,0],[0]]","15","0","","","","","","7","","","","","","","","",""
"","","","","","single-stim-button","300","395100","0.0-2.0-56.1-1.1","615eddb82c272bfc2abe6904","B2","batch2","","608","tol_toboard","","","","tol_peg_2","608","608","0","[[3,0,0],[2,1],[0]]","2","[[2,3,0],[1,0],[0]]","15","0","","","","","","7","","","","","","","","",""
"","","","","","single-stim-button","301","395407","0.0-2.0-56.2-0.2","615eddb82c272bfc2abe6904","B2","batch2","","306","tol_tohand","","","","tol_peg_1","306","306","0","[[0,0,0],[2,1],[0]]","3","[[2,3,0],[1,0],[0]]","15","0","","","","","","7","","","","","","","","",""
"","","","","","single-stim-button","302","396072","0.0-2.0-56.2-1.2","615eddb82c272bfc2abe6904","B2","batch2","","664","tol_toboard","","","","tol_peg_3","664","664","0","[[0,0,0],[2,1],[3]]","3","[[2,3,0],[1,0],[0]]","15","0","","","","","","7","","","","","","","","",""
"","","","","","single-stim-button","303","396778","0.0-2.0-56.3-0.3","615eddb82c272bfc2abe6904","B2","batch2","","705","tol_tohand","","","","tol_peg_2","705","705","0","[[0,0,0],[2,0],[3]]","4","[[2,3,0],[1,0],[0]]","15","0","","","","","","7","","","","","","","","",""
"","","","","","single-stim-button","304","397033","0.0-2.0-56.3-1.3","615eddb82c272bfc2abe6904","B2","batch2","","255","tol_toboard","","","","tol_peg_1","255","255","0","[[1,0,0],[2,0],[3]]","4","[[2,3,0],[1,0],[0]]","15","0","","","","","","7","","","","","","","","",""
"","","","","","single-stim-button","305","397453","0.0-2.0-56.4-0.4","615eddb82c272bfc2abe6904","B2","batch2","","419","tol_tohand","","","","tol_peg_2","419","419","0","[[1,0,0],[0,0],[3]]","5","[[2,3,0],[1,0],[0]]","15","0","","","","","","7","","","","","","","","",""
"","","","","","single-stim-button","306","398708","0.0-2.0-56.4-1.4","615eddb82c272bfc2abe6904","B2","batch2","","1254","tol_toboard","","","","tol_peg_1","1254","1254","0","[[1,2,0],[0,0],[3]]","5","[[2,3,0],[1,0],[0]]","15","0","","","","","","7","","","","","","","","",""
"","","","","","single-stim-button","307","399776","0.0-2.0-56.5-0.5","615eddb82c272bfc2abe6904","B2","batch2","","1067","tol_tohand","","","","tol_peg_3","1067","1067","0","[[1,2,0],[0,0],[0]]","6","[[2,3,0],[1,0],[0]]","15","0","","","","","","7","","","","","","","","",""
"","","","","","single-stim-button","308","400339","0.0-2.0-56.5-1.5","615eddb82c272bfc2abe6904","B2","batch2","","562","tol_toboard","","","","tol_peg_2","562","562","0","[[1,2,0],[3,0],[0]]","6","[[2,3,0],[1,0],[0]]","15","0","","","","","","7","","","","","","","","",""
"","","","","","single-stim-button","309","400839","0.0-2.0-56.6-0.6","615eddb82c272bfc2abe6904","B2","batch2","","500","tol_tohand","","","","tol_peg_1","500","500","0","[[1,0,0],[3,0],[0]]","7","[[2,3,0],[1,0],[0]]","15","0","","","","","","7","","","","","","","","",""
"","","","","","single-stim-button","310","401530","0.0-2.0-56.6-1.6","615eddb82c272bfc2abe6904","B2","batch2","","690","tol_toboard","","","","tol_peg_2","690","690","0","[[1,0,0],[3,2],[0]]","7","[[2,3,0],[1,0],[0]]","15","0","","","","","","7","","","","","","","","",""
"","","","","","single-stim-button","311","402146","0.0-2.0-56.7-0.7","615eddb82c272bfc2abe6904","B2","batch2","","614","tol_tohand","","","","tol_peg_1","614","614","0","[[0,0,0],[3,2],[0]]","8","[[2,3,0],[1,0],[0]]","15","0","","","","","","7","","","","","","","","",""
"","","","","","single-stim-button","312","403064","0.0-2.0-56.7-1.7","615eddb82c272bfc2abe6904","B2","batch2","","918","tol_toboard","","","","tol_peg_3","918","918","0","[[0,0,0],[3,2],[1]]","8","[[2,3,0],[1,0],[0]]","15","0","","","","","","7","","","","","","","","",""
"","","","","","single-stim-button","313","403419","0.0-2.0-56.8-0.8","615eddb82c272bfc2abe6904","B2","batch2","","354","tol_tohand","","","","tol_peg_2","354","354","0","[[0,0,0],[3,0],[1]]","9","[[2,3,0],[1,0],[0]]","15","0","","","","","","7","","","","","","","","",""
"","","","","","single-stim-button","314","403857","0.0-2.0-56.8-1.8","615eddb82c272bfc2abe6904","B2","batch2","","438","tol_toboard","","","","tol_peg_1","438","438","0","[[2,0,0],[3,0],[1]]","9","[[2,3,0],[1,0],[0]]","15","0","","","","","","7","","","","","","","","",""
"","","","","","single-stim-button","315","404451","0.0-2.0-56.9-0.9","615eddb82c272bfc2abe6904","B2","batch2","","592","tol_tohand","","","","tol_peg_2","592","592","0","[[2,0,0],[0,0],[1]]","10","[[2,3,0],[1,0],[0]]","15","0","","","","","","7","","","","","","","","",""
"","","","","","single-stim-button","316","404799","0.0-2.0-56.9-1.9","615eddb82c272bfc2abe6904","B2","batch2","","348","tol_toboard","","","","tol_peg_1","348","348","0","[[2,3,0],[0,0],[1]]","10","[[2,3,0],[1,0],[0]]","15","0","","","","","","7","","","","","","","","",""
"","","","","","single-stim-button","317","405258","0.0-2.0-56.10-0.10","615eddb82c272bfc2abe6904","B2","batch2","","458","tol_tohand","","","","tol_peg_3","458","458","0","[[2,3,0],[0,0],[0]]","11","[[2,3,0],[1,0],[0]]","15","0","","","","","","7","","","","","","","","",""
"","","","","","single-stim-button","318","405586","0.0-2.0-56.10-1.10","615eddb82c272bfc2abe6904","B2","batch2","","328","tol_toboard","","","","tol_peg_2","328","328","0","[[2,3,0],[1,0],[0]]","11","[[2,3,0],[1,0],[0]]","15","0","","","","","","7","","","","","","","","",""
"","","","","","poldrack-single-stim","319","406589","0.0-2.0-57.0","615eddb82c272bfc2abe6904","B2","batch2","","-1","tol_feedback","","","true","","1000","1000","500","","","","","","-1","none","true","3124","8510","","","","","","","","","",""
"","","","","","html-button-response","320","407456","0.0-2.0-58.0","615eddb82c272bfc2abe6904","B2","batch2","","867.1999999880791","tol_trial_num","<div class = centerbox><p class = center-block-text>problem <strong>17</strong> out of 25 problems</p></div>","0","","","","","","","","","","","","","","","","","","","","","","","","",""
"","","","","","single-stim-button","321","412593","0.0-2.0-59.0-0.0","615eddb82c272bfc2abe6904","B2","batch2","","5136","tol_tohand","","","","tol_peg_1","5136","5136","0","[[1,0,0],[3,0],[0]]","1","[[3,1,0],[2,0],[0]]","16","0","","","","","","5","","","","","","","","",""
"","","","","","single-stim-button","322","413282","0.0-2.0-59.0-1.0","615eddb82c272bfc2abe6904","B2","batch2","","687","tol_toboard","","","","tol_peg_3","687","687","0","[[1,0,0],[3,0],[2]]","1","[[3,1,0],[2,0],[0]]","16","0","","","","","","5","","","","","","","","",""
"","","","","","single-stim-button","323","416512","0.0-2.0-59.1-0.1","615eddb82c272bfc2abe6904","B2","batch2","","3230","tol_tohand","","","","tol_peg_3","3230","3230","0","[[1,0,0],[3,0],[0]]","2","[[3,1,0],[2,0],[0]]","16","0","","","","","","5","","","","","","","","",""
"","","","","","single-stim-button","324","416775","0.0-2.0-59.1-1.1","615eddb82c272bfc2abe6904","B2","batch2","","261","tol_toboard","","","","tol_peg_2","261","261","0","[[1,0,0],[3,2],[0]]","2","[[3,1,0],[2,0],[0]]","16","0","","","","","","5","","","","","","","","",""
"","","","","","single-stim-button","325","417222","0.0-2.0-59.2-0.2","615eddb82c272bfc2abe6904","B2","batch2","","447","tol_tohand","","","","tol_peg_1","447","447","0","[[0,0,0],[3,2],[0]]","3","[[3,1,0],[2,0],[0]]","16","0","","","","","","5","","","","","","","","",""
"","","","","","single-stim-button","326","417805","0.0-2.0-59.2-1.2","615eddb82c272bfc2abe6904","B2","batch2","","582","tol_toboard","","","","tol_peg_3","582","582","0","[[0,0,0],[3,2],[1]]","3","[[3,1,0],[2,0],[0]]","16","0","","","","","","5","","","","","","","","",""
"","","","","","single-stim-button","327","418829","0.0-2.0-59.3-0.3","615eddb82c272bfc2abe6904","B2","batch2","","1023","tol_tohand","","","","tol_peg_2","1023","1023","0","[[0,0,0],[3,0],[1]]","4","[[3,1,0],[2,0],[0]]","16","0","","","","","","5","","","","","","","","",""
"","","","","","single-stim-button","328","419640","0.0-2.0-59.3-1.3","615eddb82c272bfc2abe6904","B2","batch2","","809","tol_toboard","","","","tol_peg_1","809","809","0","[[2,0,0],[3,0],[1]]","4","[[3,1,0],[2,0],[0]]","16","0","","","","","","5","","","","","","","","",""
"","","","","","single-stim-button","329","422325","0.0-2.0-59.4-0.4","615eddb82c272bfc2abe6904","B2","batch2","","2684","tol_tohand","","","","tol_peg_3","2684","2684","0","[[2,0,0],[3,0],[0]]","5","[[3,1,0],[2,0],[0]]","16","0","","","","","","5","","","","","","","","",""
"","","","","","single-stim-button","330","422962","0.0-2.0-59.4-1.4","615eddb82c272bfc2abe6904","B2","batch2","","637","tol_toboard","","","","tol_peg_1","637","637","0","[[2,1,0],[3,0],[0]]","5","[[3,1,0],[2,0],[0]]","16","0","","","","","","5","","","","","","","","",""
"","","","","","single-stim-button","331","423338","0.0-2.0-59.5-0.5","615eddb82c272bfc2abe6904","B2","batch2","","375","tol_tohand","","","","tol_peg_2","375","375","0","[[2,1,0],[0,0],[0]]","6","[[3,1,0],[2,0],[0]]","16","0","","","","","","5","","","","","","","","",""
"","","","","","single-stim-button","332","423633","0.0-2.0-59.5-1.5","615eddb82c272bfc2abe6904","B2","batch2","","294","tol_toboard","","","","tol_peg_3","294","294","0","[[2,1,0],[0,0],[3]]","6","[[3,1,0],[2,0],[0]]","16","0","","","","","","5","","","","","","","","",""
"","","","","","single-stim-button","333","424118","0.0-2.0-59.6-0.6","615eddb82c272bfc2abe6904","B2","batch2","","484","tol_tohand","","","","tol_peg_1","484","484","0","[[2,0,0],[0,0],[3]]","7","[[3,1,0],[2,0],[0]]","16","0","","","","","","5","","","","","","","","",""
"","","","","","single-stim-button","334","424416","0.0-2.0-59.6-1.6","615eddb82c272bfc2abe6904","B2","batch2","","298","tol_toboard","","","","tol_peg_2","298","298","0","[[2,0,0],[1,0],[3]]","7","[[3,1,0],[2,0],[0]]","16","0","","","","","","5","","","","","","","","",""
"","","","","","single-stim-button","335","425458","0.0-2.0-59.7-0.7","615eddb82c272bfc2abe6904","B2","batch2","","1042","tol_tohand","","","","tol_peg_1","1042","1042","0","[[0,0,0],[1,0],[3]]","8","[[3,1,0],[2,0],[0]]","16","0","","","","","","5","","","","","","","","",""
"","","","","","single-stim-button","336","426017","0.0-2.0-59.7-1.7","615eddb82c272bfc2abe6904","B2","batch2","","559","tol_toboard","","","","tol_peg_2","559","559","0","[[0,0,0],[1,2],[3]]","8","[[3,1,0],[2,0],[0]]","16","0","","","","","","5","","","","","","","","",""
"","","","","","single-stim-button","337","426341","0.0-2.0-59.8-0.8","615eddb82c272bfc2abe6904","B2","batch2","","323","tol_tohand","","","","tol_peg_3","323","323","0","[[0,0,0],[1,2],[0]]","9","[[3,1,0],[2,0],[0]]","16","0","","","","","","5","","","","","","","","",""
"","","","","","single-stim-button","338","427075","0.0-2.0-59.8-1.8","615eddb82c272bfc2abe6904","B2","batch2","","734","tol_toboard","","","","tol_peg_1","734","734","0","[[3,0,0],[1,2],[0]]","9","[[3,1,0],[2,0],[0]]","16","0","","","","","","5","","","","","","","","",""
"","","","","","single-stim-button","339","427971","0.0-2.0-59.9-0.9","615eddb82c272bfc2abe6904","B2","batch2","","896","tol_tohand","","","","tol_peg_2","896","896","0","[[3,0,0],[1,0],[0]]","10","[[3,1,0],[2,0],[0]]","16","0","","","","","","5","","","","","","","","",""
"","","","","","single-stim-button","340","428327","0.0-2.0-59.9-1.9","615eddb82c272bfc2abe6904","B2","batch2","","356","tol_toboard","","","","tol_peg_3","356","356","0","[[3,0,0],[1,0],[2]]","10","[[3,1,0],[2,0],[0]]","16","0","","","","","","5","","","","","","","","",""
"","","","","","single-stim-button","341","428620","0.0-2.0-59.10-0.10","615eddb82c272bfc2abe6904","B2","batch2","","293","tol_tohand","","","","tol_peg_2","293","293","0","[[3,0,0],[0,0],[2]]","11","[[3,1,0],[2,0],[0]]","16","0","","","","","","5","","","","","","","","",""
"","","","","","single-stim-button","342","429052","0.0-2.0-59.10-1.10","615eddb82c272bfc2abe6904","B2","batch2","","432","tol_toboard","","","","tol_peg_1","432","432","0","[[3,1,0],[0,0],[2]]","11","[[3,1,0],[2,0],[0]]","16","0","","","","","","5","","","","","","","","",""
"","","","","","single-stim-button","343","429464","0.0-2.0-59.11-0.11","615eddb82c272bfc2abe6904","B2","batch2","","412","tol_tohand","","","","tol_peg_3","412","412","0","[[3,1,0],[0,0],[0]]","12","[[3,1,0],[2,0],[0]]","16","0","","","","","","5","","","","","","","","",""
"","","","","","single-stim-button","344","429702","0.0-2.0-59.11-1.11","615eddb82c272bfc2abe6904","B2","batch2","","238","tol_toboard","","","","tol_peg_2","238","238","0","[[3,1,0],[2,0],[0]]","12","[[3,1,0],[2,0],[0]]","16","0","","","","","","5","","","","","","","","",""
"","","","","","poldrack-single-stim","345","430704","0.0-2.0-60.0","615eddb82c272bfc2abe6904","B2","batch2","","-1","tol_feedback","","","true","","1000","1000","500","","","","","","-1","none","true","5136","16345","","","","","","","","","",""
"","","","","","html-button-response","346","431253","0.0-2.0-61.0","615eddb82c272bfc2abe6904","B2","batch2","","547.6999999880791","tol_trial_num","<div class = centerbox><p class = center-block-text>problem <strong>18</strong> out of 25 problems</p></div>","0","","","","","","","","","","","","","","","","","","","","","","","","",""
"","","","","","single-stim-button","347","435122","0.0-2.0-62.0-0.0","615eddb82c272bfc2abe6904","B2","batch2","","3869","tol_tohand","","","","tol_peg_1","3869","3869","0","[[1,0,0],[3,0],[0]]","1","[[3,0,0],[2,0],[1]]","17","0","","","","","","5","","","","","","","","",""
"","","","","","single-stim-button","348","435419","0.0-2.0-62.0-1.0","615eddb82c272bfc2abe6904","B2","batch2","","297","tol_toboard","","","","tol_peg_2","297","297","0","[[1,0,0],[3,2],[0]]","1","[[3,0,0],[2,0],[1]]","17","0","","","","","","5","","","","","","","","",""
"","","","","","single-stim-button","349","435762","0.0-2.0-62.1-0.1","615eddb82c272bfc2abe6904","B2","batch2","","343","tol_tohand","","","","tol_peg_1","343","343","0","[[0,0,0],[3,2],[0]]","2","[[3,0,0],[2,0],[1]]","17","0","","","","","","5","","","","","","","","",""
"","","","","","single-stim-button","350","436185","0.0-2.0-62.1-1.1","615eddb82c272bfc2abe6904","B2","batch2","","423","tol_toboard","","","","tol_peg_3","423","423","0","[[0,0,0],[3,2],[1]]","2","[[3,0,0],[2,0],[1]]","17","0","","","","","","5","","","","","","","","",""
"","","","","","single-stim-button","351","437455","0.0-2.0-62.2-0.2","615eddb82c272bfc2abe6904","B2","batch2","","1270","tol_tohand","","","","tol_peg_2","1270","1270","0","[[0,0,0],[3,0],[1]]","3","[[3,0,0],[2,0],[1]]","17","0","","","","","","5","","","","","","","","",""
"","","","","","single-stim-button","352","438252","0.0-2.0-62.2-1.2","615eddb82c272bfc2abe6904","B2","batch2","","797","tol_toboard","","","","tol_peg_1","797","797","0","[[2,0,0],[3,0],[1]]","3","[[3,0,0],[2,0],[1]]","17","0","","","","","","5","","","","","","","","",""
"","","","","","single-stim-button","353","438598","0.0-2.0-62.3-0.3","615eddb82c272bfc2abe6904","B2","batch2","","346","tol_tohand","","","","tol_peg_3","346","346","0","[[2,0,0],[3,0],[0]]","4","[[3,0,0],[2,0],[1]]","17","0","","","","","","5","","","","","","","","",""
"","","","","","single-stim-button","354","438837","0.0-2.0-62.3-1.3","615eddb82c272bfc2abe6904","B2","batch2","","239","tol_toboard","","","","tol_peg_2","239","239","0","[[2,0,0],[3,1],[0]]","4","[[3,0,0],[2,0],[1]]","17","0","","","","","","5","","","","","","","","",""
"","","","","","single-stim-button","355","439224","0.0-2.0-62.4-0.4","615eddb82c272bfc2abe6904","B2","batch2","","387","tol_tohand","","","","tol_peg_1","387","387","0","[[0,0,0],[3,1],[0]]","5","[[3,0,0],[2,0],[1]]","17","0","","","","","","5","","","","","","","","",""
"","","","","","single-stim-button","356","439638","0.0-2.0-62.4-1.4","615eddb82c272bfc2abe6904","B2","batch2","","414","tol_toboard","","","","tol_peg_3","414","414","0","[[0,0,0],[3,1],[2]]","5","[[3,0,0],[2,0],[1]]","17","0","","","","","","5","","","","","","","","",""
