"success","timeout","failed_images","failed_audio","failed_video","trial_type","trial_index","time_elapsed","internal_node_id","subject_id","study_id","session_id","task","rt","stimulus","response","item","answer","correct","spm_correct","spm_rt","view_history","fiar_detect_rt","fiar_detect_correct","total_correct_fiar_detect","post_trial_gap","choices","mouse_click","stim_duration","block_duration","timing_post_trial","current_position","tol_num_moves_made","tol_target","tol_problem_id","tol_rt","key_press","possible_responses","tol_correct","preplanning","tol_rt_per_trial","tol_min_moves"
"true","false","[]","[]","[]","preload","0","976","0.0-0.0","616202f3ca5b3ab47923ee80","E1","batch5","","","","","","","","","","","","","","","","","","","","","","","","","","","","","",""
"true","","","","","fullscreen","1","15020","0.0-1.0-0.0","616202f3ca5b3ab47923ee80","E1","batch5","","","","","","","","","","","","","","","","","","","","","","","","","","","","","",""
"true","","","","","fullscreen","2","20375","0.0-2.0-0.0","616202f3ca5b3ab47923ee80","E1","batch5","spm_fullscreen","","","","","","","","","","","","","","","","","","","","","","","","","","","","",""
"","","","","","html-button-response","3","49239","0.0-2.0-1.0","616202f3ca5b3ab47923ee80","E1","batch5","","28863.400000572205","<p class = block-text><b>Instructions</b> <br>This is a widely used intelligence test in research. <br>In this test, a figure with a missing piece will be presented.<br>Below the figure are alternative pieces to complete the figure, only one of which is correct.<br> Different figures might involve different principles for obtaining the missing piece<br>Your job is to select the most logical piece to complete the figure.</p>","0","","","","","","","","","","","","","","","","","","","","","","","","","",""
"","","","","","html-keyboard-response","4","50043","0.0-2.0-2.0-0.0","616202f3ca5b3ab47923ee80","E1","batch5","spm_show_trial_num","null","<p class=block-text>Trial 1 out of 60</p>","null","","","","","","","","","","","","","","","","","","","","","","","","","",""
"","","","","","image-button-response","5","95313","0.0-2.0-2.0-1.0","616202f3ca5b3ab47923ee80","E1","batch5","spm_respsonse","45261.20000076294","img/question_1_1.jpeg","3","mat_01","4","1","1","45261.20000076294","","","","","","","","","","","","","","","","","","","","",""
"","","","","","html-keyboard-response","6","96378","0.0-2.0-2.0-0.1","616202f3ca5b3ab47923ee80","E1","batch5","spm_show_trial_num","null","<p class=block-text>Trial 2 out of 60</p>","null","","","","","","","","","","","","","","","","","","","","","","","","","",""
"","","","","","image-button-response","7","99519","0.0-2.0-2.0-1.1","616202f3ca5b3ab47923ee80","E1","batch5","spm_respsonse","3137.7000007629395","img/question_1_2.jpeg","4","mat_02","5","1","1","3137.7000007629395","","","","","","","","","","","","","","","","","","","","",""
"","","","","","html-keyboard-response","8","100586","0.0-2.0-2.0-0.2","616202f3ca5b3ab47923ee80","E1","batch5","spm_show_trial_num","null","<p class=block-text>Trial 3 out of 60</p>","null","","","","","","","","","","","","","","","","","","","","","","","","","",""
"","","","","","image-button-response","9","104454","0.0-2.0-2.0-1.2","616202f3ca5b3ab47923ee80","E1","batch5","spm_respsonse","3863.5","img/question_1_3.jpeg","0","mat_03","1","1","1","3863.5","","","","","","","","","","","","","","","","","","","","",""
"","","","","","html-keyboard-response","10","105516","0.0-2.0-2.0-0.3","616202f3ca5b3ab47923ee80","E1","batch5","spm_show_trial_num","null","<p class=block-text>Trial 4 out of 60</p>","null","","","","","","","","","","","","","","","","","","","","","","","","","",""
"","","","","","image-button-response","11","110471","0.0-2.0-2.0-1.3","616202f3ca5b3ab47923ee80","E1","batch5","spm_respsonse","4952.300000190735","img/question_1_4.jpeg","1","mat_04","2","1","1","4952.300000190735","","","","","","","","","","","","","","","","","","","","",""
"","","","","","html-keyboard-response","12","111536","0.0-2.0-2.0-0.4","616202f3ca5b3ab47923ee80","E1","batch5","spm_show_trial_num","null","<p class=block-text>Trial 5 out of 60</p>","null","","","","","","","","","","","","","","","","","","","","","","","","","",""
"","","","","","image-button-response","13","117164","0.0-2.0-2.0-1.4","616202f3ca5b3ab47923ee80","E1","batch5","spm_respsonse","5623.400000572205","img/question_1_5.jpeg","5","mat_05","6","1","1","5623.400000572205","","","","","","","","","","","","","","","","","","","","",""
"","","","","","html-keyboard-response","14","118225","0.0-2.0-2.0-0.5","616202f3ca5b3ab47923ee80","E1","batch5","spm_show_trial_num","null","<p class=block-text>Trial 6 out of 60</p>","null","","","","","","","","","","","","","","","","","","","","","","","","","",""
"","","","","","image-button-response","15","123067","0.0-2.0-2.0-1.5","616202f3ca5b3ab47923ee80","E1","batch5","spm_respsonse","4838.699999809265","img/question_1_6.jpeg","2","mat_06","3","1","1","4838.699999809265","","","","","","","","","","","","","","","","","","","","",""
"","","","","","html-keyboard-response","16","124128","0.0-2.0-2.0-0.6","616202f3ca5b3ab47923ee80","E1","batch5","spm_show_trial_num","null","<p class=block-text>Trial 7 out of 60</p>","null","","","","","","","","","","","","","","","","","","","","","","","","","",""
"","","","","","image-button-response","17","128524","0.0-2.0-2.0-1.6","616202f3ca5b3ab47923ee80","E1","batch5","spm_respsonse","4391.299999237061","img/question_1_7.jpeg","5","mat_07","6","1","1","4391.299999237061","","","","","","","","","","","","","","","","","","","","",""
"","","","","","html-keyboard-response","18","129586","0.0-2.0-2.0-0.7","616202f3ca5b3ab47923ee80","E1","batch5","spm_show_trial_num","null","<p class=block-text>Trial 8 out of 60</p>","null","","","","","","","","","","","","","","","","","","","","","","","","","",""
"","","","","","image-button-response","19","138780","0.0-2.0-2.0-1.7","616202f3ca5b3ab47923ee80","E1","batch5","spm_respsonse","9190","img/question_1_8.jpeg","1","mat_08","2","1","1","9190","","","","","","","","","","","","","","","","","","","","",""
"","","","","","html-keyboard-response","20","139841","0.0-2.0-2.0-0.8","616202f3ca5b3ab47923ee80","E1","batch5","spm_show_trial_num","null","<p class=block-text>Trial 9 out of 60</p>","null","","","","","","","","","","","","","","","","","","","","","","","","","",""
"","","","","","image-button-response","21","144169","0.0-2.0-2.0-1.8","616202f3ca5b3ab47923ee80","E1","batch5","spm_respsonse","4324.10000038147","img/question_1_9.jpeg","0","mat_09","1","1","1","4324.10000038147","","","","","","","","","","","","","","","","","","","","",""
"","","","","","html-keyboard-response","22","145236","0.0-2.0-2.0-0.9","616202f3ca5b3ab47923ee80","E1","batch5","spm_show_trial_num","null","<p class=block-text>Trial 10 out of 60</p>","null","","","","","","","","","","","","","","","","","","","","","","","","","",""
"","","","","","image-button-response","23","152548","0.0-2.0-2.0-1.9","616202f3ca5b3ab47923ee80","E1","batch5","spm_respsonse","7307.799999237061","img/question_1_10.jpeg","2","mat_10","3","1","1","7307.799999237061","","","","","","","","","","","","","","","","","","","","",""
"","","","","","html-keyboard-response","24","153609","0.0-2.0-2.0-0.10","616202f3ca5b3ab47923ee80","E1","batch5","spm_show_trial_num","null","<p class=block-text>Trial 11 out of 60</p>","null","","","","","","","","","","","","","","","","","","","","","","","","","",""
"","","","","","image-button-response","25","162223","0.0-2.0-2.0-1.10","616202f3ca5b3ab47923ee80","E1","batch5","spm_respsonse","8609.89999961853","img/question_1_11.jpeg","3","mat_11","4","1","1","8609.89999961853","","","","","","","","","","","","","","","","","","","","",""
"","","","","","html-keyboard-response","26","163289","0.0-2.0-2.0-0.11","616202f3ca5b3ab47923ee80","E1","batch5","spm_show_trial_num","null","<p class=block-text>Trial 12 out of 60</p>","null","","","","","","","","","","","","","","","","","","","","","","","","","",""
"","","","","","image-button-response","27","187460","0.0-2.0-2.0-1.11","616202f3ca5b3ab47923ee80","E1","batch5","spm_respsonse","24168","img/question_1_12.jpeg","4","mat_12","5","1","1","24168","","","","","","","","","","","","","","","","","","","","",""
"","","","","","html-keyboard-response","28","188530","0.0-2.0-2.0-0.12","616202f3ca5b3ab47923ee80","E1","batch5","spm_show_trial_num","null","<p class=block-text>Trial 13 out of 60</p>","null","","","","","","","","","","","","","","","","","","","","","","","","","",""
"","","","","","image-button-response","29","191681","0.0-2.0-2.0-1.12","616202f3ca5b3ab47923ee80","E1","batch5","spm_respsonse","3146.300000190735","img/question_2_1.jpeg","1","mat_13","2","1","1","3146.300000190735","","","","","","","","","","","","","","","","","","","","",""
"","","","","","html-keyboard-response","30","192744","0.0-2.0-2.0-0.13","616202f3ca5b3ab47923ee80","E1","batch5","spm_show_trial_num","null","<p class=block-text>Trial 14 out of 60</p>","null","","","","","","","","","","","","","","","","","","","","","","","","","",""
"","","","","","image-button-response","31","198556","0.0-2.0-2.0-1.13","616202f3ca5b3ab47923ee80","E1","batch5","spm_respsonse","5808.800000190735","img/question_2_2.jpeg","5","mat_14","6","1","1","5808.800000190735","","","","","","","","","","","","","","","","","","","","",""
"","","","","","html-keyboard-response","32","199624","0.0-2.0-2.0-0.14","616202f3ca5b3ab47923ee80","E1","batch5","spm_show_trial_num","null","<p class=block-text>Trial 15 out of 60</p>","null","","","","","","","","","","","","","","","","","","","","","","","","","",""
"","","","","","image-button-response","33","203140","0.0-2.0-2.0-1.14","616202f3ca5b3ab47923ee80","E1","batch5","spm_respsonse","3512.9000005722046","img/question_2_3.jpeg","0","mat_15","1","1","1","3512.9000005722046","","","","","","","","","","","","","","","","","","","","",""
"","","","","","html-keyboard-response","34","204207","0.0-2.0-2.0-0.15","616202f3ca5b3ab47923ee80","E1","batch5","spm_show_trial_num","null","<p class=block-text>Trial 16 out of 60</p>","null","","","","","","","","","","","","","","","","","","","","","","","","","",""
"","","","","","image-button-response","35","207637","0.0-2.0-2.0-1.15","616202f3ca5b3ab47923ee80","E1","batch5","spm_respsonse","3426.0999994277954","img/question_2_4.jpeg","1","mat_16","2","1","1","3426.0999994277954","","","","","","","","","","","","","","","","","","","","",""
"","","","","","html-keyboard-response","36","208703","0.0-2.0-2.0-0.16","616202f3ca5b3ab47923ee80","E1","batch5","spm_show_trial_num","null","<p class=block-text>Trial 17 out of 60</p>","null","","","","","","","","","","","","","","","","","","","","","","","","","",""
"","","","","","image-button-response","37","213781","0.0-2.0-2.0-1.16","616202f3ca5b3ab47923ee80","E1","batch5","spm_respsonse","5073.39999961853","img/question_2_5.jpeg","0","mat_17","1","1","1","5073.39999961853","","","","","","","","","","","","","","","","","","","","",""
"","","","","","html-keyboard-response","38","214847","0.0-2.0-2.0-0.17","616202f3ca5b3ab47923ee80","E1","batch5","spm_show_trial_num","null","<p class=block-text>Trial 18 out of 60</p>","null","","","","","","","","","","","","","","","","","","","","","","","","","",""
"","","","","","image-button-response","39","219286","0.0-2.0-2.0-1.17","616202f3ca5b3ab47923ee80","E1","batch5","spm_respsonse","4435.800000190735","img/question_2_6.jpeg","2","mat_18","3","1","1","4435.800000190735","","","","","","","","","","","","","","","","","","","","",""
"","","","","","html-keyboard-response","40","220354","0.0-2.0-2.0-0.18","616202f3ca5b3ab47923ee80","E1","batch5","spm_show_trial_num","null","<p class=block-text>Trial 19 out of 60</p>","null","","","","","","","","","","","","","","","","","","","","","","","","","",""
"","","","","","image-button-response","41","226966","0.0-2.0-2.0-1.18","616202f3ca5b3ab47923ee80","E1","batch5","spm_respsonse","6607.60000038147","img/question_2_7.jpeg","4","mat_19","5","1","1","6607.60000038147","","","","","","","","","","","","","","","","","","","","",""
"","","","","","html-keyboard-response","42","228034","0.0-2.0-2.0-0.19","616202f3ca5b3ab47923ee80","E1","batch5","spm_show_trial_num","null","<p class=block-text>Trial 20 out of 60</p>","null","","","","","","","","","","","","","","","","","","","","","","","","","",""
"","","","","","image-button-response","43","232853","0.0-2.0-2.0-1.19","616202f3ca5b3ab47923ee80","E1","batch5","spm_respsonse","4815.300000190735","img/question_2_8.jpeg","5","mat_20","6","1","1","4815.300000190735","","","","","","","","","","","","","","","","","","","","",""
"","","","","","html-keyboard-response","44","233919","0.0-2.0-2.0-0.20","616202f3ca5b3ab47923ee80","E1","batch5","spm_show_trial_num","null","<p class=block-text>Trial 21 out of 60</p>","null","","","","","","","","","","","","","","","","","","","","","","","","","",""
"","","","","","image-button-response","45","238490","0.0-2.0-2.0-1.20","616202f3ca5b3ab47923ee80","E1","batch5","spm_respsonse","4566.60000038147","img/question_2_9.jpeg","3","mat_21","4","1","1","4566.60000038147","","","","","","","","","","","","","","","","","","","","",""
"","","","","","html-keyboard-response","46","239551","0.0-2.0-2.0-0.21","616202f3ca5b3ab47923ee80","E1","batch5","spm_show_trial_num","null","<p class=block-text>Trial 22 out of 60</p>","null","","","","","","","","","","","","","","","","","","","","","","","","","",""
"","","","","","image-button-response","47","244746","0.0-2.0-2.0-1.21","616202f3ca5b3ab47923ee80","E1","batch5","spm_respsonse","5191.800000190735","img/question_2_10.jpeg","2","mat_22","3","1","1","5191.800000190735","","","","","","","","","","","","","","","","","","","","",""
"","","","","","html-keyboard-response","48","245807","0.0-2.0-2.0-0.22","616202f3ca5b3ab47923ee80","E1","batch5","spm_show_trial_num","null","<p class=block-text>Trial 23 out of 60</p>","null","","","","","","","","","","","","","","","","","","","","","","","","","",""
"","","","","","image-button-response","49","249743","0.0-2.0-2.0-1.22","616202f3ca5b3ab47923ee80","E1","batch5","spm_respsonse","3932.7000007629395","img/question_2_11.jpeg","3","mat_23","4","1","1","3932.7000007629395","","","","","","","","","","","","","","","","","","","","",""
"","","","","","html-keyboard-response","50","250806","0.0-2.0-2.0-0.23","616202f3ca5b3ab47923ee80","E1","batch5","spm_show_trial_num","null","<p class=block-text>Trial 24 out of 60</p>","null","","","","","","","","","","","","","","","","","","","","","","","","","",""
"","","","","","image-button-response","51","282585","0.0-2.0-2.0-1.23","616202f3ca5b3ab47923ee80","E1","batch5","spm_respsonse","31775.800000190735","img/question_2_12.jpeg","4","mat_24","5","1","1","31775.800000190735","","","","","","","","","","","","","","","","","","","","",""
"","","","","","html-button-response","52","285234","0.0-2.0-3.0","616202f3ca5b3ab47923ee80","E1","batch5","attention_check","2394.5999994277954","<p class = block-text>Attention check: Please choose 1<br></p>","0","","","true","","","","","","","","","","","","","","","","","","","","","","",""
"","","","","","html-keyboard-response","53","286036","0.0-2.0-4.0-0.0","616202f3ca5b3ab47923ee80","E1","batch5","spm_show_trial_num","null","<p class=block-text>Trial 25 out of 60</p>","null","","","","","","","","","","","","","","","","","","","","","","","","","",""
"","","","","","image-button-response","54","297733","0.0-2.0-4.0-1.0","616202f3ca5b3ab47923ee80","E1","batch5","spm_respsonse","11692.800000190735","img/question_3_1.jpeg","7","mat_25","8","1","1","11692.800000190735","","","","","","","","","","","","","","","","","","","","",""
"","","","","","html-keyboard-response","55","298800","0.0-2.0-4.0-0.1","616202f3ca5b3ab47923ee80","E1","batch5","spm_show_trial_num","null","<p class=block-text>Trial 26 out of 60</p>","null","","","","","","","","","","","","","","","","","","","","","","","","","",""
"","","","","","image-button-response","56","306079","0.0-2.0-4.0-1.1","616202f3ca5b3ab47923ee80","E1","batch5","spm_respsonse","7274.5","img/question_3_2.jpeg","1","mat_26","2","1","1","7274.5","","","","","","","","","","","","","","","","","","","","",""
"","","","","","html-keyboard-response","57","307141","0.0-2.0-4.0-0.2","616202f3ca5b3ab47923ee80","E1","batch5","spm_show_trial_num","null","<p class=block-text>Trial 27 out of 60</p>","null","","","","","","","","","","","","","","","","","","","","","","","","","",""
"","","","","","image-button-response","58","315951","0.0-2.0-4.0-1.2","616202f3ca5b3ab47923ee80","E1","batch5","spm_respsonse","8806.5","img/question_3_3.jpeg","2","mat_27","3","1","1","8806.5","","","","","","","","","","","","","","","","","","","","",""
"","","","","","html-keyboard-response","59","317013","0.0-2.0-4.0-0.3","616202f3ca5b3ab47923ee80","E1","batch5","spm_show_trial_num","null","<p class=block-text>Trial 28 out of 60</p>","null","","","","","","","","","","","","","","","","","","","","","","","","","",""
"","","","","","image-button-response","60","333563","0.0-2.0-4.0-1.3","616202f3ca5b3ab47923ee80","E1","batch5","spm_respsonse","16546.60000038147","img/question_3_4.jpeg","7","mat_28","8","1","1","16546.60000038147","","","","","","","","","","","","","","","","","","","","",""
"","","","","","html-keyboard-response","61","334632","0.0-2.0-4.0-0.4","616202f3ca5b3ab47923ee80","E1","batch5","spm_show_trial_num","null","<p class=block-text>Trial 29 out of 60</p>","null","","","","","","","","","","","","","","","","","","","","","","","","","",""
"","","","","","image-button-response","62","350139","0.0-2.0-4.0-1.4","616202f3ca5b3ab47923ee80","E1","batch5","spm_respsonse","15502.79999923706","img/question_3_5.jpeg","6","mat_29","7","1","1","15502.79999923706","","","","","","","","","","","","","","","","","","","","",""
"","","","","","html-keyboard-response","63","351201","0.0-2.0-4.0-0.5","616202f3ca5b3ab47923ee80","E1","batch5","spm_show_trial_num","null","<p class=block-text>Trial 30 out of 60</p>","null","","","","","","","","","","","","","","","","","","","","","","","","","",""
"","","","","","image-button-response","64","382384","0.0-2.0-4.0-1.5","616202f3ca5b3ab47923ee80","E1","batch5","spm_respsonse","31180.199999809265","img/question_3_6.jpeg","3","mat_30","4","1","1","31180.199999809265","","","","","","","","","","","","","","","","","","","","",""
"","","","","","html-keyboard-response","65","383451","0.0-2.0-4.0-0.6","616202f3ca5b3ab47923ee80","E1","batch5","spm_show_trial_num","null","<p class=block-text>Trial 31 out of 60</p>","null","","","","","","","","","","","","","","","","","","","","","","","","","",""
"","","","","","image-button-response","66","391206","0.0-2.0-4.0-1.6","616202f3ca5b3ab47923ee80","E1","batch5","spm_respsonse","7751","img/question_3_7.jpeg","4","mat_31","5","1","1","7751","","","","","","","","","","","","","","","","","","","","",""
"","","","","","html-keyboard-response","67","392268","0.0-2.0-4.0-0.7","616202f3ca5b3ab47923ee80","E1","batch5","spm_show_trial_num","null","<p class=block-text>Trial 32 out of 60</p>","null","","","","","","","","","","","","","","","","","","","","","","","","","",""
"","","","","","image-button-response","68","425417","0.0-2.0-4.0-1.7","616202f3ca5b3ab47923ee80","E1","batch5","spm_respsonse","33146.60000038147","img/question_3_8.jpeg","0","mat_32","1","1","1","33146.60000038147","","","","","","","","","","","","","","","","","","","","",""
"","","","","","html-keyboard-response","69","426485","0.0-2.0-4.0-0.8","616202f3ca5b3ab47923ee80","E1","batch5","spm_show_trial_num","null","<p class=block-text>Trial 33 out of 60</p>","null","","","","","","","","","","","","","","","","","","","","","","","","","",""
"","","","","","image-button-response","70","436225","0.0-2.0-4.0-1.8","616202f3ca5b3ab47923ee80","E1","batch5","spm_respsonse","9737","img/question_3_9.jpeg","0","mat_33","7","0","0","9737","","","","","","","","","","","","","","","","","","","","",""
"","","","","","html-keyboard-response","71","437292","0.0-2.0-4.0-0.9","616202f3ca5b3ab47923ee80","E1","batch5","spm_show_trial_num","null","<p class=block-text>Trial 34 out of 60</p>","null","","","","","","","","","","","","","","","","","","","","","","","","","",""
"","","","","","image-button-response","72","523397","0.0-2.0-4.0-1.9","616202f3ca5b3ab47923ee80","E1","batch5","spm_respsonse","86103.19999980927","img/question_3_10.jpeg","5","mat_34","6","1","1","86103.19999980927","","","","","","","","","","","","","","","","","","","","",""
"","","","","","html-keyboard-response","73","524464","0.0-2.0-4.0-0.10","616202f3ca5b3ab47923ee80","E1","batch5","spm_show_trial_num","null","<p class=block-text>Trial 35 out of 60</p>","null","","","","","","","","","","","","","","","","","","","","","","","","","",""
"","","","","","image-button-response","74","552967","0.0-2.0-4.0-1.10","616202f3ca5b3ab47923ee80","E1","batch5","spm_respsonse","28499.300000190735","img/question_3_11.jpeg","0","mat_35","1","1","1","28499.300000190735","","","","","","","","","","","","","","","","","","","","",""
"","","","","","html-keyboard-response","75","554032","0.0-2.0-4.0-0.11","616202f3ca5b3ab47923ee80","E1","batch5","spm_show_trial_num","null","<p class=block-text>Trial 36 out of 60</p>","null","","","","","","","","","","","","","","","","","","","","","","","","","",""
"","","","","","image-button-response","76","576851","0.0-2.0-4.0-1.11","616202f3ca5b3ab47923ee80","E1","batch5","spm_respsonse","22815.300000190735","img/question_3_12.jpeg","1","mat_36","2","1","1","22815.300000190735","","","","","","","","","","","","","","","","","","","","",""
"","","","","","html-keyboard-response","77","577911","0.0-2.0-4.0-0.12","616202f3ca5b3ab47923ee80","E1","batch5","spm_show_trial_num","null","<p class=block-text>Trial 37 out of 60</p>","null","","","","","","","","","","","","","","","","","","","","","","","","","",""
"","","","","","image-button-response","78","582623","0.0-2.0-4.0-1.12","616202f3ca5b3ab47923ee80","E1","batch5","spm_respsonse","4708.199999809265","img/question_4_1.jpeg","2","mat_37","3","1","1","4708.199999809265","","","","","","","","","","","","","","","","","","","","",""
"","","","","","html-keyboard-response","79","583688","0.0-2.0-4.0-0.13","616202f3ca5b3ab47923ee80","E1","batch5","spm_show_trial_num","null","<p class=block-text>Trial 38 out of 60</p>","null","","","","","","","","","","","","","","","","","","","","","","","","","",""
"","","","","","image-button-response","80","591254","0.0-2.0-4.0-1.13","616202f3ca5b3ab47923ee80","E1","batch5","spm_respsonse","7561.599999427795","img/question_4_2.jpeg","3","mat_38","4","1","1","7561.599999427795","","","","","","","","","","","","","","","","","","","","",""
"","","","","","html-keyboard-response","81","592318","0.0-2.0-4.0-0.14","616202f3ca5b3ab47923ee80","E1","batch5","spm_show_trial_num","null","<p class=block-text>Trial 39 out of 60</p>","null","","","","","","","","","","","","","","","","","","","","","","","","","",""
"","","","","","image-button-response","82","605052","0.0-2.0-4.0-1.14","616202f3ca5b3ab47923ee80","E1","batch5","spm_respsonse","12730.20000076294","img/question_4_3.jpeg","2","mat_39","3","1","1","12730.20000076294","","","","","","","","","","","","","","","","","","","","",""
"","","","","","html-keyboard-response","83","606119","0.0-2.0-4.0-0.15","616202f3ca5b3ab47923ee80","E1","batch5","spm_show_trial_num","null","<p class=block-text>Trial 40 out of 60</p>","null","","","","","","","","","","","","","","","","","","","","","","","","","",""
"","","","","","image-button-response","84","615903","0.0-2.0-4.0-1.15","616202f3ca5b3ab47923ee80","E1","batch5","spm_respsonse","9781.39999961853","img/question_4_4.jpeg","6","mat_40","7","1","1","9781.39999961853","","","","","","","","","","","","","","","","","","","","",""
"","","","","","html-keyboard-response","85","616966","0.0-2.0-4.0-0.16","616202f3ca5b3ab47923ee80","E1","batch5","spm_show_trial_num","null","<p class=block-text>Trial 41 out of 60</p>","null","","","","","","","","","","","","","","","","","","","","","","","","","",""
"","","","","","image-button-response","86","629573","0.0-2.0-4.0-1.16","616202f3ca5b3ab47923ee80","E1","batch5","spm_respsonse","12602.89999961853","img/question_4_5.jpeg","7","mat_41","8","1","1","12602.89999961853","","","","","","","","","","","","","","","","","","","","",""
"","","","","","html-keyboard-response","87","630638","0.0-2.0-4.0-0.17","616202f3ca5b3ab47923ee80","E1","batch5","spm_show_trial_num","null","<p class=block-text>Trial 42 out of 60</p>","null","","","","","","","","","","","","","","","","","","","","","","","","","",""
"","","","","","image-button-response","88","644486","0.0-2.0-4.0-1.17","616202f3ca5b3ab47923ee80","E1","batch5","spm_respsonse","13843.800000190735","img/question_4_6.jpeg","5","mat_42","6","1","1","13843.800000190735","","","","","","","","","","","","","","","","","","","","",""
"","","","","","html-keyboard-response","89","645549","0.0-2.0-4.0-0.18","616202f3ca5b3ab47923ee80","E1","batch5","spm_show_trial_num","null","<p class=block-text>Trial 43 out of 60</p>","null","","","","","","","","","","","","","","","","","","","","","","","","","",""
"","","","","","image-button-response","90","668603","0.0-2.0-4.0-1.18","616202f3ca5b3ab47923ee80","E1","batch5","spm_respsonse","23050","img/question_4_7.jpeg","4","mat_43","5","1","1","23050","","","","","","","","","","","","","","","","","","","","",""
"","","","","","html-keyboard-response","91","669671","0.0-2.0-4.0-0.19","616202f3ca5b3ab47923ee80","E1","batch5","spm_show_trial_num","null","<p class=block-text>Trial 44 out of 60</p>","null","","","","","","","","","","","","","","","","","","","","","","","","","",""
"","","","","","image-button-response","92","682746","0.0-2.0-4.0-1.19","616202f3ca5b3ab47923ee80","E1","batch5","spm_respsonse","13071.70000076294","img/question_4_8.jpeg","3","mat_44","4","1","1","13071.70000076294","","","","","","","","","","","","","","","","","","","","",""
"","","","","","html-keyboard-response","93","683806","0.0-2.0-4.0-0.20","616202f3ca5b3ab47923ee80","E1","batch5","spm_show_trial_num","null","<p class=block-text>Trial 45 out of 60</p>","null","","","","","","","","","","","","","","","","","","","","","","","","","",""
"","","","","","image-button-response","94","701509","0.0-2.0-4.0-1.20","616202f3ca5b3ab47923ee80","E1","batch5","spm_respsonse","17700.10000038147","img/question_4_9.jpeg","0","mat_45","1","1","1","17700.10000038147","","","","","","","","","","","","","","","","","","","","",""
"","","","","","html-keyboard-response","95","702574","0.0-2.0-4.0-0.21","616202f3ca5b3ab47923ee80","E1","batch5","spm_show_trial_num","null","<p class=block-text>Trial 46 out of 60</p>","null","","","","","","","","","","","","","","","","","","","","","","","","","",""
"","","","","","image-button-response","96","751695","0.0-2.0-4.0-1.21","616202f3ca5b3ab47923ee80","E1","batch5","spm_respsonse","49119","img/question_4_10.jpeg","1","mat_46","2","1","1","49119","","","","","","","","","","","","","","","","","","","","",""
"","","","","","html-keyboard-response","97","752754","0.0-2.0-4.0-0.22","616202f3ca5b3ab47923ee80","E1","batch5","spm_show_trial_num","null","<p class=block-text>Trial 47 out of 60</p>","null","","","","","","","","","","","","","","","","","","","","","","","","","",""
"","","","","","image-button-response","98","874926","0.0-2.0-4.0-1.22","616202f3ca5b3ab47923ee80","E1","batch5","spm_respsonse","122172.5","img/question_4_11.jpeg","4","mat_47","5","1","1","122172.5","","","","","","","","","","","","","","","","","","","","",""
"","","","","","html-keyboard-response","99","875993","0.0-2.0-4.0-0.23","616202f3ca5b3ab47923ee80","E1","batch5","spm_show_trial_num","null","<p class=block-text>Trial 48 out of 60</p>","null","","","","","","","","","","","","","","","","","","","","","","","","","",""
"","","","","","image-button-response","100","947017","0.0-2.0-4.0-1.23","616202f3ca5b3ab47923ee80","E1","batch5","spm_respsonse","71021.10000038147","img/question_4_12.jpeg","7","mat_48","6","0","0","71021.10000038147","","","","","","","","","","","","","","","","","","","","",""
"","","","","","html-keyboard-response","101","948079","0.0-2.0-4.0-0.24","616202f3ca5b3ab47923ee80","E1","batch5","spm_show_trial_num","null","<p class=block-text>Trial 49 out of 60</p>","null","","","","","","","","","","","","","","","","","","","","","","","","","",""
"","","","","","image-button-response","102","961134","0.0-2.0-4.0-1.24","616202f3ca5b3ab47923ee80","E1","batch5","spm_respsonse","13051.300000190735","img/question_5_1.jpeg","6","mat_49","7","1","1","13051.300000190735","","","","","","","","","","","","","","","","","","","","",""
"","","","","","html-keyboard-response","103","962201","0.0-2.0-4.0-0.25","616202f3ca5b3ab47923ee80","E1","batch5","spm_show_trial_num","null","<p class=block-text>Trial 50 out of 60</p>","null","","","","","","","","","","","","","","","","","","","","","","","","","",""
"","","","","","image-button-response","104","977988","0.0-2.0-4.0-1.25","616202f3ca5b3ab47923ee80","E1","batch5","spm_respsonse","15783.39999961853","img/question_5_2.jpeg","5","mat_50","6","1","1","15783.39999961853","","","","","","","","","","","","","","","","","","","","",""
"","","","","","html-keyboard-response","105","979052","0.0-2.0-4.0-0.26","616202f3ca5b3ab47923ee80","E1","batch5","spm_show_trial_num","null","<p class=block-text>Trial 51 out of 60</p>","null","","","","","","","","","","","","","","","","","","","","","","","","","",""
"","","","","","image-button-response","106","994865","0.0-2.0-4.0-1.26","616202f3ca5b3ab47923ee80","E1","batch5","spm_respsonse","15808.70000076294","img/question_5_3.jpeg","7","mat_51","8","1","1","15808.70000076294","","","","","","","","","","","","","","","","","","","","",""
"","","","","","html-keyboard-response","107","995929","0.0-2.0-4.0-0.27","616202f3ca5b3ab47923ee80","E1","batch5","spm_show_trial_num","null","<p class=block-text>Trial 52 out of 60</p>","null","","","","","","","","","","","","","","","","","","","","","","","","","",""
"","","","","","image-button-response","108","1008012","0.0-2.0-4.0-1.27","616202f3ca5b3ab47923ee80","E1","batch5","spm_respsonse","12078.60000038147","img/question_5_4.jpeg","1","mat_52","2","1","1","12078.60000038147","","","","","","","","","","","","","","","","","","","","",""
"","","","","","html-keyboard-response","109","1009077","0.0-2.0-4.0-0.28","616202f3ca5b3ab47923ee80","E1","batch5","spm_show_trial_num","null","<p class=block-text>Trial 53 out of 60</p>","null","","","","","","","","","","","","","","","","","","","","","","","","","",""
"","","","","","image-button-response","110","1019949","0.0-2.0-4.0-1.28","616202f3ca5b3ab47923ee80","E1","batch5","spm_respsonse","10868.5","img/question_5_5.jpeg","0","mat_53","1","1","1","10868.5","","","","","","","","","","","","","","","","","","","","",""
"","","","","","html-keyboard-response","111","1021017","0.0-2.0-4.0-0.29","616202f3ca5b3ab47923ee80","E1","batch5","spm_show_trial_num","null","<p class=block-text>Trial 54 out of 60</p>","null","","","","","","","","","","","","","","","","","","","","","","","","","",""
"","","","","","image-button-response","112","1068251","0.0-2.0-4.0-1.29","616202f3ca5b3ab47923ee80","E1","batch5","spm_respsonse","47231.5","img/question_5_6.jpeg","4","mat_54","5","1","1","47231.5","","","","","","","","","","","","","","","","","","","","",""
"","","","","","html-keyboard-response","113","1069316","0.0-2.0-4.0-0.30","616202f3ca5b3ab47923ee80","E1","batch5","spm_show_trial_num","null","<p class=block-text>Trial 55 out of 60</p>","null","","","","","","","","","","","","","","","","","","","","","","","","","",""
"","","","","","image-button-response","114","1103936","0.0-2.0-4.0-1.30","616202f3ca5b3ab47923ee80","E1","batch5","spm_respsonse","34617.10000038147","img/question_5_7.jpeg","0","mat_55","1","1","1","34617.10000038147","","","","","","","","","","","","","","","","","","","","",""
"","","","","","html-keyboard-response","115","1105003","0.0-2.0-4.0-0.31","616202f3ca5b3ab47923ee80","E1","batch5","spm_show_trial_num","null","<p class=block-text>Trial 56 out of 60</p>","null","","","","","","","","","","","","","","","","","","","","","","","","","",""
"","","","","","image-button-response","116","1128637","0.0-2.0-4.0-1.31","616202f3ca5b3ab47923ee80","E1","batch5","spm_respsonse","23630.099999427795","img/question_5_8.jpeg","5","mat_56","6","1","1","23630.099999427795","","","","","","","","","","","","","","","","","","","","",""
"","","","","","html-keyboard-response","117","1129698","0.0-2.0-4.0-0.32","616202f3ca5b3ab47923ee80","E1","batch5","spm_show_trial_num","null","<p class=block-text>Trial 57 out of 60</p>","null","","","","","","","","","","","","","","","","","","","","","","","","","",""
"","","","","","image-button-response","118","1257344","0.0-2.0-4.0-1.32","616202f3ca5b3ab47923ee80","E1","batch5","spm_respsonse","127644.80000019073","img/question_5_9.jpeg","2","mat_57","3","1","1","127644.80000019073","","","","","","","","","","","","","","","","","","","","",""
"","","","","","html-keyboard-response","119","1258411","0.0-2.0-4.0-0.33","616202f3ca5b3ab47923ee80","E1","batch5","spm_show_trial_num","null","<p class=block-text>Trial 58 out of 60</p>","null","","","","","","","","","","","","","","","","","","","","","","","","","",""
"","","","","","image-button-response","120","1602269","0.0-2.0-4.0-1.33","616202f3ca5b3ab47923ee80","E1","batch5","spm_respsonse","343831.80000019073","img/question_5_10.jpeg","1","mat_58","2","1","1","343831.80000019073","","","","","","","","","","","","","","","","","","","","",""
"","","","","","html-keyboard-response","121","1603332","0.0-2.0-4.0-0.34","616202f3ca5b3ab47923ee80","E1","batch5","spm_show_trial_num","null","<p class=block-text>Trial 59 out of 60</p>","null","","","","","","","","","","","","","","","","","","","","","","","","","",""
"","","","","","image-button-response","122","2947804","0.0-2.0-4.0-1.34","616202f3ca5b3ab47923ee80","E1","batch5","spm_respsonse","1344492.3000001907","img/question_5_11.jpeg","2","mat_59","4","0","0","1344492.3000001907","","","","","","","","","","","","","","","","","","","","",""
"","","","","","html-keyboard-response","123","2948867","0.0-2.0-4.0-0.35","616202f3ca5b3ab47923ee80","E1","batch5","spm_show_trial_num","null","<p class=block-text>Trial 60 out of 60</p>","null","","","","","","","","","","","","","","","","","","","","","","","","","",""
"","","","","","image-button-response","124","3199853","0.0-2.0-4.0-1.35","616202f3ca5b3ab47923ee80","E1","batch5","spm_respsonse","250984.80000019073","img/question_5_12.jpeg","4","mat_60","5","1","1","250984.80000019073","","","","","","","","","","","","","","","","","","","","",""
"","","","","","html-button-response","125","3204222","0.0-2.0-5.0","616202f3ca5b3ab47923ee80","E1","batch5","spm_goodbye","4109.39999961853","<p class= block-text>This concludes the Standard Progressive Matrix game. Thank you for your responses!<br> When you are ready, click the button continue</p>","0","","","","","","","","","","","","","","","","","","","","","","","","","",""
"true","","","","","fullscreen","126","3218846","0.0-3.0-0.0","616202f3ca5b3ab47923ee80","E1","batch5","","","","","","","","","","","","","","","","","","","","","","","","","","","","","",""
"","","","","","instructions","127","3299657","0.0-3.0-1.0-0.0","616202f3ca5b3ab47923ee80","E1","batch5","","80809.5","","","","","","","","[{""page_index"":0,""viewing_time"":64452.89999961853},{""page_index"":1,""viewing_time"":16356}]","","","","","","","","","","","","","","","","","","","",""
"","","","","","html-button-response","128","3301192","0.0-3.0-1.0-1.0-0.0","616202f3ca5b3ab47923ee80","E1","batch5","pattern_enter_quiz","1533.3000001907349","<p class=block-text> Let's answer a few questions <br>","0","","","","","","","","","","","","","","","","","","","","","","","","","",""
"","","","","","html-button-response","129","3323365","0.0-3.0-1.0-1.0-1.0","616202f3ca5b3ab47923ee80","E1","batch5","pattern_quiz","22171.800000190735","<p class = block-text>True or False: You will have as much time as you want to make each choice. <br></p>","0","","","false","","","","","","","","","","","","","","","","","","","","","","",""
"","","","","","html-button-response","130","3328649","0.0-3.0-1.0-1.0-2.0","616202f3ca5b3ab47923ee80","E1","batch5","pattern_quiz_feedback","5280.89999961853","<p class = block-text>Incorrect. Remember, You should make your choice as fast as you can.</p>","0","","","","","","","","","","","","","","","","","","","","","","","","","",""
"","","","","","html-button-response","131","3333017","0.0-3.0-1.0-1.0-3.0","616202f3ca5b3ab47923ee80","E1","batch5","pattern_quiz","4366.10000038147","<p class = block-text>True or False: You will look for 4 pieces in black or white color connected in a row either horizontally, vertically or diagonally. <br></p>","0","","","true","","","","","","","","","","","","","","","","","","","","","","",""
"","","","","","html-button-response","132","3333769","0.0-3.0-1.0-1.0-4.0","616202f3ca5b3ab47923ee80","E1","batch5","pattern_quiz_feedback","749.1999998092651","<p class = block-text>Correct! </p>","0","","","","","","","","","","","","","","","","","","","","","","","","","",""
"","","","","","html-button-response","133","3336480","0.0-3.0-1.0-2.0-0.0","616202f3ca5b3ab47923ee80","E1","batch5","","2707.3999996185303","<p class = block-text>You made too many incorrect choices.</p><p class = block-text>You will now repeat the instruction and quiz</p>","0","","","","","","","","","","","","","","","","","","","","","","","","","",""
"","","","","","instructions","134","3341681","0.0-3.0-1.1-0.1","616202f3ca5b3ab47923ee80","E1","batch5","","5199.89999961853","","","","","","","","[{""page_index"":0,""viewing_time"":3607},{""page_index"":1,""viewing_time"":1592.5999994277954}]","","","","","","","","","","","","","","","","","","","",""
"","","","","","html-button-response","135","3342474","0.0-3.0-1.1-1.1-0.1","616202f3ca5b3ab47923ee80","E1","batch5","pattern_enter_quiz","790.8000001907349","<p class=block-text> Let's answer a few questions <br>","0","","","","","","","","","","","","","","","","","","","","","","","","","",""
"","","","","","html-button-response","136","3343560","0.0-3.0-1.1-1.1-1.1","616202f3ca5b3ab47923ee80","E1","batch5","pattern_quiz","1083.5","<p class = block-text>True or False: You will have as much time as you want to make each choice. <br></p>","1","","","true","","","","","","","","","","","","","","","","","","","","","","",""
"","","","","","html-button-response","137","3344229","0.0-3.0-1.1-1.1-2.1","616202f3ca5b3ab47923ee80","E1","batch5","pattern_quiz_feedback","667.5999994277954","<p class = block-text>Correct! You should make your choice <strong> as fast as you can</strong>.</p>","0","","","","","","","","","","","","","","","","","","","","","","","","","",""
"","","","","","html-button-response","138","3345143","0.0-3.0-1.1-1.1-3.1","616202f3ca5b3ab47923ee80","E1","batch5","pattern_quiz","911.6999998092651","<p class = block-text>True or False: You will look for 4 pieces in black or white color connected in a row either horizontally, vertically or diagonally. <br></p>","0","","","true","","","","","","","","","","","","","","","","","","","","","","",""
"","","","","","html-button-response","139","3345709","0.0-3.0-1.1-1.1-4.1","616202f3ca5b3ab47923ee80","E1","batch5","pattern_quiz_feedback","563.6999998092651","<p class = block-text>Correct! </p>","0","","","","","","","","","","","","","","","","","","","","","","","","","",""
"","","","","","html-button-response","140","3348575","0.0-3.0-2.0","616202f3ca5b3ab47923ee80","E1","batch5","pattern_enter_practice","2864.300000190735","<p class=block-text> Now that you've understood the game, let's do a few practice trials before we start!<br> <br>","0","","","","","","","","","","","","","","","","","","","","","","","","","",""
"","","","","","image-keyboard-response","141","3350712","0.0-3.0-3.0-0.0","616202f3ca5b3ab47923ee80","E1","batch5","pattern_practice","2133.4000005722046","stim/prac_yes_16_ver_w1.png","f","","f","true","","","","","","","","","","","","","","","","","","","","","","",""
"","","","","","html-keyboard-response","142","3351724","0.0-3.0-3.0-1.0","616202f3ca5b3ab47923ee80","E1","batch5","pattern_feedback","null","<p style=""font-size:30px;color:green;"">Correct!</p>","null","","","","","","","","","","","","","","","","","","","","","","","","","",""
"","","","","","image-keyboard-response","143","3352566","0.0-3.0-3.0-0.1","616202f3ca5b3ab47923ee80","E1","batch5","pattern_practice","838.5","stim/prac_yes_18_hor_w1.png","f","","f","true","","","","","","","","","","","","","","","","","","","","","","",""
"","","","","","html-keyboard-response","144","3353572","0.0-3.0-3.0-1.1","616202f3ca5b3ab47923ee80","E1","batch5","pattern_feedback","null","<p style=""font-size:30px;color:green;"">Correct!</p>","null","","","","","","","","","","","","","","","","","","","","","","","","","",""
"","","","","","image-keyboard-response","145","3354345","0.0-3.0-3.0-0.2","616202f3ca5b3ab47923ee80","E1","batch5","pattern_practice","769.3999996185303","stim/prac_no_16_1.png","j","","j","true","","","","","","","","","","","","","","","","","","","","","","",""
"","","","","","html-keyboard-response","146","3355356","0.0-3.0-3.0-1.2","616202f3ca5b3ab47923ee80","E1","batch5","pattern_feedback","null","<p style=""font-size:30px;color:green;"">Correct!</p>","null","","","","","","","","","","","","","","","","","","","","","","","","","",""
"","","","","","image-keyboard-response","147","3356075","0.0-3.0-3.0-0.3","616202f3ca5b3ab47923ee80","E1","batch5","pattern_practice","715.7999992370605","stim/prac_yes_20_dia_b1.png","j","","f","false","","","","","","","","","","","","","","","","","","","","","","",""
"","","","","","html-keyboard-response","148","3357084","0.0-3.0-3.0-1.3","616202f3ca5b3ab47923ee80","E1","batch5","pattern_feedback","null","<p style=""font-size:30px;color:red;"">Wrong.</p>","null","","","","","","","","","","","","","","","","","","","","","","","","","",""
"","","","","","image-keyboard-response","149","3357942","0.0-3.0-3.0-0.4","616202f3ca5b3ab47923ee80","E1","batch5","pattern_practice","854.3999996185303","stim/prac_no_18_1.png","j","","j","true","","","","","","","","","","","","","","","","","","","","","","",""
"","","","","","html-keyboard-response","150","3358949","0.0-3.0-3.0-1.4","616202f3ca5b3ab47923ee80","E1","batch5","pattern_feedback","null","<p style=""font-size:30px;color:green;"">Correct!</p>","null","","","","","","","","","","","","","","","","","","","","","","","","","",""
"","","","","","html-button-response","151","3361924","0.0-3.0-4.0","616202f3ca5b3ab47923ee80","E1","batch5","pattern_enter_official_trials","2971.699999809265","<p class=block-text> Good job! You are done with practice trials!<br>
        You responded correctly on 80% of the trials.<br>
        Press the button below to start official trials. Now you won't see any feedback about your response</p>","0","","","","","","","","","","","","","","","","","","","","","","","","","",""
"","","","","","html-keyboard-response","152","3362732","0.0-3.0-5.0-0.0","616202f3ca5b3ab47923ee80","E1","batch5","pattern_show_trial_num","null","<p class=block-text>Trial 1 out of 78</p>","null","","","","","","","","","","","","","","","","","","","","","","","","","",""
"","","","","","image-keyboard-response","153","3363962","0.0-3.0-5.0-1.0","616202f3ca5b3ab47923ee80","E1","batch5","pattern_response","1226.3000001907349","stim/no_51_1.png","f","pattern_31","j","false","","","","1226.3000001907349","false","0","","","","","","","","","","","","","","","","",""
"","","","","","html-keyboard-response","154","3365275","0.0-3.0-5.0-0.1","616202f3ca5b3ab47923ee80","E1","batch5","pattern_show_trial_num","null","<p class=block-text>Trial 2 out of 78</p>","null","","","","","","","","","","","","","","","","","","","","","","","","","",""
"","","","","","image-keyboard-response","155","3367256","0.0-3.0-5.0-1.1","616202f3ca5b3ab47923ee80","E1","batch5","pattern_response","1977.8000001907349","stim/yes_46_ver_b1_b.png","f","pattern_68","f","true","","","","1977.8000001907349","true","1","","","","","","","","","","","","","","","","",""
"","","","","","html-keyboard-response","156","3368572","0.0-3.0-5.0-0.2","616202f3ca5b3ab47923ee80","E1","batch5","pattern_show_trial_num","null","<p class=block-text>Trial 3 out of 78</p>","null","","","","","","","","","","","","","","","","","","","","","","","","","",""
"","","","","","image-keyboard-response","157","3369585","0.0-3.0-5.0-1.2","616202f3ca5b3ab47923ee80","E1","batch5","pattern_response","1009.1999998092651","stim/no_15_1_w.png","j","pattern_03","j","true","","","","1009.1999998092651","true","2","","","","","","","","","","","","","","","","",""
"","","","","","html-keyboard-response","158","3370899","0.0-3.0-5.0-0.3","616202f3ca5b3ab47923ee80","E1","batch5","pattern_show_trial_num","null","<p class=block-text>Trial 4 out of 78</p>","null","","","","","","","","","","","","","","","","","","","","","","","","","",""
"","","","","","image-keyboard-response","159","3372242","0.0-3.0-5.0-1.3","616202f3ca5b3ab47923ee80","E1","batch5","pattern_response","1340.4000005722046","stim/yes_26_dia_w2_w.png","j","pattern_50","f","false","","","","1340.4000005722046","false","2","","","","","","","","","","","","","","","","",""
"","","","","","html-keyboard-response","160","3373556","0.0-3.0-5.0-0.4","616202f3ca5b3ab47923ee80","E1","batch5","pattern_show_trial_num","null","<p class=block-text>Trial 5 out of 78</p>","null","","","","","","","","","","","","","","","","","","","","","","","","","",""
"","","","","","image-keyboard-response","161","3378008","0.0-3.0-5.0-1.4","616202f3ca5b3ab47923ee80","E1","batch5","pattern_response","4448.900000572205","stim/no_43_2_b.png","j","pattern_23","j","true","","","","4448.900000572205","true","3","","","","","","","","","","","","","","","","",""
"","","","","","html-keyboard-response","162","3379326","0.0-3.0-5.0-0.5","616202f3ca5b3ab47923ee80","E1","batch5","pattern_show_trial_num","null","<p class=block-text>Trial 6 out of 78</p>","null","","","","","","","","","","","","","","","","","","","","","","","","","",""
"","","","","","image-keyboard-response","163","3385237","0.0-3.0-5.0-1.5","616202f3ca5b3ab47923ee80","E1","batch5","pattern_response","5907.5","stim/yes_51_dia_b1.png","j","pattern_72","f","false","","","","5907.5","false","3","","","","","","","","","","","","","","","","",""
"","","","","","html-keyboard-response","164","3386549","0.0-3.0-5.0-0.6","616202f3ca5b3ab47923ee80","E1","batch5","pattern_show_trial_num","null","<p class=block-text>Trial 7 out of 78</p>","null","","","","","","","","","","","","","","","","","","","","","","","","","",""
"","","","","","image-keyboard-response","165","3390224","0.0-3.0-5.0-1.6","616202f3ca5b3ab47923ee80","E1","batch5","pattern_response","3671.3999996185303","stim/no_28_2.png","j","pattern_11","j","true","","","","3671.3999996185303","true","4","","","","","","","","","","","","","","","","",""
"","","","","","html-keyboard-response","166","3391540","0.0-3.0-5.0-0.7","616202f3ca5b3ab47923ee80","E1","batch5","pattern_show_trial_num","null","<p class=block-text>Trial 8 out of 78</p>","null","","","","","","","","","","","","","","","","","","","","","","","","","",""
"","","","","","image-keyboard-response","167","3392649","0.0-3.0-5.0-1.7","616202f3ca5b3ab47923ee80","E1","batch5","pattern_response","1106.3999996185303","stim/yes_70_ver_b1.png","f","pattern_80","f","true","","","","1106.3999996185303","true","5","","","","","","","","","","","","","","","","",""
"","","","","","html-keyboard-response","168","3393963","0.0-3.0-5.0-0.8","616202f3ca5b3ab47923ee80","E1","batch5","pattern_show_trial_num","null","<p class=block-text>Trial 9 out of 78</p>","null","","","","","","","","","","","","","","","","","","","","","","","","","",""
"","","","","","image-keyboard-response","169","3394949","0.0-3.0-5.0-1.8","616202f3ca5b3ab47923ee80","E1","batch5","pattern_response","982.1999998092651","stim/yes_44_ver_w1_w.png","f","pattern_66","f","true","","","","982.1999998092651","true","6","","","","","","","","","","","","","","","","",""
"","","","","","html-keyboard-response","170","3396259","0.0-3.0-5.0-0.9","616202f3ca5b3ab47923ee80","E1","batch5","pattern_show_trial_num","null","<p class=block-text>Trial 10 out of 78</p>","null","","","","","","","","","","","","","","","","","","","","","","","","","",""
"","","","","","image-keyboard-response","171","3397004","0.0-3.0-5.0-1.9","616202f3ca5b3ab47923ee80","E1","batch5","pattern_response","741.6999998092651","stim/yes_17_ver_b1_b.png","f","pattern_46","f","true","","","","741.6999998092651","true","7","","","","","","","","","","","","","","","","",""
"","","","","","html-keyboard-response","172","3398319","0.0-3.0-5.0-0.10","616202f3ca5b3ab47923ee80","E1","batch5","pattern_show_trial_num","null","<p class=block-text>Trial 11 out of 78</p>","null","","","","","","","","","","","","","","","","","","","","","","","","","",""
"","","","","","image-keyboard-response","173","3400107","0.0-3.0-5.0-1.10","616202f3ca5b3ab47923ee80","E1","batch5","pattern_response","1784.9000005722046","stim/no_25_1_b.png","j","pattern_09","j","true","","","","1784.9000005722046","true","8","","","","","","","","","","","","","","","","",""
"","","","","","html-keyboard-response","174","3401419","0.0-3.0-5.0-0.11","616202f3ca5b3ab47923ee80","E1","batch5","pattern_show_trial_num","null","<p class=block-text>Trial 12 out of 78</p>","null","","","","","","","","","","","","","","","","","","","","","","","","","",""
"","","","","","image-keyboard-response","175","3406880","0.0-3.0-5.0-1.11","616202f3ca5b3ab47923ee80","E1","batch5","pattern_response","5458.5","stim/no_53_1_b.png","j","pattern_33","j","true","","","","5458.5","true","9","","","","","","","","","","","","","","","","",""
"","","","","","html-keyboard-response","176","3408199","0.0-3.0-5.0-0.12","616202f3ca5b3ab47923ee80","E1","batch5","pattern_show_trial_num","null","<p class=block-text>Trial 13 out of 78</p>","null","","","","","","","","","","","","","","","","","","","","","","","","","",""
"","","","","","image-keyboard-response","177","3409141","0.0-3.0-5.0-1.12","616202f3ca5b3ab47923ee80","E1","batch5","pattern_response","939.5","stim/yes_49_hor_w1_b.png","f","pattern_70","f","true","","","","939.5","true","10","","","","","","","","","","","","","","","","",""
"","","","","","html-keyboard-response","178","3410452","0.0-3.0-5.0-0.13","616202f3ca5b3ab47923ee80","E1","batch5","pattern_show_trial_num","null","<p class=block-text>Trial 14 out of 78</p>","null","","","","","","","","","","","","","","","","","","","","","","","","","",""
"","","","","","image-keyboard-response","179","3411678","0.0-3.0-5.0-1.13","616202f3ca5b3ab47923ee80","E1","batch5","pattern_response","1223.8999996185303","stim/yes_53_ver_b1_b.png","f","pattern_74","f","true","","","","1223.8999996185303","true","11","","","","","","","","","","","","","","","","",""
"","","","","","html-keyboard-response","180","3412998","0.0-3.0-5.0-0.14","616202f3ca5b3ab47923ee80","E1","batch5","pattern_show_trial_num","null","<p class=block-text>Trial 15 out of 78</p>","null","","","","","","","","","","","","","","","","","","","","","","","","","",""
"","","","","","image-keyboard-response","181","3413658","0.0-3.0-5.0-1.14","616202f3ca5b3ab47923ee80","E1","batch5","pattern_response","657.3000001907349","stim/yes_29_hor_b1_b.png","f","pattern_52","f","true","","","","657.3000001907349","true","12","","","","","","","","","","","","","","","","",""
"","","","","","html-keyboard-response","182","3414971","0.0-3.0-5.0-0.15","616202f3ca5b3ab47923ee80","E1","batch5","pattern_show_trial_num","null","<p class=block-text>Trial 16 out of 78</p>","null","","","","","","","","","","","","","","","","","","","","","","","","","",""
"","","","","","image-keyboard-response","183","3415631","0.0-3.0-5.0-1.15","616202f3ca5b3ab47923ee80","E1","batch5","pattern_response","657","stim/yes_12_hor_w1_w.png","f","pattern_42","f","true","","","","657","true","13","","","","","","","","","","","","","","","","",""
"","","","","","html-keyboard-response","184","3416948","0.0-3.0-5.0-0.16","616202f3ca5b3ab47923ee80","E1","batch5","pattern_show_trial_num","null","<p class=block-text>Trial 17 out of 78</p>","null","","","","","","","","","","","","","","","","","","","","","","","","","",""
"","","","","","image-keyboard-response","185","3419586","0.0-3.0-5.0-1.16","616202f3ca5b3ab47923ee80","E1","batch5","pattern_response","2635","stim/no_37_2_w.png","j","pattern_19","j","true","","","","2635","true","14","","","","","","","","","","","","","","","","",""
"","","","","","html-keyboard-response","186","3420898","0.0-3.0-5.0-0.17","616202f3ca5b3ab47923ee80","E1","batch5","pattern_show_trial_num","null","<p class=block-text>Trial 18 out of 78</p>","null","","","","","","","","","","","","","","","","","","","","","","","","","",""
"","","","","","image-keyboard-response","187","3424484","0.0-3.0-5.0-1.17","616202f3ca5b3ab47923ee80","E1","batch5","pattern_response","3582.800000190735","stim/no_33_1_b.png","j","pattern_15","j","true","","","","3582.800000190735","true","15","","","","","","","","","","","","","","","","",""
"","","","","","html-keyboard-response","188","3425797","0.0-3.0-5.0-0.18","616202f3ca5b3ab47923ee80","E1","batch5","pattern_show_trial_num","null","<p class=block-text>Trial 19 out of 78</p>","null","","","","","","","","","","","","","","","","","","","","","","","","","",""
"","","","","","image-keyboard-response","189","3431204","0.0-3.0-5.0-1.18","616202f3ca5b3ab47923ee80","E1","batch5","pattern_response","5403.400000572205","stim/no_45_1_w.png","j","pattern_25","j","true","","","","5403.400000572205","true","16","","","","","","","","","","","","","","","","",""
"","","","","","html-keyboard-response","190","3432515","0.0-3.0-5.0-0.19","616202f3ca5b3ab47923ee80","E1","batch5","pattern_show_trial_num","null","<p class=block-text>Trial 20 out of 78</p>","null","","","","","","","","","","","","","","","","","","","","","","","","","",""
"","","","","","image-keyboard-response","191","3436313","0.0-3.0-5.0-1.19","616202f3ca5b3ab47923ee80","E1","batch5","pattern_response","3794.800000190735","stim/yes_42_dia_w1_w.png","j","pattern_64","f","false","","","","3794.800000190735","false","16","","","","","","","","","","","","","","","","",""
"","","","","","html-keyboard-response","192","3437629","0.0-3.0-5.0-0.20","616202f3ca5b3ab47923ee80","E1","batch5","pattern_show_trial_num","null","<p class=block-text>Trial 21 out of 78</p>","null","","","","","","","","","","","","","","","","","","","","","","","","","",""
"","","","","","image-keyboard-response","193","3438231","0.0-3.0-5.0-1.20","616202f3ca5b3ab47923ee80","E1","batch5","pattern_response","598.8999996185303","stim/yes_15_dia_b1u_b.png","f","pattern_44","f","true","","","","598.8999996185303","true","17","","","","","","","","","","","","","","","","",""
"","","","","","html-keyboard-response","194","3439547","0.0-3.0-5.0-0.21","616202f3ca5b3ab47923ee80","E1","batch5","pattern_show_trial_num","null","<p class=block-text>Trial 22 out of 78</p>","null","","","","","","","","","","","","","","","","","","","","","","","","","",""
"","","","","","image-keyboard-response","195","3441954","0.0-3.0-5.0-1.21","616202f3ca5b3ab47923ee80","E1","batch5","pattern_response","2404.3999996185303","stim/no_30_1_b.png","j","pattern_13","j","true","","","","2404.3999996185303","true","18","","","","","","","","","","","","","","","","",""
"","","","","","html-keyboard-response","196","3443267","0.0-3.0-5.0-0.22","616202f3ca5b3ab47923ee80","E1","batch5","pattern_show_trial_num","null","<p class=block-text>Trial 23 out of 78</p>","null","","","","","","","","","","","","","","","","","","","","","","","","","",""
"","","","","","image-keyboard-response","197","3443891","0.0-3.0-5.0-1.22","616202f3ca5b3ab47923ee80","E1","batch5","pattern_response","620.5","stim/yes_39_hor_w1_w.png","f","pattern_62","f","true","","","","620.5","true","19","","","","","","","","","","","","","","","","",""
"","","","","","html-keyboard-response","198","3445203","0.0-3.0-5.0-0.23","616202f3ca5b3ab47923ee80","E1","batch5","pattern_show_trial_num","null","<p class=block-text>Trial 24 out of 78</p>","null","","","","","","","","","","","","","","","","","","","","","","","","","",""
"","","","","","image-keyboard-response","199","3450625","0.0-3.0-5.0-1.23","616202f3ca5b3ab47923ee80","E1","batch5","pattern_response","5419","stim/no_58_1_w.png","j","pattern_35","j","true","","","","5419","true","20","","","","","","","","","","","","","","","","",""
"","","","","","html-keyboard-response","200","3451938","0.0-3.0-5.0-0.24","616202f3ca5b3ab47923ee80","E1","batch5","pattern_show_trial_num","null","<p class=block-text>Trial 25 out of 78</p>","null","","","","","","","","","","","","","","","","","","","","","","","","","",""
"","","","","","image-keyboard-response","201","3452591","0.0-3.0-5.0-1.24","616202f3ca5b3ab47923ee80","E1","batch5","pattern_response","651.3999996185303","stim/yes_36_ver_w1_w.png","f","pattern_58","f","true","","","","651.3999996185303","true","21","","","","","","","","","","","","","","","","",""
"","","","","","html-keyboard-response","202","3453907","0.0-3.0-5.0-0.25","616202f3ca5b3ab47923ee80","E1","batch5","pattern_show_trial_num","null","<p class=block-text>Trial 26 out of 78</p>","null","","","","","","","","","","","","","","","","","","","","","","","","","",""
"","","","","","image-keyboard-response","203","3457153","0.0-3.0-5.0-1.25","616202f3ca5b3ab47923ee80","E1","batch5","pattern_response","3243.699999809265","stim/yes_63_dia_b1.png","f","pattern_78","f","true","","","","3243.699999809265","true","22","","","","","","","","","","","","","","","","",""
"","","","","","html-keyboard-response","204","3458467","0.0-3.0-5.0-0.26","616202f3ca5b3ab47923ee80","E1","batch5","pattern_show_trial_num","null","<p class=block-text>Trial 27 out of 78</p>","null","","","","","","","","","","","","","","","","","","","","","","","","","",""
"","","","","","image-keyboard-response","205","3459219","0.0-3.0-5.0-1.26","616202f3ca5b3ab47923ee80","E1","batch5","pattern_response","749.5999994277954","stim/yes_23_ver_b1.png","f","pattern_48","f","true","","","","749.5999994277954","true","23","","","","","","","","","","","","","","","","",""
"","","","","","html-keyboard-response","206","3460530","0.0-3.0-5.0-0.27","616202f3ca5b3ab47923ee80","E1","batch5","pattern_show_trial_num","null","<p class=block-text>Trial 28 out of 78</p>","null","","","","","","","","","","","","","","","","","","","","","","","","","",""
"","","","","","image-keyboard-response","207","3461445","0.0-3.0-5.0-1.27","616202f3ca5b3ab47923ee80","E1","batch5","pattern_response","911.8999996185303","stim/no_12_1.png","j","pattern_01","j","true","","","","911.8999996185303","true","24","","","","","","","","","","","","","","","","",""
"","","","","","html-keyboard-response","208","3462754","0.0-3.0-5.0-0.28","616202f3ca5b3ab47923ee80","E1","batch5","pattern_show_trial_num","null","<p class=block-text>Trial 29 out of 78</p>","null","","","","","","","","","","","","","","","","","","","","","","","","","",""
"","","","","","image-keyboard-response","209","3463761","0.0-3.0-5.0-1.28","616202f3ca5b3ab47923ee80","E1","batch5","pattern_response","1004.5999994277954","stim/yes_33_dia_w1_w.png","f","pattern_56","f","true","","","","1004.5999994277954","true","25","","","","","","","","","","","","","","","","",""
"","","","","","html-keyboard-response","210","3465074","0.0-3.0-5.0-0.29","616202f3ca5b3ab47923ee80","E1","batch5","pattern_show_trial_num","null","<p class=block-text>Trial 30 out of 78</p>","null","","","","","","","","","","","","","","","","","","","","","","","","","",""
"","","","","","image-keyboard-response","211","3467604","0.0-3.0-5.0-1.29","616202f3ca5b3ab47923ee80","E1","batch5","pattern_response","2527.2999992370605","stim/no_36_1_b.png","j","pattern_17","j","true","","","","2527.2999992370605","true","26","","","","","","","","","","","","","","","","",""
"","","","","","html-keyboard-response","212","3468914","0.0-3.0-5.0-0.30","616202f3ca5b3ab47923ee80","E1","batch5","pattern_show_trial_num","null","<p class=block-text>Trial 31 out of 78</p>","null","","","","","","","","","","","","","","","","","","","","","","","","","",""
"","","","","","image-keyboard-response","213","3472921","0.0-3.0-5.0-1.30","616202f3ca5b3ab47923ee80","E1","batch5","pattern_response","4003.699999809265","stim/no_49_2_b.png","j","pattern_29","j","true","","","","4003.699999809265","true","27","","","","","","","","","","","","","","","","",""
"","","","","","html-keyboard-response","214","3474234","0.0-3.0-5.0-0.31","616202f3ca5b3ab47923ee80","E1","batch5","pattern_show_trial_num","null","<p class=block-text>Trial 32 out of 78</p>","null","","","","","","","","","","","","","","","","","","","","","","","","","",""
"","","","","","image-keyboard-response","215","3477359","0.0-3.0-5.0-1.31","616202f3ca5b3ab47923ee80","E1","batch5","pattern_response","3121.5999994277954","stim/no_47_1_b.png","j","pattern_27","j","true","","","","3121.5999994277954","true","28","","","","","","","","","","","","","","","","",""
"","","","","","html-keyboard-response","216","3478676","0.0-3.0-5.0-0.32","616202f3ca5b3ab47923ee80","E1","batch5","pattern_show_trial_num","null","<p class=block-text>Trial 33 out of 78</p>","null","","","","","","","","","","","","","","","","","","","","","","","","","",""
"","","","","","image-keyboard-response","217","3484841","0.0-3.0-5.0-1.32","616202f3ca5b3ab47923ee80","E1","batch5","pattern_response","6161.89999961853","stim/no_67_1.png","j","pattern_39","j","true","","","","6161.89999961853","true","29","","","","","","","","","","","","","","","","",""
"","","","","","html-keyboard-response","218","3486154","0.0-3.0-5.0-0.33","616202f3ca5b3ab47923ee80","E1","batch5","pattern_show_trial_num","null","<p class=block-text>Trial 34 out of 78</p>","null","","","","","","","","","","","","","","","","","","","","","","","","","",""
"","","","","","image-keyboard-response","219","3491989","0.0-3.0-5.0-1.33","616202f3ca5b3ab47923ee80","E1","batch5","pattern_response","5831.599999427795","stim/yes_58_dia_w1_w.png","j","pattern_76","f","false","","","","5831.599999427795","false","29","","","","","","","","","","","","","","","","",""
"","","","","","html-keyboard-response","220","3493306","0.0-3.0-5.0-0.34","616202f3ca5b3ab47923ee80","E1","batch5","pattern_show_trial_num","null","<p class=block-text>Trial 35 out of 78</p>","null","","","","","","","","","","","","","","","","","","","","","","","","","",""
"","","","","","image-keyboard-response","221","3494496","0.0-3.0-5.0-1.34","616202f3ca5b3ab47923ee80","E1","batch5","pattern_response","1186.8999996185303","stim/no_18_1_b.png","f","pattern_05","j","false","","","","1186.8999996185303","false","29","","","","","","","","","","","","","","","","",""
"","","","","","html-keyboard-response","222","3495811","0.0-3.0-5.0-0.35","616202f3ca5b3ab47923ee80","E1","batch5","pattern_show_trial_num","null","<p class=block-text>Trial 36 out of 78</p>","null","","","","","","","","","","","","","","","","","","","","","","","","","",""
"","","","","","image-keyboard-response","223","3502102","0.0-3.0-5.0-1.35","616202f3ca5b3ab47923ee80","E1","batch5","pattern_response","6288.299999237061","stim/no_39_1_w.png","j","pattern_21","j","true","","","","6288.299999237061","true","30","","","","","","","","","","","","","","","","",""
"","","","","","html-keyboard-response","224","3503418","0.0-3.0-5.0-0.36","616202f3ca5b3ab47923ee80","E1","batch5","pattern_show_trial_num","null","<p class=block-text>Trial 37 out of 78</p>","null","","","","","","","","","","","","","","","","","","","","","","","","","",""
"","","","","","image-keyboard-response","225","3505460","0.0-3.0-5.0-1.36","616202f3ca5b3ab47923ee80","E1","batch5","pattern_response","2039.1999998092651","stim/no_22_1_b.png","j","pattern_07","j","true","","","","2039.1999998092651","true","31","","","","","","","","","","","","","","","","",""
"","","","","","html-keyboard-response","226","3506769","0.0-3.0-5.0-0.37","616202f3ca5b3ab47923ee80","E1","batch5","pattern_show_trial_num","null","<p class=block-text>Trial 38 out of 78</p>","null","","","","","","","","","","","","","","","","","","","","","","","","","",""
"","","","","","image-keyboard-response","227","3507884","0.0-3.0-5.0-1.37","616202f3ca5b3ab47923ee80","E1","batch5","pattern_response","1111.7000007629395","stim/yes_30_ver_b1_b.png","f","pattern_54","f","true","","","","1111.7000007629395","true","32","","","","","","","","","","","","","","","","",""
"","","","","","html-keyboard-response","228","3509197","0.0-3.0-5.0-0.38","616202f3ca5b3ab47923ee80","E1","batch5","pattern_show_trial_num","null","<p class=block-text>Trial 39 out of 78</p>","null","","","","","","","","","","","","","","","","","","","","","","","","","",""
"","","","","","image-keyboard-response","229","3509893","0.0-3.0-5.0-1.38","616202f3ca5b3ab47923ee80","E1","batch5","pattern_response","693.8000001907349","stim/yes_37_hor_w1_w.png","f","pattern_60","f","true","","","","693.8000001907349","true","33","","","","","","","","","","","","","","","","",""
"","","","","","image-keyboard-response","230","3511888","0.0-3.0-6.0","616202f3ca5b3ab47923ee80","E1","batch5","attention_check","1484.6000003814697","stim/empty_board.png","j","","j","true","","","","","","","500","[""f"",""j""]","","","","","","","","","","","","","","",""
"","","","","","html-keyboard-response","231","3512697","0.0-3.0-7.0-0.0","616202f3ca5b3ab47923ee80","E1","batch5","pattern_show_trial_num","null","<p class=block-text>Trial 40 out of 78</p>","null","","","","","","","","","","","","","","","","","","","","","","","","","",""
"","","","","","image-keyboard-response","232","3517237","0.0-3.0-7.0-1.0","616202f3ca5b3ab47923ee80","E1","batch5","pattern_response","4537.5","stim/yes_50_dia_w1.png","f","pattern_71","f","true","","","","4537.5","true","34","","","","","","","","","","","","","","","","",""
"","","","","","html-keyboard-response","233","3518554","0.0-3.0-7.0-0.1","616202f3ca5b3ab47923ee80","E1","batch5","pattern_show_trial_num","null","<p class=block-text>Trial 41 out of 78</p>","null","","","","","","","","","","","","","","","","","","","","","","","","","",""
"","","","","","image-keyboard-response","234","3520515","0.0-3.0-7.0-1.1","616202f3ca5b3ab47923ee80","E1","batch5","pattern_response","1958.3000001907349","stim/no_26_1_w.png","j","pattern_10","j","true","","","","1958.3000001907349","true","35","","","","","","","","","","","","","","","","",""
"","","","","","html-keyboard-response","235","3521825","0.0-3.0-7.0-0.2","616202f3ca5b3ab47923ee80","E1","batch5","pattern_show_trial_num","null","<p class=block-text>Trial 42 out of 78</p>","null","","","","","","","","","","","","","","","","","","","","","","","","","",""
"","","","","","image-keyboard-response","236","3522705","0.0-3.0-7.0-1.2","616202f3ca5b3ab47923ee80","E1","batch5","pattern_response","876.6999998092651","stim/yes_28_ver_b1.png","f","pattern_51","f","true","","","","876.6999998092651","true","36","","","","","","","","","","","","","","","","",""
"","","","","","html-keyboard-response","237","3524017","0.0-3.0-7.0-0.3","616202f3ca5b3ab47923ee80","E1","batch5","pattern_show_trial_num","null","<p class=block-text>Trial 43 out of 78</p>","null","","","","","","","","","","","","","","","","","","","","","","","","","",""
"","","","","","image-keyboard-response","238","3524976","0.0-3.0-7.0-1.3","616202f3ca5b3ab47923ee80","E1","batch5","pattern_response","956.2999992370605","stim/yes_52_ver_w1.png","f","pattern_73","f","true","","","","956.2999992370605","true","37","","","","","","","","","","","","","","","","",""
"","","","","","html-keyboard-response","239","3526289","0.0-3.0-7.0-0.4","616202f3ca5b3ab47923ee80","E1","batch5","pattern_show_trial_num","null","<p class=block-text>Trial 44 out of 78</p>","null","","","","","","","","","","","","","","","","","","","","","","","","","",""
"","","","","","image-keyboard-response","240","3526952","0.0-3.0-7.0-1.4","616202f3ca5b3ab47923ee80","E1","batch5","pattern_response","659.8000001907349","stim/yes_45_hor_b2_b.png","f","pattern_67","f","true","","","","659.8000001907349","true","38","","","","","","","","","","","","","","","","",""
"","","","","","html-keyboard-response","241","3528264","0.0-3.0-7.0-0.5","616202f3ca5b3ab47923ee80","E1","batch5","pattern_show_trial_num","null","<p class=block-text>Trial 45 out of 78</p>","null","","","","","","","","","","","","","","","","","","","","","","","","","",""
"","","","","","image-keyboard-response","242","3536450","0.0-3.0-7.0-1.5","616202f3ca5b3ab47923ee80","E1","batch5","pattern_response","8183","stim/no_65_1_b.png","j","pattern_38","j","true","","","","8183","true","39","","","","","","","","","","","","","","","","",""
"","","","","","html-keyboard-response","243","3537764","0.0-3.0-7.0-0.6","616202f3ca5b3ab47923ee80","E1","batch5","pattern_show_trial_num","null","<p class=block-text>Trial 46 out of 78</p>","null","","","","","","","","","","","","","","","","","","","","","","","","","",""
"","","","","","image-keyboard-response","244","3540105","0.0-3.0-7.0-1.6","616202f3ca5b3ab47923ee80","E1","batch5","pattern_response","2337.199999809265","stim/no_32_1_w.png","j","pattern_14","j","true","","","","2337.199999809265","true","40","","","","","","","","","","","","","","","","",""
"","","","","","html-keyboard-response","245","3541417","0.0-3.0-7.0-0.7","616202f3ca5b3ab47923ee80","E1","batch5","pattern_show_trial_num","null","<p class=block-text>Trial 47 out of 78</p>","null","","","","","","","","","","","","","","","","","","","","","","","","","",""
"","","","","","image-keyboard-response","246","3543659","0.0-3.0-7.0-1.7","616202f3ca5b3ab47923ee80","E1","batch5","pattern_response","2238.199999809265","stim/no_50_1.png","j","pattern_30","j","true","","","","2238.199999809265","true","41","","","","","","","","","","","","","","","","",""
"","","","","","html-keyboard-response","247","3544969","0.0-3.0-7.0-0.8","616202f3ca5b3ab47923ee80","E1","batch5","pattern_show_trial_num","null","<p class=block-text>Trial 48 out of 78</p>","null","","","","","","","","","","","","","","","","","","","","","","","","","",""
"","","","","","image-keyboard-response","248","3545677","0.0-3.0-7.0-1.8","616202f3ca5b3ab47923ee80","E1","batch5","pattern_response","704.6000003814697","stim/yes_14_hor_b1_w.png","f","pattern_43","f","true","","","","704.6000003814697","true","42","","","","","","","","","","","","","","","","",""
"","","","","","html-keyboard-response","249","3546996","0.0-3.0-7.0-0.9","616202f3ca5b3ab47923ee80","E1","batch5","pattern_show_trial_num","null","<p class=block-text>Trial 49 out of 78</p>","null","","","","","","","","","","","","","","","","","","","","","","","","","",""
"","","","","","image-keyboard-response","250","3547750","0.0-3.0-7.0-1.9","616202f3ca5b3ab47923ee80","E1","batch5","pattern_response","751.1000003814697","stim/yes_38_hor_b1_b.png","f","pattern_61","f","true","","","","751.1000003814697","true","43","","","","","","","","","","","","","","","","",""
"","","","","","html-keyboard-response","251","3549065","0.0-3.0-7.0-0.10","616202f3ca5b3ab47923ee80","E1","batch5","pattern_show_trial_num","null","<p class=block-text>Trial 50 out of 78</p>","null","","","","","","","","","","","","","","","","","","","","","","","","","",""
"","","","","","image-keyboard-response","252","3551466","0.0-3.0-7.0-1.10","616202f3ca5b3ab47923ee80","E1","batch5","pattern_response","2398.300000190735","stim/yes_35_dia_b1.png","f","pattern_57","f","true","","","","2398.300000190735","true","44","","","","","","","","","","","","","","","","",""
"","","","","","html-keyboard-response","253","3552777","0.0-3.0-7.0-0.11","616202f3ca5b3ab47923ee80","E1","batch5","pattern_show_trial_num","null","<p class=block-text>Trial 51 out of 78</p>","null","","","","","","","","","","","","","","","","","","","","","","","","","",""
"","","","","","image-keyboard-response","254","3553677","0.0-3.0-7.0-1.11","616202f3ca5b3ab47923ee80","E1","batch5","pattern_response","896.5999994277954","stim/no_17_1_w.png","j","pattern_04","j","true","","","","896.5999994277954","true","45","","","","","","","","","","","","","","","","",""
"","","","","","html-keyboard-response","255","3554996","0.0-3.0-7.0-0.12","616202f3ca5b3ab47923ee80","E1","batch5","pattern_show_trial_num","null","<p class=block-text>Trial 52 out of 78</p>","null","","","","","","","","","","","","","","","","","","","","","","","","","",""
"","","","","","image-keyboard-response","256","3556092","0.0-3.0-7.0-1.12","616202f3ca5b3ab47923ee80","E1","batch5","pattern_response","1093.5","stim/no_13_2_b.png","j","pattern_02","j","true","","","","1093.5","true","46","","","","","","","","","","","","","","","","",""
"","","","","","html-keyboard-response","257","3557408","0.0-3.0-7.0-0.13","616202f3ca5b3ab47923ee80","E1","batch5","pattern_show_trial_num","null","<p class=block-text>Trial 53 out of 78</p>","null","","","","","","","","","","","","","","","","","","","","","","","","","",""
"","","","","","image-keyboard-response","258","3558104","0.0-3.0-7.0-1.13","616202f3ca5b3ab47923ee80","E1","batch5","pattern_response","692.9000005722046","stim/yes_25_hor_b1_b.png","f","pattern_49","f","true","","","","692.9000005722046","true","47","","","","","","","","","","","","","","","","",""
"","","","","","html-keyboard-response","259","3559417","0.0-3.0-7.0-0.14","616202f3ca5b3ab47923ee80","E1","batch5","pattern_show_trial_num","null","<p class=block-text>Trial 54 out of 78</p>","null","","","","","","","","","","","","","","","","","","","","","","","","","",""
"","","","","","image-keyboard-response","260","3560191","0.0-3.0-7.0-1.14","616202f3ca5b3ab47923ee80","E1","batch5","pattern_response","771","stim/yes_31_hor_b1.png","f","pattern_55","f","true","","","","771","true","48","","","","","","","","","","","","","","","","",""
"","","","","","html-keyboard-response","261","3561508","0.0-3.0-7.0-0.15","616202f3ca5b3ab47923ee80","E1","batch5","pattern_show_trial_num","null","<p class=block-text>Trial 55 out of 78</p>","null","","","","","","","","","","","","","","","","","","","","","","","","","",""
"","","","","","image-keyboard-response","262","3563117","0.0-3.0-7.0-1.15","616202f3ca5b3ab47923ee80","E1","batch5","pattern_response","1606.8000001907349","stim/yes_29_ver_w1.png","f","pattern_53","f","true","","","","1606.8000001907349","true","49","","","","","","","","","","","","","","","","",""
"","","","","","html-keyboard-response","263","3564433","0.0-3.0-7.0-0.16","616202f3ca5b3ab47923ee80","E1","batch5","pattern_show_trial_num","null","<p class=block-text>Trial 56 out of 78</p>","null","","","","","","","","","","","","","","","","","","","","","","","","","",""
"","","","","","image-keyboard-response","264","3567413","0.0-3.0-7.0-1.16","616202f3ca5b3ab47923ee80","E1","batch5","pattern_response","2976.5999994277954","stim/no_38_1_b.png","j","pattern_20","j","true","","","","2976.5999994277954","true","50","","","","","","","","","","","","","","","","",""
"","","","","","html-keyboard-response","265","3568729","0.0-3.0-7.0-0.17","616202f3ca5b3ab47923ee80","E1","batch5","pattern_show_trial_num","null","<p class=block-text>Trial 57 out of 78</p>","null","","","","","","","","","","","","","","","","","","","","","","","","","",""
"","","","","","image-keyboard-response","266","3569567","0.0-3.0-7.0-1.17","616202f3ca5b3ab47923ee80","E1","batch5","pattern_response","835.3000001907349","stim/yes_43_ver_w1_w.png","f","pattern_65","f","true","","","","835.3000001907349","true","51","","","","","","","","","","","","","","","","",""
"","","","","","html-keyboard-response","267","3570881","0.0-3.0-7.0-0.18","616202f3ca5b3ab47923ee80","E1","batch5","pattern_show_trial_num","null","<p class=block-text>Trial 58 out of 78</p>","null","","","","","","","","","","","","","","","","","","","","","","","","","",""
"","","","","","image-keyboard-response","268","3572835","0.0-3.0-7.0-1.18","616202f3ca5b3ab47923ee80","E1","batch5","pattern_response","1951.8999996185303","stim/yes_37_dia_w1.png","f","pattern_59","f","true","","","","1951.8999996185303","true","52","","","","","","","","","","","","","","","","",""
"","","","","","html-keyboard-response","269","3574146","0.0-3.0-7.0-0.19","616202f3ca5b3ab47923ee80","E1","batch5","pattern_show_trial_num","null","<p class=block-text>Trial 59 out of 78</p>","null","","","","","","","","","","","","","","","","","","","","","","","","","",""
"","","","","","image-keyboard-response","270","3575440","0.0-3.0-7.0-1.19","616202f3ca5b3ab47923ee80","E1","batch5","pattern_response","1291.5","stim/no_29_1_b.png","j","pattern_12","j","true","","","","1291.5","true","53","","","","","","","","","","","","","","","","",""
"","","","","","html-keyboard-response","271","3576752","0.0-3.0-7.0-0.20","616202f3ca5b3ab47923ee80","E1","batch5","pattern_show_trial_num","null","<p class=block-text>Trial 60 out of 78</p>","null","","","","","","","","","","","","","","","","","","","","","","","","","",""
"","","","","","image-keyboard-response","272","3577509","0.0-3.0-7.0-1.20","616202f3ca5b3ab47923ee80","E1","batch5","pattern_response","753.8000001907349","stim/yes_67_hor_b1.png","f","pattern_79","f","true","","","","753.8000001907349","true","54","","","","","","","","","","","","","","","","",""
"","","","","","html-keyboard-response","273","3578825","0.0-3.0-7.0-0.21","616202f3ca5b3ab47923ee80","E1","batch5","pattern_show_trial_num","null","<p class=block-text>Trial 61 out of 78</p>","null","","","","","","","","","","","","","","","","","","","","","","","","","",""
"","","","","","image-keyboard-response","274","3580823","0.0-3.0-7.0-1.21","616202f3ca5b3ab47923ee80","E1","batch5","pattern_response","1996.0999994277954","stim/no_23_1.png","j","pattern_08","j","true","","","","1996.0999994277954","true","55","","","","","","","","","","","","","","","","",""
"","","","","","html-keyboard-response","275","3582137","0.0-3.0-7.0-0.22","616202f3ca5b3ab47923ee80","E1","batch5","pattern_show_trial_num","null","<p class=block-text>Trial 62 out of 78</p>","null","","","","","","","","","","","","","","","","","","","","","","","","","",""
"","","","","","image-keyboard-response","276","3587083","0.0-3.0-7.0-1.22","616202f3ca5b3ab47923ee80","E1","batch5","pattern_response","4943.700000762939","stim/no_48_1_w.png","j","pattern_28","j","true","","","","4943.700000762939","true","56","","","","","","","","","","","","","","","","",""
"","","","","","html-keyboard-response","277","3588396","0.0-3.0-7.0-0.23","616202f3ca5b3ab47923ee80","E1","batch5","pattern_show_trial_num","null","<p class=block-text>Trial 63 out of 78</p>","null","","","","","","","","","","","","","","","","","","","","","","","","","",""
"","","","","","image-keyboard-response","278","3593651","0.0-3.0-7.0-1.23","616202f3ca5b3ab47923ee80","E1","batch5","pattern_response","5252.199999809265","stim/no_55_1_w.png","j","pattern_34","j","true","","","","5252.199999809265","true","57","","","","","","","","","","","","","","","","",""
"","","","","","html-keyboard-response","279","3594968","0.0-3.0-7.0-0.24","616202f3ca5b3ab47923ee80","E1","batch5","pattern_show_trial_num","null","<p class=block-text>Trial 64 out of 78</p>","null","","","","","","","","","","","","","","","","","","","","","","","","","",""
"","","","","","image-keyboard-response","280","3603133","0.0-3.0-7.0-1.24","616202f3ca5b3ab47923ee80","E1","batch5","pattern_response","8163.200000762939","stim/no_70_2.png","j","pattern_40","j","true","","","","8163.200000762939","true","58","","","","","","","","","","","","","","","","",""
"","","","","","html-keyboard-response","281","3604448","0.0-3.0-7.0-0.25","616202f3ca5b3ab47923ee80","E1","batch5","pattern_show_trial_num","null","<p class=block-text>Trial 65 out of 78</p>","null","","","","","","","","","","","","","","","","","","","","","","","","","",""
"","","","","","image-keyboard-response","282","3605167","0.0-3.0-7.0-1.25","616202f3ca5b3ab47923ee80","E1","batch5","pattern_response","715.1000003814697","stim/yes_22_ver_w1.png","f","pattern_47","f","true","","","","715.1000003814697","true","59","","","","","","","","","","","","","","","","",""
"","","","","","html-keyboard-response","283","3606480","0.0-3.0-7.0-0.26","616202f3ca5b3ab47923ee80","E1","batch5","pattern_show_trial_num","null","<p class=block-text>Trial 66 out of 78</p>","null","","","","","","","","","","","","","","","","","","","","","","","","","",""
"","","","","","image-keyboard-response","284","3607133","0.0-3.0-7.0-1.26","616202f3ca5b3ab47923ee80","E1","batch5","pattern_response","650.5","stim/yes_17_dia_w1.png","f","pattern_45","f","true","","","","650.5","true","60","","","","","","","","","","","","","","","","",""
"","","","","","html-keyboard-response","285","3608440","0.0-3.0-7.0-0.27","616202f3ca5b3ab47923ee80","E1","batch5","pattern_show_trial_num","null","<p class=block-text>Trial 67 out of 78</p>","null","","","","","","","","","","","","","","","","","","","","","","","","","",""
"","","","","","image-keyboard-response","286","3612528","0.0-3.0-7.0-1.27","616202f3ca5b3ab47923ee80","E1","batch5","pattern_response","4084.8999996185303","stim/no_34_1_b.png","j","pattern_16","j","true","","","","4084.8999996185303","true","61","","","","","","","","","","","","","","","","",""
"","","","","","html-keyboard-response","287","3613840","0.0-3.0-7.0-0.28","616202f3ca5b3ab47923ee80","E1","batch5","pattern_show_trial_num","null","<p class=block-text>Trial 68 out of 78</p>","null","","","","","","","","","","","","","","","","","","","","","","","","","",""
"","","","","","image-keyboard-response","288","3615452","0.0-3.0-7.0-1.28","616202f3ca5b3ab47923ee80","E1","batch5","pattern_response","1608","stim/yes_40_dia_b1_b.png","f","pattern_63","f","true","","","","1608","true","62","","","","","","","","","","","","","","","","",""
"","","","","","html-keyboard-response","289","3616762","0.0-3.0-7.0-0.29","616202f3ca5b3ab47923ee80","E1","batch5","pattern_show_trial_num","null","<p class=block-text>Trial 69 out of 78</p>","null","","","","","","","","","","","","","","","","","","","","","","","","","",""
"","","","","","image-keyboard-response","290","3618953","0.0-3.0-7.0-1.29","616202f3ca5b3ab47923ee80","E1","batch5","pattern_response","2187","stim/yes_60_ver_b1_b.png","f","pattern_77","f","true","","","","2187","true","63","","","","","","","","","","","","","","","","",""
"","","","","","html-keyboard-response","291","3620264","0.0-3.0-7.0-0.30","616202f3ca5b3ab47923ee80","E1","batch5","pattern_show_trial_num","null","<p class=block-text>Trial 70 out of 78</p>","null","","","","","","","","","","","","","","","","","","","","","","","","","",""
"","","","","","image-keyboard-response","292","3625721","0.0-3.0-7.0-1.30","616202f3ca5b3ab47923ee80","E1","batch5","pattern_response","5454.200000762939","stim/no_52_1.png","j","pattern_32","j","true","","","","5454.200000762939","true","64","","","","","","","","","","","","","","","","",""
"","","","","","html-keyboard-response","293","3627032","0.0-3.0-7.0-0.31","616202f3ca5b3ab47923ee80","E1","batch5","pattern_show_trial_num","null","<p class=block-text>Trial 71 out of 78</p>","null","","","","","","","","","","","","","","","","","","","","","","","","","",""
"","","","","","image-keyboard-response","294","3630317","0.0-3.0-7.0-1.31","616202f3ca5b3ab47923ee80","E1","batch5","pattern_response","3281.7000007629395","stim/no_36_2_w.png","j","pattern_18","j","true","","","","3281.7000007629395","true","65","","","","","","","","","","","","","","","","",""
"","","","","","html-keyboard-response","295","3631632","0.0-3.0-7.0-0.32","616202f3ca5b3ab47923ee80","E1","batch5","pattern_show_trial_num","null","<p class=block-text>Trial 72 out of 78</p>","null","","","","","","","","","","","","","","","","","","","","","","","","","",""
"","","","","","image-keyboard-response","296","3635317","0.0-3.0-7.0-1.32","616202f3ca5b3ab47923ee80","E1","batch5","pattern_response","3681.8999996185303","stim/no_46_1_b.png","j","pattern_26","j","true","","","","3681.8999996185303","true","66","","","","","","","","","","","","","","","","",""
"","","","","","html-keyboard-response","297","3636633","0.0-3.0-7.0-0.33","616202f3ca5b3ab47923ee80","E1","batch5","pattern_show_trial_num","null","<p class=block-text>Trial 73 out of 78</p>","null","","","","","","","","","","","","","","","","","","","","","","","","","",""
"","","","","","image-keyboard-response","298","3638163","0.0-3.0-7.0-1.33","616202f3ca5b3ab47923ee80","E1","batch5","pattern_response","1527.0999994277954","stim/yes_48_dia_w1_w.png","f","pattern_69","f","true","","","","1527.0999994277954","true","67","","","","","","","","","","","","","","","","",""
"","","","","","html-keyboard-response","299","3639480","0.0-3.0-7.0-0.34","616202f3ca5b3ab47923ee80","E1","batch5","pattern_show_trial_num","null","<p class=block-text>Trial 74 out of 78</p>","null","","","","","","","","","","","","","","","","","","","","","","","","","",""
"","","","","","image-keyboard-response","300","3640265","0.0-3.0-7.0-1.34","616202f3ca5b3ab47923ee80","E1","batch5","pattern_response","782","stim/yes_55_hor_w1_w.png","f","pattern_75","f","true","","","","782","true","68","","","","","","","","","","","","","","","","",""
"","","","","","html-keyboard-response","301","3641576","0.0-3.0-7.0-0.35","616202f3ca5b3ab47923ee80","E1","batch5","pattern_show_trial_num","null","<p class=block-text>Trial 75 out of 78</p>","null","","","","","","","","","","","","","","","","","","","","","","","","","",""
"","","","","","image-keyboard-response","302","3646964","0.0-3.0-7.0-1.35","616202f3ca5b3ab47923ee80","E1","batch5","pattern_response","5386","stim/no_44_1.png","j","pattern_24","j","true","","","","5386","true","69","","","","","","","","","","","","","","","","",""
"","","","","","html-keyboard-response","303","3648279","0.0-3.0-7.0-0.36","616202f3ca5b3ab47923ee80","E1","batch5","pattern_show_trial_num","null","<p class=block-text>Trial 76 out of 78</p>","null","","","","","","","","","","","","","","","","","","","","","","","","","",""
"","","","","","image-keyboard-response","304","3649738","0.0-3.0-7.0-1.36","616202f3ca5b3ab47923ee80","E1","batch5","pattern_response","1457","stim/no_20_1_w.png","j","pattern_06","j","true","","","","1457","true","70","","","","","","","","","","","","","","","","",""
"","","","","","html-keyboard-response","305","3651047","0.0-3.0-7.0-0.37","616202f3ca5b3ab47923ee80","E1","batch5","pattern_show_trial_num","null","<p class=block-text>Trial 77 out of 78</p>","null","","","","","","","","","","","","","","","","","","","","","","","","","",""
"","","","","","image-keyboard-response","306","3655569","0.0-3.0-7.0-1.37","616202f3ca5b3ab47923ee80","E1","batch5","pattern_response","4519.199999809265","stim/no_42_1_w.png","j","pattern_22","j","true","","","","4519.199999809265","true","71","","","","","","","","","","","","","","","","",""
"","","","","","html-keyboard-response","307","3656879","0.0-3.0-7.0-0.38","616202f3ca5b3ab47923ee80","E1","batch5","pattern_show_trial_num","null","<p class=block-text>Trial 78 out of 78</p>","null","","","","","","","","","","","","","","","","","","","","","","","","","",""
"","","","","","image-keyboard-response","308","3663834","0.0-3.0-7.0-1.38","616202f3ca5b3ab47923ee80","E1","batch5","pattern_response","6951.800000190735","stim/no_62_1_w.png","j","pattern_36","j","true","","","","6951.800000190735","true","72","","","","","","","","","","","","","","","","",""
"","","","","","html-button-response","309","3667074","0.0-3.0-8.0","616202f3ca5b3ab47923ee80","E1","batch5","","2728.300000190735","<p class = block-text>This concludes the 4-in-a-row detection game.Thank you for your responses!<br>
            You responded correctly on 92% of the trials.<br>
            When you are ready, press ""Continue"" button to continue </p>","0","","","","","","","","","","","","","","","","","","","","","","","","","",""
"true","","","","","fullscreen","310","3670561","0.0-4.0-0.0","616202f3ca5b3ab47923ee80","E1","batch5","","","","","","","","","","","","","","","","","","","","","","","","","","","","","",""
"","","","","","instructions","311","3766263","0.0-4.0-1.0-0.0-0.0","616202f3ca5b3ab47923ee80","E1","batch5","tol-instructions","95702","","","","","","","","[{""page_index"":0,""viewing_time"":32051.39999961853},{""page_index"":1,""viewing_time"":5233.300000190735},{""page_index"":2,""viewing_time"":7700.800000190735},{""page_index"":3,""viewing_time"":14076.599999427795},{""page_index"":4,""viewing_time"":11471.5},{""page_index"":5,""viewing_time"":18121.400000572205},{""page_index"":6,""viewing_time"":7046.39999961853}]","","","","","","","","","","","","","","","","","","","",""
"","","","","","html-button-response","312","3767586","0.0-4.0-1.0-1.0-0.0","616202f3ca5b3ab47923ee80","E1","batch5","tol_enter_quiz","1320.6999998092651","<p class=block-text> Let's answer a few questions <br>","0","","","","","","","","","","","","","","","","","","","","","","","","","",""
"","","","","","html-button-response","313","3772028","0.0-4.0-1.0-1.0-1.0","616202f3ca5b3ab47923ee80","E1","batch5","tol_quiz","4440.5","<p class = block-text>True or False: You can only move the ball on top of a peg. <br></p>","0","","","true","","","","","","","","","","","","","","","","","","","","","","",""
"","","","","","html-button-response","314","3773350","0.0-4.0-1.0-1.0-2.0","616202f3ca5b3ab47923ee80","E1","batch5","tol_quiz_feedback","1319.5","<p class = block-text>Correct! You can only move the ball on top of a peg.</p>","0","","","","","","","","","","","","","","","","","","","","","","","","","",""
"","","","","","html-button-response","315","3776666","0.0-4.0-1.0-1.0-3.0","616202f3ca5b3ab47923ee80","E1","batch5","tol_quiz","3314.2000007629395","<p class = block-text>True or False: You should try to match your board with the target board with fewest moves possible. <br></p>","0","","","true","","","","","","","","","","","","","","","","","","","","","","",""
"","","","","","html-button-response","316","3777654","0.0-4.0-1.0-1.0-4.0","616202f3ca5b3ab47923ee80","E1","batch5","tol_quiz_feedback","985.1000003814697","<p class = block-text>Correct! </p>","0","","","","","","","","","","","","","","","","","","","","","","","","","",""
"","","","","","html-button-response","317","3780161","0.0-4.0-2.0","616202f3ca5b3ab47923ee80","E1","batch5","","2504.199999809265","<p class=block-text> Now that you've understood the game, let's practice a few easier examples before we start!<br> <br>","0","","","","","","","","","","","","","","","","","","","","","","","","","",""
"","","","","","single-stim-button","318","3783379","0.0-4.0-3.0-0.0","616202f3ca5b3ab47923ee80","E1","batch5","tol_practice","3216","","","","","","","","","","","","","","tol_peg_2","3216","3216","0","[[1,2,0],[0,0],[0]]","1","[[1,2,0],[0,0],[3]]","practice","3216","","","","","",""
"","","","","","single-stim-button","319","3785256","0.0-4.0-3.0-1.0","616202f3ca5b3ab47923ee80","E1","batch5","tol_practice","1875","","","","","","","","","","","","","","tol_peg_3","1875","1875","0","[[1,2,0],[0,0],[3]]","1","[[1,2,0],[0,0],[3]]","practice","1875","","","","","",""
"","","","","","poldrack-single-stim","320","3786262","0.0-4.0-4.0","616202f3ca5b3ab47923ee80","E1","batch5","tol_feedback","-1","","","","","true","","","","","","","","","","1000","1000","500","","","","","","-1","none","true","","0",""
"","","","","","single-stim-button","321","3789686","0.0-4.0-5.0-0.0","616202f3ca5b3ab47923ee80","E1","batch5","tol_practice","3423","","","","","","","","","","","","","","tol_peg_1","3423","3423","0","[[1,0,0],[3,0],[0]]","2","[[0,0,0],[3,1],[2]]","practice","3423","","","","","",""
"","","","","","single-stim-button","322","3790559","0.0-4.0-5.0-1.0","616202f3ca5b3ab47923ee80","E1","batch5","tol_practice","871","","","","","","","","","","","","","","tol_peg_3","871","871","0","[[1,0,0],[3,0],[2]]","2","[[0,0,0],[3,1],[2]]","practice","871","","","","","",""
"","","","","","single-stim-button","323","3791375","0.0-4.0-5.1-0.1","616202f3ca5b3ab47923ee80","E1","batch5","tol_practice","816","","","","","","","","","","","","","","tol_peg_1","816","816","0","[[0,0,0],[3,0],[2]]","3","[[0,0,0],[3,1],[2]]","practice","816","","","","","",""
"","","","","","single-stim-button","324","3792845","0.0-4.0-5.1-1.1","616202f3ca5b3ab47923ee80","E1","batch5","tol_practice","1469","","","","","","","","","","","","","","tol_peg_2","1469","1469","0","[[0,0,0],[3,1],[2]]","3","[[0,0,0],[3,1],[2]]","practice","1469","","","","","",""
"","","","","","poldrack-single-stim","325","3793855","0.0-4.0-6.0","616202f3ca5b3ab47923ee80","E1","batch5","tol_feedback","-1","","","","","true","","","","","","","","","","1000","1000","500","","","","","","-1","none","true","","0",""
"","","","","","single-stim-button","326","3795790","0.0-4.0-7.0-0.0","616202f3ca5b3ab47923ee80","E1","batch5","tol_practice","1933","","","","","","","","","","","","","","tol_peg_2","1933","1933","0","[[1,2,0],[0,0],[0]]","4","[[1,0,0],[2,0],[3]]","practice","1933","","","","","",""
"","","","","","single-stim-button","327","3796730","0.0-4.0-7.0-1.0","616202f3ca5b3ab47923ee80","E1","batch5","tol_practice","938","","","","","","","","","","","","","","tol_peg_3","938","938","0","[[1,2,0],[0,0],[3]]","4","[[1,0,0],[2,0],[3]]","practice","938","","","","","",""
"","","","","","single-stim-button","328","3797472","0.0-4.0-7.1-0.1","616202f3ca5b3ab47923ee80","E1","batch5","tol_practice","741","","","","","","","","","","","","","","tol_peg_1","741","741","0","[[1,0,0],[0,0],[3]]","5","[[1,0,0],[2,0],[3]]","practice","741","","","","","",""
"","","","","","single-stim-button","329","3798363","0.0-4.0-7.1-1.1","616202f3ca5b3ab47923ee80","E1","batch5","tol_practice","889","","","","","","","","","","","","","","tol_peg_2","889","889","0","[[1,0,0],[2,0],[3]]","5","[[1,0,0],[2,0],[3]]","practice","889","","","","","",""
"","","","","","poldrack-single-stim","330","3799372","0.0-4.0-8.0","616202f3ca5b3ab47923ee80","E1","batch5","tol_feedback","-1","","","","","true","","","","","","","","","","1000","1000","500","","","","","","-1","none","true","","0",""
"","","","","","html-button-response","331","3805042","0.0-4.0-9.0","616202f3ca5b3ab47923ee80","E1","batch5","tol_instruction","5668","<div class = centerbox><p class = center-block-text>Great job! You are done with practice trials<br>You are about to start official trials.<br> <br> Problem <strong>1</strong> out of 25 problems</p></div>","0","","","","","","","","","","","","","","","","","","","","","","","","","",""
"","","","","","single-stim-button","332","3812206","0.0-4.0-10.0-0.0","616202f3ca5b3ab47923ee80","E1","batch5","tol_tohand","6157","","","","","","","","","","","","","","tol_peg_1","6157","6157","0","[[1,0,0],[3,0],[0]]","1","[[1,3,0],[2,0],[0]]","0","0","","","","","","3"
"","","","","","single-stim-button","333","3813979","0.0-4.0-10.0-1.0","616202f3ca5b3ab47923ee80","E1","batch5","tol_toboard","1772","","","","","","","","","","","","","","tol_peg_3","1772","1772","0","[[1,0,0],[3,0],[2]]","1","[[1,3,0],[2,0],[0]]","0","0","","","","","","3"
"","","","","","single-stim-button","334","3814656","0.0-4.0-10.1-0.1","616202f3ca5b3ab47923ee80","E1","batch5","tol_tohand","675","","","","","","","","","","","","","","tol_peg_2","675","675","0","[[1,0,0],[0,0],[2]]","2","[[1,3,0],[2,0],[0]]","0","0","","","","","","3"
"","","","","","single-stim-button","335","3815325","0.0-4.0-10.1-1.1","616202f3ca5b3ab47923ee80","E1","batch5","tol_toboard","669","","","","","","","","","","","","","","tol_peg_1","669","669","0","[[1,3,0],[0,0],[2]]","2","[[1,3,0],[2,0],[0]]","0","0","","","","","","3"
"","","","","","single-stim-button","336","3816111","0.0-4.0-10.2-0.2","616202f3ca5b3ab47923ee80","E1","batch5","tol_tohand","785","","","","","","","","","","","","","","tol_peg_3","785","785","0","[[1,3,0],[0,0],[0]]","3","[[1,3,0],[2,0],[0]]","0","0","","","","","","3"
"","","","","","single-stim-button","337","3816721","0.0-4.0-10.2-1.2","616202f3ca5b3ab47923ee80","E1","batch5","tol_toboard","608","","","","","","","","","","","","","","tol_peg_2","608","608","0","[[1,3,0],[2,0],[0]]","3","[[1,3,0],[2,0],[0]]","0","0","","","","","","3"
"","","","","","poldrack-single-stim","338","3817725","0.0-4.0-11.0","616202f3ca5b3ab47923ee80","E1","batch5","tol_feedback","-1","","","","","true","","","","","","","","","","1000","1000","500","","","","","","-1","none","true","6157","7617",""
"","","","","","html-button-response","339","3818895","0.0-4.0-12.0","616202f3ca5b3ab47923ee80","E1","batch5","tol_trial_num","1167.8000001907349","<div class = centerbox><p class = center-block-text>problem <strong>2</strong> out of 25 problems</p></div>","0","","","","","","","","","","","","","","","","","","","","","","","","","",""
"","","","","","single-stim-button","340","3834224","0.0-4.0-13.0-0.0","616202f3ca5b3ab47923ee80","E1","batch5","tol_tohand","15327","","","","","","","","","","","","","","tol_peg_1","15327","15327","0","[[1,0,0],[3,0],[0]]","1","[[2,1,3],[0,0],[0]]","1","0","","","","","","5"
"","","","","","single-stim-button","341","3835474","0.0-4.0-13.0-1.0","616202f3ca5b3ab47923ee80","E1","batch5","tol_toboard","1248","","","","","","","","","","","","","","tol_peg_2","1248","1248","0","[[1,0,0],[3,2],[0]]","1","[[2,1,3],[0,0],[0]]","1","0","","","","","","5"
"","","","","","single-stim-button","342","3836248","0.0-4.0-13.1-0.1","616202f3ca5b3ab47923ee80","E1","batch5","tol_tohand","772","","","","","","","","","","","","","","tol_peg_1","772","772","0","[[0,0,0],[3,2],[0]]","2","[[2,1,3],[0,0],[0]]","1","0","","","","","","5"
"","","","","","single-stim-button","343","3837155","0.0-4.0-13.1-1.1","616202f3ca5b3ab47923ee80","E1","batch5","tol_toboard","906","","","","","","","","","","","","","","tol_peg_3","906","906","0","[[0,0,0],[3,2],[1]]","2","[[2,1,3],[0,0],[0]]","1","0","","","","","","5"
"","","","","","single-stim-button","344","3837954","0.0-4.0-13.2-0.2","616202f3ca5b3ab47923ee80","E1","batch5","tol_tohand","798","","","","","","","","","","","","","","tol_peg_2","798","798","0","[[0,0,0],[3,0],[1]]","3","[[2,1,3],[0,0],[0]]","1","0","","","","","","5"
"","","","","","single-stim-button","345","3838877","0.0-4.0-13.2-1.2","616202f3ca5b3ab47923ee80","E1","batch5","tol_toboard","922","","","","","","","","","","","","","","tol_peg_1","922","922","0","[[2,0,0],[3,0],[1]]","3","[[2,1,3],[0,0],[0]]","1","0","","","","","","5"
"","","","","","single-stim-button","346","3839849","0.0-4.0-13.3-0.3","616202f3ca5b3ab47923ee80","E1","batch5","tol_tohand","971","","","","","","","","","","","","","","tol_peg_3","971","971","0","[[2,0,0],[3,0],[0]]","4","[[2,1,3],[0,0],[0]]","1","0","","","","","","5"
