"success","timeout","failed_images","failed_audio","failed_video","trial_type","trial_index","time_elapsed","internal_node_id","subject_id","study_id","session_id","view_history","rt","stimulus","response","task","correct","answer","item","fiar_detect_rt","fiar_detect_correct","total_correct_fiar_detect","post_trial_gap","choices","spm_correct","spm_rt","mouse_click","stim_duration","block_duration","timing_post_trial","current_position","tol_num_moves_made","tol_target","tol_problem_id","tol_rt","key_press","possible_responses","tol_correct","preplanning","tol_rt_per_trial","tol_min_moves"
"true","false","[]","[]","[]","preload","0","1066","0.0-0.0","61638d887e978110feaa9780","B2","batch2","","","","","","","","","","","","","","","","","","","","","","","","","","","","","",""
"true","","","","","fullscreen","1","10071","0.0-1.0-0.0","61638d887e978110feaa9780","B2","batch2","","","","","","","","","","","","","","","","","","","","","","","","","","","","","",""
"true","","","","","fullscreen","2","15657","0.0-2.0-0.0","61638d887e978110feaa9780","B2","batch2","","","","","","","","","","","","","","","","","","","","","","","","","","","","","",""
"","","","","","instructions","3","25933","0.0-2.0-1.0-0.0","61638d887e978110feaa9780","B2","batch2","[{""page_index"":0,""viewing_time"":7075.100000023842},{""page_index"":1,""viewing_time"":3198.7999999523163}]","10274.299999952316","","","","","","","","","","","","","","","","","","","","","","","","","","","",""
"","","","","","html-button-response","4","27796","0.0-2.0-1.0-1.0-0.0","61638d887e978110feaa9780","B2","batch2","","1861.6000000238419","<p class=block-text> Let's answer a few questions <br>","0","pattern_enter_quiz","","","","","","","","","","","","","","","","","","","","","","","","",""
"","","","","","html-button-response","5","30702","0.0-2.0-1.0-1.0-1.0","61638d887e978110feaa9780","B2","batch2","","2904.2000000476837","<p class = block-text>True or False: You will have as much time as you want to make each choice. <br></p>","0","pattern_quiz","false","","","","","","","","","","","","","","","","","","","","","","","",""
"","","","","","html-button-response","6","32597","0.0-2.0-1.0-1.0-2.0","61638d887e978110feaa9780","B2","batch2","","1893.5","<p class = block-text>Incorrect. Remember, You should make your choice as fast as you can.</p>","0","pattern_quiz_feedback","","","","","","","","","","","","","","","","","","","","","","","","",""
"","","","","","html-button-response","7","35764","0.0-2.0-1.0-1.0-3.0","61638d887e978110feaa9780","B2","batch2","","3165.399999976158","<p class = block-text>True or False: You will look for 4 pieces in black or white color connected in a row either horizontally, vertically or diagonally. <br></p>","0","pattern_quiz","true","","","","","","","","","","","","","","","","","","","","","","","",""
"","","","","","html-button-response","8","36813","0.0-2.0-1.0-1.0-4.0","61638d887e978110feaa9780","B2","batch2","","1048.3999999761581","<p class = block-text>Correct! </p>","0","pattern_quiz_feedback","","","","","","","","","","","","","","","","","","","","","","","","",""
"","","","","","html-button-response","9","38414","0.0-2.0-1.0-2.0-0.0","61638d887e978110feaa9780","B2","batch2","","1599.1000000238419","<p class = block-text>You made too many incorrect choices.</p><p class = block-text>You will now repeat the instruction and quiz</p>","0","","","","","","","","","","","","","","","","","","","","","","","","","",""
"","","","","","instructions","10","40482","0.0-2.0-1.1-0.1","61638d887e978110feaa9780","B2","batch2","[{""page_index"":0,""viewing_time"":1586.7999999523163},{""page_index"":1,""viewing_time"":480.2000000476837}]","2067.2999999523163","","","","","","","","","","","","","","","","","","","","","","","","","","","",""
"","","","","","html-button-response","11","41419","0.0-2.0-1.1-1.1-0.1","61638d887e978110feaa9780","B2","batch2","","935.8999999761581","<p class=block-text> Let's answer a few questions <br>","0","pattern_enter_quiz","","","","","","","","","","","","","","","","","","","","","","","","",""
"","","","","","html-button-response","12","42482","0.0-2.0-1.1-1.1-1.1","61638d887e978110feaa9780","B2","batch2","","1061.6999999284744","<p class = block-text>True or False: You will have as much time as you want to make each choice. <br></p>","1","pattern_quiz","true","","","","","","","","","","","","","","","","","","","","","","","",""
"","","","","","html-button-response","13","43236","0.0-2.0-1.1-1.1-2.1","61638d887e978110feaa9780","B2","batch2","","752.6000000238419","<p class = block-text>Correct! You should make your choice <strong> as fast as you can</strong>.</p>","0","pattern_quiz_feedback","","","","","","","","","","","","","","","","","","","","","","","","",""
"","","","","","html-button-response","14","44069","0.0-2.0-1.1-1.1-3.1","61638d887e978110feaa9780","B2","batch2","","831.6000000238419","<p class = block-text>True or False: You will look for 4 pieces in black or white color connected in a row either horizontally, vertically or diagonally. <br></p>","0","pattern_quiz","true","","","","","","","","","","","","","","","","","","","","","","","",""
"","","","","","html-button-response","15","45265","0.0-2.0-1.1-1.1-4.1","61638d887e978110feaa9780","B2","batch2","","1194.6999999284744","<p class = block-text>Correct! </p>","0","pattern_quiz_feedback","","","","","","","","","","","","","","","","","","","","","","","","",""
"","","","","","html-button-response","16","46802","0.0-2.0-2.0","61638d887e978110feaa9780","B2","batch2","","1535.3999999761581","<p class=block-text> Now that you've understood the game, let's do a few practice trials before we start!<br> <br>","0","pattern_enter_practice","","","","","","","","","","","","","","","","","","","","","","","","",""
"","","","","","image-keyboard-response","17","49229","0.0-2.0-3.0-0.0","61638d887e978110feaa9780","B2","batch2","","2422.899999976158","stim/prac_yes_20_dia_b1.png","f","pattern_practice","true","f","","","","","","","","","","","","","","","","","","","","","","",""
"","","","","","html-keyboard-response","18","50235","0.0-2.0-3.0-1.0","61638d887e978110feaa9780","B2","batch2","","null","<p style=""font-size:30px;color:green;"">Correct!</p>","null","pattern_feedback","","","","","","","","","","","","","","","","","","","","","","","","",""
"","","","","","image-keyboard-response","19","51339","0.0-2.0-3.0-0.1","61638d887e978110feaa9780","B2","batch2","","1102.5","stim/prac_no_18_1.png","j","pattern_practice","true","j","","","","","","","","","","","","","","","","","","","","","","",""
"","","","","","html-keyboard-response","20","52345","0.0-2.0-3.0-1.1","61638d887e978110feaa9780","B2","batch2","","null","<p style=""font-size:30px;color:green;"">Correct!</p>","null","pattern_feedback","","","","","","","","","","","","","","","","","","","","","","","","",""
"","","","","","image-keyboard-response","21","53014","0.0-2.0-3.0-0.2","61638d887e978110feaa9780","B2","batch2","","667.5","stim/prac_yes_16_ver_w1.png","f","pattern_practice","true","f","","","","","","","","","","","","","","","","","","","","","","",""
"","","","","","html-keyboard-response","22","54035","0.0-2.0-3.0-1.2","61638d887e978110feaa9780","B2","batch2","","null","<p style=""font-size:30px;color:green;"">Correct!</p>","null","pattern_feedback","","","","","","","","","","","","","","","","","","","","","","","","",""
"","","","","","image-keyboard-response","23","55001","0.0-2.0-3.0-0.3","61638d887e978110feaa9780","B2","batch2","","964.1999999284744","stim/prac_no_16_1.png","j","pattern_practice","true","j","","","","","","","","","","","","","","","","","","","","","","",""
"","","","","","html-keyboard-response","24","56010","0.0-2.0-3.0-1.3","61638d887e978110feaa9780","B2","batch2","","null","<p style=""font-size:30px;color:green;"">Correct!</p>","null","pattern_feedback","","","","","","","","","","","","","","","","","","","","","","","","",""
"","","","","","image-keyboard-response","25","56808","0.0-2.0-3.0-0.4","61638d887e978110feaa9780","B2","batch2","","795.7999999523163","stim/prac_yes_18_hor_w1.png","f","pattern_practice","true","f","","","","","","","","","","","","","","","","","","","","","","",""
"","","","","","html-keyboard-response","26","57819","0.0-2.0-3.0-1.4","61638d887e978110feaa9780","B2","batch2","","null","<p style=""font-size:30px;color:green;"">Correct!</p>","null","pattern_feedback","","","","","","","","","","","","","","","","","","","","","","","","",""
"","","","","","html-button-response","27","59799","0.0-2.0-4.0","61638d887e978110feaa9780","B2","batch2","","1978.7999999523163","<p class=block-text> Good job! You are done with practice trials!<br>
        You responded correctly on 100% of the trials.<br>
        Press the button below to start official trials. Now you won't see any feedback about your response</p>","0","pattern_enter_official_trials","","","","","","","","","","","","","","","","","","","","","","","","",""
"","","","","","html-keyboard-response","28","60602","0.0-2.0-5.0-0.0","61638d887e978110feaa9780","B2","batch2","","null","<p class=block-text>Trial 1 out of 78</p>","null","pattern_show_trial_num","","","","","","","","","","","","","","","","","","","","","","","","",""
"","","","","","image-keyboard-response","29","61652","0.0-2.0-5.0-1.0","61638d887e978110feaa9780","B2","batch2","","1047.5","stim/no_22_1_b.png","j","pattern_response","true","j","pattern_07","1047.5","true","1","","","","","","","","","","","","","","","","","","",""
"","","","","","html-keyboard-response","30","62969","0.0-2.0-5.0-0.1","61638d887e978110feaa9780","B2","batch2","","null","<p class=block-text>Trial 2 out of 78</p>","null","pattern_show_trial_num","","","","","","","","","","","","","","","","","","","","","","","","",""
"","","","","","image-keyboard-response","31","64404","0.0-2.0-5.0-1.1","61638d887e978110feaa9780","B2","batch2","","1433.1000000238419","stim/yes_33_dia_w1_w.png","f","pattern_response","true","f","pattern_56","1433.1000000238419","true","2","","","","","","","","","","","","","","","","","","",""
"","","","","","html-keyboard-response","32","65714","0.0-2.0-5.0-0.2","61638d887e978110feaa9780","B2","batch2","","null","<p class=block-text>Trial 3 out of 78</p>","null","pattern_show_trial_num","","","","","","","","","","","","","","","","","","","","","","","","",""
"","","","","","image-keyboard-response","33","66357","0.0-2.0-5.0-1.2","61638d887e978110feaa9780","B2","batch2","","640.8999999761581","stim/yes_26_dia_w2_w.png","f","pattern_response","true","f","pattern_50","640.8999999761581","true","3","","","","","","","","","","","","","","","","","","",""
"","","","","","html-keyboard-response","34","67670","0.0-2.0-5.0-0.3","61638d887e978110feaa9780","B2","batch2","","null","<p class=block-text>Trial 4 out of 78</p>","null","pattern_show_trial_num","","","","","","","","","","","","","","","","","","","","","","","","",""
"","","","","","image-keyboard-response","35","68253","0.0-2.0-5.0-1.3","61638d887e978110feaa9780","B2","batch2","","581.2999999523163","stim/yes_36_ver_w1_w.png","f","pattern_response","true","f","pattern_58","581.2999999523163","true","4","","","","","","","","","","","","","","","","","","",""
"","","","","","html-keyboard-response","36","69563","0.0-2.0-5.0-0.4","61638d887e978110feaa9780","B2","batch2","","null","<p class=block-text>Trial 5 out of 78</p>","null","pattern_show_trial_num","","","","","","","","","","","","","","","","","","","","","","","","",""
"","","","","","image-keyboard-response","37","72892","0.0-2.0-5.0-1.4","61638d887e978110feaa9780","B2","batch2","","3327.100000023842","stim/no_67_1.png","j","pattern_response","true","j","pattern_39","3327.100000023842","true","5","","","","","","","","","","","","","","","","","","",""
"","","","","","html-keyboard-response","38","74204","0.0-2.0-5.0-0.5","61638d887e978110feaa9780","B2","batch2","","null","<p class=block-text>Trial 6 out of 78</p>","null","pattern_show_trial_num","","","","","","","","","","","","","","","","","","","","","","","","",""
"","","","","","image-keyboard-response","39","76353","0.0-2.0-5.0-1.5","61638d887e978110feaa9780","B2","batch2","","2147.2000000476837","stim/yes_51_dia_b1.png","f","pattern_response","true","f","pattern_72","2147.2000000476837","true","6","","","","","","","","","","","","","","","","","","",""
"","","","","","html-keyboard-response","40","77667","0.0-2.0-5.0-0.6","61638d887e978110feaa9780","B2","batch2","","null","<p class=block-text>Trial 7 out of 78</p>","null","pattern_show_trial_num","","","","","","","","","","","","","","","","","","","","","","","","",""
"","","","","","image-keyboard-response","41","79399","0.0-2.0-5.0-1.6","61638d887e978110feaa9780","B2","batch2","","1728.8000000715256","stim/no_43_2_b.png","j","pattern_response","true","j","pattern_23","1728.8000000715256","true","7","","","","","","","","","","","","","","","","","","",""
"","","","","","html-keyboard-response","42","80715","0.0-2.0-5.0-0.7","61638d887e978110feaa9780","B2","batch2","","null","<p class=block-text>Trial 8 out of 78</p>","null","pattern_show_trial_num","","","","","","","","","","","","","","","","","","","","","","","","",""
"","","","","","image-keyboard-response","43","82436","0.0-2.0-5.0-1.7","61638d887e978110feaa9780","B2","batch2","","1719.2999999523163","stim/no_25_1_b.png","j","pattern_response","true","j","pattern_09","1719.2999999523163","true","8","","","","","","","","","","","","","","","","","","",""
"","","","","","html-keyboard-response","44","83747","0.0-2.0-5.0-0.8","61638d887e978110feaa9780","B2","batch2","","null","<p class=block-text>Trial 9 out of 78</p>","null","pattern_show_trial_num","","","","","","","","","","","","","","","","","","","","","","","","",""
"","","","","","image-keyboard-response","45","84404","0.0-2.0-5.0-1.8","61638d887e978110feaa9780","B2","batch2","","655.6000000238419","stim/yes_29_hor_b1_b.png","j","pattern_response","false","f","pattern_52","655.6000000238419","false","8","","","","","","","","","","","","","","","","","","",""
"","","","","","html-keyboard-response","46","85714","0.0-2.0-5.0-0.9","61638d887e978110feaa9780","B2","batch2","","null","<p class=block-text>Trial 10 out of 78</p>","null","pattern_show_trial_num","","","","","","","","","","","","","","","","","","","","","","","","",""
"","","","","","image-keyboard-response","47","86731","0.0-2.0-5.0-1.9","61638d887e978110feaa9780","B2","batch2","","1015.9000000953674","stim/yes_30_ver_b1_b.png","j","pattern_response","false","f","pattern_54","1015.9000000953674","false","8","","","","","","","","","","","","","","","","","","",""
"","","","","","html-keyboard-response","48","88043","0.0-2.0-5.0-0.10","61638d887e978110feaa9780","B2","batch2","","null","<p class=block-text>Trial 11 out of 78</p>","null","pattern_show_trial_num","","","","","","","","","","","","","","","","","","","","","","","","",""
"","","","","","image-keyboard-response","49","90559","0.0-2.0-5.0-1.10","61638d887e978110feaa9780","B2","batch2","","2514","stim/yes_58_dia_w1_w.png","f","pattern_response","true","f","pattern_76","2514","true","9","","","","","","","","","","","","","","","","","","",""
"","","","","","html-keyboard-response","50","91876","0.0-2.0-5.0-0.11","61638d887e978110feaa9780","B2","batch2","","null","<p class=block-text>Trial 12 out of 78</p>","null","pattern_show_trial_num","","","","","","","","","","","","","","","","","","","","","","","","",""
"","","","","","image-keyboard-response","51","92555","0.0-2.0-5.0-1.11","61638d887e978110feaa9780","B2","batch2","","676.3999999761581","stim/yes_15_dia_b1u_b.png","f","pattern_response","true","f","pattern_44","676.3999999761581","true","10","","","","","","","","","","","","","","","","","","",""
"","","","","","html-keyboard-response","52","93867","0.0-2.0-5.0-0.12","61638d887e978110feaa9780","B2","batch2","","null","<p class=block-text>Trial 13 out of 78</p>","null","pattern_show_trial_num","","","","","","","","","","","","","","","","","","","","","","","","",""
"","","","","","image-keyboard-response","53","94761","0.0-2.0-5.0-1.12","61638d887e978110feaa9780","B2","batch2","","892.3000000715256","stim/yes_49_hor_w1_b.png","f","pattern_response","true","f","pattern_70","892.3000000715256","true","11","","","","","","","","","","","","","","","","","","",""
"","","","","","html-keyboard-response","54","96075","0.0-2.0-5.0-0.13","61638d887e978110feaa9780","B2","batch2","","null","<p class=block-text>Trial 14 out of 78</p>","null","pattern_show_trial_num","","","","","","","","","","","","","","","","","","","","","","","","",""
"","","","","","image-keyboard-response","55","97199","0.0-2.0-5.0-1.13","61638d887e978110feaa9780","B2","batch2","","1122.3999999761581","stim/yes_70_ver_b1.png","f","pattern_response","true","f","pattern_80","1122.3999999761581","true","12","","","","","","","","","","","","","","","","","","",""
"","","","","","html-keyboard-response","56","98515","0.0-2.0-5.0-0.14","61638d887e978110feaa9780","B2","batch2","","null","<p class=block-text>Trial 15 out of 78</p>","null","pattern_show_trial_num","","","","","","","","","","","","","","","","","","","","","","","","",""
"","","","","","image-keyboard-response","57","100345","0.0-2.0-5.0-1.14","61638d887e978110feaa9780","B2","batch2","","1828.3000000715256","stim/yes_42_dia_w1_w.png","f","pattern_response","true","f","pattern_64","1828.3000000715256","true","13","","","","","","","","","","","","","","","","","","",""
"","","","","","html-keyboard-response","58","101659","0.0-2.0-5.0-0.15","61638d887e978110feaa9780","B2","batch2","","null","<p class=block-text>Trial 16 out of 78</p>","null","pattern_show_trial_num","","","","","","","","","","","","","","","","","","","","","","","","",""
"","","","","","image-keyboard-response","59","102688","0.0-2.0-5.0-1.15","61638d887e978110feaa9780","B2","batch2","","1026.2000000476837","stim/yes_23_ver_b1.png","f","pattern_response","true","f","pattern_48","1026.2000000476837","true","14","","","","","","","","","","","","","","","","","","",""
"","","","","","html-keyboard-response","60","103997","0.0-2.0-5.0-0.16","61638d887e978110feaa9780","B2","batch2","","null","<p class=block-text>Trial 17 out of 78</p>","null","pattern_show_trial_num","","","","","","","","","","","","","","","","","","","","","","","","",""
"","","","","","image-keyboard-response","61","108660","0.0-2.0-5.0-1.16","61638d887e978110feaa9780","B2","batch2","","4661.700000047684","stim/yes_63_dia_b1.png","f","pattern_response","true","f","pattern_78","4661.700000047684","true","15","","","","","","","","","","","","","","","","","","",""
"","","","","","html-keyboard-response","62","109974","0.0-2.0-5.0-0.17","61638d887e978110feaa9780","B2","batch2","","null","<p class=block-text>Trial 18 out of 78</p>","null","pattern_show_trial_num","","","","","","","","","","","","","","","","","","","","","","","","",""
"","","","","","image-keyboard-response","63","110662","0.0-2.0-5.0-1.17","61638d887e978110feaa9780","B2","batch2","","685.8999999761581","stim/yes_37_hor_w1_w.png","f","pattern_response","true","f","pattern_60","685.8999999761581","true","16","","","","","","","","","","","","","","","","","","",""
"","","","","","html-keyboard-response","64","111974","0.0-2.0-5.0-0.18","61638d887e978110feaa9780","B2","batch2","","null","<p class=block-text>Trial 19 out of 78</p>","null","pattern_show_trial_num","","","","","","","","","","","","","","","","","","","","","","","","",""
"","","","","","image-keyboard-response","65","112938","0.0-2.0-5.0-1.18","61638d887e978110feaa9780","B2","batch2","","962.3000000715256","stim/no_15_1_w.png","j","pattern_response","true","j","pattern_03","962.3000000715256","true","17","","","","","","","","","","","","","","","","","","",""
"","","","","","html-keyboard-response","66","114252","0.0-2.0-5.0-0.19","61638d887e978110feaa9780","B2","batch2","","null","<p class=block-text>Trial 20 out of 78</p>","null","pattern_show_trial_num","","","","","","","","","","","","","","","","","","","","","","","","",""
"","","","","","image-keyboard-response","67","118078","0.0-2.0-5.0-1.19","61638d887e978110feaa9780","B2","batch2","","3825","stim/no_45_1_w.png","j","pattern_response","true","j","pattern_25","3825","true","18","","","","","","","","","","","","","","","","","","",""
"","","","","","html-keyboard-response","68","119391","0.0-2.0-5.0-0.20","61638d887e978110feaa9780","B2","batch2","","null","<p class=block-text>Trial 21 out of 78</p>","null","pattern_show_trial_num","","","","","","","","","","","","","","","","","","","","","","","","",""
"","","","","","image-keyboard-response","69","119981","0.0-2.0-5.0-1.20","61638d887e978110feaa9780","B2","batch2","","587.6000000238419","stim/yes_39_hor_w1_w.png","f","pattern_response","true","f","pattern_62","587.6000000238419","true","19","","","","","","","","","","","","","","","","","","",""
"","","","","","html-keyboard-response","70","121292","0.0-2.0-5.0-0.21","61638d887e978110feaa9780","B2","batch2","","null","<p class=block-text>Trial 22 out of 78</p>","null","pattern_show_trial_num","","","","","","","","","","","","","","","","","","","","","","","","",""
"","","","","","image-keyboard-response","71","122741","0.0-2.0-5.0-1.21","61638d887e978110feaa9780","B2","batch2","","1447.5","stim/no_36_1_b.png","f","pattern_response","false","j","pattern_17","1447.5","false","19","","","","","","","","","","","","","","","","","","",""
"","","","","","html-keyboard-response","72","124051","0.0-2.0-5.0-0.22","61638d887e978110feaa9780","B2","batch2","","null","<p class=block-text>Trial 23 out of 78</p>","null","pattern_show_trial_num","","","","","","","","","","","","","","","","","","","","","","","","",""
"","","","","","image-keyboard-response","73","127670","0.0-2.0-5.0-1.22","61638d887e978110feaa9780","B2","batch2","","3617.5","stim/no_53_1_b.png","j","pattern_response","true","j","pattern_33","3617.5","true","20","","","","","","","","","","","","","","","","","","",""
"","","","","","html-keyboard-response","74","128980","0.0-2.0-5.0-0.23","61638d887e978110feaa9780","B2","batch2","","null","<p class=block-text>Trial 24 out of 78</p>","null","pattern_show_trial_num","","","","","","","","","","","","","","","","","","","","","","","","",""
"","","","","","image-keyboard-response","75","129697","0.0-2.0-5.0-1.23","61638d887e978110feaa9780","B2","batch2","","714.7000000476837","stim/no_12_1.png","j","pattern_response","true","j","pattern_01","714.7000000476837","true","21","","","","","","","","","","","","","","","","","","",""
"","","","","","html-keyboard-response","76","131012","0.0-2.0-5.0-0.24","61638d887e978110feaa9780","B2","batch2","","null","<p class=block-text>Trial 25 out of 78</p>","null","pattern_show_trial_num","","","","","","","","","","","","","","","","","","","","","","","","",""
"","","","","","image-keyboard-response","77","133583","0.0-2.0-5.0-1.24","61638d887e978110feaa9780","B2","batch2","","2569.3000000715256","stim/no_49_2_b.png","j","pattern_response","true","j","pattern_29","2569.3000000715256","true","22","","","","","","","","","","","","","","","","","","",""
"","","","","","html-keyboard-response","78","134900","0.0-2.0-5.0-0.25","61638d887e978110feaa9780","B2","batch2","","null","<p class=block-text>Trial 26 out of 78</p>","null","pattern_show_trial_num","","","","","","","","","","","","","","","","","","","","","","","","",""
"","","","","","image-keyboard-response","79","137719","0.0-2.0-5.0-1.25","61638d887e978110feaa9780","B2","batch2","","2816.3000000715256","stim/yes_44_ver_w1_w.png","j","pattern_response","false","f","pattern_66","2816.3000000715256","false","22","","","","","","","","","","","","","","","","","","",""
"","","","","","html-keyboard-response","80","139036","0.0-2.0-5.0-0.26","61638d887e978110feaa9780","B2","batch2","","null","<p class=block-text>Trial 27 out of 78</p>","null","pattern_show_trial_num","","","","","","","","","","","","","","","","","","","","","","","","",""
"","","","","","image-keyboard-response","81","141618","0.0-2.0-5.0-1.26","61638d887e978110feaa9780","B2","batch2","","2579.399999976158","stim/no_51_1.png","j","pattern_response","true","j","pattern_31","2579.399999976158","true","23","","","","","","","","","","","","","","","","","","",""
"","","","","","html-keyboard-response","82","142932","0.0-2.0-5.0-0.27","61638d887e978110feaa9780","B2","batch2","","null","<p class=block-text>Trial 28 out of 78</p>","null","pattern_show_trial_num","","","","","","","","","","","","","","","","","","","","","","","","",""
"","","","","","image-keyboard-response","83","144897","0.0-2.0-5.0-1.27","61638d887e978110feaa9780","B2","batch2","","1962.5","stim/no_33_1_b.png","j","pattern_response","true","j","pattern_15","1962.5","true","24","","","","","","","","","","","","","","","","","","",""
"","","","","","html-keyboard-response","84","146213","0.0-2.0-5.0-0.28","61638d887e978110feaa9780","B2","batch2","","null","<p class=block-text>Trial 29 out of 78</p>","null","pattern_show_trial_num","","","","","","","","","","","","","","","","","","","","","","","","",""
"","","","","","image-keyboard-response","85","147829","0.0-2.0-5.0-1.28","61638d887e978110feaa9780","B2","batch2","","1614.7999999523163","stim/no_37_2_w.png","j","pattern_response","true","j","pattern_19","1614.7999999523163","true","25","","","","","","","","","","","","","","","","","","",""
"","","","","","html-keyboard-response","86","149144","0.0-2.0-5.0-0.29","61638d887e978110feaa9780","B2","batch2","","null","<p class=block-text>Trial 30 out of 78</p>","null","pattern_show_trial_num","","","","","","","","","","","","","","","","","","","","","","","","",""
"","","","","","image-keyboard-response","87","150005","0.0-2.0-5.0-1.29","61638d887e978110feaa9780","B2","batch2","","858.5","stim/yes_17_ver_b1_b.png","f","pattern_response","true","f","pattern_46","858.5","true","26","","","","","","","","","","","","","","","","","","",""
"","","","","","html-keyboard-response","88","151317","0.0-2.0-5.0-0.30","61638d887e978110feaa9780","B2","batch2","","null","<p class=block-text>Trial 31 out of 78</p>","null","pattern_show_trial_num","","","","","","","","","","","","","","","","","","","","","","","","",""
"","","","","","image-keyboard-response","89","152722","0.0-2.0-5.0-1.30","61638d887e978110feaa9780","B2","batch2","","1403.3000000715256","stim/no_47_1_b.png","j","pattern_response","true","j","pattern_27","1403.3000000715256","true","27","","","","","","","","","","","","","","","","","","",""
"","","","","","html-keyboard-response","90","154037","0.0-2.0-5.0-0.31","61638d887e978110feaa9780","B2","batch2","","null","<p class=block-text>Trial 32 out of 78</p>","null","pattern_show_trial_num","","","","","","","","","","","","","","","","","","","","","","","","",""
"","","","","","image-keyboard-response","91","155627","0.0-2.0-5.0-1.31","61638d887e978110feaa9780","B2","batch2","","1588.6000000238419","stim/no_58_1_w.png","j","pattern_response","true","j","pattern_35","1588.6000000238419","true","28","","","","","","","","","","","","","","","","","","",""
"","","","","","html-keyboard-response","92","156941","0.0-2.0-5.0-0.32","61638d887e978110feaa9780","B2","batch2","","null","<p class=block-text>Trial 33 out of 78</p>","null","pattern_show_trial_num","","","","","","","","","","","","","","","","","","","","","","","","",""
"","","","","","image-keyboard-response","93","158963","0.0-2.0-5.0-1.32","61638d887e978110feaa9780","B2","batch2","","2019.8999999761581","stim/yes_53_ver_b1_b.png","f","pattern_response","true","f","pattern_74","2019.8999999761581","true","29","","","","","","","","","","","","","","","","","","",""
"","","","","","html-keyboard-response","94","160279","0.0-2.0-5.0-0.33","61638d887e978110feaa9780","B2","batch2","","null","<p class=block-text>Trial 34 out of 78</p>","null","pattern_show_trial_num","","","","","","","","","","","","","","","","","","","","","","","","",""
"","","","","","image-keyboard-response","95","160939","0.0-2.0-5.0-1.33","61638d887e978110feaa9780","B2","batch2","","659.0999999046326","stim/yes_12_hor_w1_w.png","f","pattern_response","true","f","pattern_42","659.0999999046326","true","30","","","","","","","","","","","","","","","","","","",""
"","","","","","html-keyboard-response","96","162254","0.0-2.0-5.0-0.34","61638d887e978110feaa9780","B2","batch2","","null","<p class=block-text>Trial 35 out of 78</p>","null","pattern_show_trial_num","","","","","","","","","","","","","","","","","","","","","","","","",""
"","","","","","image-keyboard-response","97","163452","0.0-2.0-5.0-1.34","61638d887e978110feaa9780","B2","batch2","","1196.3000000715256","stim/yes_46_ver_b1_b.png","f","pattern_response","true","f","pattern_68","1196.3000000715256","true","31","","","","","","","","","","","","","","","","","","",""
"","","","","","html-keyboard-response","98","164765","0.0-2.0-5.0-0.35","61638d887e978110feaa9780","B2","batch2","","null","<p class=block-text>Trial 36 out of 78</p>","null","pattern_show_trial_num","","","","","","","","","","","","","","","","","","","","","","","","",""
"","","","","","image-keyboard-response","99","165889","0.0-2.0-5.0-1.35","61638d887e978110feaa9780","B2","batch2","","1122.7999999523163","stim/no_30_1_b.png","j","pattern_response","true","j","pattern_13","1122.7999999523163","true","32","","","","","","","","","","","","","","","","","","",""
"","","","","","html-keyboard-response","100","167204","0.0-2.0-5.0-0.36","61638d887e978110feaa9780","B2","batch2","","null","<p class=block-text>Trial 37 out of 78</p>","null","pattern_show_trial_num","","","","","","","","","","","","","","","","","","","","","","","","",""
"","","","","","image-keyboard-response","101","169013","0.0-2.0-5.0-1.36","61638d887e978110feaa9780","B2","batch2","","1805.8999999761581","stim/no_28_2.png","j","pattern_response","true","j","pattern_11","1805.8999999761581","true","33","","","","","","","","","","","","","","","","","","",""
"","","","","","html-keyboard-response","102","170325","0.0-2.0-5.0-0.37","61638d887e978110feaa9780","B2","batch2","","null","<p class=block-text>Trial 38 out of 78</p>","null","pattern_show_trial_num","","","","","","","","","","","","","","","","","","","","","","","","",""
"","","","","","image-keyboard-response","103","172755","0.0-2.0-5.0-1.37","61638d887e978110feaa9780","B2","batch2","","2428.3000000715256","stim/no_39_1_w.png","j","pattern_response","true","j","pattern_21","2428.3000000715256","true","34","","","","","","","","","","","","","","","","","","",""
"","","","","","html-keyboard-response","104","174069","0.0-2.0-5.0-0.38","61638d887e978110feaa9780","B2","batch2","","null","<p class=block-text>Trial 39 out of 78</p>","null","pattern_show_trial_num","","","","","","","","","","","","","","","","","","","","","","","","",""
"","","","","","image-keyboard-response","105","175231","0.0-2.0-5.0-1.38","61638d887e978110feaa9780","B2","batch2","","1159.1000000238419","stim/no_18_1_b.png","j","pattern_response","true","j","pattern_05","1159.1000000238419","true","35","","","","","","","","","","","","","","","","","","",""
"","","","","","image-keyboard-response","106","176995","0.0-2.0-6.0","61638d887e978110feaa9780","B2","batch2","","1261.3999999761581","stim/empty_board.png","j","attention_check","true","j","","","","","500","[""f"",""j""]","","","","","","","","","","","","","","","","",""
"","","","","","html-keyboard-response","107","177806","0.0-2.0-7.0-0.0","61638d887e978110feaa9780","B2","batch2","","null","<p class=block-text>Trial 40 out of 78</p>","null","pattern_show_trial_num","","","","","","","","","","","","","","","","","","","","","","","","",""
"","","","","","image-keyboard-response","108","178727","0.0-2.0-7.0-1.0","61638d887e978110feaa9780","B2","batch2","","919.1000000238419","stim/no_13_2_b.png","j","pattern_response","true","j","pattern_02","919.1000000238419","true","36","","","","","","","","","","","","","","","","","","",""
"","","","","","html-keyboard-response","109","180040","0.0-2.0-7.0-0.1","61638d887e978110feaa9780","B2","batch2","","null","<p class=block-text>Trial 41 out of 78</p>","null","pattern_show_trial_num","","","","","","","","","","","","","","","","","","","","","","","","",""
"","","","","","image-keyboard-response","110","181539","0.0-2.0-7.0-1.1","61638d887e978110feaa9780","B2","batch2","","1498","stim/yes_48_dia_w1_w.png","f","pattern_response","true","f","pattern_69","1498","true","37","","","","","","","","","","","","","","","","","","",""
"","","","","","html-keyboard-response","111","182854","0.0-2.0-7.0-0.2","61638d887e978110feaa9780","B2","batch2","","null","<p class=block-text>Trial 42 out of 78</p>","null","pattern_show_trial_num","","","","","","","","","","","","","","","","","","","","","","","","",""
"","","","","","image-keyboard-response","112","183871","0.0-2.0-7.0-1.2","61638d887e978110feaa9780","B2","batch2","","1015.2999999523163","stim/yes_55_hor_w1_w.png","f","pattern_response","true","f","pattern_75","1015.2999999523163","true","38","","","","","","","","","","","","","","","","","","",""
"","","","","","html-keyboard-response","113","185181","0.0-2.0-7.0-0.3","61638d887e978110feaa9780","B2","batch2","","null","<p class=block-text>Trial 43 out of 78</p>","null","pattern_show_trial_num","","","","","","","","","","","","","","","","","","","","","","","","",""
"","","","","","image-keyboard-response","114","187842","0.0-2.0-7.0-1.3","61638d887e978110feaa9780","B2","batch2","","2659.2999999523163","stim/yes_67_hor_b1.png","j","pattern_response","false","f","pattern_79","2659.2999999523163","false","38","","","","","","","","","","","","","","","","","","",""
"","","","","","html-keyboard-response","115","189157","0.0-2.0-7.0-0.4","61638d887e978110feaa9780","B2","batch2","","null","<p class=block-text>Trial 44 out of 78</p>","null","pattern_show_trial_num","","","","","","","","","","","","","","","","","","","","","","","","",""
"","","","","","image-keyboard-response","116","190704","0.0-2.0-7.0-1.4","61638d887e978110feaa9780","B2","batch2","","1545","stim/no_38_1_b.png","j","pattern_response","true","j","pattern_20","1545","true","39","","","","","","","","","","","","","","","","","","",""
"","","","","","html-keyboard-response","117","192015","0.0-2.0-7.0-0.5","61638d887e978110feaa9780","B2","batch2","","null","<p class=block-text>Trial 45 out of 78</p>","null","pattern_show_trial_num","","","","","","","","","","","","","","","","","","","","","","","","",""
"","","","","","image-keyboard-response","118","192856","0.0-2.0-7.0-1.5","61638d887e978110feaa9780","B2","batch2","","839.8999999761581","stim/yes_22_ver_w1.png","f","pattern_response","true","f","pattern_47","839.8999999761581","true","40","","","","","","","","","","","","","","","","","","",""
"","","","","","html-keyboard-response","119","194165","0.0-2.0-7.0-0.6","61638d887e978110feaa9780","B2","batch2","","null","<p class=block-text>Trial 46 out of 78</p>","null","pattern_show_trial_num","","","","","","","","","","","","","","","","","","","","","","","","",""
"","","","","","image-keyboard-response","120","197026","0.0-2.0-7.0-1.6","61638d887e978110feaa9780","B2","batch2","","2859.399999976158","stim/no_55_1_w.png","j","pattern_response","true","j","pattern_34","2859.399999976158","true","41","","","","","","","","","","","","","","","","","","",""
"","","","","","html-keyboard-response","121","198342","0.0-2.0-7.0-0.7","61638d887e978110feaa9780","B2","batch2","","null","<p class=block-text>Trial 47 out of 78</p>","null","pattern_show_trial_num","","","","","","","","","","","","","","","","","","","","","","","","",""
"","","","","","image-keyboard-response","122","200011","0.0-2.0-7.0-1.7","61638d887e978110feaa9780","B2","batch2","","1666.7999999523163","stim/no_42_1_w.png","j","pattern_response","true","j","pattern_22","1666.7999999523163","true","42","","","","","","","","","","","","","","","","","","",""
"","","","","","html-keyboard-response","123","201326","0.0-2.0-7.0-0.8","61638d887e978110feaa9780","B2","batch2","","null","<p class=block-text>Trial 48 out of 78</p>","null","pattern_show_trial_num","","","","","","","","","","","","","","","","","","","","","","","","",""
"","","","","","image-keyboard-response","124","203525","0.0-2.0-7.0-1.8","61638d887e978110feaa9780","B2","batch2","","2197.1999999284744","stim/no_34_1_b.png","j","pattern_response","true","j","pattern_16","2197.1999999284744","true","43","","","","","","","","","","","","","","","","","","",""
"","","","","","html-keyboard-response","125","204838","0.0-2.0-7.0-0.9","61638d887e978110feaa9780","B2","batch2","","null","<p class=block-text>Trial 49 out of 78</p>","null","pattern_show_trial_num","","","","","","","","","","","","","","","","","","","","","","","","",""
"","","","","","image-keyboard-response","126","206461","0.0-2.0-7.0-1.9","61638d887e978110feaa9780","B2","batch2","","1621","stim/no_36_2_w.png","j","pattern_response","true","j","pattern_18","1621","true","44","","","","","","","","","","","","","","","","","","",""
"","","","","","html-keyboard-response","127","207774","0.0-2.0-7.0-0.10","61638d887e978110feaa9780","B2","batch2","","null","<p class=block-text>Trial 50 out of 78</p>","null","pattern_show_trial_num","","","","","","","","","","","","","","","","","","","","","","","","",""
"","","","","","image-keyboard-response","128","209391","0.0-2.0-7.0-1.10","61638d887e978110feaa9780","B2","batch2","","1614.8000000715256","stim/no_48_1_w.png","j","pattern_response","true","j","pattern_28","1614.8000000715256","true","45","","","","","","","","","","","","","","","","","","",""
"","","","","","html-keyboard-response","129","210702","0.0-2.0-7.0-0.11","61638d887e978110feaa9780","B2","batch2","","null","<p class=block-text>Trial 51 out of 78</p>","null","pattern_show_trial_num","","","","","","","","","","","","","","","","","","","","","","","","",""
"","","","","","image-keyboard-response","130","211912","0.0-2.0-7.0-1.11","61638d887e978110feaa9780","B2","batch2","","1208.2000000476837","stim/yes_29_ver_w1.png","f","pattern_response","true","f","pattern_53","1208.2000000476837","true","46","","","","","","","","","","","","","","","","","","",""
"","","","","","html-keyboard-response","131","213223","0.0-2.0-7.0-0.12","61638d887e978110feaa9780","B2","batch2","","null","<p class=block-text>Trial 52 out of 78</p>","null","pattern_show_trial_num","","","","","","","","","","","","","","","","","","","","","","","","",""
"","","","","","image-keyboard-response","132","215299","0.0-2.0-7.0-1.12","61638d887e978110feaa9780","B2","batch2","","2074.2000000476837","stim/no_62_1_w.png","j","pattern_response","true","j","pattern_36","2074.2000000476837","true","47","","","","","","","","","","","","","","","","","","",""
"","","","","","html-keyboard-response","133","216617","0.0-2.0-7.0-0.13","61638d887e978110feaa9780","B2","batch2","","null","<p class=block-text>Trial 53 out of 78</p>","null","pattern_show_trial_num","","","","","","","","","","","","","","","","","","","","","","","","",""
"","","","","","image-keyboard-response","134","217593","0.0-2.0-7.0-1.13","61638d887e978110feaa9780","B2","batch2","","971.8999999761581","stim/yes_52_ver_w1.png","f","pattern_response","true","f","pattern_73","971.8999999761581","true","48","","","","","","","","","","","","","","","","","","",""
"","","","","","html-keyboard-response","135","218903","0.0-2.0-7.0-0.14","61638d887e978110feaa9780","B2","batch2","","null","<p class=block-text>Trial 54 out of 78</p>","null","pattern_show_trial_num","","","","","","","","","","","","","","","","","","","","","","","","",""
"","","","","","image-keyboard-response","136","219637","0.0-2.0-7.0-1.14","61638d887e978110feaa9780","B2","batch2","","732.1999999284744","stim/yes_25_hor_b1_b.png","j","pattern_response","false","f","pattern_49","732.1999999284744","false","48","","","","","","","","","","","","","","","","","","",""
"","","","","","html-keyboard-response","137","220951","0.0-2.0-7.0-0.15","61638d887e978110feaa9780","B2","batch2","","null","<p class=block-text>Trial 55 out of 78</p>","null","pattern_show_trial_num","","","","","","","","","","","","","","","","","","","","","","","","",""
"","","","","","image-keyboard-response","138","221824","0.0-2.0-7.0-1.15","61638d887e978110feaa9780","B2","batch2","","871","stim/yes_14_hor_b1_w.png","f","pattern_response","true","f","pattern_43","871","true","49","","","","","","","","","","","","","","","","","","",""
"","","","","","html-keyboard-response","139","223135","0.0-2.0-7.0-0.16","61638d887e978110feaa9780","B2","batch2","","null","<p class=block-text>Trial 56 out of 78</p>","null","pattern_show_trial_num","","","","","","","","","","","","","","","","","","","","","","","","",""
"","","","","","image-keyboard-response","140","224200","0.0-2.0-7.0-1.16","61638d887e978110feaa9780","B2","batch2","","1063.5","stim/no_20_1_w.png","j","pattern_response","true","j","pattern_06","1063.5","true","50","","","","","","","","","","","","","","","","","","",""
"","","","","","html-keyboard-response","141","225511","0.0-2.0-7.0-0.17","61638d887e978110feaa9780","B2","batch2","","null","<p class=block-text>Trial 57 out of 78</p>","null","pattern_show_trial_num","","","","","","","","","","","","","","","","","","","","","","","","",""
"","","","","","image-keyboard-response","142","228777","0.0-2.0-7.0-1.17","61638d887e978110feaa9780","B2","batch2","","3262.2999999523163","stim/no_70_2.png","j","pattern_response","true","j","pattern_40","3262.2999999523163","true","51","","","","","","","","","","","","","","","","","","",""
"","","","","","html-keyboard-response","143","230095","0.0-2.0-7.0-0.18","61638d887e978110feaa9780","B2","batch2","","null","<p class=block-text>Trial 58 out of 78</p>","null","pattern_show_trial_num","","","","","","","","","","","","","","","","","","","","","","","","",""
"","","","","","image-keyboard-response","144","231578","0.0-2.0-7.0-1.18","61638d887e978110feaa9780","B2","batch2","","1480.6000000238419","stim/yes_38_hor_b1_b.png","j","pattern_response","false","f","pattern_61","1480.6000000238419","false","51","","","","","","","","","","","","","","","","","","",""
"","","","","","html-keyboard-response","145","232895","0.0-2.0-7.0-0.19","61638d887e978110feaa9780","B2","batch2","","null","<p class=block-text>Trial 59 out of 78</p>","null","pattern_show_trial_num","","","","","","","","","","","","","","","","","","","","","","","","",""
"","","","","","image-keyboard-response","146","235169","0.0-2.0-7.0-1.19","61638d887e978110feaa9780","B2","batch2","","2271.2000000476837","stim/no_29_1_b.png","j","pattern_response","true","j","pattern_12","2271.2000000476837","true","52","","","","","","","","","","","","","","","","","","",""
"","","","","","html-keyboard-response","147","236479","0.0-2.0-7.0-0.20","61638d887e978110feaa9780","B2","batch2","","null","<p class=block-text>Trial 60 out of 78</p>","null","pattern_show_trial_num","","","","","","","","","","","","","","","","","","","","","","","","",""
"","","","","","image-keyboard-response","148","237907","0.0-2.0-7.0-1.20","61638d887e978110feaa9780","B2","batch2","","1424.8999999761581","stim/no_26_1_w.png","j","pattern_response","true","j","pattern_10","1424.8999999761581","true","53","","","","","","","","","","","","","","","","","","",""
"","","","","","html-keyboard-response","149","239223","0.0-2.0-7.0-0.21","61638d887e978110feaa9780","B2","batch2","","null","<p class=block-text>Trial 61 out of 78</p>","null","pattern_show_trial_num","","","","","","","","","","","","","","","","","","","","","","","","",""
"","","","","","image-keyboard-response","150","239856","0.0-2.0-7.0-1.21","61638d887e978110feaa9780","B2","batch2","","630.2000000476837","stim/yes_17_dia_w1.png","f","pattern_response","true","f","pattern_45","630.2000000476837","true","54","","","","","","","","","","","","","","","","","","",""
"","","","","","html-keyboard-response","151","241170","0.0-2.0-7.0-0.22","61638d887e978110feaa9780","B2","batch2","","null","<p class=block-text>Trial 62 out of 78</p>","null","pattern_show_trial_num","","","","","","","","","","","","","","","","","","","","","","","","",""
"","","","","","image-keyboard-response","152","242917","0.0-2.0-7.0-1.22","61638d887e978110feaa9780","B2","batch2","","1745.8999999761581","stim/yes_31_hor_b1.png","f","pattern_response","true","f","pattern_55","1745.8999999761581","true","55","","","","","","","","","","","","","","","","","","",""
"","","","","","html-keyboard-response","153","244231","0.0-2.0-7.0-0.23","61638d887e978110feaa9780","B2","batch2","","null","<p class=block-text>Trial 63 out of 78</p>","null","pattern_show_trial_num","","","","","","","","","","","","","","","","","","","","","","","","",""
"","","","","","image-keyboard-response","154","246907","0.0-2.0-7.0-1.23","61638d887e978110feaa9780","B2","batch2","","2673","stim/yes_40_dia_b1_b.png","j","pattern_response","false","f","pattern_63","2673","false","55","","","","","","","","","","","","","","","","","","",""
"","","","","","html-keyboard-response","155","248223","0.0-2.0-7.0-0.24","61638d887e978110feaa9780","B2","batch2","","null","<p class=block-text>Trial 64 out of 78</p>","null","pattern_show_trial_num","","","","","","","","","","","","","","","","","","","","","","","","",""
"","","","","","image-keyboard-response","156","250087","0.0-2.0-7.0-1.24","61638d887e978110feaa9780","B2","batch2","","1861.2999999523163","stim/no_52_1.png","j","pattern_response","true","j","pattern_32","1861.2999999523163","true","56","","","","","","","","","","","","","","","","","","",""
"","","","","","html-keyboard-response","157","251400","0.0-2.0-7.0-0.25","61638d887e978110feaa9780","B2","batch2","","null","<p class=block-text>Trial 65 out of 78</p>","null","pattern_show_trial_num","","","","","","","","","","","","","","","","","","","","","","","","",""
"","","","","","image-keyboard-response","158","254128","0.0-2.0-7.0-1.25","61638d887e978110feaa9780","B2","batch2","","2726.5","stim/yes_50_dia_w1.png","f","pattern_response","true","f","pattern_71","2726.5","true","57","","","","","","","","","","","","","","","","","","",""
"","","","","","html-keyboard-response","159","255440","0.0-2.0-7.0-0.26","61638d887e978110feaa9780","B2","batch2","","null","<p class=block-text>Trial 66 out of 78</p>","null","pattern_show_trial_num","","","","","","","","","","","","","","","","","","","","","","","","",""
"","","","","","image-keyboard-response","160","256294","0.0-2.0-7.0-1.26","61638d887e978110feaa9780","B2","batch2","","851.7000000476837","stim/yes_43_ver_w1_w.png","f","pattern_response","true","f","pattern_65","851.7000000476837","true","58","","","","","","","","","","","","","","","","","","",""
"","","","","","html-keyboard-response","161","257608","0.0-2.0-7.0-0.27","61638d887e978110feaa9780","B2","batch2","","null","<p class=block-text>Trial 67 out of 78</p>","null","pattern_show_trial_num","","","","","","","","","","","","","","","","","","","","","","","","",""
"","","","","","image-keyboard-response","162","261009","0.0-2.0-7.0-1.27","61638d887e978110feaa9780","B2","batch2","","3399.100000023842","stim/no_65_1_b.png","j","pattern_response","true","j","pattern_38","3399.100000023842","true","59","","","","","","","","","","","","","","","","","","",""
"","","","","","html-keyboard-response","163","262322","0.0-2.0-7.0-0.28","61638d887e978110feaa9780","B2","batch2","","null","<p class=block-text>Trial 68 out of 78</p>","null","pattern_show_trial_num","","","","","","","","","","","","","","","","","","","","","","","","",""
"","","","","","image-keyboard-response","164","263289","0.0-2.0-7.0-1.28","61638d887e978110feaa9780","B2","batch2","","965.3999999761581","stim/yes_45_hor_b2_b.png","f","pattern_response","true","f","pattern_67","965.3999999761581","true","60","","","","","","","","","","","","","","","","","","",""
"","","","","","html-keyboard-response","165","264600","0.0-2.0-7.0-0.29","61638d887e978110feaa9780","B2","batch2","","null","<p class=block-text>Trial 69 out of 78</p>","null","pattern_show_trial_num","","","","","","","","","","","","","","","","","","","","","","","","",""
"","","","","","image-keyboard-response","166","266828","0.0-2.0-7.0-1.29","61638d887e978110feaa9780","B2","batch2","","2226.100000023842","stim/no_46_1_b.png","j","pattern_response","true","j","pattern_26","2226.100000023842","true","61","","","","","","","","","","","","","","","","","","",""
"","","","","","html-keyboard-response","167","268144","0.0-2.0-7.0-0.30","61638d887e978110feaa9780","B2","batch2","","null","<p class=block-text>Trial 70 out of 78</p>","null","pattern_show_trial_num","","","","","","","","","","","","","","","","","","","","","","","","",""
"","","","","","image-keyboard-response","168","269037","0.0-2.0-7.0-1.30","61638d887e978110feaa9780","B2","batch2","","891.1999999284744","stim/no_17_1_w.png","j","pattern_response","true","j","pattern_04","891.1999999284744","true","62","","","","","","","","","","","","","","","","","","",""
"","","","","","html-keyboard-response","169","270351","0.0-2.0-7.0-0.31","61638d887e978110feaa9780","B2","batch2","","null","<p class=block-text>Trial 71 out of 78</p>","null","pattern_show_trial_num","","","","","","","","","","","","","","","","","","","","","","","","",""
"","","","","","image-keyboard-response","170","271579","0.0-2.0-7.0-1.31","61638d887e978110feaa9780","B2","batch2","","1226","stim/no_32_1_w.png","j","pattern_response","true","j","pattern_14","1226","true","63","","","","","","","","","","","","","","","","","","",""
"","","","","","html-keyboard-response","171","272896","0.0-2.0-7.0-0.32","61638d887e978110feaa9780","B2","batch2","","null","<p class=block-text>Trial 72 out of 78</p>","null","pattern_show_trial_num","","","","","","","","","","","","","","","","","","","","","","","","",""
"","","","","","image-keyboard-response","172","274403","0.0-2.0-7.0-1.32","61638d887e978110feaa9780","B2","batch2","","1504.5","stim/yes_35_dia_b1.png","f","pattern_response","true","f","pattern_57","1504.5","true","64","","","","","","","","","","","","","","","","","","",""
"","","","","","html-keyboard-response","173","275712","0.0-2.0-7.0-0.33","61638d887e978110feaa9780","B2","batch2","","null","<p class=block-text>Trial 73 out of 78</p>","null","pattern_show_trial_num","","","","","","","","","","","","","","","","","","","","","","","","",""
"","","","","","image-keyboard-response","174","279285","0.0-2.0-7.0-1.33","61638d887e978110feaa9780","B2","batch2","","3569.4000000953674","stim/no_44_1.png","j","pattern_response","true","j","pattern_24","3569.4000000953674","true","65","","","","","","","","","","","","","","","","","","",""
"","","","","","html-keyboard-response","175","280601","0.0-2.0-7.0-0.34","61638d887e978110feaa9780","B2","batch2","","null","<p class=block-text>Trial 74 out of 78</p>","null","pattern_show_trial_num","","","","","","","","","","","","","","","","","","","","","","","","",""
"","","","","","image-keyboard-response","176","281643","0.0-2.0-7.0-1.34","61638d887e978110feaa9780","B2","batch2","","1040.1000000238419","stim/yes_28_ver_b1.png","f","pattern_response","true","f","pattern_51","1040.1000000238419","true","66","","","","","","","","","","","","","","","","","","",""
"","","","","","html-keyboard-response","177","282952","0.0-2.0-7.0-0.35","61638d887e978110feaa9780","B2","batch2","","null","<p class=block-text>Trial 75 out of 78</p>","null","pattern_show_trial_num","","","","","","","","","","","","","","","","","","","","","","","","",""
"","","","","","image-keyboard-response","178","285772","0.0-2.0-7.0-1.35","61638d887e978110feaa9780","B2","batch2","","2818","stim/no_50_1.png","j","pattern_response","true","j","pattern_30","2818","true","67","","","","","","","","","","","","","","","","","","",""
"","","","","","html-keyboard-response","179","287091","0.0-2.0-7.0-0.36","61638d887e978110feaa9780","B2","batch2","","null","<p class=block-text>Trial 76 out of 78</p>","null","pattern_show_trial_num","","","","","","","","","","","","","","","","","","","","","","","","",""
"","","","","","image-keyboard-response","180","287905","0.0-2.0-7.0-1.36","61638d887e978110feaa9780","B2","batch2","","811.8999999761581","stim/no_23_1.png","j","pattern_response","true","j","pattern_08","811.8999999761581","true","68","","","","","","","","","","","","","","","","","","",""
"","","","","","html-keyboard-response","181","289216","0.0-2.0-7.0-0.37","61638d887e978110feaa9780","B2","batch2","","null","<p class=block-text>Trial 77 out of 78</p>","null","pattern_show_trial_num","","","","","","","","","","","","","","","","","","","","","","","","",""
"","","","","","image-keyboard-response","182","291601","0.0-2.0-7.0-1.37","61638d887e978110feaa9780","B2","batch2","","2383.7000000476837","stim/yes_37_dia_w1.png","j","pattern_response","false","f","pattern_59","2383.7000000476837","false","68","","","","","","","","","","","","","","","","","","",""
"","","","","","html-keyboard-response","183","292911","0.0-2.0-7.0-0.38","61638d887e978110feaa9780","B2","batch2","","null","<p class=block-text>Trial 78 out of 78</p>","null","pattern_show_trial_num","","","","","","","","","","","","","","","","","","","","","","","","",""
"","","","","","image-keyboard-response","184","294227","0.0-2.0-7.0-1.38","61638d887e978110feaa9780","B2","batch2","","1313.5999999046326","stim/yes_60_ver_b1_b.png","f","pattern_response","true","f","pattern_77","1313.5999999046326","true","69","","","","","","","","","","","","","","","","","","",""
"","","","","","html-button-response","185","297163","0.0-2.0-8.0","61638d887e978110feaa9780","B2","batch2","","2432.6999999284744","<p class = block-text>This concludes the 4-in-a-row detection game.Thank you for your responses!<br>
            You responded correctly on 88% of the trials.<br>
            When you are ready, press ""Continue"" button to continue </p>","0","","","","","","","","","","","","","","","","","","","","","","","","","",""
"true","","","","","fullscreen","186","299712","0.0-3.0-0.0","61638d887e978110feaa9780","B2","batch2","","","","","spm_fullscreen","","","","","","","","","","","","","","","","","","","","","","","","",""
"","","","","","html-button-response","187","308223","0.0-3.0-1.0","61638d887e978110feaa9780","B2","batch2","","8509.399999976158","<p class = block-text><b>Instructions</b> <br>This is a widely used intelligence test in research. <br>In this test, a figure with a missing piece will be presented.<br>Below the figure are alternative pieces to complete the figure, only one of which is correct.<br> Different figures might involve different principles for obtaining the missing piece<br>Your job is to select the most logical piece to complete the figure.</p>","0","","","","","","","","","","","","","","","","","","","","","","","","","",""
"","","","","","html-keyboard-response","188","309026","0.0-3.0-2.0-0.0","61638d887e978110feaa9780","B2","batch2","","null","<p class=block-text>Trial 1 out of 60</p>","null","spm_show_trial_num","","","","","","","","","","","","","","","","","","","","","","","","",""
"","","","","","image-button-response","189","313445","0.0-3.0-2.0-1.0","61638d887e978110feaa9780","B2","batch2","","4406.800000071526","img/question_1_1.jpeg","3","spm_respsonse","1","4","mat_01","","","","","","1","4406.800000071526","","","","","","","","","","","","","","",""
"","","","","","html-keyboard-response","190","314513","0.0-3.0-2.0-0.1","61638d887e978110feaa9780","B2","batch2","","null","<p class=block-text>Trial 2 out of 60</p>","null","spm_show_trial_num","","","","","","","","","","","","","","","","","","","","","","","","",""
"","","","","","image-button-response","191","316508","0.0-3.0-2.0-1.1","61638d887e978110feaa9780","B2","batch2","","1993.1999999284744","img/question_1_2.jpeg","4","spm_respsonse","1","5","mat_02","","","","","","1","1993.1999999284744","","","","","","","","","","","","","","",""
"","","","","","html-keyboard-response","192","317569","0.0-3.0-2.0-0.2","61638d887e978110feaa9780","B2","batch2","","null","<p class=block-text>Trial 3 out of 60</p>","null","spm_show_trial_num","","","","","","","","","","","","","","","","","","","","","","","","",""
"","","","","","image-button-response","193","320379","0.0-3.0-2.0-1.2","61638d887e978110feaa9780","B2","batch2","","2807.1999999284744","img/question_1_3.jpeg","0","spm_respsonse","1","1","mat_03","","","","","","1","2807.1999999284744","","","","","","","","","","","","","","",""
"","","","","","html-keyboard-response","194","321444","0.0-3.0-2.0-0.3","61638d887e978110feaa9780","B2","batch2","","null","<p class=block-text>Trial 4 out of 60</p>","null","spm_show_trial_num","","","","","","","","","","","","","","","","","","","","","","","","",""
"","","","","","image-button-response","195","324098","0.0-3.0-2.0-1.3","61638d887e978110feaa9780","B2","batch2","","2651","img/question_1_4.jpeg","1","spm_respsonse","1","2","mat_04","","","","","","1","2651","","","","","","","","","","","","","","",""
"","","","","","html-keyboard-response","196","325161","0.0-3.0-2.0-0.4","61638d887e978110feaa9780","B2","batch2","","null","<p class=block-text>Trial 5 out of 60</p>","null","spm_show_trial_num","","","","","","","","","","","","","","","","","","","","","","","","",""
"","","","","","image-button-response","197","327530","0.0-3.0-2.0-1.4","61638d887e978110feaa9780","B2","batch2","","2365.4000000953674","img/question_1_5.jpeg","5","spm_respsonse","1","6","mat_05","","","","","","1","2365.4000000953674","","","","","","","","","","","","","","",""
"","","","","","html-keyboard-response","198","328595","0.0-3.0-2.0-0.5","61638d887e978110feaa9780","B2","batch2","","null","<p class=block-text>Trial 6 out of 60</p>","null","spm_show_trial_num","","","","","","","","","","","","","","","","","","","","","","","","",""
"","","","","","image-button-response","199","330898","0.0-3.0-2.0-1.5","61638d887e978110feaa9780","B2","batch2","","2300.100000023842","img/question_1_6.jpeg","2","spm_respsonse","1","3","mat_06","","","","","","1","2300.100000023842","","","","","","","","","","","","","","",""
"","","","","","html-keyboard-response","200","331962","0.0-3.0-2.0-0.6","61638d887e978110feaa9780","B2","batch2","","null","<p class=block-text>Trial 7 out of 60</p>","null","spm_show_trial_num","","","","","","","","","","","","","","","","","","","","","","","","",""
"","","","","","image-button-response","201","335163","0.0-3.0-2.0-1.6","61638d887e978110feaa9780","B2","batch2","","3198.2000000476837","img/question_1_7.jpeg","5","spm_respsonse","1","6","mat_07","","","","","","1","3198.2000000476837","","","","","","","","","","","","","","",""
"","","","","","html-keyboard-response","202","336229","0.0-3.0-2.0-0.7","61638d887e978110feaa9780","B2","batch2","","null","<p class=block-text>Trial 8 out of 60</p>","null","spm_show_trial_num","","","","","","","","","","","","","","","","","","","","","","","","",""
"","","","","","image-button-response","203","338560","0.0-3.0-2.0-1.7","61638d887e978110feaa9780","B2","batch2","","2328.600000023842","img/question_1_8.jpeg","1","spm_respsonse","1","2","mat_08","","","","","","1","2328.600000023842","","","","","","","","","","","","","","",""
"","","","","","html-keyboard-response","204","339629","0.0-3.0-2.0-0.8","61638d887e978110feaa9780","B2","batch2","","null","<p class=block-text>Trial 9 out of 60</p>","null","spm_show_trial_num","","","","","","","","","","","","","","","","","","","","","","","","",""
"","","","","","image-button-response","205","342961","0.0-3.0-2.0-1.8","61638d887e978110feaa9780","B2","batch2","","3329.3000000715256","img/question_1_9.jpeg","0","spm_respsonse","1","1","mat_09","","","","","","1","3329.3000000715256","","","","","","","","","","","","","","",""
"","","","","","html-keyboard-response","206","344030","0.0-3.0-2.0-0.9","61638d887e978110feaa9780","B2","batch2","","null","<p class=block-text>Trial 10 out of 60</p>","null","spm_show_trial_num","","","","","","","","","","","","","","","","","","","","","","","","",""
"","","","","","image-button-response","207","349798","0.0-3.0-2.0-1.9","61638d887e978110feaa9780","B2","batch2","","5766","img/question_1_10.jpeg","2","spm_respsonse","1","3","mat_10","","","","","","1","5766","","","","","","","","","","","","","","",""
"","","","","","html-keyboard-response","208","350866","0.0-3.0-2.0-0.10","61638d887e978110feaa9780","B2","batch2","","null","<p class=block-text>Trial 11 out of 60</p>","null","spm_show_trial_num","","","","","","","","","","","","","","","","","","","","","","","","",""
"","","","","","image-button-response","209","357028","0.0-3.0-2.0-1.10","61638d887e978110feaa9780","B2","batch2","","6158.899999976158","img/question_1_11.jpeg","3","spm_respsonse","1","4","mat_11","","","","","","1","6158.899999976158","","","","","","","","","","","","","","",""
"","","","","","html-keyboard-response","210","358090","0.0-3.0-2.0-0.11","61638d887e978110feaa9780","B2","batch2","","null","<p class=block-text>Trial 12 out of 60</p>","null","spm_show_trial_num","","","","","","","","","","","","","","","","","","","","","","","","",""
"","","","","","image-button-response","211","362350","0.0-3.0-2.0-1.11","61638d887e978110feaa9780","B2","batch2","","4256.199999928474","img/question_1_12.jpeg","0","spm_respsonse","0","5","mat_12","","","","","","0","4256.199999928474","","","","","","","","","","","","","","",""
"","","","","","html-keyboard-response","212","363411","0.0-3.0-2.0-0.12","61638d887e978110feaa9780","B2","batch2","","null","<p class=block-text>Trial 13 out of 60</p>","null","spm_show_trial_num","","","","","","","","","","","","","","","","","","","","","","","","",""
"","","","","","image-button-response","213","365216","0.0-3.0-2.0-1.12","61638d887e978110feaa9780","B2","batch2","","1802.3000000715256","img/question_2_1.jpeg","1","spm_respsonse","1","2","mat_13","","","","","","1","1802.3000000715256","","","","","","","","","","","","","","",""
"","","","","","html-keyboard-response","214","366282","0.0-3.0-2.0-0.13","61638d887e978110feaa9780","B2","batch2","","null","<p class=block-text>Trial 14 out of 60</p>","null","spm_show_trial_num","","","","","","","","","","","","","","","","","","","","","","","","",""
"","","","","","image-button-response","215","371515","0.0-3.0-2.0-1.13","61638d887e978110feaa9780","B2","batch2","","5229.899999976158","img/question_2_2.jpeg","5","spm_respsonse","1","6","mat_14","","","","","","1","5229.899999976158","","","","","","","","","","","","","","",""
"","","","","","html-keyboard-response","216","372582","0.0-3.0-2.0-0.14","61638d887e978110feaa9780","B2","batch2","","null","<p class=block-text>Trial 15 out of 60</p>","null","spm_show_trial_num","","","","","","","","","","","","","","","","","","","","","","","","",""
"","","","","","image-button-response","217","374998","0.0-3.0-2.0-1.14","61638d887e978110feaa9780","B2","batch2","","2412.600000023842","img/question_2_3.jpeg","0","spm_respsonse","1","1","mat_15","","","","","","1","2412.600000023842","","","","","","","","","","","","","","",""
"","","","","","html-keyboard-response","218","376059","0.0-3.0-2.0-0.15","61638d887e978110feaa9780","B2","batch2","","null","<p class=block-text>Trial 16 out of 60</p>","null","spm_show_trial_num","","","","","","","","","","","","","","","","","","","","","","","","",""
"","","","","","image-button-response","219","378601","0.0-3.0-2.0-1.15","61638d887e978110feaa9780","B2","batch2","","2539.1999999284744","img/question_2_4.jpeg","1","spm_respsonse","1","2","mat_16","","","","","","1","2539.1999999284744","","","","","","","","","","","","","","",""
"","","","","","html-keyboard-response","220","379666","0.0-3.0-2.0-0.16","61638d887e978110feaa9780","B2","batch2","","null","<p class=block-text>Trial 17 out of 60</p>","null","spm_show_trial_num","","","","","","","","","","","","","","","","","","","","","","","","",""
"","","","","","image-button-response","221","382731","0.0-3.0-2.0-1.16","61638d887e978110feaa9780","B2","batch2","","3062.399999976158","img/question_2_5.jpeg","0","spm_respsonse","1","1","mat_17","","","","","","1","3062.399999976158","","","","","","","","","","","","","","",""
"","","","","","html-keyboard-response","222","383795","0.0-3.0-2.0-0.17","61638d887e978110feaa9780","B2","batch2","","null","<p class=block-text>Trial 18 out of 60</p>","null","spm_show_trial_num","","","","","","","","","","","","","","","","","","","","","","","","",""
"","","","","","image-button-response","223","386635","0.0-3.0-2.0-1.17","61638d887e978110feaa9780","B2","batch2","","2836.5","img/question_2_6.jpeg","2","spm_respsonse","1","3","mat_18","","","","","","1","2836.5","","","","","","","","","","","","","","",""
"","","","","","html-keyboard-response","224","387700","0.0-3.0-2.0-0.18","61638d887e978110feaa9780","B2","batch2","","null","<p class=block-text>Trial 19 out of 60</p>","null","spm_show_trial_num","","","","","","","","","","","","","","","","","","","","","","","","",""
"","","","","","image-button-response","225","391469","0.0-3.0-2.0-1.18","61638d887e978110feaa9780","B2","batch2","","3765.899999976158","img/question_2_7.jpeg","4","spm_respsonse","1","5","mat_19","","","","","","1","3765.899999976158","","","","","","","","","","","","","","",""
"","","","","","html-keyboard-response","226","392534","0.0-3.0-2.0-0.19","61638d887e978110feaa9780","B2","batch2","","null","<p class=block-text>Trial 20 out of 60</p>","null","spm_show_trial_num","","","","","","","","","","","","","","","","","","","","","","","","",""
"","","","","","image-button-response","227","397505","0.0-3.0-2.0-1.19","61638d887e978110feaa9780","B2","batch2","","4967.600000023842","img/question_2_8.jpeg","5","spm_respsonse","1","6","mat_20","","","","","","1","4967.600000023842","","","","","","","","","","","","","","",""
"","","","","","html-keyboard-response","228","398572","0.0-3.0-2.0-0.20","61638d887e978110feaa9780","B2","batch2","","null","<p class=block-text>Trial 21 out of 60</p>","null","spm_show_trial_num","","","","","","","","","","","","","","","","","","","","","","","","",""
"","","","","","image-button-response","229","402423","0.0-3.0-2.0-1.20","61638d887e978110feaa9780","B2","batch2","","3848.1999999284744","img/question_2_9.jpeg","3","spm_respsonse","1","4","mat_21","","","","","","1","3848.1999999284744","","","","","","","","","","","","","","",""
"","","","","","html-keyboard-response","230","403485","0.0-3.0-2.0-0.21","61638d887e978110feaa9780","B2","batch2","","null","<p class=block-text>Trial 22 out of 60</p>","null","spm_show_trial_num","","","","","","","","","","","","","","","","","","","","","","","","",""
"","","","","","image-button-response","231","406117","0.0-3.0-2.0-1.21","61638d887e978110feaa9780","B2","batch2","","2629.399999976158","img/question_2_10.jpeg","2","spm_respsonse","1","3","mat_22","","","","","","1","2629.399999976158","","","","","","","","","","","","","","",""
"","","","","","html-keyboard-response","232","407180","0.0-3.0-2.0-0.22","61638d887e978110feaa9780","B2","batch2","","null","<p class=block-text>Trial 23 out of 60</p>","null","spm_show_trial_num","","","","","","","","","","","","","","","","","","","","","","","","",""
"","","","","","image-button-response","233","415056","0.0-3.0-2.0-1.22","61638d887e978110feaa9780","B2","batch2","","7872.299999952316","img/question_2_11.jpeg","3","spm_respsonse","1","4","mat_23","","","","","","1","7872.299999952316","","","","","","","","","","","","","","",""
"","","","","","html-keyboard-response","234","416120","0.0-3.0-2.0-0.23","61638d887e978110feaa9780","B2","batch2","","null","<p class=block-text>Trial 24 out of 60</p>","null","spm_show_trial_num","","","","","","","","","","","","","","","","","","","","","","","","",""
"","","","","","image-button-response","235","425586","0.0-3.0-2.0-1.23","61638d887e978110feaa9780","B2","batch2","","9462.800000071526","img/question_2_12.jpeg","4","spm_respsonse","1","5","mat_24","","","","","","1","9462.800000071526","","","","","","","","","","","","","","",""
"","","","","","html-button-response","236","427286","0.0-3.0-3.0","61638d887e978110feaa9780","B2","batch2","","1440","<p class = block-text>Attention check: Please choose 1<br></p>","0","attention_check","true","","","","","","","","","","","","","","","","","","","","","","","",""
"","","","","","html-keyboard-response","237","428093","0.0-3.0-4.0-0.0","61638d887e978110feaa9780","B2","batch2","","null","<p class=block-text>Trial 25 out of 60</p>","null","spm_show_trial_num","","","","","","","","","","","","","","","","","","","","","","","","",""
"","","","","","image-button-response","238","433490","0.0-3.0-4.0-1.0","61638d887e978110feaa9780","B2","batch2","","5393.700000047684","img/question_3_1.jpeg","7","spm_respsonse","1","8","mat_25","","","","","","1","5393.700000047684","","","","","","","","","","","","","","",""
"","","","","","html-keyboard-response","239","434557","0.0-3.0-4.0-0.1","61638d887e978110feaa9780","B2","batch2","","null","<p class=block-text>Trial 26 out of 60</p>","null","spm_show_trial_num","","","","","","","","","","","","","","","","","","","","","","","","",""
"","","","","","image-button-response","240","438503","0.0-3.0-4.0-1.1","61638d887e978110feaa9780","B2","batch2","","3943.6999999284744","img/question_3_2.jpeg","1","spm_respsonse","1","2","mat_26","","","","","","1","3943.6999999284744","","","","","","","","","","","","","","",""
"","","","","","html-keyboard-response","241","439565","0.0-3.0-4.0-0.2","61638d887e978110feaa9780","B2","batch2","","null","<p class=block-text>Trial 27 out of 60</p>","null","spm_show_trial_num","","","","","","","","","","","","","","","","","","","","","","","","",""
"","","","","","image-button-response","242","442909","0.0-3.0-4.0-1.2","61638d887e978110feaa9780","B2","batch2","","3340.600000023842","img/question_3_3.jpeg","2","spm_respsonse","1","3","mat_27","","","","","","1","3340.600000023842","","","","","","","","","","","","","","",""
"","","","","","html-keyboard-response","243","443973","0.0-3.0-4.0-0.3","61638d887e978110feaa9780","B2","batch2","","null","<p class=block-text>Trial 28 out of 60</p>","null","spm_show_trial_num","","","","","","","","","","","","","","","","","","","","","","","","",""
"","","","","","image-button-response","244","448973","0.0-3.0-4.0-1.3","61638d887e978110feaa9780","B2","batch2","","4997.700000047684","img/question_3_4.jpeg","7","spm_respsonse","1","8","mat_28","","","","","","1","4997.700000047684","","","","","","","","","","","","","","",""
"","","","","","html-keyboard-response","245","450037","0.0-3.0-4.0-0.4","61638d887e978110feaa9780","B2","batch2","","null","<p class=block-text>Trial 29 out of 60</p>","null","spm_show_trial_num","","","","","","","","","","","","","","","","","","","","","","","","",""
"","","","","","image-button-response","246","453605","0.0-3.0-4.0-1.4","61638d887e978110feaa9780","B2","batch2","","3565.2000000476837","img/question_3_5.jpeg","6","spm_respsonse","1","7","mat_29","","","","","","1","3565.2000000476837","","","","","","","","","","","","","","",""
"","","","","","html-keyboard-response","247","454670","0.0-3.0-4.0-0.5","61638d887e978110feaa9780","B2","batch2","","null","<p class=block-text>Trial 30 out of 60</p>","null","spm_show_trial_num","","","","","","","","","","","","","","","","","","","","","","","","",""
"","","","","","image-button-response","248","459226","0.0-3.0-4.0-1.5","61638d887e978110feaa9780","B2","batch2","","4553.5","img/question_3_6.jpeg","3","spm_respsonse","1","4","mat_30","","","","","","1","4553.5","","","","","","","","","","","","","","",""
"","","","","","html-keyboard-response","249","460294","0.0-3.0-4.0-0.6","61638d887e978110feaa9780","B2","batch2","","null","<p class=block-text>Trial 31 out of 60</p>","null","spm_show_trial_num","","","","","","","","","","","","","","","","","","","","","","","","",""
"","","","","","image-button-response","250","465274","0.0-3.0-4.0-1.6","61638d887e978110feaa9780","B2","batch2","","4976.699999928474","img/question_3_7.jpeg","4","spm_respsonse","1","5","mat_31","","","","","","1","4976.699999928474","","","","","","","","","","","","","","",""
"","","","","","html-keyboard-response","251","466341","0.0-3.0-4.0-0.7","61638d887e978110feaa9780","B2","batch2","","null","<p class=block-text>Trial 32 out of 60</p>","null","spm_show_trial_num","","","","","","","","","","","","","","","","","","","","","","","","",""
"","","","","","image-button-response","252","478174","0.0-3.0-4.0-1.7","61638d887e978110feaa9780","B2","batch2","","11829.399999976158","img/question_3_8.jpeg","0","spm_respsonse","1","1","mat_32","","","","","","1","11829.399999976158","","","","","","","","","","","","","","",""
"","","","","","html-keyboard-response","253","479238","0.0-3.0-4.0-0.8","61638d887e978110feaa9780","B2","batch2","","null","<p class=block-text>Trial 33 out of 60</p>","null","spm_show_trial_num","","","","","","","","","","","","","","","","","","","","","","","","",""
"","","","","","image-button-response","254","483892","0.0-3.0-4.0-1.8","61638d887e978110feaa9780","B2","batch2","","4650.399999976158","img/question_3_9.jpeg","6","spm_respsonse","1","7","mat_33","","","","","","1","4650.399999976158","","","","","","","","","","","","","","",""
"","","","","","html-keyboard-response","255","484960","0.0-3.0-4.0-0.9","61638d887e978110feaa9780","B2","batch2","","null","<p class=block-text>Trial 34 out of 60</p>","null","spm_show_trial_num","","","","","","","","","","","","","","","","","","","","","","","","",""
"","","","","","image-button-response","256","492193","0.0-3.0-4.0-1.9","61638d887e978110feaa9780","B2","batch2","","7230.800000071526","img/question_3_10.jpeg","7","spm_respsonse","0","6","mat_34","","","","","","0","7230.800000071526","","","","","","","","","","","","","","",""
"","","","","","html-keyboard-response","257","493255","0.0-3.0-4.0-0.10","61638d887e978110feaa9780","B2","batch2","","null","<p class=block-text>Trial 35 out of 60</p>","null","spm_show_trial_num","","","","","","","","","","","","","","","","","","","","","","","","",""
"","","","","","image-button-response","258","505848","0.0-3.0-4.0-1.10","61638d887e978110feaa9780","B2","batch2","","12589.799999952316","img/question_3_11.jpeg","3","spm_respsonse","0","1","mat_35","","","","","","0","12589.799999952316","","","","","","","","","","","","","","",""
"","","","","","html-keyboard-response","259","506914","0.0-3.0-4.0-0.11","61638d887e978110feaa9780","B2","batch2","","null","<p class=block-text>Trial 36 out of 60</p>","null","spm_show_trial_num","","","","","","","","","","","","","","","","","","","","","","","","",""
"","","","","","image-button-response","260","517715","0.0-3.0-4.0-1.11","61638d887e978110feaa9780","B2","batch2","","10797.199999928474","img/question_3_12.jpeg","5","spm_respsonse","0","2","mat_36","","","","","","0","10797.199999928474","","","","","","","","","","","","","","",""
"","","","","","html-keyboard-response","261","518783","0.0-3.0-4.0-0.12","61638d887e978110feaa9780","B2","batch2","","null","<p class=block-text>Trial 37 out of 60</p>","null","spm_show_trial_num","","","","","","","","","","","","","","","","","","","","","","","","",""
"","","","","","image-button-response","262","520948","0.0-3.0-4.0-1.12","61638d887e978110feaa9780","B2","batch2","","2162.4000000953674","img/question_4_1.jpeg","2","spm_respsonse","1","3","mat_37","","","","","","1","2162.4000000953674","","","","","","","","","","","","","","",""
"","","","","","html-keyboard-response","263","522016","0.0-3.0-4.0-0.13","61638d887e978110feaa9780","B2","batch2","","null","<p class=block-text>Trial 38 out of 60</p>","null","spm_show_trial_num","","","","","","","","","","","","","","","","","","","","","","","","",""
"","","","","","image-button-response","264","525265","0.0-3.0-4.0-1.13","61638d887e978110feaa9780","B2","batch2","","3245.4000000953674","img/question_4_2.jpeg","3","spm_respsonse","1","4","mat_38","","","","","","1","3245.4000000953674","","","","","","","","","","","","","","",""
"","","","","","html-keyboard-response","265","526330","0.0-3.0-4.0-0.14","61638d887e978110feaa9780","B2","batch2","","null","<p class=block-text>Trial 39 out of 60</p>","null","spm_show_trial_num","","","","","","","","","","","","","","","","","","","","","","","","",""
"","","","","","image-button-response","266","532650","0.0-3.0-4.0-1.14","61638d887e978110feaa9780","B2","batch2","","6316.399999976158","img/question_4_3.jpeg","2","spm_respsonse","1","3","mat_39","","","","","","1","6316.399999976158","","","","","","","","","","","","","","",""
"","","","","","html-keyboard-response","267","533714","0.0-3.0-4.0-0.15","61638d887e978110feaa9780","B2","batch2","","null","<p class=block-text>Trial 40 out of 60</p>","null","spm_show_trial_num","","","","","","","","","","","","","","","","","","","","","","","","",""
"","","","","","image-button-response","268","537096","0.0-3.0-4.0-1.15","61638d887e978110feaa9780","B2","batch2","","3378.600000023842","img/question_4_4.jpeg","6","spm_respsonse","1","7","mat_40","","","","","","1","3378.600000023842","","","","","","","","","","","","","","",""
"","","","","","html-keyboard-response","269","538160","0.0-3.0-4.0-0.16","61638d887e978110feaa9780","B2","batch2","","null","<p class=block-text>Trial 41 out of 60</p>","null","spm_show_trial_num","","","","","","","","","","","","","","","","","","","","","","","","",""
"","","","","","image-button-response","270","544064","0.0-3.0-4.0-1.16","61638d887e978110feaa9780","B2","batch2","","5901.100000023842","img/question_4_5.jpeg","7","spm_respsonse","1","8","mat_41","","","","","","1","5901.100000023842","","","","","","","","","","","","","","",""
"","","","","","html-keyboard-response","271","545128","0.0-3.0-4.0-0.17","61638d887e978110feaa9780","B2","batch2","","null","<p class=block-text>Trial 42 out of 60</p>","null","spm_show_trial_num","","","","","","","","","","","","","","","","","","","","","","","","",""
"","","","","","image-button-response","272","552014","0.0-3.0-4.0-1.17","61638d887e978110feaa9780","B2","batch2","","6882.799999952316","img/question_4_6.jpeg","5","spm_respsonse","1","6","mat_42","","","","","","1","6882.799999952316","","","","","","","","","","","","","","",""
"","","","","","html-keyboard-response","273","553083","0.0-3.0-4.0-0.18","61638d887e978110feaa9780","B2","batch2","","null","<p class=block-text>Trial 43 out of 60</p>","null","spm_show_trial_num","","","","","","","","","","","","","","","","","","","","","","","","",""
"","","","","","image-button-response","274","560885","0.0-3.0-4.0-1.18","61638d887e978110feaa9780","B2","batch2","","7798.699999928474","img/question_4_7.jpeg","4","spm_respsonse","1","5","mat_43","","","","","","1","7798.699999928474","","","","","","","","","","","","","","",""
"","","","","","html-keyboard-response","275","561946","0.0-3.0-4.0-0.19","61638d887e978110feaa9780","B2","batch2","","null","<p class=block-text>Trial 44 out of 60</p>","null","spm_show_trial_num","","","","","","","","","","","","","","","","","","","","","","","","",""
"","","","","","image-button-response","276","567287","0.0-3.0-4.0-1.19","61638d887e978110feaa9780","B2","batch2","","5338.399999976158","img/question_4_8.jpeg","3","spm_respsonse","1","4","mat_44","","","","","","1","5338.399999976158","","","","","","","","","","","","","","",""
"","","","","","html-keyboard-response","277","568351","0.0-3.0-4.0-0.20","61638d887e978110feaa9780","B2","batch2","","null","<p class=block-text>Trial 45 out of 60</p>","null","spm_show_trial_num","","","","","","","","","","","","","","","","","","","","","","","","",""
"","","","","","image-button-response","278","576967","0.0-3.0-4.0-1.20","61638d887e978110feaa9780","B2","batch2","","8612.5","img/question_4_9.jpeg","2","spm_respsonse","0","1","mat_45","","","","","","0","8612.5","","","","","","","","","","","","","","",""
"","","","","","html-keyboard-response","279","578035","0.0-3.0-4.0-0.21","61638d887e978110feaa9780","B2","batch2","","null","<p class=block-text>Trial 46 out of 60</p>","null","spm_show_trial_num","","","","","","","","","","","","","","","","","","","","","","","","",""
"","","","","","image-button-response","280","592139","0.0-3.0-4.0-1.21","61638d887e978110feaa9780","B2","batch2","","14100.700000047684","img/question_4_10.jpeg","1","spm_respsonse","1","2","mat_46","","","","","","1","14100.700000047684","","","","","","","","","","","","","","",""
"","","","","","html-keyboard-response","281","593203","0.0-3.0-4.0-0.22","61638d887e978110feaa9780","B2","batch2","","null","<p class=block-text>Trial 47 out of 60</p>","null","spm_show_trial_num","","","","","","","","","","","","","","","","","","","","","","","","",""
"","","","","","image-button-response","282","606453","0.0-3.0-4.0-1.22","61638d887e978110feaa9780","B2","batch2","","13245.899999976158","img/question_4_11.jpeg","6","spm_respsonse","0","5","mat_47","","","","","","0","13245.899999976158","","","","","","","","","","","","","","",""
"","","","","","html-keyboard-response","283","607514","0.0-3.0-4.0-0.23","61638d887e978110feaa9780","B2","batch2","","null","<p class=block-text>Trial 48 out of 60</p>","null","spm_show_trial_num","","","","","","","","","","","","","","","","","","","","","","","","",""
"","","","","","image-button-response","284","617241","0.0-3.0-4.0-1.23","61638d887e978110feaa9780","B2","batch2","","9724.200000047684","img/question_4_12.jpeg","5","spm_respsonse","1","6","mat_48","","","","","","1","9724.200000047684","","","","","","","","","","","","","","",""
"","","","","","html-keyboard-response","285","618306","0.0-3.0-4.0-0.24","61638d887e978110feaa9780","B2","batch2","","null","<p class=block-text>Trial 49 out of 60</p>","null","spm_show_trial_num","","","","","","","","","","","","","","","","","","","","","","","","",""
"","","","","","image-button-response","286","622089","0.0-3.0-4.0-1.24","61638d887e978110feaa9780","B2","batch2","","3779.8000000715256","img/question_5_1.jpeg","6","spm_respsonse","1","7","mat_49","","","","","","1","3779.8000000715256","","","","","","","","","","","","","","",""
"","","","","","html-keyboard-response","287","623156","0.0-3.0-4.0-0.25","61638d887e978110feaa9780","B2","batch2","","null","<p class=block-text>Trial 50 out of 60</p>","null","spm_show_trial_num","","","","","","","","","","","","","","","","","","","","","","","","",""
"","","","","","image-button-response","288","633588","0.0-3.0-4.0-1.25","61638d887e978110feaa9780","B2","batch2","","10429.100000023842","img/question_5_2.jpeg","5","spm_respsonse","1","6","mat_50","","","","","","1","10429.100000023842","","","","","","","","","","","","","","",""
"","","","","","html-keyboard-response","289","634653","0.0-3.0-4.0-0.26","61638d887e978110feaa9780","B2","batch2","","null","<p class=block-text>Trial 51 out of 60</p>","null","spm_show_trial_num","","","","","","","","","","","","","","","","","","","","","","","","",""
"","","","","","image-button-response","290","639873","0.0-3.0-4.0-1.26","61638d887e978110feaa9780","B2","batch2","","5216.900000095367","img/question_5_3.jpeg","3","spm_respsonse","0","8","mat_51","","","","","","0","5216.900000095367","","","","","","","","","","","","","","",""
"","","","","","html-keyboard-response","291","640941","0.0-3.0-4.0-0.27","61638d887e978110feaa9780","B2","batch2","","null","<p class=block-text>Trial 52 out of 60</p>","null","spm_show_trial_num","","","","","","","","","","","","","","","","","","","","","","","","",""
"","","","","","image-button-response","292","645173","0.0-3.0-4.0-1.27","61638d887e978110feaa9780","B2","batch2","","4228.600000023842","img/question_5_4.jpeg","1","spm_respsonse","1","2","mat_52","","","","","","1","4228.600000023842","","","","","","","","","","","","","","",""
"","","","","","html-keyboard-response","293","646234","0.0-3.0-4.0-0.28","61638d887e978110feaa9780","B2","batch2","","null","<p class=block-text>Trial 53 out of 60</p>","null","spm_show_trial_num","","","","","","","","","","","","","","","","","","","","","","","","",""
"","","","","","image-button-response","294","650758","0.0-3.0-4.0-1.28","61638d887e978110feaa9780","B2","batch2","","4522.5","img/question_5_5.jpeg","6","spm_respsonse","0","1","mat_53","","","","","","0","4522.5","","","","","","","","","","","","","","",""
"","","","","","html-keyboard-response","295","651818","0.0-3.0-4.0-0.29","61638d887e978110feaa9780","B2","batch2","","null","<p class=block-text>Trial 54 out of 60</p>","null","spm_show_trial_num","","","","","","","","","","","","","","","","","","","","","","","","",""
"","","","","","image-button-response","296","664913","0.0-3.0-4.0-1.29","61638d887e978110feaa9780","B2","batch2","","13091.800000071526","img/question_5_6.jpeg","4","spm_respsonse","1","5","mat_54","","","","","","1","13091.800000071526","","","","","","","","","","","","","","",""
"","","","","","html-keyboard-response","297","665978","0.0-3.0-4.0-0.30","61638d887e978110feaa9780","B2","batch2","","null","<p class=block-text>Trial 55 out of 60</p>","null","spm_show_trial_num","","","","","","","","","","","","","","","","","","","","","","","","",""
"","","","","","image-button-response","298","682131","0.0-3.0-4.0-1.30","61638d887e978110feaa9780","B2","batch2","","16149","img/question_5_7.jpeg","4","spm_respsonse","0","1","mat_55","","","","","","0","16149","","","","","","","","","","","","","","",""
"","","","","","html-keyboard-response","299","683196","0.0-3.0-4.0-0.31","61638d887e978110feaa9780","B2","batch2","","null","<p class=block-text>Trial 56 out of 60</p>","null","spm_show_trial_num","","","","","","","","","","","","","","","","","","","","","","","","",""
"","","","","","image-button-response","300","686946","0.0-3.0-4.0-1.31","61638d887e978110feaa9780","B2","batch2","","3747.6999999284744","img/question_5_8.jpeg","1","spm_respsonse","0","6","mat_56","","","","","","0","3747.6999999284744","","","","","","","","","","","","","","",""
"","","","","","html-keyboard-response","301","688013","0.0-3.0-4.0-0.32","61638d887e978110feaa9780","B2","batch2","","null","<p class=block-text>Trial 57 out of 60</p>","null","spm_show_trial_num","","","","","","","","","","","","","","","","","","","","","","","","",""
"","","","","","image-button-response","302","696249","0.0-3.0-4.0-1.32","61638d887e978110feaa9780","B2","batch2","","8233.200000047684","img/question_5_9.jpeg","7","spm_respsonse","0","3","mat_57","","","","","","0","8233.200000047684","","","","","","","","","","","","","","",""
"","","","","","html-keyboard-response","303","697316","0.0-3.0-4.0-0.33","61638d887e978110feaa9780","B2","batch2","","null","<p class=block-text>Trial 58 out of 60</p>","null","spm_show_trial_num","","","","","","","","","","","","","","","","","","","","","","","","",""
"","","","","","image-button-response","304","701212","0.0-3.0-4.0-1.33","61638d887e978110feaa9780","B2","batch2","","3892.7999999523163","img/question_5_10.jpeg","4","spm_respsonse","0","2","mat_58","","","","","","0","3892.7999999523163","","","","","","","","","","","","","","",""
"","","","","","html-keyboard-response","305","702276","0.0-3.0-4.0-0.34","61638d887e978110feaa9780","B2","batch2","","null","<p class=block-text>Trial 59 out of 60</p>","null","spm_show_trial_num","","","","","","","","","","","","","","","","","","","","","","","","",""
"","","","","","image-button-response","306","708335","0.0-3.0-4.0-1.34","61638d887e978110feaa9780","B2","batch2","","6055.100000023842","img/question_5_11.jpeg","1","spm_respsonse","0","4","mat_59","","","","","","0","6055.100000023842","","","","","","","","","","","","","","",""
"","","","","","html-keyboard-response","307","709394","0.0-3.0-4.0-0.35","61638d887e978110feaa9780","B2","batch2","","null","<p class=block-text>Trial 60 out of 60</p>","null","spm_show_trial_num","","","","","","","","","","","","","","","","","","","","","","","","",""
"","","","","","image-button-response","308","715602","0.0-3.0-4.0-1.35","61638d887e978110feaa9780","B2","batch2","","6206.799999952316","img/question_5_12.jpeg","6","spm_respsonse","0","5","mat_60","","","","","","0","6206.799999952316","","","","","","","","","","","","","","",""
"","","","","","html-button-response","309","717730","0.0-3.0-5.0","61638d887e978110feaa9780","B2","batch2","","1868.5","<p class= block-text>This concludes the Standard Progressive Matrix game. Thank you for your responses!<br> When you are ready, click the button continue</p>","0","spm_goodbye","","","","","","","","","","","","","","","","","","","","","","","","",""
"true","","","","","fullscreen","310","720253","0.0-4.0-0.0","61638d887e978110feaa9780","B2","batch2","","","","","","","","","","","","","","","","","","","","","","","","","","","","","",""
"","","","","","instructions","311","749921","0.0-4.0-1.0-0.0-0.0","61638d887e978110feaa9780","B2","batch2","[{""page_index"":0,""viewing_time"":18048.300000071526},{""page_index"":1,""viewing_time"":2417.0999999046326},{""page_index"":2,""viewing_time"":2479.2000000476837},{""page_index"":3,""viewing_time"":1720},{""page_index"":4,""viewing_time"":1634.6000000238419},{""page_index"":5,""viewing_time"":1546.1000000238419},{""page_index"":6,""viewing_time"":1819.8999999761581}]","29665.600000023842","","","tol-instructions","","","","","","","","","","","","","","","","","","","","","","","","",""
"","","","","","html-button-response","312","751003","0.0-4.0-1.0-1.0-0.0","61638d887e978110feaa9780","B2","batch2","","1081.1000000238419","<p class=block-text> Let's answer a few questions <br>","0","tol_enter_quiz","","","","","","","","","","","","","","","","","","","","","","","","",""
"","","","","","html-button-response","313","754455","0.0-4.0-1.0-1.0-1.0","61638d887e978110feaa9780","B2","batch2","","3448.2000000476837","<p class = block-text>True or False: You can only move the ball on top of a peg. <br></p>","0","tol_quiz","true","","","","","","","","","","","","","","","","","","","","","","","",""
"","","","","","html-button-response","314","755572","0.0-4.0-1.0-1.0-2.0","61638d887e978110feaa9780","B2","batch2","","1116.2000000476837","<p class = block-text>Correct! You can only move the ball on top of a peg.</p>","0","tol_quiz_feedback","","","","","","","","","","","","","","","","","","","","","","","","",""
"","","","","","html-button-response","315","758304","0.0-4.0-1.0-1.0-3.0","61638d887e978110feaa9780","B2","batch2","","2730.600000023842","<p class = block-text>True or False: You should try to match your board with the target board with fewest moves possible. <br></p>","0","tol_quiz","true","","","","","","","","","","","","","","","","","","","","","","","",""
"","","","","","html-button-response","316","759002","0.0-4.0-1.0-1.0-4.0","61638d887e978110feaa9780","B2","batch2","","695.8999999761581","<p class = block-text>Correct! </p>","0","tol_quiz_feedback","","","","","","","","","","","","","","","","","","","","","","","","",""
"","","","","","html-button-response","317","759904","0.0-4.0-2.0","61638d887e978110feaa9780","B2","batch2","","899.7000000476837","<p class=block-text> Now that you've understood the game, let's practice a few easier examples before we start!<br> <br>","0","","","","","","","","","","","","","","","","","","","","","","","","","",""
"","","","","","single-stim-button","318","763856","0.0-4.0-3.0-0.0","61638d887e978110feaa9780","B2","batch2","","3948","","","tol_practice","","","","","","","","","","","tol_peg_2","3948","3948","0","[[1,2,0],[0,0],[0]]","1","[[1,2,0],[0,0],[3]]","practice","3948","","","","","",""
"","","","","","single-stim-button","319","764852","0.0-4.0-3.0-1.0","61638d887e978110feaa9780","B2","batch2","","995","","","tol_practice","","","","","","","","","","","tol_peg_3","995","995","0","[[1,2,0],[0,0],[3]]","1","[[1,2,0],[0,0],[3]]","practice","995","","","","","",""
"","","","","","poldrack-single-stim","320","765863","0.0-4.0-4.0","61638d887e978110feaa9780","B2","batch2","","-1","","","tol_feedback","true","","","","","","","","","","","1000","1000","500","","","","","","-1","none","true","","0",""
"","","","","","single-stim-button","321","768754","0.0-4.0-5.0-0.0","61638d887e978110feaa9780","B2","batch2","","2890","","","tol_practice","","","","","","","","","","","tol_peg_1","2890","2890","0","[[1,0,0],[3,0],[0]]","2","[[0,0,0],[3,1],[2]]","practice","2890","","","","","",""
"","","","","","single-stim-button","322","770103","0.0-4.0-5.0-1.0","61638d887e978110feaa9780","B2","batch2","","1348","","","tol_practice","","","","","","","","","","","tol_peg_3","1348","1348","0","[[1,0,0],[3,0],[2]]","2","[[0,0,0],[3,1],[2]]","practice","1348","","","","","",""
"","","","","","single-stim-button","323","771005","0.0-4.0-5.1-0.1","61638d887e978110feaa9780","B2","batch2","","900","","","tol_practice","","","","","","","","","","","tol_peg_1","900","900","0","[[0,0,0],[3,0],[2]]","3","[[0,0,0],[3,1],[2]]","practice","900","","","","","",""
"","","","","","single-stim-button","324","771620","0.0-4.0-5.1-1.1","61638d887e978110feaa9780","B2","batch2","","615","","","tol_practice","","","","","","","","","","","tol_peg_2","615","615","0","[[0,0,0],[3,1],[2]]","3","[[0,0,0],[3,1],[2]]","practice","615","","","","","",""
"","","","","","poldrack-single-stim","325","772631","0.0-4.0-6.0","61638d887e978110feaa9780","B2","batch2","","-1","","","tol_feedback","true","","","","","","","","","","","1000","1000","500","","","","","","-1","none","true","","0",""
"","","","","","single-stim-button","326","774804","0.0-4.0-7.0-0.0","61638d887e978110feaa9780","B2","batch2","","2172","","","tol_practice","","","","","","","","","","","tol_peg_2","2172","2172","0","[[1,2,0],[0,0],[0]]","4","[[1,0,0],[2,0],[3]]","practice","2172","","","","","",""
"","","","","","single-stim-button","327","775554","0.0-4.0-7.0-1.0","61638d887e978110feaa9780","B2","batch2","","749","","","tol_practice","","","","","","","","","","","tol_peg_3","749","749","0","[[1,2,0],[0,0],[3]]","4","[[1,0,0],[2,0],[3]]","practice","749","","","","","",""
"","","","","","single-stim-button","328","776254","0.0-4.0-7.1-0.1","61638d887e978110feaa9780","B2","batch2","","699","","","tol_practice","","","","","","","","","","","tol_peg_1","699","699","0","[[1,0,0],[0,0],[3]]","5","[[1,0,0],[2,0],[3]]","practice","699","","","","","",""
"","","","","","single-stim-button","329","776987","0.0-4.0-7.1-1.1","61638d887e978110feaa9780","B2","batch2","","732","","","tol_practice","","","","","","","","","","","tol_peg_2","732","732","0","[[1,0,0],[2,0],[3]]","5","[[1,0,0],[2,0],[3]]","practice","732","","","","","",""
"","","","","","poldrack-single-stim","330","777991","0.0-4.0-8.0","61638d887e978110feaa9780","B2","batch2","","-1","","","tol_feedback","true","","","","","","","","","","","1000","1000","500","","","","","","-1","none","true","","0",""
"","","","","","html-button-response","331","779387","0.0-4.0-9.0","61638d887e978110feaa9780","B2","batch2","","1394.6000000238419","<div class = centerbox><p class = center-block-text>Great job! You are done with practice trials<br>You are about to start official trials.<br> <br> Problem <strong>1</strong> out of 25 problems</p></div>","0","tol_instruction","","","","","","","","","","","","","","","","","","","","","","","","",""
"","","","","","single-stim-button","332","782571","0.0-4.0-10.0-0.0","61638d887e978110feaa9780","B2","batch2","","2179","","","tol_tohand","","","","","","","","","","","tol_peg_1","2179","2179","0","[[1,0,0],[3,0],[0]]","1","[[1,3,0],[2,0],[0]]","0","0","","","","","","3"
"","","","","","single-stim-button","333","783306","0.0-4.0-10.0-1.0","61638d887e978110feaa9780","B2","batch2","","733","","","tol_toboard","","","","","","","","","","","tol_peg_3","733","733","0","[[1,0,0],[3,0],[2]]","1","[[1,3,0],[2,0],[0]]","0","0","","","","","","3"
"","","","","","single-stim-button","334","783821","0.0-4.0-10.1-0.1","61638d887e978110feaa9780","B2","batch2","","514","","","tol_tohand","","","","","","","","","","","tol_peg_2","514","514","0","[[1,0,0],[0,0],[2]]","2","[[1,3,0],[2,0],[0]]","0","0","","","","","","3"
"","","","","","single-stim-button","335","784355","0.0-4.0-10.1-1.1","61638d887e978110feaa9780","B2","batch2","","532","","","tol_toboard","","","","","","","","","","","tol_peg_1","532","532","0","[[1,3,0],[0,0],[2]]","2","[[1,3,0],[2,0],[0]]","0","0","","","","","","3"
"","","","","","single-stim-button","336","785455","0.0-4.0-10.2-0.2","61638d887e978110feaa9780","B2","batch2","","1098","","","tol_tohand","","","","","","","","","","","tol_peg_3","1098","1098","0","[[1,3,0],[0,0],[0]]","3","[[1,3,0],[2,0],[0]]","0","0","","","","","","3"
"","","","","","single-stim-button","337","786172","0.0-4.0-10.2-1.2","61638d887e978110feaa9780","B2","batch2","","716","","","tol_toboard","","","","","","","","","","","tol_peg_2","716","716","0","[[1,3,0],[2,0],[0]]","3","[[1,3,0],[2,0],[0]]","0","0","","","","","","3"
"","","","","","poldrack-single-stim","338","787183","0.0-4.0-11.0","61638d887e978110feaa9780","B2","batch2","","-1","","","tol_feedback","true","","","","","","","","","","","1000","1000","500","","","","","","-1","none","true","2179","3791",""
"","","","","","html-button-response","339","788172","0.0-4.0-12.0","61638d887e978110feaa9780","B2","batch2","","987.6999999284744","<div class = centerbox><p class = center-block-text>problem <strong>2</strong> out of 25 problems</p></div>","0","tol_trial_num","","","","","","","","","","","","","","","","","","","","","","","","",""
"","","","","","single-stim-button","340","790421","0.0-4.0-13.0-0.0","61638d887e978110feaa9780","B2","batch2","","2248","","","tol_tohand","","","","","","","","","","","tol_peg_1","2248","2248","0","[[1,0,0],[3,0],[0]]","1","[[2,1,3],[0,0],[0]]","1","0","","","","","","5"
"","","","","","single-stim-button","341","791422","0.0-4.0-13.0-1.0","61638d887e978110feaa9780","B2","batch2","","999","","","tol_toboard","","","","","","","","","","","tol_peg_3","999","999","0","[[1,0,0],[3,0],[2]]","1","[[2,1,3],[0,0],[0]]","1","0","","","","","","5"
"","","","","","single-stim-button","342","795406","0.0-4.0-13.1-0.1","61638d887e978110feaa9780","B2","batch2","","3982","","","tol_tohand","","","","","","","","","","","tol_peg_1","3982","3982","0","[[0,0,0],[3,0],[2]]","2","[[2,1,3],[0,0],[0]]","1","0","","","","","","5"
"","","","","","single-stim-button","343","796189","0.0-4.0-13.1-1.1","61638d887e978110feaa9780","B2","batch2","","781","","","tol_toboard","","","","","","","","","","","tol_peg_2","781","781","0","[[0,0,0],[3,1],[2]]","2","[[2,1,3],[0,0],[0]]","1","0","","","","","","5"
"","","","","","single-stim-button","344","796706","0.0-4.0-13.2-0.2","61638d887e978110feaa9780","B2","batch2","","515","","","tol_tohand","","","","","","","","","","","tol_peg_3","515","515","0","[[0,0,0],[3,1],[0]]","3","[[2,1,3],[0,0],[0]]","1","0","","","","","","5"
"","","","","","single-stim-button","345","797572","0.0-4.0-13.2-1.2","61638d887e978110feaa9780","B2","batch2","","866","","","tol_toboard","","","","","","","","","","","tol_peg_1","866","866","0","[[2,0,0],[3,1],[0]]","3","[[2,1,3],[0,0],[0]]","1","0","","","","","","5"
"","","","","","single-stim-button","346","798241","0.0-4.0-13.3-0.3","61638d887e978110feaa9780","B2","batch2","","668","","","tol_tohand","","","","","","","","","","","tol_peg_2","668","668","0","[[2,0,0],[3,0],[0]]","4","[[2,1,3],[0,0],[0]]","1","0","","","","","","5"
