"success","timeout","failed_images","failed_audio","failed_video","trial_type","trial_index","time_elapsed","internal_node_id","subject_id","study_id","session_id","view_history","rt","stimulus","response","task","correct","answer","item","fiar_detect_rt","fiar_detect_correct","total_correct_fiar_detect","post_trial_gap","choices","spm_correct","spm_rt","mouse_click","stim_duration","block_duration","timing_post_trial","current_position","tol_num_moves_made","tol_target","tol_problem_id","tol_rt","key_press","possible_responses","tol_correct","preplanning","tol_rt_per_trial","tol_min_moves"
"true","false","[]","[]","[]","preload","0","1964","0.0-0.0","61676f87dba8a19bc29edf39","B2","batch2","","","","","","","","","","","","","","","","","","","","","","","","","","","","","",""
"true","","","","","fullscreen","1","12483","0.0-1.0-0.0","61676f87dba8a19bc29edf39","B2","batch2","","","","","","","","","","","","","","","","","","","","","","","","","","","","","",""
"true","","","","","fullscreen","2","14584","0.0-2.0-0.0","61676f87dba8a19bc29edf39","B2","batch2","","","","","","","","","","","","","","","","","","","","","","","","","","","","","",""
"","","","","","instructions","3","307248","0.0-2.0-1.0-0.0","61676f87dba8a19bc29edf39","B2","batch2","[{""page_index"":0,""viewing_time"":10154.100000000006},{""page_index"":1,""viewing_time"":282504.7}]","292659.30000000005","","","","","","","","","","","","","","","","","","","","","","","","","","","",""
"","","","","","html-button-response","4","308832","0.0-2.0-1.0-1.0-0.0","61676f87dba8a19bc29edf39","B2","batch2","","1582.3000000000466","<p class=block-text> Let's answer a few questions <br>","0","pattern_enter_quiz","","","","","","","","","","","","","","","","","","","","","","","","",""
"","","","","","html-button-response","5","315415","0.0-2.0-1.0-1.0-1.0","61676f87dba8a19bc29edf39","B2","batch2","","6581.300000000047","<p class = block-text>True or False: You will have as much time as you want to make each choice. <br></p>","1","pattern_quiz","true","","","","","","","","","","","","","","","","","","","","","","","",""
"","","","","","html-button-response","6","316766","0.0-2.0-1.0-1.0-2.0","61676f87dba8a19bc29edf39","B2","batch2","","1348.3000000000466","<p class = block-text>Correct! You should make your choice <strong> as fast as you can</strong>.</p>","0","pattern_quiz_feedback","","","","","","","","","","","","","","","","","","","","","","","","",""
"","","","","","html-button-response","7","321710","0.0-2.0-1.0-1.0-3.0","61676f87dba8a19bc29edf39","B2","batch2","","4942.300000000047","<p class = block-text>True or False: You will look for 4 pieces in black or white color connected in a row either horizontally, vertically or diagonally. <br></p>","1","pattern_quiz","false","","","","","","","","","","","","","","","","","","","","","","","",""
"","","","","","html-button-response","8","323127","0.0-2.0-1.0-1.0-4.0","61676f87dba8a19bc29edf39","B2","batch2","","1415.3000000000466","<p class = block-text>Incorrect. Remember, will look for 4 pieces connected in a row either in black or white color, and either in horizontal, vertical or diagonal direction.</p>","0","pattern_quiz_feedback","","","","","","","","","","","","","","","","","","","","","","","","",""
"","","","","","html-button-response","9","325463","0.0-2.0-1.0-2.0-0.0","61676f87dba8a19bc29edf39","B2","batch2","","2334","<p class = block-text>You made too many incorrect choices.</p><p class = block-text>You will now repeat the instruction and quiz</p>","0","","","","","","","","","","","","","","","","","","","","","","","","","",""
"","","","","","instructions","10","383870","0.0-2.0-1.1-0.1","61676f87dba8a19bc29edf39","B2","batch2","[{""page_index"":0,""viewing_time"":54077.79999999993},{""page_index"":1,""viewing_time"":4328.20000000007}]","58407","","","","","","","","","","","","","","","","","","","","","","","","","","","",""
"","","","","","html-button-response","11","385191","0.0-2.0-1.1-1.1-0.1","61676f87dba8a19bc29edf39","B2","batch2","","1318.8000000000466","<p class=block-text> Let's answer a few questions <br>","0","pattern_enter_quiz","","","","","","","","","","","","","","","","","","","","","","","","",""
"","","","","","html-button-response","12","387671","0.0-2.0-1.1-1.1-1.1","61676f87dba8a19bc29edf39","B2","batch2","","2478.399999999907","<p class = block-text>True or False: You will have as much time as you want to make each choice. <br></p>","1","pattern_quiz","true","","","","","","","","","","","","","","","","","","","","","","","",""
"","","","","","html-button-response","13","388702","0.0-2.0-1.1-1.1-2.1","61676f87dba8a19bc29edf39","B2","batch2","","1029.7999999999302","<p class = block-text>Correct! You should make your choice <strong> as fast as you can</strong>.</p>","0","pattern_quiz_feedback","","","","","","","","","","","","","","","","","","","","","","","","",""
"","","","","","html-button-response","14","393182","0.0-2.0-1.1-1.1-3.1","61676f87dba8a19bc29edf39","B2","batch2","","4479.20000000007","<p class = block-text>True or False: You will look for 4 pieces in black or white color connected in a row either horizontally, vertically or diagonally. <br></p>","0","pattern_quiz","true","","","","","","","","","","","","","","","","","","","","","","","",""
"","","","","","html-button-response","15","394174","0.0-2.0-1.1-1.1-4.1","61676f87dba8a19bc29edf39","B2","batch2","","989.8000000000466","<p class = block-text>Correct! </p>","0","pattern_quiz_feedback","","","","","","","","","","","","","","","","","","","","","","","","",""
"","","","","","html-button-response","16","396767","0.0-2.0-2.0","61676f87dba8a19bc29edf39","B2","batch2","","2591.6999999999534","<p class=block-text> Now that you've understood the game, let's do a few practice trials before we start!<br> <br>","0","pattern_enter_practice","","","","","","","","","","","","","","","","","","","","","","","","",""
"","","","","","image-keyboard-response","17","406119","0.0-2.0-3.0-0.0","61676f87dba8a19bc29edf39","B2","batch2","","9331.79999999993","stim/prac_yes_16_ver_w1.png","f","pattern_practice","true","f","","","","","","","","","","","","","","","","","","","","","","",""
"","","","","","html-keyboard-response","18","407139","0.0-2.0-3.0-1.0","61676f87dba8a19bc29edf39","B2","batch2","","null","<p style=""font-size:30px;color:green;"">Correct!</p>","null","pattern_feedback","","","","","","","","","","","","","","","","","","","","","","","","",""
"","","","","","image-keyboard-response","19","409727","0.0-2.0-3.0-0.1","61676f87dba8a19bc29edf39","B2","batch2","","2583.8000000000466","stim/prac_no_16_1.png","j","pattern_practice","true","j","","","","","","","","","","","","","","","","","","","","","","",""
"","","","","","html-keyboard-response","20","410757","0.0-2.0-3.0-1.1","61676f87dba8a19bc29edf39","B2","batch2","","null","<p style=""font-size:30px;color:green;"">Correct!</p>","null","pattern_feedback","","","","","","","","","","","","","","","","","","","","","","","","",""
"","","","","","image-keyboard-response","21","412301","0.0-2.0-3.0-0.2","61676f87dba8a19bc29edf39","B2","batch2","","1539.5","stim/prac_yes_20_dia_b1.png","f","pattern_practice","true","f","","","","","","","","","","","","","","","","","","","","","","",""
"","","","","","html-keyboard-response","22","413316","0.0-2.0-3.0-1.2","61676f87dba8a19bc29edf39","B2","batch2","","null","<p style=""font-size:30px;color:green;"">Correct!</p>","null","pattern_feedback","","","","","","","","","","","","","","","","","","","","","","","","",""
"","","","","","image-keyboard-response","23","414926","0.0-2.0-3.0-0.3","61676f87dba8a19bc29edf39","B2","batch2","","1606","stim/prac_no_18_1.png","j","pattern_practice","true","j","","","","","","","","","","","","","","","","","","","","","","",""
"","","","","","html-keyboard-response","24","415932","0.0-2.0-3.0-1.3","61676f87dba8a19bc29edf39","B2","batch2","","null","<p style=""font-size:30px;color:green;"">Correct!</p>","null","pattern_feedback","","","","","","","","","","","","","","","","","","","","","","","","",""
"","","","","","image-keyboard-response","25","417246","0.0-2.0-3.0-0.4","61676f87dba8a19bc29edf39","B2","batch2","","1310.4000000000233","stim/prac_yes_18_hor_w1.png","f","pattern_practice","true","f","","","","","","","","","","","","","","","","","","","","","","",""
"","","","","","html-keyboard-response","26","418270","0.0-2.0-3.0-1.4","61676f87dba8a19bc29edf39","B2","batch2","","null","<p style=""font-size:30px;color:green;"">Correct!</p>","null","pattern_feedback","","","","","","","","","","","","","","","","","","","","","","","","",""
"","","","","","html-button-response","27","583814","0.0-2.0-4.0","61676f87dba8a19bc29edf39","B2","batch2","","165539.29999999993","<p class=block-text> Good job! You are done with practice trials!<br>
        You responded correctly on 100% of the trials.<br>
        Press the button below to start official trials. Now you won't see any feedback about your response</p>","0","pattern_enter_official_trials","","","","","","","","","","","","","","","","","","","","","","","","",""
"","","","","","html-keyboard-response","28","584616","0.0-2.0-5.0-0.0","61676f87dba8a19bc29edf39","B2","batch2","","null","<p class=block-text>Trial 1 out of 78</p>","null","pattern_show_trial_num","","","","","","","","","","","","","","","","","","","","","","","","",""
"","","","","","image-keyboard-response","29","591632","0.0-2.0-5.0-1.0","61676f87dba8a19bc29edf39","B2","batch2","","7012.900000000023","stim/no_22_1_b.png","j","pattern_response","true","j","pattern_07","7012.900000000023","true","1","","","","","","","","","","","","","","","","","","",""
"","","","","","html-keyboard-response","30","592954","0.0-2.0-5.0-0.1","61676f87dba8a19bc29edf39","B2","batch2","","null","<p class=block-text>Trial 2 out of 78</p>","null","pattern_show_trial_num","","","","","","","","","","","","","","","","","","","","","","","","",""
"","","","","","image-keyboard-response","31","599374","0.0-2.0-5.0-1.1","61676f87dba8a19bc29edf39","B2","batch2","","6415.099999999977","stim/no_67_1.png","j","pattern_response","true","j","pattern_39","6415.099999999977","true","2","","","","","","","","","","","","","","","","","","",""
"","","","","","html-keyboard-response","32","600687","0.0-2.0-5.0-0.2","61676f87dba8a19bc29edf39","B2","batch2","","null","<p class=block-text>Trial 3 out of 78</p>","null","pattern_show_trial_num","","","","","","","","","","","","","","","","","","","","","","","","",""
"","","","","","image-keyboard-response","33","610296","0.0-2.0-5.0-1.2","61676f87dba8a19bc29edf39","B2","batch2","","9602.400000000023","stim/no_58_1_w.png","j","pattern_response","true","j","pattern_35","9602.400000000023","true","3","","","","","","","","","","","","","","","","","","",""
"","","","","","html-keyboard-response","34","611611","0.0-2.0-5.0-0.3","61676f87dba8a19bc29edf39","B2","batch2","","null","<p class=block-text>Trial 4 out of 78</p>","null","pattern_show_trial_num","","","","","","","","","","","","","","","","","","","","","","","","",""
"","","","","","image-keyboard-response","35","613192","0.0-2.0-5.0-1.3","61676f87dba8a19bc29edf39","B2","batch2","","1576.1999999999534","stim/no_12_1.png","j","pattern_response","true","j","pattern_01","1576.1999999999534","true","4","","","","","","","","","","","","","","","","","","",""
"","","","","","html-keyboard-response","36","614505","0.0-2.0-5.0-0.4","61676f87dba8a19bc29edf39","B2","batch2","","null","<p class=block-text>Trial 5 out of 78</p>","null","pattern_show_trial_num","","","","","","","","","","","","","","","","","","","","","","","","",""
"","","","","","image-keyboard-response","37","615776","0.0-2.0-5.0-1.4","61676f87dba8a19bc29edf39","B2","batch2","","1267.4000000000233","stim/yes_39_hor_w1_w.png","f","pattern_response","true","f","pattern_62","1267.4000000000233","true","5","","","","","","","","","","","","","","","","","","",""
"","","","","","html-keyboard-response","38","617086","0.0-2.0-5.0-0.5","61676f87dba8a19bc29edf39","B2","batch2","","null","<p class=block-text>Trial 6 out of 78</p>","null","pattern_show_trial_num","","","","","","","","","","","","","","","","","","","","","","","","",""
"","","","","","image-keyboard-response","39","621807","0.0-2.0-5.0-1.5","61676f87dba8a19bc29edf39","B2","batch2","","4716.400000000023","stim/no_45_1_w.png","j","pattern_response","true","j","pattern_25","4716.400000000023","true","6","","","","","","","","","","","","","","","","","","",""
"","","","","","html-keyboard-response","40","623123","0.0-2.0-5.0-0.6","61676f87dba8a19bc29edf39","B2","batch2","","null","<p class=block-text>Trial 7 out of 78</p>","null","pattern_show_trial_num","","","","","","","","","","","","","","","","","","","","","","","","",""
"","","","","","image-keyboard-response","41","632108","0.0-2.0-5.0-1.6","61676f87dba8a19bc29edf39","B2","batch2","","8978.900000000023","stim/yes_63_dia_b1.png","f","pattern_response","true","f","pattern_78","8978.900000000023","true","7","","","","","","","","","","","","","","","","","","",""
"","","","","","html-keyboard-response","42","633429","0.0-2.0-5.0-0.7","61676f87dba8a19bc29edf39","B2","batch2","","null","<p class=block-text>Trial 8 out of 78</p>","null","pattern_show_trial_num","","","","","","","","","","","","","","","","","","","","","","","","",""
"","","","","","image-keyboard-response","43","639264","0.0-2.0-5.0-1.7","61676f87dba8a19bc29edf39","B2","batch2","","5829.29999999993","stim/no_39_1_w.png","j","pattern_response","true","j","pattern_21","5829.29999999993","true","8","","","","","","","","","","","","","","","","","","",""
"","","","","","html-keyboard-response","44","640590","0.0-2.0-5.0-0.8","61676f87dba8a19bc29edf39","B2","batch2","","null","<p class=block-text>Trial 9 out of 78</p>","null","pattern_show_trial_num","","","","","","","","","","","","","","","","","","","","","","","","",""
"","","","","","image-keyboard-response","45","644382","0.0-2.0-5.0-1.8","61676f87dba8a19bc29edf39","B2","batch2","","3786","stim/yes_42_dia_w1_w.png","j","pattern_response","false","f","pattern_64","3786","false","8","","","","","","","","","","","","","","","","","","",""
"","","","","","html-keyboard-response","46","645695","0.0-2.0-5.0-0.9","61676f87dba8a19bc29edf39","B2","batch2","","null","<p class=block-text>Trial 10 out of 78</p>","null","pattern_show_trial_num","","","","","","","","","","","","","","","","","","","","","","","","",""
"","","","","","image-keyboard-response","47","648583","0.0-2.0-5.0-1.9","61676f87dba8a19bc29edf39","B2","batch2","","2882.0999999999767","stim/yes_51_dia_b1.png","j","pattern_response","false","f","pattern_72","2882.0999999999767","false","8","","","","","","","","","","","","","","","","","","",""
"","","","","","html-keyboard-response","48","649904","0.0-2.0-5.0-0.10","61676f87dba8a19bc29edf39","B2","batch2","","null","<p class=block-text>Trial 11 out of 78</p>","null","pattern_show_trial_num","","","","","","","","","","","","","","","","","","","","","","","","",""
"","","","","","image-keyboard-response","49","651432","0.0-2.0-5.0-1.10","61676f87dba8a19bc29edf39","B2","batch2","","1522.5999999999767","stim/no_15_1_w.png","j","pattern_response","true","j","pattern_03","1522.5999999999767","true","9","","","","","","","","","","","","","","","","","","",""
"","","","","","html-keyboard-response","50","652755","0.0-2.0-5.0-0.11","61676f87dba8a19bc29edf39","B2","batch2","","null","<p class=block-text>Trial 12 out of 78</p>","null","pattern_show_trial_num","","","","","","","","","","","","","","","","","","","","","","","","",""
"","","","","","image-keyboard-response","51","653832","0.0-2.0-5.0-1.11","61676f87dba8a19bc29edf39","B2","batch2","","1071.5","stim/yes_30_ver_b1_b.png","f","pattern_response","true","f","pattern_54","1071.5","true","10","","","","","","","","","","","","","","","","","","",""
"","","","","","html-keyboard-response","52","655146","0.0-2.0-5.0-0.12","61676f87dba8a19bc29edf39","B2","batch2","","null","<p class=block-text>Trial 13 out of 78</p>","null","pattern_show_trial_num","","","","","","","","","","","","","","","","","","","","","","","","",""
"","","","","","image-keyboard-response","53","656031","0.0-2.0-5.0-1.12","61676f87dba8a19bc29edf39","B2","batch2","","881.4000000000233","stim/yes_15_dia_b1u_b.png","f","pattern_response","true","f","pattern_44","881.4000000000233","true","11","","","","","","","","","","","","","","","","","","",""
"","","","","","html-keyboard-response","54","657353","0.0-2.0-5.0-0.13","61676f87dba8a19bc29edf39","B2","batch2","","null","<p class=block-text>Trial 14 out of 78</p>","null","pattern_show_trial_num","","","","","","","","","","","","","","","","","","","","","","","","",""
"","","","","","image-keyboard-response","55","663367","0.0-2.0-5.0-1.13","61676f87dba8a19bc29edf39","B2","batch2","","6010","stim/yes_58_dia_w1_w.png","j","pattern_response","false","f","pattern_76","6010","false","11","","","","","","","","","","","","","","","","","","",""
"","","","","","html-keyboard-response","56","664681","0.0-2.0-5.0-0.14","61676f87dba8a19bc29edf39","B2","batch2","","null","<p class=block-text>Trial 15 out of 78</p>","null","pattern_show_trial_num","","","","","","","","","","","","","","","","","","","","","","","","",""
"","","","","","image-keyboard-response","57","669184","0.0-2.0-5.0-1.14","61676f87dba8a19bc29edf39","B2","batch2","","4500.600000000093","stim/no_53_1_b.png","j","pattern_response","true","j","pattern_33","4500.600000000093","true","12","","","","","","","","","","","","","","","","","","",""
"","","","","","html-keyboard-response","58","670498","0.0-2.0-5.0-0.15","61676f87dba8a19bc29edf39","B2","batch2","","null","<p class=block-text>Trial 16 out of 78</p>","null","pattern_show_trial_num","","","","","","","","","","","","","","","","","","","","","","","","",""
"","","","","","image-keyboard-response","59","673703","0.0-2.0-5.0-1.15","61676f87dba8a19bc29edf39","B2","batch2","","3200.4000000000233","stim/no_49_2_b.png","j","pattern_response","true","j","pattern_29","3200.4000000000233","true","13","","","","","","","","","","","","","","","","","","",""
"","","","","","html-keyboard-response","60","675030","0.0-2.0-5.0-0.16","61676f87dba8a19bc29edf39","B2","batch2","","null","<p class=block-text>Trial 17 out of 78</p>","null","pattern_show_trial_num","","","","","","","","","","","","","","","","","","","","","","","","",""
"","","","","","image-keyboard-response","61","676112","0.0-2.0-5.0-1.16","61676f87dba8a19bc29edf39","B2","batch2","","1076.3999999999069","stim/yes_29_hor_b1_b.png","f","pattern_response","true","f","pattern_52","1076.3999999999069","true","14","","","","","","","","","","","","","","","","","","",""
"","","","","","html-keyboard-response","62","677437","0.0-2.0-5.0-0.17","61676f87dba8a19bc29edf39","B2","batch2","","null","<p class=block-text>Trial 18 out of 78</p>","null","pattern_show_trial_num","","","","","","","","","","","","","","","","","","","","","","","","",""
"","","","","","image-keyboard-response","63","678639","0.0-2.0-5.0-1.17","61676f87dba8a19bc29edf39","B2","batch2","","1198.2000000000698","stim/no_18_1_b.png","j","pattern_response","true","j","pattern_05","1198.2000000000698","true","15","","","","","","","","","","","","","","","","","","",""
"","","","","","html-keyboard-response","64","679948","0.0-2.0-5.0-0.18","61676f87dba8a19bc29edf39","B2","batch2","","null","<p class=block-text>Trial 19 out of 78</p>","null","pattern_show_trial_num","","","","","","","","","","","","","","","","","","","","","","","","",""
"","","","","","image-keyboard-response","65","681688","0.0-2.0-5.0-1.18","61676f87dba8a19bc29edf39","B2","batch2","","1735.5","stim/yes_44_ver_w1_w.png","f","pattern_response","true","f","pattern_66","1735.5","true","16","","","","","","","","","","","","","","","","","","",""
"","","","","","html-keyboard-response","66","682998","0.0-2.0-5.0-0.19","61676f87dba8a19bc29edf39","B2","batch2","","null","<p class=block-text>Trial 20 out of 78</p>","null","pattern_show_trial_num","","","","","","","","","","","","","","","","","","","","","","","","",""
"","","","","","image-keyboard-response","67","683991","0.0-2.0-5.0-1.19","61676f87dba8a19bc29edf39","B2","batch2","","989","stim/yes_23_ver_b1.png","f","pattern_response","true","f","pattern_48","989","true","17","","","","","","","","","","","","","","","","","","",""
"","","","","","html-keyboard-response","68","685315","0.0-2.0-5.0-0.20","61676f87dba8a19bc29edf39","B2","batch2","","null","<p class=block-text>Trial 21 out of 78</p>","null","pattern_show_trial_num","","","","","","","","","","","","","","","","","","","","","","","","",""
"","","","","","image-keyboard-response","69","686432","0.0-2.0-5.0-1.20","61676f87dba8a19bc29edf39","B2","batch2","","1112.3000000000466","stim/yes_70_ver_b1.png","f","pattern_response","true","f","pattern_80","1112.3000000000466","true","18","","","","","","","","","","","","","","","","","","",""
"","","","","","html-keyboard-response","70","687753","0.0-2.0-5.0-0.21","61676f87dba8a19bc29edf39","B2","batch2","","null","<p class=block-text>Trial 22 out of 78</p>","null","pattern_show_trial_num","","","","","","","","","","","","","","","","","","","","","","","","",""
"","","","","","image-keyboard-response","71","690216","0.0-2.0-5.0-1.21","61676f87dba8a19bc29edf39","B2","batch2","","2458.5","stim/no_47_1_b.png","j","pattern_response","true","j","pattern_27","2458.5","true","19","","","","","","","","","","","","","","","","","","",""
"","","","","","html-keyboard-response","72","691532","0.0-2.0-5.0-0.22","61676f87dba8a19bc29edf39","B2","batch2","","null","<p class=block-text>Trial 23 out of 78</p>","null","pattern_show_trial_num","","","","","","","","","","","","","","","","","","","","","","","","",""
"","","","","","image-keyboard-response","73","693438","0.0-2.0-5.0-1.22","61676f87dba8a19bc29edf39","B2","batch2","","1902.3000000000466","stim/yes_53_ver_b1_b.png","f","pattern_response","true","f","pattern_74","1902.3000000000466","true","20","","","","","","","","","","","","","","","","","","",""
"","","","","","html-keyboard-response","74","694752","0.0-2.0-5.0-0.23","61676f87dba8a19bc29edf39","B2","batch2","","null","<p class=block-text>Trial 24 out of 78</p>","null","pattern_show_trial_num","","","","","","","","","","","","","","","","","","","","","","","","",""
"","","","","","image-keyboard-response","75","696863","0.0-2.0-5.0-1.23","61676f87dba8a19bc29edf39","B2","batch2","","2108.29999999993","stim/no_33_1_b.png","j","pattern_response","true","j","pattern_15","2108.29999999993","true","21","","","","","","","","","","","","","","","","","","",""
"","","","","","html-keyboard-response","76","698171","0.0-2.0-5.0-0.24","61676f87dba8a19bc29edf39","B2","batch2","","null","<p class=block-text>Trial 25 out of 78</p>","null","pattern_show_trial_num","","","","","","","","","","","","","","","","","","","","","","","","",""
"","","","","","image-keyboard-response","77","699359","0.0-2.0-5.0-1.24","61676f87dba8a19bc29edf39","B2","batch2","","1183.9000000000233","stim/yes_37_hor_w1_w.png","f","pattern_response","true","f","pattern_60","1183.9000000000233","true","22","","","","","","","","","","","","","","","","","","",""
"","","","","","html-keyboard-response","78","700669","0.0-2.0-5.0-0.25","61676f87dba8a19bc29edf39","B2","batch2","","null","<p class=block-text>Trial 26 out of 78</p>","null","pattern_show_trial_num","","","","","","","","","","","","","","","","","","","","","","","","",""
"","","","","","image-keyboard-response","79","703317","0.0-2.0-5.0-1.25","61676f87dba8a19bc29edf39","B2","batch2","","2644.6999999999534","stim/no_36_1_b.png","j","pattern_response","true","j","pattern_17","2644.6999999999534","true","23","","","","","","","","","","","","","","","","","","",""
"","","","","","html-keyboard-response","80","704640","0.0-2.0-5.0-0.26","61676f87dba8a19bc29edf39","B2","batch2","","null","<p class=block-text>Trial 27 out of 78</p>","null","pattern_show_trial_num","","","","","","","","","","","","","","","","","","","","","","","","",""
"","","","","","image-keyboard-response","81","705599","0.0-2.0-5.0-1.26","61676f87dba8a19bc29edf39","B2","batch2","","953.1999999999534","stim/yes_17_ver_b1_b.png","f","pattern_response","true","f","pattern_46","953.1999999999534","true","24","","","","","","","","","","","","","","","","","","",""
"","","","","","html-keyboard-response","82","706911","0.0-2.0-5.0-0.27","61676f87dba8a19bc29edf39","B2","batch2","","null","<p class=block-text>Trial 28 out of 78</p>","null","pattern_show_trial_num","","","","","","","","","","","","","","","","","","","","","","","","",""
"","","","","","image-keyboard-response","83","710016","0.0-2.0-5.0-1.27","61676f87dba8a19bc29edf39","B2","batch2","","3100.100000000093","stim/no_51_1.png","j","pattern_response","true","j","pattern_31","3100.100000000093","true","25","","","","","","","","","","","","","","","","","","",""
"","","","","","html-keyboard-response","84","711342","0.0-2.0-5.0-0.28","61676f87dba8a19bc29edf39","B2","batch2","","null","<p class=block-text>Trial 29 out of 78</p>","null","pattern_show_trial_num","","","","","","","","","","","","","","","","","","","","","","","","",""
"","","","","","image-keyboard-response","85","712263","0.0-2.0-5.0-1.28","61676f87dba8a19bc29edf39","B2","batch2","","916.4000000000233","stim/yes_36_ver_w1_w.png","f","pattern_response","true","f","pattern_58","916.4000000000233","true","26","","","","","","","","","","","","","","","","","","",""
"","","","","","html-keyboard-response","86","713584","0.0-2.0-5.0-0.29","61676f87dba8a19bc29edf39","B2","batch2","","null","<p class=block-text>Trial 30 out of 78</p>","null","pattern_show_trial_num","","","","","","","","","","","","","","","","","","","","","","","","",""
"","","","","","image-keyboard-response","87","714783","0.0-2.0-5.0-1.29","61676f87dba8a19bc29edf39","B2","batch2","","1195.5999999999767","stim/yes_33_dia_w1_w.png","f","pattern_response","true","f","pattern_56","1195.5999999999767","true","27","","","","","","","","","","","","","","","","","","",""
"","","","","","html-keyboard-response","88","716097","0.0-2.0-5.0-0.30","61676f87dba8a19bc29edf39","B2","batch2","","null","<p class=block-text>Trial 31 out of 78</p>","null","pattern_show_trial_num","","","","","","","","","","","","","","","","","","","","","","","","",""
"","","","","","image-keyboard-response","89","719562","0.0-2.0-5.0-1.30","61676f87dba8a19bc29edf39","B2","batch2","","3459.9000000000233","stim/no_37_2_w.png","j","pattern_response","true","j","pattern_19","3459.9000000000233","true","28","","","","","","","","","","","","","","","","","","",""
"","","","","","html-keyboard-response","90","720875","0.0-2.0-5.0-0.31","61676f87dba8a19bc29edf39","B2","batch2","","null","<p class=block-text>Trial 32 out of 78</p>","null","pattern_show_trial_num","","","","","","","","","","","","","","","","","","","","","","","","",""
"","","","","","image-keyboard-response","91","722759","0.0-2.0-5.0-1.31","61676f87dba8a19bc29edf39","B2","batch2","","1878.7999999999302","stim/no_25_1_b.png","j","pattern_response","true","j","pattern_09","1878.7999999999302","true","29","","","","","","","","","","","","","","","","","","",""
"","","","","","html-keyboard-response","92","724070","0.0-2.0-5.0-0.32","61676f87dba8a19bc29edf39","B2","batch2","","null","<p class=block-text>Trial 33 out of 78</p>","null","pattern_show_trial_num","","","","","","","","","","","","","","","","","","","","","","","","",""
"","","","","","image-keyboard-response","93","725863","0.0-2.0-5.0-1.32","61676f87dba8a19bc29edf39","B2","batch2","","1788.3999999999069","stim/yes_49_hor_w1_b.png","f","pattern_response","true","f","pattern_70","1788.3999999999069","true","30","","","","","","","","","","","","","","","","","","",""
"","","","","","html-keyboard-response","94","727185","0.0-2.0-5.0-0.33","61676f87dba8a19bc29edf39","B2","batch2","","null","<p class=block-text>Trial 34 out of 78</p>","null","pattern_show_trial_num","","","","","","","","","","","","","","","","","","","","","","","","",""
"","","","","","image-keyboard-response","95","729687","0.0-2.0-5.0-1.33","61676f87dba8a19bc29edf39","B2","batch2","","2497.1999999999534","stim/no_30_1_b.png","j","pattern_response","true","j","pattern_13","2497.1999999999534","true","31","","","","","","","","","","","","","","","","","","",""
"","","","","","html-keyboard-response","96","731014","0.0-2.0-5.0-0.34","61676f87dba8a19bc29edf39","B2","batch2","","null","<p class=block-text>Trial 35 out of 78</p>","null","pattern_show_trial_num","","","","","","","","","","","","","","","","","","","","","","","","",""
"","","","","","image-keyboard-response","97","731967","0.0-2.0-5.0-1.34","61676f87dba8a19bc29edf39","B2","batch2","","948.5","stim/yes_46_ver_b1_b.png","f","pattern_response","true","f","pattern_68","948.5","true","32","","","","","","","","","","","","","","","","","","",""
"","","","","","html-keyboard-response","98","733284","0.0-2.0-5.0-0.35","61676f87dba8a19bc29edf39","B2","batch2","","null","<p class=block-text>Trial 36 out of 78</p>","null","pattern_show_trial_num","","","","","","","","","","","","","","","","","","","","","","","","",""
"","","","","","image-keyboard-response","99","734630","0.0-2.0-5.0-1.35","61676f87dba8a19bc29edf39","B2","batch2","","1342.4000000000233","stim/yes_26_dia_w2_w.png","f","pattern_response","true","f","pattern_50","1342.4000000000233","true","33","","","","","","","","","","","","","","","","","","",""
"","","","","","html-keyboard-response","100","735953","0.0-2.0-5.0-0.36","61676f87dba8a19bc29edf39","B2","batch2","","null","<p class=block-text>Trial 37 out of 78</p>","null","pattern_show_trial_num","","","","","","","","","","","","","","","","","","","","","","","","",""
"","","","","","image-keyboard-response","101","736759","0.0-2.0-5.0-1.36","61676f87dba8a19bc29edf39","B2","batch2","","801.7999999999302","stim/yes_12_hor_w1_w.png","f","pattern_response","true","f","pattern_42","801.7999999999302","true","34","","","","","","","","","","","","","","","","","","",""
"","","","","","html-keyboard-response","102","738074","0.0-2.0-5.0-0.37","61676f87dba8a19bc29edf39","B2","batch2","","null","<p class=block-text>Trial 38 out of 78</p>","null","pattern_show_trial_num","","","","","","","","","","","","","","","","","","","","","","","","",""
"","","","","","image-keyboard-response","103","741693","0.0-2.0-5.0-1.37","61676f87dba8a19bc29edf39","B2","batch2","","3615.29999999993","stim/no_43_2_b.png","j","pattern_response","true","j","pattern_23","3615.29999999993","true","35","","","","","","","","","","","","","","","","","","",""
"","","","","","html-keyboard-response","104","743015","0.0-2.0-5.0-0.38","61676f87dba8a19bc29edf39","B2","batch2","","null","<p class=block-text>Trial 39 out of 78</p>","null","pattern_show_trial_num","","","","","","","","","","","","","","","","","","","","","","","","",""
"","","","","","image-keyboard-response","105","745135","0.0-2.0-5.0-1.38","61676f87dba8a19bc29edf39","B2","batch2","","2115.20000000007","stim/no_28_2.png","j","pattern_response","true","j","pattern_11","2115.20000000007","true","36","","","","","","","","","","","","","","","","","","",""
"","","","","","image-keyboard-response","106","748158","0.0-2.0-6.0","61676f87dba8a19bc29edf39","B2","batch2","","2515.79999999993","stim/empty_board.png","j","attention_check","true","j","","","","","500","[""f"",""j""]","","","","","","","","","","","","","","","","",""
"","","","","","html-keyboard-response","107","748972","0.0-2.0-7.0-0.0","61676f87dba8a19bc29edf39","B2","batch2","","null","<p class=block-text>Trial 40 out of 78</p>","null","pattern_show_trial_num","","","","","","","","","","","","","","","","","","","","","","","","",""
"","","","","","image-keyboard-response","108","753143","0.0-2.0-7.0-1.0","61676f87dba8a19bc29edf39","B2","batch2","","4166.29999999993","stim/no_36_2_w.png","j","pattern_response","true","j","pattern_18","4166.29999999993","true","37","","","","","","","","","","","","","","","","","","",""
"","","","","","html-keyboard-response","109","754465","0.0-2.0-7.0-0.1","61676f87dba8a19bc29edf39","B2","batch2","","null","<p class=block-text>Trial 41 out of 78</p>","null","pattern_show_trial_num","","","","","","","","","","","","","","","","","","","","","","","","",""
"","","","","","image-keyboard-response","110","756160","0.0-2.0-7.0-1.1","61676f87dba8a19bc29edf39","B2","batch2","","1689.8000000000466","stim/yes_60_ver_b1_b.png","f","pattern_response","true","f","pattern_77","1689.8000000000466","true","38","","","","","","","","","","","","","","","","","","",""
"","","","","","html-keyboard-response","111","757481","0.0-2.0-7.0-0.2","61676f87dba8a19bc29edf39","B2","batch2","","null","<p class=block-text>Trial 42 out of 78</p>","null","pattern_show_trial_num","","","","","","","","","","","","","","","","","","","","","","","","",""
"","","","","","image-keyboard-response","112","763239","0.0-2.0-7.0-1.2","61676f87dba8a19bc29edf39","B2","batch2","","5753.099999999977","stim/no_65_1_b.png","j","pattern_response","true","j","pattern_38","5753.099999999977","true","39","","","","","","","","","","","","","","","","","","",""
"","","","","","html-keyboard-response","113","764549","0.0-2.0-7.0-0.3","61676f87dba8a19bc29edf39","B2","batch2","","null","<p class=block-text>Trial 43 out of 78</p>","null","pattern_show_trial_num","","","","","","","","","","","","","","","","","","","","","","","","",""
"","","","","","image-keyboard-response","114","765503","0.0-2.0-7.0-1.3","61676f87dba8a19bc29edf39","B2","batch2","","949.7000000000698","stim/yes_28_ver_b1.png","f","pattern_response","true","f","pattern_51","949.7000000000698","true","40","","","","","","","","","","","","","","","","","","",""
"","","","","","html-keyboard-response","115","766815","0.0-2.0-7.0-0.4","61676f87dba8a19bc29edf39","B2","batch2","","null","<p class=block-text>Trial 44 out of 78</p>","null","pattern_show_trial_num","","","","","","","","","","","","","","","","","","","","","","","","",""
"","","","","","image-keyboard-response","116","768159","0.0-2.0-7.0-1.4","61676f87dba8a19bc29edf39","B2","batch2","","1340.1999999999534","stim/no_23_1.png","j","pattern_response","true","j","pattern_08","1340.1999999999534","true","41","","","","","","","","","","","","","","","","","","",""
"","","","","","html-keyboard-response","117","769471","0.0-2.0-7.0-0.5","61676f87dba8a19bc29edf39","B2","batch2","","null","<p class=block-text>Trial 45 out of 78</p>","null","pattern_show_trial_num","","","","","","","","","","","","","","","","","","","","","","","","",""
"","","","","","image-keyboard-response","118","771223","0.0-2.0-7.0-1.5","61676f87dba8a19bc29edf39","B2","batch2","","1747.5","stim/no_34_1_b.png","j","pattern_response","true","j","pattern_16","1747.5","true","42","","","","","","","","","","","","","","","","","","",""
"","","","","","html-keyboard-response","119","772550","0.0-2.0-7.0-0.6","61676f87dba8a19bc29edf39","B2","batch2","","null","<p class=block-text>Trial 46 out of 78</p>","null","pattern_show_trial_num","","","","","","","","","","","","","","","","","","","","","","","","",""
"","","","","","image-keyboard-response","120","775234","0.0-2.0-7.0-1.6","61676f87dba8a19bc29edf39","B2","batch2","","2676.5","stim/no_48_1_w.png","j","pattern_response","true","j","pattern_28","2676.5","true","43","","","","","","","","","","","","","","","","","","",""
"","","","","","html-keyboard-response","121","776541","0.0-2.0-7.0-0.7","61676f87dba8a19bc29edf39","B2","batch2","","null","<p class=block-text>Trial 47 out of 78</p>","null","pattern_show_trial_num","","","","","","","","","","","","","","","","","","","","","","","","",""
"","","","","","image-keyboard-response","122","777839","0.0-2.0-7.0-1.7","61676f87dba8a19bc29edf39","B2","batch2","","1292.2000000000698","stim/yes_35_dia_b1.png","f","pattern_response","true","f","pattern_57","1292.2000000000698","true","44","","","","","","","","","","","","","","","","","","",""
"","","","","","html-keyboard-response","123","779152","0.0-2.0-7.0-0.8","61676f87dba8a19bc29edf39","B2","batch2","","null","<p class=block-text>Trial 48 out of 78</p>","null","pattern_show_trial_num","","","","","","","","","","","","","","","","","","","","","","","","",""
"","","","","","image-keyboard-response","124","779943","0.0-2.0-7.0-1.8","61676f87dba8a19bc29edf39","B2","batch2","","784.5","stim/yes_25_hor_b1_b.png","f","pattern_response","true","f","pattern_49","784.5","true","45","","","","","","","","","","","","","","","","","","",""
"","","","","","html-keyboard-response","125","781264","0.0-2.0-7.0-0.9","61676f87dba8a19bc29edf39","B2","batch2","","null","<p class=block-text>Trial 49 out of 78</p>","null","pattern_show_trial_num","","","","","","","","","","","","","","","","","","","","","","","","",""
"","","","","","image-keyboard-response","126","786595","0.0-2.0-7.0-1.9","61676f87dba8a19bc29edf39","B2","batch2","","5328.099999999977","stim/no_70_2.png","j","pattern_response","true","j","pattern_40","5328.099999999977","true","46","","","","","","","","","","","","","","","","","","",""
"","","","","","html-keyboard-response","127","787907","0.0-2.0-7.0-0.10","61676f87dba8a19bc29edf39","B2","batch2","","null","<p class=block-text>Trial 50 out of 78</p>","null","pattern_show_trial_num","","","","","","","","","","","","","","","","","","","","","","","","",""
"","","","","","image-keyboard-response","128","790037","0.0-2.0-7.0-1.10","61676f87dba8a19bc29edf39","B2","batch2","","2125.5","stim/yes_40_dia_b1_b.png","j","pattern_response","false","f","pattern_63","2125.5","false","46","","","","","","","","","","","","","","","","","","",""
"","","","","","html-keyboard-response","129","791353","0.0-2.0-7.0-0.11","61676f87dba8a19bc29edf39","B2","batch2","","null","<p class=block-text>Trial 51 out of 78</p>","null","pattern_show_trial_num","","","","","","","","","","","","","","","","","","","","","","","","",""
"","","","","","image-keyboard-response","130","793439","0.0-2.0-7.0-1.11","61676f87dba8a19bc29edf39","B2","batch2","","2080.6999999999534","stim/yes_48_dia_w1_w.png","j","pattern_response","false","f","pattern_69","2080.6999999999534","false","46","","","","","","","","","","","","","","","","","","",""
"","","","","","html-keyboard-response","131","794758","0.0-2.0-7.0-0.12","61676f87dba8a19bc29edf39","B2","batch2","","null","<p class=block-text>Trial 52 out of 78</p>","null","pattern_show_trial_num","","","","","","","","","","","","","","","","","","","","","","","","",""
"","","","","","image-keyboard-response","132","796471","0.0-2.0-7.0-1.12","61676f87dba8a19bc29edf39","B2","batch2","","1709.2999999999302","stim/no_44_1.png","j","pattern_response","true","j","pattern_24","1709.2999999999302","true","47","","","","","","","","","","","","","","","","","","",""
"","","","","","html-keyboard-response","133","797788","0.0-2.0-7.0-0.13","61676f87dba8a19bc29edf39","B2","batch2","","null","<p class=block-text>Trial 53 out of 78</p>","null","pattern_show_trial_num","","","","","","","","","","","","","","","","","","","","","","","","",""
"","","","","","image-keyboard-response","134","798917","0.0-2.0-7.0-1.13","61676f87dba8a19bc29edf39","B2","batch2","","1123","stim/yes_43_ver_w1_w.png","f","pattern_response","true","f","pattern_65","1123","true","48","","","","","","","","","","","","","","","","","","",""
"","","","","","html-keyboard-response","135","800232","0.0-2.0-7.0-0.14","61676f87dba8a19bc29edf39","B2","batch2","","null","<p class=block-text>Trial 54 out of 78</p>","null","pattern_show_trial_num","","","","","","","","","","","","","","","","","","","","","","","","",""
"","","","","","image-keyboard-response","136","802004","0.0-2.0-7.0-1.14","61676f87dba8a19bc29edf39","B2","batch2","","1769.5","stim/yes_38_hor_b1_b.png","f","pattern_response","true","f","pattern_61","1769.5","true","49","","","","","","","","","","","","","","","","","","",""
"","","","","","html-keyboard-response","137","803321","0.0-2.0-7.0-0.15","61676f87dba8a19bc29edf39","B2","batch2","","null","<p class=block-text>Trial 55 out of 78</p>","null","pattern_show_trial_num","","","","","","","","","","","","","","","","","","","","","","","","",""
"","","","","","image-keyboard-response","138","804095","0.0-2.0-7.0-1.15","61676f87dba8a19bc29edf39","B2","batch2","","768.2000000000698","stim/yes_14_hor_b1_w.png","f","pattern_response","true","f","pattern_43","768.2000000000698","true","50","","","","","","","","","","","","","","","","","","",""
"","","","","","html-keyboard-response","139","805420","0.0-2.0-7.0-0.16","61676f87dba8a19bc29edf39","B2","batch2","","null","<p class=block-text>Trial 56 out of 78</p>","null","pattern_show_trial_num","","","","","","","","","","","","","","","","","","","","","","","","",""
"","","","","","image-keyboard-response","140","806591","0.0-2.0-7.0-1.16","61676f87dba8a19bc29edf39","B2","batch2","","1166.7000000000698","stim/yes_17_dia_w1.png","f","pattern_response","true","f","pattern_45","1166.7000000000698","true","51","","","","","","","","","","","","","","","","","","",""
"","","","","","html-keyboard-response","141","807908","0.0-2.0-7.0-0.17","61676f87dba8a19bc29edf39","B2","batch2","","null","<p class=block-text>Trial 57 out of 78</p>","null","pattern_show_trial_num","","","","","","","","","","","","","","","","","","","","","","","","",""
"","","","","","image-keyboard-response","142","808695","0.0-2.0-7.0-1.17","61676f87dba8a19bc29edf39","B2","batch2","","783.2999999999302","stim/no_13_2_b.png","j","pattern_response","true","j","pattern_02","783.2999999999302","true","52","","","","","","","","","","","","","","","","","","",""
"","","","","","html-keyboard-response","143","810006","0.0-2.0-7.0-0.18","61676f87dba8a19bc29edf39","B2","batch2","","null","<p class=block-text>Trial 58 out of 78</p>","null","pattern_show_trial_num","","","","","","","","","","","","","","","","","","","","","","","","",""
"","","","","","image-keyboard-response","144","812057","0.0-2.0-7.0-1.18","61676f87dba8a19bc29edf39","B2","batch2","","2047.5","stim/yes_31_hor_b1.png","f","pattern_response","true","f","pattern_55","2047.5","true","53","","","","","","","","","","","","","","","","","","",""
"","","","","","html-keyboard-response","145","813376","0.0-2.0-7.0-0.19","61676f87dba8a19bc29edf39","B2","batch2","","null","<p class=block-text>Trial 59 out of 78</p>","null","pattern_show_trial_num","","","","","","","","","","","","","","","","","","","","","","","","",""
"","","","","","image-keyboard-response","146","818344","0.0-2.0-7.0-1.19","61676f87dba8a19bc29edf39","B2","batch2","","4962.20000000007","stim/no_50_1.png","j","pattern_response","true","j","pattern_30","4962.20000000007","true","54","","","","","","","","","","","","","","","","","","",""
"","","","","","html-keyboard-response","147","819664","0.0-2.0-7.0-0.20","61676f87dba8a19bc29edf39","B2","batch2","","null","<p class=block-text>Trial 60 out of 78</p>","null","pattern_show_trial_num","","","","","","","","","","","","","","","","","","","","","","","","",""
"","","","","","image-keyboard-response","148","828511","0.0-2.0-7.0-1.20","61676f87dba8a19bc29edf39","B2","batch2","","8843.400000000023","stim/no_62_1_w.png","j","pattern_response","true","j","pattern_36","8843.400000000023","true","55","","","","","","","","","","","","","","","","","","",""
"","","","","","html-keyboard-response","149","829834","0.0-2.0-7.0-0.21","61676f87dba8a19bc29edf39","B2","batch2","","null","<p class=block-text>Trial 61 out of 78</p>","null","pattern_show_trial_num","","","","","","","","","","","","","","","","","","","","","","","","",""
"","","","","","image-keyboard-response","150","832831","0.0-2.0-7.0-1.21","61676f87dba8a19bc29edf39","B2","batch2","","2991.79999999993","stim/no_38_1_b.png","j","pattern_response","true","j","pattern_20","2991.79999999993","true","56","","","","","","","","","","","","","","","","","","",""
"","","","","","html-keyboard-response","151","834144","0.0-2.0-7.0-0.22","61676f87dba8a19bc29edf39","B2","batch2","","null","<p class=block-text>Trial 62 out of 78</p>","null","pattern_show_trial_num","","","","","","","","","","","","","","","","","","","","","","","","",""
"","","","","","image-keyboard-response","152","838302","0.0-2.0-7.0-1.22","61676f87dba8a19bc29edf39","B2","batch2","","4153.400000000023","stim/no_46_1_b.png","j","pattern_response","true","j","pattern_26","4153.400000000023","true","57","","","","","","","","","","","","","","","","","","",""
"","","","","","html-keyboard-response","153","839614","0.0-2.0-7.0-0.23","61676f87dba8a19bc29edf39","B2","batch2","","null","<p class=block-text>Trial 63 out of 78</p>","null","pattern_show_trial_num","","","","","","","","","","","","","","","","","","","","","","","","",""
"","","","","","image-keyboard-response","154","842700","0.0-2.0-7.0-1.23","61676f87dba8a19bc29edf39","B2","batch2","","3082","stim/no_55_1_w.png","j","pattern_response","true","j","pattern_34","3082","true","58","","","","","","","","","","","","","","","","","","",""
"","","","","","html-keyboard-response","155","844011","0.0-2.0-7.0-0.24","61676f87dba8a19bc29edf39","B2","batch2","","null","<p class=block-text>Trial 64 out of 78</p>","null","pattern_show_trial_num","","","","","","","","","","","","","","","","","","","","","","","","",""
"","","","","","image-keyboard-response","156","845031","0.0-2.0-7.0-1.24","61676f87dba8a19bc29edf39","B2","batch2","","1014.7000000000698","stim/yes_22_ver_w1.png","f","pattern_response","true","f","pattern_47","1014.7000000000698","true","59","","","","","","","","","","","","","","","","","","",""
"","","","","","html-keyboard-response","157","846348","0.0-2.0-7.0-0.25","61676f87dba8a19bc29edf39","B2","batch2","","null","<p class=block-text>Trial 65 out of 78</p>","null","pattern_show_trial_num","","","","","","","","","","","","","","","","","","","","","","","","",""
"","","","","","image-keyboard-response","158","847495","0.0-2.0-7.0-1.25","61676f87dba8a19bc29edf39","B2","batch2","","1142.8000000000466","stim/yes_29_ver_w1.png","f","pattern_response","true","f","pattern_53","1142.8000000000466","true","60","","","","","","","","","","","","","","","","","","",""
"","","","","","html-keyboard-response","159","848810","0.0-2.0-7.0-0.26","61676f87dba8a19bc29edf39","B2","batch2","","null","<p class=block-text>Trial 66 out of 78</p>","null","pattern_show_trial_num","","","","","","","","","","","","","","","","","","","","","","","","",""
"","","","","","image-keyboard-response","160","850111","0.0-2.0-7.0-1.26","61676f87dba8a19bc29edf39","B2","batch2","","1296.6999999999534","stim/no_20_1_w.png","j","pattern_response","true","j","pattern_06","1296.6999999999534","true","61","","","","","","","","","","","","","","","","","","",""
"","","","","","html-keyboard-response","161","851424","0.0-2.0-7.0-0.27","61676f87dba8a19bc29edf39","B2","batch2","","null","<p class=block-text>Trial 67 out of 78</p>","null","pattern_show_trial_num","","","","","","","","","","","","","","","","","","","","","","","","",""
"","","","","","image-keyboard-response","162","852629","0.0-2.0-7.0-1.27","61676f87dba8a19bc29edf39","B2","batch2","","1200.7000000000698","stim/yes_55_hor_w1_w.png","f","pattern_response","true","f","pattern_75","1200.7000000000698","true","62","","","","","","","","","","","","","","","","","","",""
"","","","","","html-keyboard-response","163","853933","0.0-2.0-7.0-0.28","61676f87dba8a19bc29edf39","B2","batch2","","null","<p class=block-text>Trial 68 out of 78</p>","null","pattern_show_trial_num","","","","","","","","","","","","","","","","","","","","","","","","",""
"","","","","","image-keyboard-response","164","856326","0.0-2.0-7.0-1.28","61676f87dba8a19bc29edf39","B2","batch2","","2389.399999999907","stim/yes_67_hor_b1.png","f","pattern_response","true","f","pattern_79","2389.399999999907","true","63","","","","","","","","","","","","","","","","","","",""
"","","","","","html-keyboard-response","165","857648","0.0-2.0-7.0-0.29","61676f87dba8a19bc29edf39","B2","batch2","","null","<p class=block-text>Trial 69 out of 78</p>","null","pattern_show_trial_num","","","","","","","","","","","","","","","","","","","","","","","","",""
"","","","","","image-keyboard-response","166","861399","0.0-2.0-7.0-1.29","61676f87dba8a19bc29edf39","B2","batch2","","3748.3000000000466","stim/no_42_1_w.png","j","pattern_response","true","j","pattern_22","3748.3000000000466","true","64","","","","","","","","","","","","","","","","","","",""
"","","","","","html-keyboard-response","167","862715","0.0-2.0-7.0-0.30","61676f87dba8a19bc29edf39","B2","batch2","","null","<p class=block-text>Trial 70 out of 78</p>","null","pattern_show_trial_num","","","","","","","","","","","","","","","","","","","","","","","","",""
"","","","","","image-keyboard-response","168","863799","0.0-2.0-7.0-1.30","61676f87dba8a19bc29edf39","B2","batch2","","1080","stim/no_17_1_w.png","j","pattern_response","true","j","pattern_04","1080","true","65","","","","","","","","","","","","","","","","","","",""
"","","","","","html-keyboard-response","169","865116","0.0-2.0-7.0-0.31","61676f87dba8a19bc29edf39","B2","batch2","","null","<p class=block-text>Trial 71 out of 78</p>","null","pattern_show_trial_num","","","","","","","","","","","","","","","","","","","","","","","","",""
"","","","","","image-keyboard-response","170","870855","0.0-2.0-7.0-1.31","61676f87dba8a19bc29edf39","B2","batch2","","5735.5","stim/yes_37_dia_w1.png","j","pattern_response","false","f","pattern_59","5735.5","false","65","","","","","","","","","","","","","","","","","","",""
"","","","","","html-keyboard-response","171","872169","0.0-2.0-7.0-0.32","61676f87dba8a19bc29edf39","B2","batch2","","null","<p class=block-text>Trial 72 out of 78</p>","null","pattern_show_trial_num","","","","","","","","","","","","","","","","","","","","","","","","",""
"","","","","","image-keyboard-response","172","875383","0.0-2.0-7.0-1.32","61676f87dba8a19bc29edf39","B2","batch2","","3208.6999999999534","stim/no_32_1_w.png","j","pattern_response","true","j","pattern_14","3208.6999999999534","true","66","","","","","","","","","","","","","","","","","","",""
"","","","","","html-keyboard-response","173","876703","0.0-2.0-7.0-0.33","61676f87dba8a19bc29edf39","B2","batch2","","null","<p class=block-text>Trial 73 out of 78</p>","null","pattern_show_trial_num","","","","","","","","","","","","","","","","","","","","","","","","",""
"","","","","","image-keyboard-response","174","879879","0.0-2.0-7.0-1.33","61676f87dba8a19bc29edf39","B2","batch2","","3170.9000000000233","stim/yes_50_dia_w1.png","f","pattern_response","true","f","pattern_71","3170.9000000000233","true","67","","","","","","","","","","","","","","","","","","",""
"","","","","","html-keyboard-response","175","881193","0.0-2.0-7.0-0.34","61676f87dba8a19bc29edf39","B2","batch2","","null","<p class=block-text>Trial 74 out of 78</p>","null","pattern_show_trial_num","","","","","","","","","","","","","","","","","","","","","","","","",""
"","","","","","image-keyboard-response","176","882855","0.0-2.0-7.0-1.34","61676f87dba8a19bc29edf39","B2","batch2","","1656.8000000000466","stim/yes_52_ver_w1.png","f","pattern_response","true","f","pattern_73","1656.8000000000466","true","68","","","","","","","","","","","","","","","","","","",""
"","","","","","html-keyboard-response","177","884170","0.0-2.0-7.0-0.35","61676f87dba8a19bc29edf39","B2","batch2","","null","<p class=block-text>Trial 75 out of 78</p>","null","pattern_show_trial_num","","","","","","","","","","","","","","","","","","","","","","","","",""
"","","","","","image-keyboard-response","178","885681","0.0-2.0-7.0-1.35","61676f87dba8a19bc29edf39","B2","batch2","","1505.3999999999069","stim/yes_45_hor_b2_b.png","f","pattern_response","true","f","pattern_67","1505.3999999999069","true","69","","","","","","","","","","","","","","","","","","",""
"","","","","","html-keyboard-response","179","887002","0.0-2.0-7.0-0.36","61676f87dba8a19bc29edf39","B2","batch2","","null","<p class=block-text>Trial 76 out of 78</p>","null","pattern_show_trial_num","","","","","","","","","","","","","","","","","","","","","","","","",""
"","","","","","image-keyboard-response","180","888311","0.0-2.0-7.0-1.36","61676f87dba8a19bc29edf39","B2","batch2","","1305.4000000000233","stim/no_29_1_b.png","j","pattern_response","true","j","pattern_12","1305.4000000000233","true","70","","","","","","","","","","","","","","","","","","",""
"","","","","","html-keyboard-response","181","889632","0.0-2.0-7.0-0.37","61676f87dba8a19bc29edf39","B2","batch2","","null","<p class=block-text>Trial 77 out of 78</p>","null","pattern_show_trial_num","","","","","","","","","","","","","","","","","","","","","","","","",""
"","","","","","image-keyboard-response","182","892055","0.0-2.0-7.0-1.37","61676f87dba8a19bc29edf39","B2","batch2","","2417.1999999999534","stim/no_52_1.png","j","pattern_response","true","j","pattern_32","2417.1999999999534","true","71","","","","","","","","","","","","","","","","","","",""
"","","","","","html-keyboard-response","183","893369","0.0-2.0-7.0-0.38","61676f87dba8a19bc29edf39","B2","batch2","","null","<p class=block-text>Trial 78 out of 78</p>","null","pattern_show_trial_num","","","","","","","","","","","","","","","","","","","","","","","","",""
"","","","","","image-keyboard-response","184","895606","0.0-2.0-7.0-1.38","61676f87dba8a19bc29edf39","B2","batch2","","2233.79999999993","stim/no_26_1_w.png","j","pattern_response","true","j","pattern_10","2233.79999999993","true","72","","","","","","","","","","","","","","","","","","",""
"","","","","","html-button-response","185","1010094","0.0-2.0-8.0","61676f87dba8a19bc29edf39","B2","batch2","","113970.80000000005","<p class = block-text>This concludes the 4-in-a-row detection game.Thank you for your responses!<br>
            You responded correctly on 92% of the trials.<br>
            When you are ready, press ""Continue"" button to continue </p>","0","","","","","","","","","","","","","","","","","","","","","","","","","",""
"true","","","","","fullscreen","186","1014329","0.0-3.0-0.0","61676f87dba8a19bc29edf39","B2","batch2","","","","","spm_fullscreen","","","","","","","","","","","","","","","","","","","","","","","","",""
"","","","","","html-button-response","187","1022798","0.0-3.0-1.0","61676f87dba8a19bc29edf39","B2","batch2","","8465.300000000047","<p class = block-text><b>Instructions</b> <br>This is a widely used intelligence test in research. <br>In this test, a figure with a missing piece will be presented.<br>Below the figure are alternative pieces to complete the figure, only one of which is correct.<br> Different figures might involve different principles for obtaining the missing piece<br>Your job is to select the most logical piece to complete the figure.</p>","0","","","","","","","","","","","","","","","","","","","","","","","","","",""
"","","","","","html-keyboard-response","188","1023614","0.0-3.0-2.0-0.0","61676f87dba8a19bc29edf39","B2","batch2","","null","<p class=block-text>Trial 1 out of 60</p>","null","spm_show_trial_num","","","","","","","","","","","","","","","","","","","","","","","","",""
"","","","","","image-button-response","189","1029758","0.0-3.0-2.0-1.0","61676f87dba8a19bc29edf39","B2","batch2","","6137.600000000093","img/question_1_1.jpeg","3","spm_respsonse","1","4","mat_01","","","","","","1","6137.600000000093","","","","","","","","","","","","","","",""
"","","","","","html-keyboard-response","190","1030811","0.0-3.0-2.0-0.1","61676f87dba8a19bc29edf39","B2","batch2","","null","<p class=block-text>Trial 2 out of 60</p>","null","spm_show_trial_num","","","","","","","","","","","","","","","","","","","","","","","","",""
"","","","","","image-button-response","191","1033687","0.0-3.0-2.0-1.1","61676f87dba8a19bc29edf39","B2","batch2","","2870.5","img/question_1_2.jpeg","4","spm_respsonse","1","5","mat_02","","","","","","1","2870.5","","","","","","","","","","","","","","",""
"","","","","","html-keyboard-response","192","1034742","0.0-3.0-2.0-0.2","61676f87dba8a19bc29edf39","B2","batch2","","null","<p class=block-text>Trial 3 out of 60</p>","null","spm_show_trial_num","","","","","","","","","","","","","","","","","","","","","","","","",""
"","","","","","image-button-response","193","1038222","0.0-3.0-2.0-1.2","61676f87dba8a19bc29edf39","B2","batch2","","3475.6999999999534","img/question_1_3.jpeg","0","spm_respsonse","1","1","mat_03","","","","","","1","3475.6999999999534","","","","","","","","","","","","","","",""
"","","","","","html-keyboard-response","194","1039289","0.0-3.0-2.0-0.3","61676f87dba8a19bc29edf39","B2","batch2","","null","<p class=block-text>Trial 4 out of 60</p>","null","spm_show_trial_num","","","","","","","","","","","","","","","","","","","","","","","","",""
"","","","","","image-button-response","195","1041662","0.0-3.0-2.0-1.3","61676f87dba8a19bc29edf39","B2","batch2","","2367.5","img/question_1_4.jpeg","1","spm_respsonse","1","2","mat_04","","","","","","1","2367.5","","","","","","","","","","","","","","",""
"","","","","","html-keyboard-response","196","1042725","0.0-3.0-2.0-0.4","61676f87dba8a19bc29edf39","B2","batch2","","null","<p class=block-text>Trial 5 out of 60</p>","null","spm_show_trial_num","","","","","","","","","","","","","","","","","","","","","","","","",""
"","","","","","image-button-response","197","1049616","0.0-3.0-2.0-1.4","61676f87dba8a19bc29edf39","B2","batch2","","6886.89999999979","img/question_1_5.jpeg","5","spm_respsonse","1","6","mat_05","","","","","","1","6886.89999999979","","","","","","","","","","","","","","",""
"","","","","","html-keyboard-response","198","1050678","0.0-3.0-2.0-0.5","61676f87dba8a19bc29edf39","B2","batch2","","null","<p class=block-text>Trial 6 out of 60</p>","null","spm_show_trial_num","","","","","","","","","","","","","","","","","","","","","","","","",""
"","","","","","image-button-response","199","1055478","0.0-3.0-2.0-1.5","61676f87dba8a19bc29edf39","B2","batch2","","4793.200000000186","img/question_1_6.jpeg","2","spm_respsonse","1","3","mat_06","","","","","","1","4793.200000000186","","","","","","","","","","","","","","",""
"","","","","","html-keyboard-response","200","1056536","0.0-3.0-2.0-0.6","61676f87dba8a19bc29edf39","B2","batch2","","null","<p class=block-text>Trial 7 out of 60</p>","null","spm_show_trial_num","","","","","","","","","","","","","","","","","","","","","","","","",""
"","","","","","image-button-response","201","1063846","0.0-3.0-2.0-1.6","61676f87dba8a19bc29edf39","B2","batch2","","7304.09999999986","img/question_1_7.jpeg","5","spm_respsonse","1","6","mat_07","","","","","","1","7304.09999999986","","","","","","","","","","","","","","",""
"","","","","","html-keyboard-response","202","1064902","0.0-3.0-2.0-0.7","61676f87dba8a19bc29edf39","B2","batch2","","null","<p class=block-text>Trial 8 out of 60</p>","null","spm_show_trial_num","","","","","","","","","","","","","","","","","","","","","","","","",""
"","","","","","image-button-response","203","1071214","0.0-3.0-2.0-1.7","61676f87dba8a19bc29edf39","B2","batch2","","6307.399999999907","img/question_1_8.jpeg","1","spm_respsonse","1","2","mat_08","","","","","","1","6307.399999999907","","","","","","","","","","","","","","",""
"","","","","","html-keyboard-response","204","1072277","0.0-3.0-2.0-0.8","61676f87dba8a19bc29edf39","B2","batch2","","null","<p class=block-text>Trial 9 out of 60</p>","null","spm_show_trial_num","","","","","","","","","","","","","","","","","","","","","","","","",""
"","","","","","image-button-response","205","1077126","0.0-3.0-2.0-1.8","61676f87dba8a19bc29edf39","B2","batch2","","4843.399999999907","img/question_1_9.jpeg","0","spm_respsonse","1","1","mat_09","","","","","","1","4843.399999999907","","","","","","","","","","","","","","",""
"","","","","","html-keyboard-response","206","1078180","0.0-3.0-2.0-0.9","61676f87dba8a19bc29edf39","B2","batch2","","null","<p class=block-text>Trial 10 out of 60</p>","null","spm_show_trial_num","","","","","","","","","","","","","","","","","","","","","","","","",""
"","","","","","image-button-response","207","1084399","0.0-3.0-2.0-1.9","61676f87dba8a19bc29edf39","B2","batch2","","6212.600000000093","img/question_1_10.jpeg","2","spm_respsonse","1","3","mat_10","","","","","","1","6212.600000000093","","","","","","","","","","","","","","",""
"","","","","","html-keyboard-response","208","1085461","0.0-3.0-2.0-0.10","61676f87dba8a19bc29edf39","B2","batch2","","null","<p class=block-text>Trial 11 out of 60</p>","null","spm_show_trial_num","","","","","","","","","","","","","","","","","","","","","","","","",""
"","","","","","image-button-response","209","1104854","0.0-3.0-2.0-1.10","61676f87dba8a19bc29edf39","B2","batch2","","19388.300000000047","img/question_1_11.jpeg","4","spm_respsonse","0","4","mat_11","","","","","","0","19388.300000000047","","","","","","","","","","","","","","",""
"","","","","","html-keyboard-response","210","1105912","0.0-3.0-2.0-0.11","61676f87dba8a19bc29edf39","B2","batch2","","null","<p class=block-text>Trial 12 out of 60</p>","null","spm_show_trial_num","","","","","","","","","","","","","","","","","","","","","","","","",""
"","","","","","image-button-response","211","1128463","0.0-3.0-2.0-1.11","61676f87dba8a19bc29edf39","B2","batch2","","22546.5","img/question_1_12.jpeg","5","spm_respsonse","0","5","mat_12","","","","","","0","22546.5","","","","","","","","","","","","","","",""
"","","","","","html-keyboard-response","212","1129515","0.0-3.0-2.0-0.12","61676f87dba8a19bc29edf39","B2","batch2","","null","<p class=block-text>Trial 13 out of 60</p>","null","spm_show_trial_num","","","","","","","","","","","","","","","","","","","","","","","","",""
"","","","","","image-button-response","213","1133046","0.0-3.0-2.0-1.12","61676f87dba8a19bc29edf39","B2","batch2","","3528.899999999907","img/question_2_1.jpeg","1","spm_respsonse","1","2","mat_13","","","","","","1","3528.899999999907","","","","","","","","","","","","","","",""
"","","","","","html-keyboard-response","214","1134111","0.0-3.0-2.0-0.13","61676f87dba8a19bc29edf39","B2","batch2","","null","<p class=block-text>Trial 14 out of 60</p>","null","spm_show_trial_num","","","","","","","","","","","","","","","","","","","","","","","","",""
"","","","","","image-button-response","215","1139550","0.0-3.0-2.0-1.13","61676f87dba8a19bc29edf39","B2","batch2","","5434.300000000047","img/question_2_2.jpeg","5","spm_respsonse","1","6","mat_14","","","","","","1","5434.300000000047","","","","","","","","","","","","","","",""
"","","","","","html-keyboard-response","216","1140603","0.0-3.0-2.0-0.14","61676f87dba8a19bc29edf39","B2","batch2","","null","<p class=block-text>Trial 15 out of 60</p>","null","spm_show_trial_num","","","","","","","","","","","","","","","","","","","","","","","","",""
"","","","","","image-button-response","217","1144623","0.0-3.0-2.0-1.14","61676f87dba8a19bc29edf39","B2","batch2","","4017.3000000000466","img/question_2_3.jpeg","0","spm_respsonse","1","1","mat_15","","","","","","1","4017.3000000000466","","","","","","","","","","","","","","",""
"","","","","","html-keyboard-response","218","1145680","0.0-3.0-2.0-0.15","61676f87dba8a19bc29edf39","B2","batch2","","null","<p class=block-text>Trial 16 out of 60</p>","null","spm_show_trial_num","","","","","","","","","","","","","","","","","","","","","","","","",""
"","","","","","image-button-response","219","1152182","0.0-3.0-2.0-1.15","61676f87dba8a19bc29edf39","B2","batch2","","6497.100000000093","img/question_2_4.jpeg","1","spm_respsonse","1","2","mat_16","","","","","","1","6497.100000000093","","","","","","","","","","","","","","",""
"","","","","","html-keyboard-response","220","1153252","0.0-3.0-2.0-0.16","61676f87dba8a19bc29edf39","B2","batch2","","null","<p class=block-text>Trial 17 out of 60</p>","null","spm_show_trial_num","","","","","","","","","","","","","","","","","","","","","","","","",""
"","","","","","image-button-response","221","1158255","0.0-3.0-2.0-1.16","61676f87dba8a19bc29edf39","B2","batch2","","4999.5","img/question_2_5.jpeg","0","spm_respsonse","1","1","mat_17","","","","","","1","4999.5","","","","","","","","","","","","","","",""
"","","","","","html-keyboard-response","222","1159322","0.0-3.0-2.0-0.17","61676f87dba8a19bc29edf39","B2","batch2","","null","<p class=block-text>Trial 18 out of 60</p>","null","spm_show_trial_num","","","","","","","","","","","","","","","","","","","","","","","","",""
"","","","","","image-button-response","223","1172910","0.0-3.0-2.0-1.17","61676f87dba8a19bc29edf39","B2","batch2","","13581.799999999814","img/question_2_6.jpeg","3","spm_respsonse","0","3","mat_18","","","","","","0","13581.799999999814","","","","","","","","","","","","","","",""
"","","","","","html-keyboard-response","224","1173963","0.0-3.0-2.0-0.18","61676f87dba8a19bc29edf39","B2","batch2","","null","<p class=block-text>Trial 19 out of 60</p>","null","spm_show_trial_num","","","","","","","","","","","","","","","","","","","","","","","","",""
"","","","","","image-button-response","225","1214325","0.0-3.0-2.0-1.18","61676f87dba8a19bc29edf39","B2","batch2","","40359.69999999995","img/question_2_7.jpeg","4","spm_respsonse","1","5","mat_19","","","","","","1","40359.69999999995","","","","","","","","","","","","","","",""
"","","","","","html-keyboard-response","226","1215378","0.0-3.0-2.0-0.19","61676f87dba8a19bc29edf39","B2","batch2","","null","<p class=block-text>Trial 20 out of 60</p>","null","spm_show_trial_num","","","","","","","","","","","","","","","","","","","","","","","","",""
"","","","","","image-button-response","227","1223861","0.0-3.0-2.0-1.19","61676f87dba8a19bc29edf39","B2","batch2","","8480.699999999953","img/question_2_8.jpeg","4","spm_respsonse","0","6","mat_20","","","","","","0","8480.699999999953","","","","","","","","","","","","","","",""
"","","","","","html-keyboard-response","228","1224915","0.0-3.0-2.0-0.20","61676f87dba8a19bc29edf39","B2","batch2","","null","<p class=block-text>Trial 21 out of 60</p>","null","spm_show_trial_num","","","","","","","","","","","","","","","","","","","","","","","","",""
"","","","","","image-button-response","229","1230670","0.0-3.0-2.0-1.20","61676f87dba8a19bc29edf39","B2","batch2","","5749.699999999953","img/question_2_9.jpeg","3","spm_respsonse","1","4","mat_21","","","","","","1","5749.699999999953","","","","","","","","","","","","","","",""
"","","","","","html-keyboard-response","230","1231740","0.0-3.0-2.0-0.21","61676f87dba8a19bc29edf39","B2","batch2","","null","<p class=block-text>Trial 22 out of 60</p>","null","spm_show_trial_num","","","","","","","","","","","","","","","","","","","","","","","","",""
"","","","","","image-button-response","231","1238741","0.0-3.0-2.0-1.21","61676f87dba8a19bc29edf39","B2","batch2","","6996.300000000047","img/question_2_10.jpeg","2","spm_respsonse","1","3","mat_22","","","","","","1","6996.300000000047","","","","","","","","","","","","","","",""
"","","","","","html-keyboard-response","232","1239807","0.0-3.0-2.0-0.22","61676f87dba8a19bc29edf39","B2","batch2","","null","<p class=block-text>Trial 23 out of 60</p>","null","spm_show_trial_num","","","","","","","","","","","","","","","","","","","","","","","","",""
"","","","","","image-button-response","233","1245046","0.0-3.0-2.0-1.22","61676f87dba8a19bc29edf39","B2","batch2","","5233.600000000093","img/question_2_11.jpeg","3","spm_respsonse","1","4","mat_23","","","","","","1","5233.600000000093","","","","","","","","","","","","","","",""
"","","","","","html-keyboard-response","234","1246107","0.0-3.0-2.0-0.23","61676f87dba8a19bc29edf39","B2","batch2","","null","<p class=block-text>Trial 24 out of 60</p>","null","spm_show_trial_num","","","","","","","","","","","","","","","","","","","","","","","","",""
"","","","","","image-button-response","235","1288478","0.0-3.0-2.0-1.23","61676f87dba8a19bc29edf39","B2","batch2","","42365.80000000005","img/question_2_12.jpeg","5","spm_respsonse","0","5","mat_24","","","","","","0","42365.80000000005","","","","","","","","","","","","","","",""
"","","","","","html-button-response","236","1290902","0.0-3.0-3.0","61676f87dba8a19bc29edf39","B2","batch2","","2171.3000000000466","<p class = block-text>Attention check: Please choose 1<br></p>","0","attention_check","true","","","","","","","","","","","","","","","","","","","","","","","",""
"","","","","","html-keyboard-response","237","1291704","0.0-3.0-4.0-0.0","61676f87dba8a19bc29edf39","B2","batch2","","null","<p class=block-text>Trial 25 out of 60</p>","null","spm_show_trial_num","","","","","","","","","","","","","","","","","","","","","","","","",""
"","","","","","image-button-response","238","1318758","0.0-3.0-4.0-1.0","61676f87dba8a19bc29edf39","B2","batch2","","27042.800000000047","img/question_3_1.jpeg","7","spm_respsonse","1","8","mat_25","","","","","","1","27042.800000000047","","","","","","","","","","","","","","",""
"","","","","","html-keyboard-response","239","1319811","0.0-3.0-4.0-0.1","61676f87dba8a19bc29edf39","B2","batch2","","null","<p class=block-text>Trial 26 out of 60</p>","null","spm_show_trial_num","","","","","","","","","","","","","","","","","","","","","","","","",""
"","","","","","image-button-response","240","1331703","0.0-3.0-4.0-1.1","61676f87dba8a19bc29edf39","B2","batch2","","11885.699999999953","img/question_3_2.jpeg","1","spm_respsonse","1","2","mat_26","","","","","","1","11885.699999999953","","","","","","","","","","","","","","",""
"","","","","","html-keyboard-response","241","1332755","0.0-3.0-4.0-0.2","61676f87dba8a19bc29edf39","B2","batch2","","null","<p class=block-text>Trial 27 out of 60</p>","null","spm_show_trial_num","","","","","","","","","","","","","","","","","","","","","","","","",""
"","","","","","image-button-response","242","1344407","0.0-3.0-4.0-1.2","61676f87dba8a19bc29edf39","B2","batch2","","11645.300000000047","img/question_3_3.jpeg","2","spm_respsonse","1","3","mat_27","","","","","","1","11645.300000000047","","","","","","","","","","","","","","",""
"","","","","","html-keyboard-response","243","1345462","0.0-3.0-4.0-0.3","61676f87dba8a19bc29edf39","B2","batch2","","null","<p class=block-text>Trial 28 out of 60</p>","null","spm_show_trial_num","","","","","","","","","","","","","","","","","","","","","","","","",""
"","","","","","image-button-response","244","1381966","0.0-3.0-4.0-1.3","61676f87dba8a19bc29edf39","B2","batch2","","36499.89999999991","img/question_3_4.jpeg","7","spm_respsonse","1","8","mat_28","","","","","","1","36499.89999999991","","","","","","","","","","","","","","",""
"","","","","","html-keyboard-response","245","1383033","0.0-3.0-4.0-0.4","61676f87dba8a19bc29edf39","B2","batch2","","null","<p class=block-text>Trial 29 out of 60</p>","null","spm_show_trial_num","","","","","","","","","","","","","","","","","","","","","","","","",""
"","","","","","image-button-response","246","1428206","0.0-3.0-4.0-1.4","61676f87dba8a19bc29edf39","B2","batch2","","45168.19999999995","img/question_3_5.jpeg","0","spm_respsonse","0","7","mat_29","","","","","","0","45168.19999999995","","","","","","","","","","","","","","",""
"","","","","","html-keyboard-response","247","1429265","0.0-3.0-4.0-0.5","61676f87dba8a19bc29edf39","B2","batch2","","null","<p class=block-text>Trial 30 out of 60</p>","null","spm_show_trial_num","","","","","","","","","","","","","","","","","","","","","","","","",""
"","","","","","image-button-response","248","1447943","0.0-3.0-4.0-1.5","61676f87dba8a19bc29edf39","B2","batch2","","18673.09999999986","img/question_3_6.jpeg","0","spm_respsonse","0","4","mat_30","","","","","","0","18673.09999999986","","","","","","","","","","","","","","",""
"","","","","","html-keyboard-response","249","1449002","0.0-3.0-4.0-0.6","61676f87dba8a19bc29edf39","B2","batch2","","null","<p class=block-text>Trial 31 out of 60</p>","null","spm_show_trial_num","","","","","","","","","","","","","","","","","","","","","","","","",""
"","","","","","image-button-response","250","1482527","0.0-3.0-4.0-1.6","61676f87dba8a19bc29edf39","B2","batch2","","33519.80000000005","img/question_3_7.jpeg","4","spm_respsonse","1","5","mat_31","","","","","","1","33519.80000000005","","","","","","","","","","","","","","",""
"","","","","","html-keyboard-response","251","1483594","0.0-3.0-4.0-0.7","61676f87dba8a19bc29edf39","B2","batch2","","null","<p class=block-text>Trial 32 out of 60</p>","null","spm_show_trial_num","","","","","","","","","","","","","","","","","","","","","","","","",""
"","","","","","image-button-response","252","1523391","0.0-3.0-4.0-1.7","61676f87dba8a19bc29edf39","B2","batch2","","39791.5","img/question_3_8.jpeg","6","spm_respsonse","0","1","mat_32","","","","","","0","39791.5","","","","","","","","","","","","","","",""
"","","","","","html-keyboard-response","253","1524444","0.0-3.0-4.0-0.8","61676f87dba8a19bc29edf39","B2","batch2","","null","<p class=block-text>Trial 33 out of 60</p>","null","spm_show_trial_num","","","","","","","","","","","","","","","","","","","","","","","","",""
"","","","","","image-button-response","254","1607335","0.0-3.0-4.0-1.8","61676f87dba8a19bc29edf39","B2","batch2","","82886.30000000005","img/question_3_9.jpeg","0","spm_respsonse","0","7","mat_33","","","","","","0","82886.30000000005","","","","","","","","","","","","","","",""
"","","","","","html-keyboard-response","255","1608401","0.0-3.0-4.0-0.9","61676f87dba8a19bc29edf39","B2","batch2","","null","<p class=block-text>Trial 34 out of 60</p>","null","spm_show_trial_num","","","","","","","","","","","","","","","","","","","","","","","","",""
"","","","","","image-button-response","256","1701574","0.0-3.0-4.0-1.9","61676f87dba8a19bc29edf39","B2","batch2","","93168.40000000014","img/question_3_10.jpeg","5","spm_respsonse","1","6","mat_34","","","","","","1","93168.40000000014","","","","","","","","","","","","","","",""
"","","","","","html-keyboard-response","257","1702627","0.0-3.0-4.0-0.10","61676f87dba8a19bc29edf39","B2","batch2","","null","<p class=block-text>Trial 35 out of 60</p>","null","spm_show_trial_num","","","","","","","","","","","","","","","","","","","","","","","","",""
"","","","","","image-button-response","258","1724142","0.0-3.0-4.0-1.10","61676f87dba8a19bc29edf39","B2","batch2","","21510.300000000047","img/question_3_11.jpeg","4","spm_respsonse","0","1","mat_35","","","","","","0","21510.300000000047","","","","","","","","","","","","","","",""
"","","","","","html-keyboard-response","259","1725198","0.0-3.0-4.0-0.11","61676f87dba8a19bc29edf39","B2","batch2","","null","<p class=block-text>Trial 36 out of 60</p>","null","spm_show_trial_num","","","","","","","","","","","","","","","","","","","","","","","","",""
"","","","","","image-button-response","260","1785174","0.0-3.0-4.0-1.11","61676f87dba8a19bc29edf39","B2","batch2","","59969.69999999995","img/question_3_12.jpeg","5","spm_respsonse","0","2","mat_36","","","","","","0","59969.69999999995","","","","","","","","","","","","","","",""
"","","","","","html-keyboard-response","261","1786238","0.0-3.0-4.0-0.12","61676f87dba8a19bc29edf39","B2","batch2","","null","<p class=block-text>Trial 37 out of 60</p>","null","spm_show_trial_num","","","","","","","","","","","","","","","","","","","","","","","","",""
"","","","","","image-button-response","262","1789013","0.0-3.0-4.0-1.12","61676f87dba8a19bc29edf39","B2","batch2","","2770.100000000093","img/question_4_1.jpeg","2","spm_respsonse","1","3","mat_37","","","","","","1","2770.100000000093","","","","","","","","","","","","","","",""
"","","","","","html-keyboard-response","263","1790068","0.0-3.0-4.0-0.13","61676f87dba8a19bc29edf39","B2","batch2","","null","<p class=block-text>Trial 38 out of 60</p>","null","spm_show_trial_num","","","","","","","","","","","","","","","","","","","","","","","","",""
"","","","","","image-button-response","264","1795349","0.0-3.0-4.0-1.13","61676f87dba8a19bc29edf39","B2","batch2","","5276.700000000186","img/question_4_2.jpeg","1","spm_respsonse","0","4","mat_38","","","","","","0","5276.700000000186","","","","","","","","","","","","","","",""
"","","","","","html-keyboard-response","265","1796416","0.0-3.0-4.0-0.14","61676f87dba8a19bc29edf39","B2","batch2","","null","<p class=block-text>Trial 39 out of 60</p>","null","spm_show_trial_num","","","","","","","","","","","","","","","","","","","","","","","","",""
"","","","","","image-button-response","266","1808405","0.0-3.0-4.0-1.14","61676f87dba8a19bc29edf39","B2","batch2","","11986","img/question_4_3.jpeg","3","spm_respsonse","0","3","mat_39","","","","","","0","11986","","","","","","","","","","","","","","",""
"","","","","","html-keyboard-response","267","1809474","0.0-3.0-4.0-0.15","61676f87dba8a19bc29edf39","B2","batch2","","null","<p class=block-text>Trial 40 out of 60</p>","null","spm_show_trial_num","","","","","","","","","","","","","","","","","","","","","","","","",""
"","","","","","image-button-response","268","1817773","0.0-3.0-4.0-1.15","61676f87dba8a19bc29edf39","B2","batch2","","8293.40000000014","img/question_4_4.jpeg","6","spm_respsonse","1","7","mat_40","","","","","","1","8293.40000000014","","","","","","","","","","","","","","",""
"","","","","","html-keyboard-response","269","1818829","0.0-3.0-4.0-0.16","61676f87dba8a19bc29edf39","B2","batch2","","null","<p class=block-text>Trial 41 out of 60</p>","null","spm_show_trial_num","","","","","","","","","","","","","","","","","","","","","","","","",""
"","","","","","image-button-response","270","1836661","0.0-3.0-4.0-1.16","61676f87dba8a19bc29edf39","B2","batch2","","17825.90000000014","img/question_4_5.jpeg","7","spm_respsonse","1","8","mat_41","","","","","","1","17825.90000000014","","","","","","","","","","","","","","",""
"","","","","","html-keyboard-response","271","1837726","0.0-3.0-4.0-0.17","61676f87dba8a19bc29edf39","B2","batch2","","null","<p class=block-text>Trial 42 out of 60</p>","null","spm_show_trial_num","","","","","","","","","","","","","","","","","","","","","","","","",""
"","","","","","image-button-response","272","1860765","0.0-3.0-4.0-1.17","61676f87dba8a19bc29edf39","B2","batch2","","23034","img/question_4_6.jpeg","2","spm_respsonse","0","6","mat_42","","","","","","0","23034","","","","","","","","","","","","","","",""
"","","","","","html-keyboard-response","273","1861818","0.0-3.0-4.0-0.18","61676f87dba8a19bc29edf39","B2","batch2","","null","<p class=block-text>Trial 43 out of 60</p>","null","spm_show_trial_num","","","","","","","","","","","","","","","","","","","","","","","","",""
"","","","","","image-button-response","274","1883446","0.0-3.0-4.0-1.18","61676f87dba8a19bc29edf39","B2","batch2","","21620.40000000014","img/question_4_7.jpeg","4","spm_respsonse","1","5","mat_43","","","","","","1","21620.40000000014","","","","","","","","","","","","","","",""
"","","","","","html-keyboard-response","275","1884499","0.0-3.0-4.0-0.19","61676f87dba8a19bc29edf39","B2","batch2","","null","<p class=block-text>Trial 44 out of 60</p>","null","spm_show_trial_num","","","","","","","","","","","","","","","","","","","","","","","","",""
"","","","","","image-button-response","276","1915653","0.0-3.0-4.0-1.19","61676f87dba8a19bc29edf39","B2","batch2","","31149","img/question_4_8.jpeg","0","spm_respsonse","0","4","mat_44","","","","","","0","31149","","","","","","","","","","","","","","",""
"","","","","","html-keyboard-response","277","1916709","0.0-3.0-4.0-0.20","61676f87dba8a19bc29edf39","B2","batch2","","null","<p class=block-text>Trial 45 out of 60</p>","null","spm_show_trial_num","","","","","","","","","","","","","","","","","","","","","","","","",""
"","","","","","image-button-response","278","1940701","0.0-3.0-4.0-1.20","61676f87dba8a19bc29edf39","B2","batch2","","23987.40000000014","img/question_4_9.jpeg","1","spm_respsonse","0","1","mat_45","","","","","","0","23987.40000000014","","","","","","","","","","","","","","",""
"","","","","","html-keyboard-response","279","1941759","0.0-3.0-4.0-0.21","61676f87dba8a19bc29edf39","B2","batch2","","null","<p class=block-text>Trial 46 out of 60</p>","null","spm_show_trial_num","","","","","","","","","","","","","","","","","","","","","","","","",""
"","","","","","image-button-response","280","1970005","0.0-3.0-4.0-1.21","61676f87dba8a19bc29edf39","B2","batch2","","28239.899999999907","img/question_4_10.jpeg","4","spm_respsonse","0","2","mat_46","","","","","","0","28239.899999999907","","","","","","","","","","","","","","",""
"","","","","","html-keyboard-response","281","1971065","0.0-3.0-4.0-0.22","61676f87dba8a19bc29edf39","B2","batch2","","null","<p class=block-text>Trial 47 out of 60</p>","null","spm_show_trial_num","","","","","","","","","","","","","","","","","","","","","","","","",""
"","","","","","image-button-response","282","1984911","0.0-3.0-4.0-1.22","61676f87dba8a19bc29edf39","B2","batch2","","13839.500000000233","img/question_4_11.jpeg","2","spm_respsonse","0","5","mat_47","","","","","","0","13839.500000000233","","","","","","","","","","","","","","",""
"","","","","","html-keyboard-response","283","1985968","0.0-3.0-4.0-0.23","61676f87dba8a19bc29edf39","B2","batch2","","null","<p class=block-text>Trial 48 out of 60</p>","null","spm_show_trial_num","","","","","","","","","","","","","","","","","","","","","","","","",""
"","","","","","image-button-response","284","2017094","0.0-3.0-4.0-1.23","61676f87dba8a19bc29edf39","B2","batch2","","31120.399999999907","img/question_4_12.jpeg","1","spm_respsonse","0","6","mat_48","","","","","","0","31120.399999999907","","","","","","","","","","","","","","",""
"","","","","","html-keyboard-response","285","2018157","0.0-3.0-4.0-0.24","61676f87dba8a19bc29edf39","B2","batch2","","null","<p class=block-text>Trial 49 out of 60</p>","null","spm_show_trial_num","","","","","","","","","","","","","","","","","","","","","","","","",""
"","","","","","image-button-response","286","2029367","0.0-3.0-4.0-1.24","61676f87dba8a19bc29edf39","B2","batch2","","11204.69999999972","img/question_5_1.jpeg","0","spm_respsonse","0","7","mat_49","","","","","","0","11204.69999999972","","","","","","","","","","","","","","",""
"","","","","","html-keyboard-response","287","2030421","0.0-3.0-4.0-0.25","61676f87dba8a19bc29edf39","B2","batch2","","null","<p class=block-text>Trial 50 out of 60</p>","null","spm_show_trial_num","","","","","","","","","","","","","","","","","","","","","","","","",""
"","","","","","image-button-response","288","2053190","0.0-3.0-4.0-1.25","61676f87dba8a19bc29edf39","B2","batch2","","22764.19999999972","img/question_5_2.jpeg","2","spm_respsonse","0","6","mat_50","","","","","","0","22764.19999999972","","","","","","","","","","","","","","",""
"","","","","","html-keyboard-response","289","2054250","0.0-3.0-4.0-0.26","61676f87dba8a19bc29edf39","B2","batch2","","null","<p class=block-text>Trial 51 out of 60</p>","null","spm_show_trial_num","","","","","","","","","","","","","","","","","","","","","","","","",""
"","","","","","image-button-response","290","2062205","0.0-3.0-4.0-1.26","61676f87dba8a19bc29edf39","B2","batch2","","7952.5","img/question_5_3.jpeg","0","spm_respsonse","0","8","mat_51","","","","","","0","7952.5","","","","","","","","","","","","","","",""
"","","","","","html-keyboard-response","291","2063263","0.0-3.0-4.0-0.27","61676f87dba8a19bc29edf39","B2","batch2","","null","<p class=block-text>Trial 52 out of 60</p>","null","spm_show_trial_num","","","","","","","","","","","","","","","","","","","","","","","","",""
"","","","","","image-button-response","292","2081710","0.0-3.0-4.0-1.27","61676f87dba8a19bc29edf39","B2","batch2","","18442","img/question_5_4.jpeg","2","spm_respsonse","0","2","mat_52","","","","","","0","18442","","","","","","","","","","","","","","",""
"","","","","","html-keyboard-response","293","2082783","0.0-3.0-4.0-0.28","61676f87dba8a19bc29edf39","B2","batch2","","null","<p class=block-text>Trial 53 out of 60</p>","null","spm_show_trial_num","","","","","","","","","","","","","","","","","","","","","","","","",""
"","","","","","image-button-response","294","2096438","0.0-3.0-4.0-1.28","61676f87dba8a19bc29edf39","B2","batch2","","13650.100000000093","img/question_5_5.jpeg","6","spm_respsonse","0","1","mat_53","","","","","","0","13650.100000000093","","","","","","","","","","","","","","",""
"","","","","","html-keyboard-response","295","2097489","0.0-3.0-4.0-0.29","61676f87dba8a19bc29edf39","B2","batch2","","null","<p class=block-text>Trial 54 out of 60</p>","null","spm_show_trial_num","","","","","","","","","","","","","","","","","","","","","","","","",""
"","","","","","image-button-response","296","2139550","0.0-3.0-4.0-1.29","61676f87dba8a19bc29edf39","B2","batch2","","42057.700000000186","img/question_5_6.jpeg","7","spm_respsonse","0","5","mat_54","","","","","","0","42057.700000000186","","","","","","","","","","","","","","",""
"","","","","","html-keyboard-response","297","2140617","0.0-3.0-4.0-0.30","61676f87dba8a19bc29edf39","B2","batch2","","null","<p class=block-text>Trial 55 out of 60</p>","null","spm_show_trial_num","","","","","","","","","","","","","","","","","","","","","","","","",""
"","","","","","image-button-response","298","2158350","0.0-3.0-4.0-1.30","61676f87dba8a19bc29edf39","B2","batch2","","17727.80000000028","img/question_5_7.jpeg","3","spm_respsonse","0","1","mat_55","","","","","","0","17727.80000000028","","","","","","","","","","","","","","",""
"","","","","","html-keyboard-response","299","2159418","0.0-3.0-4.0-0.31","61676f87dba8a19bc29edf39","B2","batch2","","null","<p class=block-text>Trial 56 out of 60</p>","null","spm_show_trial_num","","","","","","","","","","","","","","","","","","","","","","","","",""
"","","","","","image-button-response","300","2177309","0.0-3.0-4.0-1.31","61676f87dba8a19bc29edf39","B2","batch2","","17887","img/question_5_8.jpeg","4","spm_respsonse","0","6","mat_56","","","","","","0","17887","","","","","","","","","","","","","","",""
"","","","","","html-keyboard-response","301","2178378","0.0-3.0-4.0-0.32","61676f87dba8a19bc29edf39","B2","batch2","","null","<p class=block-text>Trial 57 out of 60</p>","null","spm_show_trial_num","","","","","","","","","","","","","","","","","","","","","","","","",""
"","","","","","image-button-response","302","2215438","0.0-3.0-4.0-1.32","61676f87dba8a19bc29edf39","B2","batch2","","37053","img/question_5_9.jpeg","3","spm_respsonse","0","3","mat_57","","","","","","0","37053","","","","","","","","","","","","","","",""
"","","","","","html-keyboard-response","303","2216494","0.0-3.0-4.0-0.33","61676f87dba8a19bc29edf39","B2","batch2","","null","<p class=block-text>Trial 58 out of 60</p>","null","spm_show_trial_num","","","","","","","","","","","","","","","","","","","","","","","","",""
"","","","","","image-button-response","304","2236726","0.0-3.0-4.0-1.33","61676f87dba8a19bc29edf39","B2","batch2","","20226.5","img/question_5_10.jpeg","2","spm_respsonse","0","2","mat_58","","","","","","0","20226.5","","","","","","","","","","","","","","",""
"","","","","","html-keyboard-response","305","2237779","0.0-3.0-4.0-0.34","61676f87dba8a19bc29edf39","B2","batch2","","null","<p class=block-text>Trial 59 out of 60</p>","null","spm_show_trial_num","","","","","","","","","","","","","","","","","","","","","","","","",""
"","","","","","image-button-response","306","2258118","0.0-3.0-4.0-1.34","61676f87dba8a19bc29edf39","B2","batch2","","20333.400000000373","img/question_5_11.jpeg","4","spm_respsonse","0","4","mat_59","","","","","","0","20333.400000000373","","","","","","","","","","","","","","",""
"","","","","","html-keyboard-response","307","2259173","0.0-3.0-4.0-0.35","61676f87dba8a19bc29edf39","B2","batch2","","null","<p class=block-text>Trial 60 out of 60</p>","null","spm_show_trial_num","","","","","","","","","","","","","","","","","","","","","","","","",""
"","","","","","image-button-response","308","2277013","0.0-3.0-4.0-1.35","61676f87dba8a19bc29edf39","B2","batch2","","17834.600000000093","img/question_5_12.jpeg","0","spm_respsonse","0","5","mat_60","","","","","","0","17834.600000000093","","","","","","","","","","","","","","",""
"","","","","","html-button-response","309","2279765","0.0-3.0-5.0","61676f87dba8a19bc29edf39","B2","batch2","","2500.100000000093","<p class= block-text>This concludes the Standard Progressive Matrix game. Thank you for your responses!<br> When you are ready, click the button continue</p>","0","spm_goodbye","","","","","","","","","","","","","","","","","","","","","","","","",""
"true","","","","","fullscreen","310","2283141","0.0-4.0-0.0","61676f87dba8a19bc29edf39","B2","batch2","","","","","","","","","","","","","","","","","","","","","","","","","","","","","",""
"","","","","","instructions","311","2354734","0.0-4.0-1.0-0.0-0.0","61676f87dba8a19bc29edf39","B2","batch2","[{""page_index"":0,""viewing_time"":15637.100000000093},{""page_index"":1,""viewing_time"":7448.100000000093},{""page_index"":2,""viewing_time"":5591.600000000093},{""page_index"":3,""viewing_time"":17361},{""page_index"":4,""viewing_time"":3999.7999999998137},{""page_index"":5,""viewing_time"":18095},{""page_index"":6,""viewing_time"":3456.2000000001863}]","71589.30000000028","","","tol-instructions","","","","","","","","","","","","","","","","","","","","","","","","",""
"","","","","","html-button-response","312","2355981","0.0-4.0-1.0-1.0-0.0","61676f87dba8a19bc29edf39","B2","batch2","","1246.2000000001863","<p class=block-text> Let's answer a few questions <br>","0","tol_enter_quiz","","","","","","","","","","","","","","","","","","","","","","","","",""
"","","","","","html-button-response","313","2359862","0.0-4.0-1.0-1.0-1.0","61676f87dba8a19bc29edf39","B2","batch2","","3877.5999999996275","<p class = block-text>True or False: You can only move the ball on top of a peg. <br></p>","1","tol_quiz","false","","","","","","","","","","","","","","","","","","","","","","","",""
"","","","","","html-button-response","314","2361110","0.0-4.0-1.0-1.0-2.0","61676f87dba8a19bc29edf39","B2","batch2","","1247.1999999997206","<p class = block-text>Incorrect. Remember, you can only move the ball on top of a peg.</p>","0","tol_quiz_feedback","","","","","","","","","","","","","","","","","","","","","","","","",""
"","","","","","html-button-response","315","2365126","0.0-4.0-1.0-1.0-3.0","61676f87dba8a19bc29edf39","B2","batch2","","4014.600000000093","<p class = block-text>True or False: You should try to match your board with the target board with fewest moves possible. <br></p>","0","tol_quiz","true","","","","","","","","","","","","","","","","","","","","","","","",""
"","","","","","html-button-response","316","2366029","0.0-4.0-1.0-1.0-4.0","61676f87dba8a19bc29edf39","B2","batch2","","902","<p class = block-text>Correct! </p>","0","tol_quiz_feedback","","","","","","","","","","","","","","","","","","","","","","","","",""
"","","","","","html-button-response","317","2367806","0.0-4.0-1.0-2.0-0.0","61676f87dba8a19bc29edf39","B2","batch2","","1774.7999999998137","<p class = block-text>You made too many incorrect choices.</p><p class = block-text>You will now repeat the instructions and quiz</p>","0","","","","","","","","","","","","","","","","","","","","","","","","","",""
"","","","","","instructions","318","2378102","0.0-4.0-1.1-0.1-0.1","61676f87dba8a19bc29edf39","B2","batch2","[{""page_index"":0,""viewing_time"":2567},{""page_index"":1,""viewing_time"":1231.8999999999069},{""page_index"":2,""viewing_time"":704},{""page_index"":3,""viewing_time"":648.2000000001863},{""page_index"":4,""viewing_time"":943.7999999998137},{""page_index"":5,""viewing_time"":823.8999999999069},{""page_index"":6,""viewing_time"":3376.3000000002794}]","10295.5","","","tol-instructions","","","","","","","","","","","","","","","","","","","","","","","","",""
"","","","","","html-button-response","319","2379246","0.0-4.0-1.1-1.1-0.1","61676f87dba8a19bc29edf39","B2","batch2","","1142.1000000000931","<p class=block-text> Let's answer a few questions <br>","0","tol_enter_quiz","","","","","","","","","","","","","","","","","","","","","","","","",""
"","","","","","html-button-response","320","2385254","0.0-4.0-1.1-1.1-1.1","61676f87dba8a19bc29edf39","B2","batch2","","6006.800000000279","<p class = block-text>True or False: You can only move the ball on top of a peg. <br></p>","0","tol_quiz","true","","","","","","","","","","","","","","","","","","","","","","","",""
"","","","","","html-button-response","321","2386262","0.0-4.0-1.1-1.1-2.1","61676f87dba8a19bc29edf39","B2","batch2","","1006.8000000002794","<p class = block-text>Correct! You can only move the ball on top of a peg.</p>","0","tol_quiz_feedback","","","","","","","","","","","","","","","","","","","","","","","","",""
"","","","","","html-button-response","322","2388126","0.0-4.0-1.1-1.1-3.1","61676f87dba8a19bc29edf39","B2","batch2","","1862.8000000002794","<p class = block-text>True or False: You should try to match your board with the target board with fewest moves possible. <br></p>","0","tol_quiz","true","","","","","","","","","","","","","","","","","","","","","","","",""
"","","","","","html-button-response","323","2388878","0.0-4.0-1.1-1.1-4.1","61676f87dba8a19bc29edf39","B2","batch2","","750.6000000000931","<p class = block-text>Correct! </p>","0","tol_quiz_feedback","","","","","","","","","","","","","","","","","","","","","","","","",""
"","","","","","html-button-response","324","2391102","0.0-4.0-2.0","61676f87dba8a19bc29edf39","B2","batch2","","2222.8000000002794","<p class=block-text> Now that you've understood the game, let's practice a few easier examples before we start!<br> <br>","0","","","","","","","","","","","","","","","","","","","","","","","","","",""
"","","","","","single-stim-button","325","2410087","0.0-4.0-3.0-0.0","61676f87dba8a19bc29edf39","B2","batch2","","18982","","","tol_practice","","","","","","","","","","","tol_peg_1","18982","18982","0","[[1,0,0],[3,0],[0]]","1","[[1,2,0],[0,0],[3]]","practice","18982","","","","","",""
"","","","","","single-stim-button","326","2417462","0.0-4.0-3.0-1.0","61676f87dba8a19bc29edf39","B2","batch2","","7373","","","tol_practice","","","","","","","","","","","tol_peg_2","7373","7373","0","[[1,0,0],[3,2],[0]]","1","[[1,2,0],[0,0],[3]]","practice","7373","","","","","",""
"","","","","","single-stim-button","327","2424645","0.0-4.0-3.1-0.1","61676f87dba8a19bc29edf39","B2","batch2","","7183","","","tol_practice","","","","","","","","","","","tol_peg_2","7183","7183","0","[[1,0,0],[3,0],[0]]","2","[[1,2,0],[0,0],[3]]","practice","7183","","","","","",""
"","","","","","single-stim-button","328","2425934","0.0-4.0-3.1-1.1","61676f87dba8a19bc29edf39","B2","batch2","","1287","","","tol_practice","","","","","","","","","","","tol_peg_1","1287","1287","0","[[1,2,0],[3,0],[0]]","2","[[1,2,0],[0,0],[3]]","practice","1287","","","","","",""
"","","","","","single-stim-button","329","2429486","0.0-4.0-3.2-0.2","61676f87dba8a19bc29edf39","B2","batch2","","3551","","","tol_practice","","","","","","","","","","","tol_peg_2","3551","3551","0","[[1,2,0],[0,0],[0]]","3","[[1,2,0],[0,0],[3]]","practice","3551","","","","","",""
"","","","","","single-stim-button","330","2430862","0.0-4.0-3.2-1.2","61676f87dba8a19bc29edf39","B2","batch2","","1375","","","tol_practice","","","","","","","","","","","tol_peg_3","1375","1375","0","[[1,2,0],[0,0],[3]]","3","[[1,2,0],[0,0],[3]]","practice","1375","","","","","",""
"","","","","","poldrack-single-stim","331","2431877","0.0-4.0-4.0","61676f87dba8a19bc29edf39","B2","batch2","","-1","","","tol_feedback","true","","","","","","","","","","","1000","1000","500","","","","","","-1","none","true","","0",""
"","","","","","single-stim-button","332","2438086","0.0-4.0-5.0-0.0","61676f87dba8a19bc29edf39","B2","batch2","","6206","","","tol_practice","","","","","","","","","","","tol_peg_1","6206","6206","0","[[1,0,0],[3,0],[0]]","4","[[0,0,0],[3,1],[2]]","practice","6206","","","","","",""
"","","","","","single-stim-button","333","2439430","0.0-4.0-5.0-1.0","61676f87dba8a19bc29edf39","B2","batch2","","1344","","","tol_practice","","","","","","","","","","","tol_peg_3","1344","1344","0","[[1,0,0],[3,0],[2]]","4","[[0,0,0],[3,1],[2]]","practice","1344","","","","","",""
"","","","","","single-stim-button","334","2440949","0.0-4.0-5.1-0.1","61676f87dba8a19bc29edf39","B2","batch2","","1517","","","tol_practice","","","","","","","","","","","tol_peg_1","1517","1517","0","[[0,0,0],[3,0],[2]]","5","[[0,0,0],[3,1],[2]]","practice","1517","","","","","",""
"","","","","","single-stim-button","335","2441933","0.0-4.0-5.1-1.1","61676f87dba8a19bc29edf39","B2","batch2","","983","","","tol_practice","","","","","","","","","","","tol_peg_2","983","983","0","[[0,0,0],[3,1],[2]]","5","[[0,0,0],[3,1],[2]]","practice","983","","","","","",""
"","","","","","poldrack-single-stim","336","2442934","0.0-4.0-6.0","61676f87dba8a19bc29edf39","B2","batch2","","-1","","","tol_feedback","true","","","","","","","","","","","1000","1000","500","","","","","","-1","none","true","","0",""
"","","","","","single-stim-button","337","2445310","0.0-4.0-7.0-0.0","61676f87dba8a19bc29edf39","B2","batch2","","2374","","","tol_practice","","","","","","","","","","","tol_peg_2","2374","2374","0","[[1,2,0],[0,0],[0]]","6","[[1,0,0],[2,0],[3]]","practice","2374","","","","","",""
"","","","","","single-stim-button","338","2446814","0.0-4.0-7.0-1.0","61676f87dba8a19bc29edf39","B2","batch2","","1503","","","tol_practice","","","","","","","","","","","tol_peg_3","1503","1503","0","[[1,2,0],[0,0],[3]]","6","[[1,0,0],[2,0],[3]]","practice","1503","","","","","",""
"","","","","","single-stim-button","339","2448230","0.0-4.0-7.1-0.1","61676f87dba8a19bc29edf39","B2","batch2","","1415","","","tol_practice","","","","","","","","","","","tol_peg_1","1415","1415","0","[[1,0,0],[0,0],[3]]","7","[[1,0,0],[2,0],[3]]","practice","1415","","","","","",""
"","","","","","single-stim-button","340","2449382","0.0-4.0-7.1-1.1","61676f87dba8a19bc29edf39","B2","batch2","","1152","","","tol_practice","","","","","","","","","","","tol_peg_2","1152","1152","0","[[1,0,0],[2,0],[3]]","7","[[1,0,0],[2,0],[3]]","practice","1152","","","","","",""
"","","","","","poldrack-single-stim","341","2450391","0.0-4.0-8.0","61676f87dba8a19bc29edf39","B2","batch2","","-1","","","tol_feedback","true","","","","","","","","","","","1000","1000","500","","","","","","-1","none","true","","0",""
"","","","","","html-button-response","342","2453542","0.0-4.0-9.0","61676f87dba8a19bc29edf39","B2","batch2","","3148.899999999907","<div class = centerbox><p class = center-block-text>Great job! You are done with practice trials<br>You are about to start official trials.<br> <br> Problem <strong>1</strong> out of 25 problems</p></div>","0","tol_instruction","","","","","","","","","","","","","","","","","","","","","","","","",""
"","","","","","single-stim-button","343","2459494","0.0-4.0-10.0-0.0","61676f87dba8a19bc29edf39","B2","batch2","","4939","","","tol_tohand","","","","","","","","","","","tol_peg_2","4939","4939","0","[[1,2,0],[0,0],[0]]","1","[[1,3,0],[2,0],[0]]","0","0","","","","","","3"
