"success","timeout","failed_images","failed_audio","failed_video","trial_type","trial_index","time_elapsed","internal_node_id","subject_id","study_id","session_id","view_history","rt","stimulus","response","task","correct","answer","item","fiar_detect_rt","fiar_detect_correct","total_correct_fiar_detect","post_trial_gap","choices","mouse_click","stim_duration","block_duration","timing_post_trial","current_position","tol_num_moves_made","tol_target","tol_problem_id","tol_rt","key_press","possible_responses","tol_correct","preplanning","tol_rt_per_trial","tol_min_moves","spm_correct","spm_rt"
"true","false","[]","[]","[]","preload","0","13711","0.0-0.0","616870f3f5785e447dd90a2f","C3","batch3","","","","","","","","","","","","","","","","","","","","","","","","","","","","","",""
"true","","","","","fullscreen","1","27408","0.0-1.0-0.0","616870f3f5785e447dd90a2f","C3","batch3","","","","","","","","","","","","","","","","","","","","","","","","","","","","","",""
"true","","","","","fullscreen","2","30417","0.0-2.0-0.0","616870f3f5785e447dd90a2f","C3","batch3","","","","","","","","","","","","","","","","","","","","","","","","","","","","","",""
"","","","","","instructions","3","50354","0.0-2.0-1.0-0.0","616870f3f5785e447dd90a2f","C3","batch3","[{""page_index"":0,""viewing_time"":14462.39999999851},{""page_index"":1,""viewing_time"":5472.70000000298}]","19935.29999999702","","","","","","","","","","","","","","","","","","","","","","","","","","","",""
"","","","","","html-button-response","4","51694","0.0-2.0-1.0-1.0-0.0","616870f3f5785e447dd90a2f","C3","batch3","","1339.5","<p class=block-text> Let's answer a few questions <br>","0","pattern_enter_quiz","","","","","","","","","","","","","","","","","","","","","","","","",""
"","","","","","html-button-response","5","53921","0.0-2.0-1.0-1.0-1.0","616870f3f5785e447dd90a2f","C3","batch3","","2225.6999999955297","<p class = block-text>True or False: You will have as much time as you want to make each choice. <br></p>","1","pattern_quiz","true","","","","","","","","","","","","","","","","","","","","","","","",""
"","","","","","html-button-response","6","55313","0.0-2.0-1.0-1.0-2.0","616870f3f5785e447dd90a2f","C3","batch3","","1390.7000000029802","<p class = block-text>Correct! You should make your choice <strong> as fast as you can</strong>.</p>","0","pattern_quiz_feedback","","","","","","","","","","","","","","","","","","","","","","","","",""
"","","","","","html-button-response","7","61437","0.0-2.0-1.0-1.0-3.0","616870f3f5785e447dd90a2f","C3","batch3","","6123","<p class = block-text>True or False: You will look for 4 pieces in black or white color connected in a row either horizontally, vertically or diagonally. <br></p>","0","pattern_quiz","true","","","","","","","","","","","","","","","","","","","","","","","",""
"","","","","","html-button-response","8","62547","0.0-2.0-1.0-1.0-4.0","616870f3f5785e447dd90a2f","C3","batch3","","1108.7999999970198","<p class = block-text>Correct! </p>","0","pattern_quiz_feedback","","","","","","","","","","","","","","","","","","","","","","","","",""
"","","","","","html-button-response","9","63943","0.0-2.0-2.0","616870f3f5785e447dd90a2f","C3","batch3","","1394.1000000014901","<p class=block-text> Now that you've understood the game, let's do a few practice trials before we start!<br> <br>","0","pattern_enter_practice","","","","","","","","","","","","","","","","","","","","","","","","",""
"","","","","","image-keyboard-response","10","66327","0.0-2.0-3.0-0.0","616870f3f5785e447dd90a2f","C3","batch3","","2381.60000000149","stim/prac_no_16_1.png","f","pattern_practice","false","j","","","","","","","","","","","","","","","","","","","","","","",""
"","","","","","html-keyboard-response","11","67354","0.0-2.0-3.0-1.0","616870f3f5785e447dd90a2f","C3","batch3","","null","<p style=""font-size:30px;color:red;"">Wrong.</p>","null","pattern_feedback","","","","","","","","","","","","","","","","","","","","","","","","",""
"","","","","","image-keyboard-response","12","68908","0.0-2.0-3.0-0.1","616870f3f5785e447dd90a2f","C3","batch3","","1552.6999999955297","stim/prac_yes_18_hor_w1.png","f","pattern_practice","true","f","","","","","","","","","","","","","","","","","","","","","","",""
"","","","","","html-keyboard-response","13","69931","0.0-2.0-3.0-1.1","616870f3f5785e447dd90a2f","C3","batch3","","null","<p style=""font-size:30px;color:green;"">Correct!</p>","null","pattern_feedback","","","","","","","","","","","","","","","","","","","","","","","","",""
"","","","","","image-keyboard-response","14","70670","0.0-2.0-3.0-0.2","616870f3f5785e447dd90a2f","C3","batch3","","737.2999999970198","stim/prac_yes_16_ver_w1.png","f","pattern_practice","true","f","","","","","","","","","","","","","","","","","","","","","","",""
"","","","","","html-keyboard-response","15","71686","0.0-2.0-3.0-1.2","616870f3f5785e447dd90a2f","C3","batch3","","null","<p style=""font-size:30px;color:green;"">Correct!</p>","null","pattern_feedback","","","","","","","","","","","","","","","","","","","","","","","","",""
"","","","","","image-keyboard-response","16","72963","0.0-2.0-3.0-0.3","616870f3f5785e447dd90a2f","C3","batch3","","1275.4000000059605","stim/prac_no_18_1.png","j","pattern_practice","true","j","","","","","","","","","","","","","","","","","","","","","","",""
"","","","","","html-keyboard-response","17","73971","0.0-2.0-3.0-1.3","616870f3f5785e447dd90a2f","C3","batch3","","null","<p style=""font-size:30px;color:green;"">Correct!</p>","null","pattern_feedback","","","","","","","","","","","","","","","","","","","","","","","","",""
"","","","","","image-keyboard-response","18","75192","0.0-2.0-3.0-0.4","616870f3f5785e447dd90a2f","C3","batch3","","1219.8999999985099","stim/prac_yes_20_dia_b1.png","f","pattern_practice","true","f","","","","","","","","","","","","","","","","","","","","","","",""
"","","","","","html-keyboard-response","19","76214","0.0-2.0-3.0-1.4","616870f3f5785e447dd90a2f","C3","batch3","","null","<p style=""font-size:30px;color:green;"">Correct!</p>","null","pattern_feedback","","","","","","","","","","","","","","","","","","","","","","","","",""
"","","","","","html-button-response","20","79270","0.0-2.0-4.0","616870f3f5785e447dd90a2f","C3","batch3","","3054","<p class=block-text> Good job! You are done with practice trials!<br>
        You responded correctly on 80% of the trials.<br>
        Press the button below to start official trials. Now you won't see any feedback about your response</p>","0","pattern_enter_official_trials","","","","","","","","","","","","","","","","","","","","","","","","",""
"","","","","","html-keyboard-response","21","80076","0.0-2.0-5.0-0.0","616870f3f5785e447dd90a2f","C3","batch3","","null","<p class=block-text>Trial 1 out of 78</p>","null","pattern_show_trial_num","","","","","","","","","","","","","","","","","","","","","","","","",""
"","","","","","image-keyboard-response","22","81819","0.0-2.0-5.0-1.0","616870f3f5785e447dd90a2f","C3","batch3","","1741.1999999955297","stim/no_37_2_w.png","j","pattern_response","true","j","pattern_19","1741.1999999955297","true","1","","","","","","","","","","","","","","","","","","",""
"","","","","","html-keyboard-response","23","83144","0.0-2.0-5.0-0.1","616870f3f5785e447dd90a2f","C3","batch3","","null","<p class=block-text>Trial 2 out of 78</p>","null","pattern_show_trial_num","","","","","","","","","","","","","","","","","","","","","","","","",""
"","","","","","image-keyboard-response","24","84337","0.0-2.0-5.0-1.1","616870f3f5785e447dd90a2f","C3","batch3","","1191.2999999970198","stim/yes_63_dia_b1.png","f","pattern_response","true","f","pattern_78","1191.2999999970198","true","2","","","","","","","","","","","","","","","","","","",""
"","","","","","html-keyboard-response","25","85660","0.0-2.0-5.0-0.2","616870f3f5785e447dd90a2f","C3","batch3","","null","<p class=block-text>Trial 3 out of 78</p>","null","pattern_show_trial_num","","","","","","","","","","","","","","","","","","","","","","","","",""
"","","","","","image-keyboard-response","26","86709","0.0-2.0-5.0-1.2","616870f3f5785e447dd90a2f","C3","batch3","","1047.1000000014901","stim/yes_33_dia_w1_w.png","f","pattern_response","true","f","pattern_56","1047.1000000014901","true","3","","","","","","","","","","","","","","","","","","",""
"","","","","","html-keyboard-response","27","88028","0.0-2.0-5.0-0.3","616870f3f5785e447dd90a2f","C3","batch3","","null","<p class=block-text>Trial 4 out of 78</p>","null","pattern_show_trial_num","","","","","","","","","","","","","","","","","","","","","","","","",""
"","","","","","image-keyboard-response","28","88848","0.0-2.0-5.0-1.3","616870f3f5785e447dd90a2f","C3","batch3","","819","stim/yes_23_ver_b1.png","f","pattern_response","true","f","pattern_48","819","true","4","","","","","","","","","","","","","","","","","","",""
"","","","","","html-keyboard-response","29","90177","0.0-2.0-5.0-0.4","616870f3f5785e447dd90a2f","C3","batch3","","null","<p class=block-text>Trial 5 out of 78</p>","null","pattern_show_trial_num","","","","","","","","","","","","","","","","","","","","","","","","",""
"","","","","","image-keyboard-response","30","90839","0.0-2.0-5.0-1.4","616870f3f5785e447dd90a2f","C3","batch3","","660.8000000044703","stim/yes_17_ver_b1_b.png","f","pattern_response","true","f","pattern_46","660.8000000044703","true","5","","","","","","","","","","","","","","","","","","",""
"","","","","","html-keyboard-response","31","92151","0.0-2.0-5.0-0.5","616870f3f5785e447dd90a2f","C3","batch3","","null","<p class=block-text>Trial 6 out of 78</p>","null","pattern_show_trial_num","","","","","","","","","","","","","","","","","","","","","","","","",""
"","","","","","image-keyboard-response","32","92850","0.0-2.0-5.0-1.5","616870f3f5785e447dd90a2f","C3","batch3","","697","stim/yes_70_ver_b1.png","f","pattern_response","true","f","pattern_80","697","true","6","","","","","","","","","","","","","","","","","","",""
"","","","","","html-keyboard-response","33","94166","0.0-2.0-5.0-0.6","616870f3f5785e447dd90a2f","C3","batch3","","null","<p class=block-text>Trial 7 out of 78</p>","null","pattern_show_trial_num","","","","","","","","","","","","","","","","","","","","","","","","",""
"","","","","","image-keyboard-response","34","95129","0.0-2.0-5.0-1.6","616870f3f5785e447dd90a2f","C3","batch3","","962.2000000029802","stim/yes_46_ver_b1_b.png","f","pattern_response","true","f","pattern_68","962.2000000029802","true","7","","","","","","","","","","","","","","","","","","",""
"","","","","","html-keyboard-response","35","96433","0.0-2.0-5.0-0.7","616870f3f5785e447dd90a2f","C3","batch3","","null","<p class=block-text>Trial 8 out of 78</p>","null","pattern_show_trial_num","","","","","","","","","","","","","","","","","","","","","","","","",""
"","","","","","image-keyboard-response","36","98527","0.0-2.0-5.0-1.7","616870f3f5785e447dd90a2f","C3","batch3","","2092.10000000149","stim/yes_42_dia_w1_w.png","j","pattern_response","false","f","pattern_64","2092.10000000149","false","7","","","","","","","","","","","","","","","","","","",""
"","","","","","html-keyboard-response","37","99841","0.0-2.0-5.0-0.8","616870f3f5785e447dd90a2f","C3","batch3","","null","<p class=block-text>Trial 9 out of 78</p>","null","pattern_show_trial_num","","","","","","","","","","","","","","","","","","","","","","","","",""
"","","","","","image-keyboard-response","38","100674","0.0-2.0-5.0-1.8","616870f3f5785e447dd90a2f","C3","batch3","","831.7000000029802","stim/yes_39_hor_w1_w.png","f","pattern_response","true","f","pattern_62","831.7000000029802","true","8","","","","","","","","","","","","","","","","","","",""
"","","","","","html-keyboard-response","39","101989","0.0-2.0-5.0-0.9","616870f3f5785e447dd90a2f","C3","batch3","","null","<p class=block-text>Trial 10 out of 78</p>","null","pattern_show_trial_num","","","","","","","","","","","","","","","","","","","","","","","","",""
"","","","","","image-keyboard-response","40","103929","0.0-2.0-5.0-1.9","616870f3f5785e447dd90a2f","C3","batch3","","1938.3999999985099","stim/no_45_1_w.png","j","pattern_response","true","j","pattern_25","1938.3999999985099","true","9","","","","","","","","","","","","","","","","","","",""
"","","","","","html-keyboard-response","41","105242","0.0-2.0-5.0-0.10","616870f3f5785e447dd90a2f","C3","batch3","","null","<p class=block-text>Trial 11 out of 78</p>","null","pattern_show_trial_num","","","","","","","","","","","","","","","","","","","","","","","","",""
"","","","","","image-keyboard-response","42","106177","0.0-2.0-5.0-1.10","616870f3f5785e447dd90a2f","C3","batch3","","932.7000000029802","stim/yes_15_dia_b1u_b.png","f","pattern_response","true","f","pattern_44","932.7000000029802","true","10","","","","","","","","","","","","","","","","","","",""
"","","","","","html-keyboard-response","43","107492","0.0-2.0-5.0-0.11","616870f3f5785e447dd90a2f","C3","batch3","","null","<p class=block-text>Trial 12 out of 78</p>","null","pattern_show_trial_num","","","","","","","","","","","","","","","","","","","","","","","","",""
"","","","","","image-keyboard-response","44","108565","0.0-2.0-5.0-1.11","616870f3f5785e447dd90a2f","C3","batch3","","1070.8999999985099","stim/no_18_1_b.png","j","pattern_response","true","j","pattern_05","1070.8999999985099","true","11","","","","","","","","","","","","","","","","","","",""
"","","","","","html-keyboard-response","45","109892","0.0-2.0-5.0-0.12","616870f3f5785e447dd90a2f","C3","batch3","","null","<p class=block-text>Trial 13 out of 78</p>","null","pattern_show_trial_num","","","","","","","","","","","","","","","","","","","","","","","","",""
"","","","","","image-keyboard-response","46","110613","0.0-2.0-5.0-1.12","616870f3f5785e447dd90a2f","C3","batch3","","719.3000000044703","stim/yes_36_ver_w1_w.png","f","pattern_response","true","f","pattern_58","719.3000000044703","true","12","","","","","","","","","","","","","","","","","","",""
"","","","","","html-keyboard-response","47","111933","0.0-2.0-5.0-0.13","616870f3f5785e447dd90a2f","C3","batch3","","null","<p class=block-text>Trial 14 out of 78</p>","null","pattern_show_trial_num","","","","","","","","","","","","","","","","","","","","","","","","",""
"","","","","","image-keyboard-response","48","114212","0.0-2.0-5.0-1.13","616870f3f5785e447dd90a2f","C3","batch3","","2277.6999999955297","stim/no_67_1.png","j","pattern_response","true","j","pattern_39","2277.6999999955297","true","13","","","","","","","","","","","","","","","","","","",""
"","","","","","html-keyboard-response","49","115542","0.0-2.0-5.0-0.14","616870f3f5785e447dd90a2f","C3","batch3","","null","<p class=block-text>Trial 15 out of 78</p>","null","pattern_show_trial_num","","","","","","","","","","","","","","","","","","","","","","","","",""
"","","","","","image-keyboard-response","50","117454","0.0-2.0-5.0-1.14","616870f3f5785e447dd90a2f","C3","batch3","","1910.6000000014901","stim/yes_53_ver_b1_b.png","f","pattern_response","true","f","pattern_74","1910.6000000014901","true","14","","","","","","","","","","","","","","","","","","",""
"","","","","","html-keyboard-response","51","118789","0.0-2.0-5.0-0.15","616870f3f5785e447dd90a2f","C3","batch3","","null","<p class=block-text>Trial 16 out of 78</p>","null","pattern_show_trial_num","","","","","","","","","","","","","","","","","","","","","","","","",""
"","","","","","image-keyboard-response","52","121407","0.0-2.0-5.0-1.15","616870f3f5785e447dd90a2f","C3","batch3","","2616.7000000029802","stim/yes_58_dia_w1_w.png","f","pattern_response","true","f","pattern_76","2616.7000000029802","true","15","","","","","","","","","","","","","","","","","","",""
"","","","","","html-keyboard-response","53","122725","0.0-2.0-5.0-0.16","616870f3f5785e447dd90a2f","C3","batch3","","null","<p class=block-text>Trial 17 out of 78</p>","null","pattern_show_trial_num","","","","","","","","","","","","","","","","","","","","","","","","",""
"","","","","","image-keyboard-response","54","124646","0.0-2.0-5.0-1.16","616870f3f5785e447dd90a2f","C3","batch3","","1919.1000000014901","stim/no_33_1_b.png","f","pattern_response","false","j","pattern_15","1919.1000000014901","false","15","","","","","","","","","","","","","","","","","","",""
"","","","","","html-keyboard-response","55","125965","0.0-2.0-5.0-0.17","616870f3f5785e447dd90a2f","C3","batch3","","null","<p class=block-text>Trial 18 out of 78</p>","null","pattern_show_trial_num","","","","","","","","","","","","","","","","","","","","","","","","",""
"","","","","","image-keyboard-response","56","127546","0.0-2.0-5.0-1.17","616870f3f5785e447dd90a2f","C3","batch3","","1579.6999999955297","stim/no_22_1_b.png","j","pattern_response","true","j","pattern_07","1579.6999999955297","true","16","","","","","","","","","","","","","","","","","","",""
"","","","","","html-keyboard-response","57","128873","0.0-2.0-5.0-0.18","616870f3f5785e447dd90a2f","C3","batch3","","null","<p class=block-text>Trial 19 out of 78</p>","null","pattern_show_trial_num","","","","","","","","","","","","","","","","","","","","","","","","",""
"","","","","","image-keyboard-response","58","129531","0.0-2.0-5.0-1.18","616870f3f5785e447dd90a2f","C3","batch3","","656","stim/yes_12_hor_w1_w.png","f","pattern_response","true","f","pattern_42","656","true","17","","","","","","","","","","","","","","","","","","",""
"","","","","","html-keyboard-response","59","130850","0.0-2.0-5.0-0.19","616870f3f5785e447dd90a2f","C3","batch3","","null","<p class=block-text>Trial 20 out of 78</p>","null","pattern_show_trial_num","","","","","","","","","","","","","","","","","","","","","","","","",""
"","","","","","image-keyboard-response","60","131590","0.0-2.0-5.0-1.19","616870f3f5785e447dd90a2f","C3","batch3","","739.1999999955297","stim/yes_44_ver_w1_w.png","f","pattern_response","true","f","pattern_66","739.1999999955297","true","18","","","","","","","","","","","","","","","","","","",""
"","","","","","html-keyboard-response","61","132907","0.0-2.0-5.0-0.20","616870f3f5785e447dd90a2f","C3","batch3","","null","<p class=block-text>Trial 21 out of 78</p>","null","pattern_show_trial_num","","","","","","","","","","","","","","","","","","","","","","","","",""
"","","","","","image-keyboard-response","62","133613","0.0-2.0-5.0-1.20","616870f3f5785e447dd90a2f","C3","batch3","","704.3999999985099","stim/yes_26_dia_w2_w.png","f","pattern_response","true","f","pattern_50","704.3999999985099","true","19","","","","","","","","","","","","","","","","","","",""
"","","","","","html-keyboard-response","63","134930","0.0-2.0-5.0-0.21","616870f3f5785e447dd90a2f","C3","batch3","","null","<p class=block-text>Trial 22 out of 78</p>","null","pattern_show_trial_num","","","","","","","","","","","","","","","","","","","","","","","","",""
"","","","","","image-keyboard-response","64","137904","0.0-2.0-5.0-1.21","616870f3f5785e447dd90a2f","C3","batch3","","2972.10000000149","stim/no_53_1_b.png","j","pattern_response","true","j","pattern_33","2972.10000000149","true","20","","","","","","","","","","","","","","","","","","",""
"","","","","","html-keyboard-response","65","139217","0.0-2.0-5.0-0.22","616870f3f5785e447dd90a2f","C3","batch3","","null","<p class=block-text>Trial 23 out of 78</p>","null","pattern_show_trial_num","","","","","","","","","","","","","","","","","","","","","","","","",""
"","","","","","image-keyboard-response","66","140220","0.0-2.0-5.0-1.22","616870f3f5785e447dd90a2f","C3","batch3","","1000.8000000044703","stim/no_12_1.png","j","pattern_response","true","j","pattern_01","1000.8000000044703","true","21","","","","","","","","","","","","","","","","","","",""
"","","","","","html-keyboard-response","67","141530","0.0-2.0-5.0-0.23","616870f3f5785e447dd90a2f","C3","batch3","","null","<p class=block-text>Trial 24 out of 78</p>","null","pattern_show_trial_num","","","","","","","","","","","","","","","","","","","","","","","","",""
"","","","","","image-keyboard-response","68","144496","0.0-2.0-5.0-1.23","616870f3f5785e447dd90a2f","C3","batch3","","2957.89999999851","stim/no_51_1.png","j","pattern_response","true","j","pattern_31","2957.89999999851","true","22","","","","","","","","","","","","","","","","","","",""
"","","","","","html-keyboard-response","69","145823","0.0-2.0-5.0-0.24","616870f3f5785e447dd90a2f","C3","batch3","","null","<p class=block-text>Trial 25 out of 78</p>","null","pattern_show_trial_num","","","","","","","","","","","","","","","","","","","","","","","","",""
"","","","","","image-keyboard-response","70","146710","0.0-2.0-5.0-1.24","616870f3f5785e447dd90a2f","C3","batch3","","885.3999999985099","stim/yes_37_hor_w1_w.png","f","pattern_response","true","f","pattern_60","885.3999999985099","true","23","","","","","","","","","","","","","","","","","","",""
"","","","","","html-keyboard-response","71","148023","0.0-2.0-5.0-0.25","616870f3f5785e447dd90a2f","C3","batch3","","null","<p class=block-text>Trial 26 out of 78</p>","null","pattern_show_trial_num","","","","","","","","","","","","","","","","","","","","","","","","",""
"","","","","","image-keyboard-response","72","148864","0.0-2.0-5.0-1.25","616870f3f5785e447dd90a2f","C3","batch3","","840","stim/no_49_2_b.png","f","pattern_response","false","j","pattern_29","840","false","23","","","","","","","","","","","","","","","","","","",""
"","","","","","html-keyboard-response","73","150189","0.0-2.0-5.0-0.26","616870f3f5785e447dd90a2f","C3","batch3","","null","<p class=block-text>Trial 27 out of 78</p>","null","pattern_show_trial_num","","","","","","","","","","","","","","","","","","","","","","","","",""
"","","","","","image-keyboard-response","74","152245","0.0-2.0-5.0-1.26","616870f3f5785e447dd90a2f","C3","batch3","","2054.1999999955297","stim/yes_30_ver_b1_b.png","f","pattern_response","true","f","pattern_54","2054.1999999955297","true","24","","","","","","","","","","","","","","","","","","",""
"","","","","","html-keyboard-response","75","153573","0.0-2.0-5.0-0.27","616870f3f5785e447dd90a2f","C3","batch3","","null","<p class=block-text>Trial 28 out of 78</p>","null","pattern_show_trial_num","","","","","","","","","","","","","","","","","","","","","","","","",""
"","","","","","image-keyboard-response","76","155781","0.0-2.0-5.0-1.27","616870f3f5785e447dd90a2f","C3","batch3","","2207.10000000149","stim/no_43_2_b.png","j","pattern_response","true","j","pattern_23","2207.10000000149","true","25","","","","","","","","","","","","","","","","","","",""
"","","","","","html-keyboard-response","77","157098","0.0-2.0-5.0-0.28","616870f3f5785e447dd90a2f","C3","batch3","","null","<p class=block-text>Trial 29 out of 78</p>","null","pattern_show_trial_num","","","","","","","","","","","","","","","","","","","","","","","","",""
"","","","","","image-keyboard-response","78","159699","0.0-2.0-5.0-1.28","616870f3f5785e447dd90a2f","C3","batch3","","2599.6999999955297","stim/no_36_1_b.png","j","pattern_response","true","j","pattern_17","2599.6999999955297","true","26","","","","","","","","","","","","","","","","","","",""
"","","","","","html-keyboard-response","79","161022","0.0-2.0-5.0-0.29","616870f3f5785e447dd90a2f","C3","batch3","","null","<p class=block-text>Trial 30 out of 78</p>","null","pattern_show_trial_num","","","","","","","","","","","","","","","","","","","","","","","","",""
"","","","","","image-keyboard-response","80","162866","0.0-2.0-5.0-1.29","616870f3f5785e447dd90a2f","C3","batch3","","1844.1000000014901","stim/no_47_1_b.png","j","pattern_response","true","j","pattern_27","1844.1000000014901","true","27","","","","","","","","","","","","","","","","","","",""
"","","","","","html-keyboard-response","81","164182","0.0-2.0-5.0-0.30","616870f3f5785e447dd90a2f","C3","batch3","","null","<p class=block-text>Trial 31 out of 78</p>","null","pattern_show_trial_num","","","","","","","","","","","","","","","","","","","","","","","","",""
"","","","","","image-keyboard-response","82","166105","0.0-2.0-5.0-1.30","616870f3f5785e447dd90a2f","C3","batch3","","1922.2000000029802","stim/no_28_2.png","j","pattern_response","true","j","pattern_11","1922.2000000029802","true","28","","","","","","","","","","","","","","","","","","",""
"","","","","","html-keyboard-response","83","167410","0.0-2.0-5.0-0.31","616870f3f5785e447dd90a2f","C3","batch3","","null","<p class=block-text>Trial 32 out of 78</p>","null","pattern_show_trial_num","","","","","","","","","","","","","","","","","","","","","","","","",""
"","","","","","image-keyboard-response","84","168167","0.0-2.0-5.0-1.31","616870f3f5785e447dd90a2f","C3","batch3","","754.8999999985099","stim/no_15_1_w.png","j","pattern_response","true","j","pattern_03","754.8999999985099","true","29","","","","","","","","","","","","","","","","","","",""
"","","","","","html-keyboard-response","85","169480","0.0-2.0-5.0-0.32","616870f3f5785e447dd90a2f","C3","batch3","","null","<p class=block-text>Trial 33 out of 78</p>","null","pattern_show_trial_num","","","","","","","","","","","","","","","","","","","","","","","","",""
"","","","","","image-keyboard-response","86","171897","0.0-2.0-5.0-1.32","616870f3f5785e447dd90a2f","C3","batch3","","2415.89999999851","stim/yes_51_dia_b1.png","f","pattern_response","true","f","pattern_72","2415.89999999851","true","30","","","","","","","","","","","","","","","","","","",""
"","","","","","html-keyboard-response","87","173219","0.0-2.0-5.0-0.33","616870f3f5785e447dd90a2f","C3","batch3","","null","<p class=block-text>Trial 34 out of 78</p>","null","pattern_show_trial_num","","","","","","","","","","","","","","","","","","","","","","","","",""
"","","","","","image-keyboard-response","88","174696","0.0-2.0-5.0-1.33","616870f3f5785e447dd90a2f","C3","batch3","","1475.4000000059605","stim/yes_29_hor_b1_b.png","f","pattern_response","true","f","pattern_52","1475.4000000059605","true","31","","","","","","","","","","","","","","","","","","",""
"","","","","","html-keyboard-response","89","176019","0.0-2.0-5.0-0.34","616870f3f5785e447dd90a2f","C3","batch3","","null","<p class=block-text>Trial 35 out of 78</p>","null","pattern_show_trial_num","","","","","","","","","","","","","","","","","","","","","","","","",""
"","","","","","image-keyboard-response","90","179396","0.0-2.0-5.0-1.34","616870f3f5785e447dd90a2f","C3","batch3","","3375.89999999851","stim/no_58_1_w.png","j","pattern_response","true","j","pattern_35","3375.89999999851","true","32","","","","","","","","","","","","","","","","","","",""
"","","","","","html-keyboard-response","91","180719","0.0-2.0-5.0-0.35","616870f3f5785e447dd90a2f","C3","batch3","","null","<p class=block-text>Trial 36 out of 78</p>","null","pattern_show_trial_num","","","","","","","","","","","","","","","","","","","","","","","","",""
"","","","","","image-keyboard-response","92","182824","0.0-2.0-5.0-1.35","616870f3f5785e447dd90a2f","C3","batch3","","2103.60000000149","stim/no_30_1_b.png","j","pattern_response","true","j","pattern_13","2103.60000000149","true","33","","","","","","","","","","","","","","","","","","",""
"","","","","","html-keyboard-response","93","184141","0.0-2.0-5.0-0.36","616870f3f5785e447dd90a2f","C3","batch3","","null","<p class=block-text>Trial 37 out of 78</p>","null","pattern_show_trial_num","","","","","","","","","","","","","","","","","","","","","","","","",""
"","","","","","image-keyboard-response","94","186718","0.0-2.0-5.0-1.36","616870f3f5785e447dd90a2f","C3","batch3","","2575.5","stim/no_39_1_w.png","j","pattern_response","true","j","pattern_21","2575.5","true","34","","","","","","","","","","","","","","","","","","",""
"","","","","","html-keyboard-response","95","188035","0.0-2.0-5.0-0.37","616870f3f5785e447dd90a2f","C3","batch3","","null","<p class=block-text>Trial 38 out of 78</p>","null","pattern_show_trial_num","","","","","","","","","","","","","","","","","","","","","","","","",""
"","","","","","image-keyboard-response","96","190037","0.0-2.0-5.0-1.37","616870f3f5785e447dd90a2f","C3","batch3","","2000","stim/yes_49_hor_w1_b.png","f","pattern_response","true","f","pattern_70","2000","true","35","","","","","","","","","","","","","","","","","","",""
"","","","","","html-keyboard-response","97","191357","0.0-2.0-5.0-0.38","616870f3f5785e447dd90a2f","C3","batch3","","null","<p class=block-text>Trial 39 out of 78</p>","null","pattern_show_trial_num","","","","","","","","","","","","","","","","","","","","","","","","",""
"","","","","","image-keyboard-response","98","193121","0.0-2.0-5.0-1.38","616870f3f5785e447dd90a2f","C3","batch3","","1761.6999999955297","stim/no_25_1_b.png","j","pattern_response","true","j","pattern_09","1761.6999999955297","true","36","","","","","","","","","","","","","","","","","","",""
"","","","","","image-keyboard-response","99","195253","0.0-2.0-6.0","616870f3f5785e447dd90a2f","C3","batch3","","1629.0999999940395","stim/empty_board.png","j","attention_check","true","j","","","","","500","[""f"",""j""]","","","","","","","","","","","","","","","","",""
"","","","","","html-keyboard-response","100","196065","0.0-2.0-7.0-0.0","616870f3f5785e447dd90a2f","C3","batch3","","null","<p class=block-text>Trial 40 out of 78</p>","null","pattern_show_trial_num","","","","","","","","","","","","","","","","","","","","","","","","",""
"","","","","","image-keyboard-response","101","198413","0.0-2.0-7.0-1.0","616870f3f5785e447dd90a2f","C3","batch3","","2346.7000000029802","stim/no_48_1_w.png","j","pattern_response","true","j","pattern_28","2346.7000000029802","true","37","","","","","","","","","","","","","","","","","","",""
"","","","","","html-keyboard-response","102","199736","0.0-2.0-7.0-0.1","616870f3f5785e447dd90a2f","C3","batch3","","null","<p class=block-text>Trial 41 out of 78</p>","null","pattern_show_trial_num","","","","","","","","","","","","","","","","","","","","","","","","",""
"","","","","","image-keyboard-response","103","202176","0.0-2.0-7.0-1.1","616870f3f5785e447dd90a2f","C3","batch3","","2438","stim/no_46_1_b.png","j","pattern_response","true","j","pattern_26","2438","true","38","","","","","","","","","","","","","","","","","","",""
"","","","","","html-keyboard-response","104","203501","0.0-2.0-7.0-0.2","616870f3f5785e447dd90a2f","C3","batch3","","null","<p class=block-text>Trial 42 out of 78</p>","null","pattern_show_trial_num","","","","","","","","","","","","","","","","","","","","","","","","",""
"","","","","","image-keyboard-response","105","205253","0.0-2.0-7.0-1.2","616870f3f5785e447dd90a2f","C3","batch3","","1749.7999999970198","stim/no_17_1_w.png","j","pattern_response","true","j","pattern_04","1749.7999999970198","true","39","","","","","","","","","","","","","","","","","","",""
"","","","","","html-keyboard-response","106","206557","0.0-2.0-7.0-0.3","616870f3f5785e447dd90a2f","C3","batch3","","null","<p class=block-text>Trial 43 out of 78</p>","null","pattern_show_trial_num","","","","","","","","","","","","","","","","","","","","","","","","",""
"","","","","","image-keyboard-response","107","209024","0.0-2.0-7.0-1.3","616870f3f5785e447dd90a2f","C3","batch3","","2465.3000000044703","stim/yes_48_dia_w1_w.png","j","pattern_response","false","f","pattern_69","2465.3000000044703","false","39","","","","","","","","","","","","","","","","","","",""
"","","","","","html-keyboard-response","108","210350","0.0-2.0-7.0-0.4","616870f3f5785e447dd90a2f","C3","batch3","","null","<p class=block-text>Trial 44 out of 78</p>","null","pattern_show_trial_num","","","","","","","","","","","","","","","","","","","","","","","","",""
"","","","","","image-keyboard-response","109","212031","0.0-2.0-7.0-1.4","616870f3f5785e447dd90a2f","C3","batch3","","1678.2999999970198","stim/no_26_1_w.png","j","pattern_response","true","j","pattern_10","1678.2999999970198","true","40","","","","","","","","","","","","","","","","","","",""
"","","","","","html-keyboard-response","110","213350","0.0-2.0-7.0-0.5","616870f3f5785e447dd90a2f","C3","batch3","","null","<p class=block-text>Trial 45 out of 78</p>","null","pattern_show_trial_num","","","","","","","","","","","","","","","","","","","","","","","","",""
"","","","","","image-keyboard-response","111","214458","0.0-2.0-7.0-1.5","616870f3f5785e447dd90a2f","C3","batch3","","1105.6999999955297","stim/yes_60_ver_b1_b.png","f","pattern_response","true","f","pattern_77","1105.6999999955297","true","41","","","","","","","","","","","","","","","","","","",""
"","","","","","html-keyboard-response","112","215783","0.0-2.0-7.0-0.6","616870f3f5785e447dd90a2f","C3","batch3","","null","<p class=block-text>Trial 46 out of 78</p>","null","pattern_show_trial_num","","","","","","","","","","","","","","","","","","","","","","","","",""
"","","","","","image-keyboard-response","113","217253","0.0-2.0-7.0-1.6","616870f3f5785e447dd90a2f","C3","batch3","","1467.7999999970198","stim/yes_38_hor_b1_b.png","f","pattern_response","true","f","pattern_61","1467.7999999970198","true","42","","","","","","","","","","","","","","","","","","",""
"","","","","","html-keyboard-response","114","218566","0.0-2.0-7.0-0.7","616870f3f5785e447dd90a2f","C3","batch3","","null","<p class=block-text>Trial 47 out of 78</p>","null","pattern_show_trial_num","","","","","","","","","","","","","","","","","","","","","","","","",""
"","","","","","image-keyboard-response","115","221087","0.0-2.0-7.0-1.7","616870f3f5785e447dd90a2f","C3","batch3","","2519.2999999970198","stim/yes_45_hor_b2_b.png","f","pattern_response","true","f","pattern_67","2519.2999999970198","true","43","","","","","","","","","","","","","","","","","","",""
"","","","","","html-keyboard-response","116","222406","0.0-2.0-7.0-0.8","616870f3f5785e447dd90a2f","C3","batch3","","null","<p class=block-text>Trial 48 out of 78</p>","null","pattern_show_trial_num","","","","","","","","","","","","","","","","","","","","","","","","",""
"","","","","","image-keyboard-response","117","225714","0.0-2.0-7.0-1.8","616870f3f5785e447dd90a2f","C3","batch3","","3318.60000000149","stim/no_70_2.png","j","pattern_response","true","j","pattern_40","3318.60000000149","true","44","","","","","","","","","","","","","","","","","","",""
"","","","","","html-keyboard-response","118","227026","0.0-2.0-7.0-0.9","616870f3f5785e447dd90a2f","C3","batch3","","null","<p class=block-text>Trial 49 out of 78</p>","null","pattern_show_trial_num","","","","","","","","","","","","","","","","","","","","","","","","",""
"","","","","","image-keyboard-response","119","228833","0.0-2.0-7.0-1.9","616870f3f5785e447dd90a2f","C3","batch3","","1798.7000000029802","stim/yes_40_dia_b1_b.png","f","pattern_response","true","f","pattern_63","1798.7000000029802","true","45","","","","","","","","","","","","","","","","","","",""
"","","","","","html-keyboard-response","120","230155","0.0-2.0-7.0-0.10","616870f3f5785e447dd90a2f","C3","batch3","","null","<p class=block-text>Trial 50 out of 78</p>","null","pattern_show_trial_num","","","","","","","","","","","","","","","","","","","","","","","","",""
"","","","","","image-keyboard-response","121","231813","0.0-2.0-7.0-1.10","616870f3f5785e447dd90a2f","C3","batch3","","1656.9000000059605","stim/yes_29_ver_w1.png","f","pattern_response","true","f","pattern_53","1656.9000000059605","true","46","","","","","","","","","","","","","","","","","","",""
"","","","","","html-keyboard-response","122","233120","0.0-2.0-7.0-0.11","616870f3f5785e447dd90a2f","C3","batch3","","null","<p class=block-text>Trial 51 out of 78</p>","null","pattern_show_trial_num","","","","","","","","","","","","","","","","","","","","","","","","",""
"","","","","","image-keyboard-response","123","233835","0.0-2.0-7.0-1.11","616870f3f5785e447dd90a2f","C3","batch3","","712.9000000059605","stim/yes_55_hor_w1_w.png","f","pattern_response","true","f","pattern_75","712.9000000059605","true","47","","","","","","","","","","","","","","","","","","",""
"","","","","","html-keyboard-response","124","235144","0.0-2.0-7.0-0.12","616870f3f5785e447dd90a2f","C3","batch3","","null","<p class=block-text>Trial 52 out of 78</p>","null","pattern_show_trial_num","","","","","","","","","","","","","","","","","","","","","","","","",""
"","","","","","image-keyboard-response","125","238666","0.0-2.0-7.0-1.12","616870f3f5785e447dd90a2f","C3","batch3","","3521.0999999940395","stim/no_44_1.png","j","pattern_response","true","j","pattern_24","3521.0999999940395","true","48","","","","","","","","","","","","","","","","","","",""
"","","","","","html-keyboard-response","126","239972","0.0-2.0-7.0-0.13","616870f3f5785e447dd90a2f","C3","batch3","","null","<p class=block-text>Trial 53 out of 78</p>","null","pattern_show_trial_num","","","","","","","","","","","","","","","","","","","","","","","","",""
"","","","","","image-keyboard-response","127","242043","0.0-2.0-7.0-1.13","616870f3f5785e447dd90a2f","C3","batch3","","2070.10000000149","stim/no_32_1_w.png","j","pattern_response","true","j","pattern_14","2070.10000000149","true","49","","","","","","","","","","","","","","","","","","",""
"","","","","","html-keyboard-response","128","243370","0.0-2.0-7.0-0.14","616870f3f5785e447dd90a2f","C3","batch3","","null","<p class=block-text>Trial 54 out of 78</p>","null","pattern_show_trial_num","","","","","","","","","","","","","","","","","","","","","","","","",""
"","","","","","image-keyboard-response","129","246039","0.0-2.0-7.0-1.14","616870f3f5785e447dd90a2f","C3","batch3","","2667.5","stim/no_55_1_w.png","j","pattern_response","true","j","pattern_34","2667.5","true","50","","","","","","","","","","","","","","","","","","",""
"","","","","","html-keyboard-response","130","247343","0.0-2.0-7.0-0.15","616870f3f5785e447dd90a2f","C3","batch3","","null","<p class=block-text>Trial 55 out of 78</p>","null","pattern_show_trial_num","","","","","","","","","","","","","","","","","","","","","","","","",""
"","","","","","image-keyboard-response","131","248266","0.0-2.0-7.0-1.15","616870f3f5785e447dd90a2f","C3","batch3","","920.8000000044703","stim/yes_67_hor_b1.png","f","pattern_response","true","f","pattern_79","920.8000000044703","true","51","","","","","","","","","","","","","","","","","","",""
"","","","","","html-keyboard-response","132","249586","0.0-2.0-7.0-0.16","616870f3f5785e447dd90a2f","C3","batch3","","null","<p class=block-text>Trial 56 out of 78</p>","null","pattern_show_trial_num","","","","","","","","","","","","","","","","","","","","","","","","",""
"","","","","","image-keyboard-response","133","251650","0.0-2.0-7.0-1.16","616870f3f5785e447dd90a2f","C3","batch3","","2062.2000000029802","stim/no_23_1.png","j","pattern_response","true","j","pattern_08","2062.2000000029802","true","52","","","","","","","","","","","","","","","","","","",""
"","","","","","html-keyboard-response","134","252975","0.0-2.0-7.0-0.17","616870f3f5785e447dd90a2f","C3","batch3","","null","<p class=block-text>Trial 57 out of 78</p>","null","pattern_show_trial_num","","","","","","","","","","","","","","","","","","","","","","","","",""
"","","","","","image-keyboard-response","135","253895","0.0-2.0-7.0-1.17","616870f3f5785e447dd90a2f","C3","batch3","","918.3999999985099","stim/yes_17_dia_w1.png","f","pattern_response","true","f","pattern_45","918.3999999985099","true","53","","","","","","","","","","","","","","","","","","",""
"","","","","","html-keyboard-response","136","255202","0.0-2.0-7.0-0.18","616870f3f5785e447dd90a2f","C3","batch3","","null","<p class=block-text>Trial 58 out of 78</p>","null","pattern_show_trial_num","","","","","","","","","","","","","","","","","","","","","","","","",""
"","","","","","image-keyboard-response","137","256098","0.0-2.0-7.0-1.18","616870f3f5785e447dd90a2f","C3","batch3","","894.0999999940395","stim/yes_28_ver_b1.png","f","pattern_response","true","f","pattern_51","894.0999999940395","true","54","","","","","","","","","","","","","","","","","","",""
"","","","","","html-keyboard-response","138","257415","0.0-2.0-7.0-0.19","616870f3f5785e447dd90a2f","C3","batch3","","null","<p class=block-text>Trial 59 out of 78</p>","null","pattern_show_trial_num","","","","","","","","","","","","","","","","","","","","","","","","",""
"","","","","","image-keyboard-response","139","259575","0.0-2.0-7.0-1.19","616870f3f5785e447dd90a2f","C3","batch3","","2158.2999999970198","stim/yes_37_dia_w1.png","f","pattern_response","true","f","pattern_59","2158.2999999970198","true","55","","","","","","","","","","","","","","","","","","",""
"","","","","","html-keyboard-response","140","260893","0.0-2.0-7.0-0.20","616870f3f5785e447dd90a2f","C3","batch3","","null","<p class=block-text>Trial 60 out of 78</p>","null","pattern_show_trial_num","","","","","","","","","","","","","","","","","","","","","","","","",""
"","","","","","image-keyboard-response","141","263229","0.0-2.0-7.0-1.20","616870f3f5785e447dd90a2f","C3","batch3","","2334.2999999970198","stim/no_50_1.png","j","pattern_response","true","j","pattern_30","2334.2999999970198","true","56","","","","","","","","","","","","","","","","","","",""
"","","","","","html-keyboard-response","142","264552","0.0-2.0-7.0-0.21","616870f3f5785e447dd90a2f","C3","batch3","","null","<p class=block-text>Trial 61 out of 78</p>","null","pattern_show_trial_num","","","","","","","","","","","","","","","","","","","","","","","","",""
"","","","","","image-keyboard-response","143","265813","0.0-2.0-7.0-1.21","616870f3f5785e447dd90a2f","C3","batch3","","1259.6000000014901","stim/no_20_1_w.png","j","pattern_response","true","j","pattern_06","1259.6000000014901","true","57","","","","","","","","","","","","","","","","","","",""
"","","","","","html-keyboard-response","144","267141","0.0-2.0-7.0-0.22","616870f3f5785e447dd90a2f","C3","batch3","","null","<p class=block-text>Trial 62 out of 78</p>","null","pattern_show_trial_num","","","","","","","","","","","","","","","","","","","","","","","","",""
"","","","","","image-keyboard-response","145","269559","0.0-2.0-7.0-1.22","616870f3f5785e447dd90a2f","C3","batch3","","2416.2000000029802","stim/yes_50_dia_w1.png","j","pattern_response","false","f","pattern_71","2416.2000000029802","false","57","","","","","","","","","","","","","","","","","","",""
"","","","","","html-keyboard-response","146","270875","0.0-2.0-7.0-0.23","616870f3f5785e447dd90a2f","C3","batch3","","null","<p class=block-text>Trial 63 out of 78</p>","null","pattern_show_trial_num","","","","","","","","","","","","","","","","","","","","","","","","",""
"","","","","","image-keyboard-response","147","273137","0.0-2.0-7.0-1.23","616870f3f5785e447dd90a2f","C3","batch3","","2260.2999999970198","stim/no_42_1_w.png","j","pattern_response","true","j","pattern_22","2260.2999999970198","true","58","","","","","","","","","","","","","","","","","","",""
"","","","","","html-keyboard-response","148","274452","0.0-2.0-7.0-0.24","616870f3f5785e447dd90a2f","C3","batch3","","null","<p class=block-text>Trial 64 out of 78</p>","null","pattern_show_trial_num","","","","","","","","","","","","","","","","","","","","","","","","",""
"","","","","","image-keyboard-response","149","275613","0.0-2.0-7.0-1.24","616870f3f5785e447dd90a2f","C3","batch3","","1159.7999999970198","stim/no_13_2_b.png","j","pattern_response","true","j","pattern_02","1159.7999999970198","true","59","","","","","","","","","","","","","","","","","","",""
"","","","","","html-keyboard-response","150","276934","0.0-2.0-7.0-0.25","616870f3f5785e447dd90a2f","C3","batch3","","null","<p class=block-text>Trial 65 out of 78</p>","null","pattern_show_trial_num","","","","","","","","","","","","","","","","","","","","","","","","",""
"","","","","","image-keyboard-response","151","278030","0.0-2.0-7.0-1.25","616870f3f5785e447dd90a2f","C3","batch3","","1094.0999999940395","stim/yes_31_hor_b1.png","f","pattern_response","true","f","pattern_55","1094.0999999940395","true","60","","","","","","","","","","","","","","","","","","",""
"","","","","","html-keyboard-response","152","279347","0.0-2.0-7.0-0.26","616870f3f5785e447dd90a2f","C3","batch3","","null","<p class=block-text>Trial 66 out of 78</p>","null","pattern_show_trial_num","","","","","","","","","","","","","","","","","","","","","","","","",""
"","","","","","image-keyboard-response","153","279900","0.0-2.0-7.0-1.26","616870f3f5785e447dd90a2f","C3","batch3","","551.2000000029802","stim/yes_14_hor_b1_w.png","f","pattern_response","true","f","pattern_43","551.2000000029802","true","61","","","","","","","","","","","","","","","","","","",""
"","","","","","html-keyboard-response","154","281217","0.0-2.0-7.0-0.27","616870f3f5785e447dd90a2f","C3","batch3","","null","<p class=block-text>Trial 67 out of 78</p>","null","pattern_show_trial_num","","","","","","","","","","","","","","","","","","","","","","","","",""
"","","","","","image-keyboard-response","155","284063","0.0-2.0-7.0-1.27","616870f3f5785e447dd90a2f","C3","batch3","","2844.2999999970198","stim/no_65_1_b.png","j","pattern_response","true","j","pattern_38","2844.2999999970198","true","62","","","","","","","","","","","","","","","","","","",""
"","","","","","html-keyboard-response","156","285384","0.0-2.0-7.0-0.28","616870f3f5785e447dd90a2f","C3","batch3","","null","<p class=block-text>Trial 68 out of 78</p>","null","pattern_show_trial_num","","","","","","","","","","","","","","","","","","","","","","","","",""
"","","","","","image-keyboard-response","157","287687","0.0-2.0-7.0-1.28","616870f3f5785e447dd90a2f","C3","batch3","","2298.3000000044703","stim/no_52_1.png","j","pattern_response","true","j","pattern_32","2298.3000000044703","true","63","","","","","","","","","","","","","","","","","","",""
"","","","","","html-keyboard-response","158","289005","0.0-2.0-7.0-0.29","616870f3f5785e447dd90a2f","C3","batch3","","null","<p class=block-text>Trial 69 out of 78</p>","null","pattern_show_trial_num","","","","","","","","","","","","","","","","","","","","","","","","",""
"","","","","","image-keyboard-response","159","290988","0.0-2.0-7.0-1.29","616870f3f5785e447dd90a2f","C3","batch3","","1982","stim/no_36_2_w.png","j","pattern_response","true","j","pattern_18","1982","true","64","","","","","","","","","","","","","","","","","","",""
"","","","","","html-keyboard-response","160","292293","0.0-2.0-7.0-0.30","616870f3f5785e447dd90a2f","C3","batch3","","null","<p class=block-text>Trial 70 out of 78</p>","null","pattern_show_trial_num","","","","","","","","","","","","","","","","","","","","","","","","",""
"","","","","","image-keyboard-response","161","295558","0.0-2.0-7.0-1.30","616870f3f5785e447dd90a2f","C3","batch3","","3264.10000000149","stim/no_62_1_w.png","j","pattern_response","true","j","pattern_36","3264.10000000149","true","65","","","","","","","","","","","","","","","","","","",""
"","","","","","html-keyboard-response","162","296876","0.0-2.0-7.0-0.31","616870f3f5785e447dd90a2f","C3","batch3","","null","<p class=block-text>Trial 71 out of 78</p>","null","pattern_show_trial_num","","","","","","","","","","","","","","","","","","","","","","","","",""
"","","","","","image-keyboard-response","163","298040","0.0-2.0-7.0-1.31","616870f3f5785e447dd90a2f","C3","batch3","","1162.1999999955297","stim/yes_35_dia_b1.png","f","pattern_response","true","f","pattern_57","1162.1999999955297","true","66","","","","","","","","","","","","","","","","","","",""
"","","","","","html-keyboard-response","164","299369","0.0-2.0-7.0-0.32","616870f3f5785e447dd90a2f","C3","batch3","","null","<p class=block-text>Trial 72 out of 78</p>","null","pattern_show_trial_num","","","","","","","","","","","","","","","","","","","","","","","","",""
"","","","","","image-keyboard-response","165","300189","0.0-2.0-7.0-1.32","616870f3f5785e447dd90a2f","C3","batch3","","818.3999999985099","stim/yes_22_ver_w1.png","f","pattern_response","true","f","pattern_47","818.3999999985099","true","67","","","","","","","","","","","","","","","","","","",""
"","","","","","html-keyboard-response","166","301504","0.0-2.0-7.0-0.33","616870f3f5785e447dd90a2f","C3","batch3","","null","<p class=block-text>Trial 73 out of 78</p>","null","pattern_show_trial_num","","","","","","","","","","","","","","","","","","","","","","","","",""
"","","","","","image-keyboard-response","167","303156","0.0-2.0-7.0-1.33","616870f3f5785e447dd90a2f","C3","batch3","","1643.6000000014901","stim/no_29_1_b.png","j","pattern_response","true","j","pattern_12","1643.6000000014901","true","68","","","","","","","","","","","","","","","","","","",""
"","","","","","html-keyboard-response","168","304486","0.0-2.0-7.0-0.34","616870f3f5785e447dd90a2f","C3","batch3","","null","<p class=block-text>Trial 74 out of 78</p>","null","pattern_show_trial_num","","","","","","","","","","","","","","","","","","","","","","","","",""
"","","","","","image-keyboard-response","169","305558","0.0-2.0-7.0-1.34","616870f3f5785e447dd90a2f","C3","batch3","","1070.5","stim/yes_43_ver_w1_w.png","f","pattern_response","true","f","pattern_65","1070.5","true","69","","","","","","","","","","","","","","","","","","",""
"","","","","","html-keyboard-response","170","306869","0.0-2.0-7.0-0.35","616870f3f5785e447dd90a2f","C3","batch3","","null","<p class=block-text>Trial 75 out of 78</p>","null","pattern_show_trial_num","","","","","","","","","","","","","","","","","","","","","","","","",""
"","","","","","image-keyboard-response","171","307618","0.0-2.0-7.0-1.35","616870f3f5785e447dd90a2f","C3","batch3","","748.4000000059605","stim/yes_25_hor_b1_b.png","f","pattern_response","true","f","pattern_49","748.4000000059605","true","70","","","","","","","","","","","","","","","","","","",""
"","","","","","html-keyboard-response","172","308939","0.0-2.0-7.0-0.36","616870f3f5785e447dd90a2f","C3","batch3","","null","<p class=block-text>Trial 76 out of 78</p>","null","pattern_show_trial_num","","","","","","","","","","","","","","","","","","","","","","","","",""
"","","","","","image-keyboard-response","173","310888","0.0-2.0-7.0-1.36","616870f3f5785e447dd90a2f","C3","batch3","","1947.2999999970198","stim/no_34_1_b.png","j","pattern_response","true","j","pattern_16","1947.2999999970198","true","71","","","","","","","","","","","","","","","","","","",""
"","","","","","html-keyboard-response","174","312207","0.0-2.0-7.0-0.37","616870f3f5785e447dd90a2f","C3","batch3","","null","<p class=block-text>Trial 77 out of 78</p>","null","pattern_show_trial_num","","","","","","","","","","","","","","","","","","","","","","","","",""
"","","","","","image-keyboard-response","175","313769","0.0-2.0-7.0-1.37","616870f3f5785e447dd90a2f","C3","batch3","","1559.8999999985099","stim/yes_52_ver_w1.png","f","pattern_response","true","f","pattern_73","1559.8999999985099","true","72","","","","","","","","","","","","","","","","","","",""
"","","","","","html-keyboard-response","176","315085","0.0-2.0-7.0-0.38","616870f3f5785e447dd90a2f","C3","batch3","","null","<p class=block-text>Trial 78 out of 78</p>","null","pattern_show_trial_num","","","","","","","","","","","","","","","","","","","","","","","","",""
"","","","","","image-keyboard-response","177","317627","0.0-2.0-7.0-1.38","616870f3f5785e447dd90a2f","C3","batch3","","2540.5","stim/no_38_1_b.png","j","pattern_response","true","j","pattern_20","2540.5","true","73","","","","","","","","","","","","","","","","","","",""
"","","","","","html-button-response","178","321149","0.0-2.0-8.0","616870f3f5785e447dd90a2f","C3","batch3","","3010.2000000029802","<p class = block-text>This concludes the 4-in-a-row detection game.Thank you for your responses!<br>
            You responded correctly on 94% of the trials.<br>
            When you are ready, press ""Continue"" button to continue </p>","0","","","","","","","","","","","","","","","","","","","","","","","","","",""
"true","","","","","fullscreen","179","323254","0.0-3.0-0.0","616870f3f5785e447dd90a2f","C3","batch3","","","","","","","","","","","","","","","","","","","","","","","","","","","","","",""
"","","","","","instructions","180","372756","0.0-3.0-1.0-0.0-0.0","616870f3f5785e447dd90a2f","C3","batch3","[{""page_index"":0,""viewing_time"":14105.60000000149},{""page_index"":1,""viewing_time"":4712},{""page_index"":2,""viewing_time"":3484.0999999940395},{""page_index"":3,""viewing_time"":7843.60000000149},{""page_index"":4,""viewing_time"":4918.5},{""page_index"":5,""viewing_time"":12051.80000000447},{""page_index"":6,""viewing_time"":2374.0999999940395}]","49489.89999999851","","","tol-instructions","","","","","","","","","","","","","","","","","","","","","","","","",""
"","","","","","html-button-response","181","373670","0.0-3.0-1.0-1.0-0.0","616870f3f5785e447dd90a2f","C3","batch3","","913","<p class=block-text> Let's answer a few questions <br>","0","tol_enter_quiz","","","","","","","","","","","","","","","","","","","","","","","","",""
"","","","","","html-button-response","182","377408","0.0-3.0-1.0-1.0-1.0","616870f3f5785e447dd90a2f","C3","batch3","","3737","<p class = block-text>True or False: You can only move the ball on top of a peg. <br></p>","0","tol_quiz","true","","","","","","","","","","","","","","","","","","","","","","","",""
"","","","","","html-button-response","183","378400","0.0-3.0-1.0-1.0-2.0","616870f3f5785e447dd90a2f","C3","batch3","","990.7000000029802","<p class = block-text>Correct! You can only move the ball on top of a peg.</p>","0","tol_quiz_feedback","","","","","","","","","","","","","","","","","","","","","","","","",""
"","","","","","html-button-response","184","381578","0.0-3.0-1.0-1.0-3.0","616870f3f5785e447dd90a2f","C3","batch3","","3177.10000000149","<p class = block-text>True or False: You should try to match your board with the target board with fewest moves possible. <br></p>","0","tol_quiz","true","","","","","","","","","","","","","","","","","","","","","","","",""
"","","","","","html-button-response","185","382240","0.0-3.0-1.0-1.0-4.0","616870f3f5785e447dd90a2f","C3","batch3","","660.8999999985099","<p class = block-text>Correct! </p>","0","tol_quiz_feedback","","","","","","","","","","","","","","","","","","","","","","","","",""
"","","","","","html-button-response","186","383354","0.0-3.0-2.0","616870f3f5785e447dd90a2f","C3","batch3","","1113.2000000029802","<p class=block-text> Now that you've understood the game, let's practice a few easier examples before we start!<br> <br>","0","","","","","","","","","","","","","","","","","","","","","","","","","",""
"","","","","","single-stim-button","187","385453","0.0-3.0-3.0-0.0","616870f3f5785e447dd90a2f","C3","batch3","","2097","","","tol_practice","","","","","","","","","tol_peg_2","2097","2097","0","[[1,2,0],[0,0],[0]]","1","[[1,2,0],[0,0],[3]]","practice","2097","","","","","","","",""
"","","","","","single-stim-button","188","386324","0.0-3.0-3.0-1.0","616870f3f5785e447dd90a2f","C3","batch3","","870","","","tol_practice","","","","","","","","","tol_peg_3","870","870","0","[[1,2,0],[0,0],[3]]","1","[[1,2,0],[0,0],[3]]","practice","870","","","","","","","",""
"","","","","","poldrack-single-stim","189","387330","0.0-3.0-4.0","616870f3f5785e447dd90a2f","C3","batch3","","-1","","","tol_feedback","true","","","","","","","","","1000","1000","500","","","","","","-1","none","true","","0","","",""
"","","","","","single-stim-button","190","390632","0.0-3.0-5.0-0.0","616870f3f5785e447dd90a2f","C3","batch3","","3301","","","tol_practice","","","","","","","","","tol_peg_1","3301","3301","0","[[1,0,0],[3,0],[0]]","2","[[0,0,0],[3,1],[2]]","practice","3301","","","","","","","",""
"","","","","","single-stim-button","191","391938","0.0-3.0-5.0-1.0","616870f3f5785e447dd90a2f","C3","batch3","","1305","","","tol_practice","","","","","","","","","tol_peg_3","1305","1305","0","[[1,0,0],[3,0],[2]]","2","[[0,0,0],[3,1],[2]]","practice","1305","","","","","","","",""
"","","","","","single-stim-button","192","393168","0.0-3.0-5.1-0.1","616870f3f5785e447dd90a2f","C3","batch3","","1229","","","tol_practice","","","","","","","","","tol_peg_1","1229","1229","0","[[0,0,0],[3,0],[2]]","3","[[0,0,0],[3,1],[2]]","practice","1229","","","","","","","",""
"","","","","","single-stim-button","193","393780","0.0-3.0-5.1-1.1","616870f3f5785e447dd90a2f","C3","batch3","","612","","","tol_practice","","","","","","","","","tol_peg_2","612","612","0","[[0,0,0],[3,1],[2]]","3","[[0,0,0],[3,1],[2]]","practice","612","","","","","","","",""
"","","","","","poldrack-single-stim","194","394795","0.0-3.0-6.0","616870f3f5785e447dd90a2f","C3","batch3","","-1","","","tol_feedback","true","","","","","","","","","1000","1000","500","","","","","","-1","none","true","","0","","",""
"","","","","","single-stim-button","195","397436","0.0-3.0-7.0-0.0","616870f3f5785e447dd90a2f","C3","batch3","","2641","","","tol_practice","","","","","","","","","tol_peg_2","2641","2641","0","[[1,2,0],[0,0],[0]]","4","[[1,0,0],[2,0],[3]]","practice","2641","","","","","","","",""
"","","","","","single-stim-button","196","398178","0.0-3.0-7.0-1.0","616870f3f5785e447dd90a2f","C3","batch3","","741","","","tol_practice","","","","","","","","","tol_peg_3","741","741","0","[[1,2,0],[0,0],[3]]","4","[[1,0,0],[2,0],[3]]","practice","741","","","","","","","",""
"","","","","","single-stim-button","197","398976","0.0-3.0-7.1-0.1","616870f3f5785e447dd90a2f","C3","batch3","","798","","","tol_practice","","","","","","","","","tol_peg_1","798","798","0","[[1,0,0],[0,0],[3]]","5","[[1,0,0],[2,0],[3]]","practice","798","","","","","","","",""
"","","","","","single-stim-button","198","399414","0.0-3.0-7.1-1.1","616870f3f5785e447dd90a2f","C3","batch3","","438","","","tol_practice","","","","","","","","","tol_peg_2","438","438","0","[[1,0,0],[2,0],[3]]","5","[[1,0,0],[2,0],[3]]","practice","438","","","","","","","",""
"","","","","","poldrack-single-stim","199","400419","0.0-3.0-8.0","616870f3f5785e447dd90a2f","C3","batch3","","-1","","","tol_feedback","true","","","","","","","","","1000","1000","500","","","","","","-1","none","true","","0","","",""
"","","","","","html-button-response","200","402340","0.0-3.0-9.0","616870f3f5785e447dd90a2f","C3","batch3","","1920.2999999970198","<div class = centerbox><p class = center-block-text>Great job! You are done with practice trials<br>You are about to start official trials.<br> <br> Problem <strong>1</strong> out of 25 problems</p></div>","0","tol_instruction","","","","","","","","","","","","","","","","","","","","","","","","",""
"","","","","","single-stim-button","201","406228","0.0-3.0-10.0-0.0","616870f3f5785e447dd90a2f","C3","batch3","","2883","","","tol_tohand","","","","","","","","","tol_peg_1","2883","2883","0","[[1,0,0],[3,0],[0]]","1","[[1,3,0],[2,0],[0]]","0","0","","","","","","3","",""
"","","","","","single-stim-button","202","406838","0.0-3.0-10.0-1.0","616870f3f5785e447dd90a2f","C3","batch3","","609","","","tol_toboard","","","","","","","","","tol_peg_3","609","609","0","[[1,0,0],[3,0],[2]]","1","[[1,3,0],[2,0],[0]]","0","0","","","","","","3","",""
"","","","","","single-stim-button","203","407318","0.0-3.0-10.1-0.1","616870f3f5785e447dd90a2f","C3","batch3","","479","","","tol_tohand","","","","","","","","","tol_peg_2","479","479","0","[[1,0,0],[0,0],[2]]","2","[[1,3,0],[2,0],[0]]","0","0","","","","","","3","",""
"","","","","","single-stim-button","204","407670","0.0-3.0-10.1-1.1","616870f3f5785e447dd90a2f","C3","batch3","","351","","","tol_toboard","","","","","","","","","tol_peg_1","351","351","0","[[1,3,0],[0,0],[2]]","2","[[1,3,0],[2,0],[0]]","0","0","","","","","","3","",""
"","","","","","single-stim-button","205","408588","0.0-3.0-10.2-0.2","616870f3f5785e447dd90a2f","C3","batch3","","917","","","tol_tohand","","","","","","","","","tol_peg_3","917","917","0","[[1,3,0],[0,0],[0]]","3","[[1,3,0],[2,0],[0]]","0","0","","","","","","3","",""
"","","","","","single-stim-button","206","408860","0.0-3.0-10.2-1.2","616870f3f5785e447dd90a2f","C3","batch3","","271","","","tol_toboard","","","","","","","","","tol_peg_2","271","271","0","[[1,3,0],[2,0],[0]]","3","[[1,3,0],[2,0],[0]]","0","0","","","","","","3","",""
"","","","","","poldrack-single-stim","207","409869","0.0-3.0-11.0","616870f3f5785e447dd90a2f","C3","batch3","","-1","","","tol_feedback","true","","","","","","","","","1000","1000","500","","","","","","-1","none","true","2883","4279","","",""
"","","","","","html-button-response","208","410516","0.0-3.0-12.0","616870f3f5785e447dd90a2f","C3","batch3","","646.1000000014901","<div class = centerbox><p class = center-block-text>problem <strong>2</strong> out of 25 problems</p></div>","0","tol_trial_num","","","","","","","","","","","","","","","","","","","","","","","","",""
"","","","","","single-stim-button","209","414040","0.0-3.0-13.0-0.0","616870f3f5785e447dd90a2f","C3","batch3","","3524","","","tol_tohand","","","","","","","","","tol_peg_2","3524","3524","0","[[1,2,0],[0,0],[0]]","1","[[2,1,3],[0,0],[0]]","1","0","","","","","","5","",""
"","","","","","single-stim-button","210","414696","0.0-3.0-13.0-1.0","616870f3f5785e447dd90a2f","C3","batch3","","656","","","tol_toboard","","","","","","","","","tol_peg_3","656","656","0","[[1,2,0],[0,0],[3]]","1","[[2,1,3],[0,0],[0]]","1","0","","","","","","5","",""
"","","","","","single-stim-button","211","415402","0.0-3.0-13.1-0.1","616870f3f5785e447dd90a2f","C3","batch3","","706","","","tol_tohand","","","","","","","","","tol_peg_1","706","706","0","[[1,0,0],[0,0],[3]]","2","[[2,1,3],[0,0],[0]]","1","0","","","","","","5","",""
"","","","","","single-stim-button","212","416810","0.0-3.0-13.1-1.1","616870f3f5785e447dd90a2f","C3","batch3","","1408","","","tol_toboard","","","","","","","","","tol_peg_2","1408","1408","0","[[1,0,0],[2,0],[3]]","2","[[2,1,3],[0,0],[0]]","1","0","","","","","","5","",""
"","","","","","single-stim-button","213","418268","0.0-3.0-13.2-0.2","616870f3f5785e447dd90a2f","C3","batch3","","1457","","","tol_tohand","","","","","","","","","tol_peg_1","1457","1457","0","[[0,0,0],[2,0],[3]]","3","[[2,1,3],[0,0],[0]]","1","0","","","","","","5","",""
"","","","","","single-stim-button","214","419356","0.0-3.0-13.2-1.2","616870f3f5785e447dd90a2f","C3","batch3","","1087","","","tol_toboard","","","","","","","","","tol_peg_1","1087","1087","0","[[1,0,0],[2,0],[3]]","3","[[2,1,3],[0,0],[0]]","1","0","","","","","","5","",""
"","","","","","single-stim-button","215","420834","0.0-3.0-13.3-0.3","616870f3f5785e447dd90a2f","C3","batch3","","1478","","","tol_tohand","","","","","","","","","tol_peg_3","1478","1478","0","[[1,0,0],[2,0],[0]]","4","[[2,1,3],[0,0],[0]]","1","0","","","","","","5","",""
"","","","","","single-stim-button","216","421294","0.0-3.0-13.3-1.3","616870f3f5785e447dd90a2f","C3","batch3","","460","","","tol_toboard","","","","","","","","","tol_peg_2","460","460","0","[[1,0,0],[2,3],[0]]","4","[[2,1,3],[0,0],[0]]","1","0","","","","","","5","",""
"","","","","","single-stim-button","217","421718","0.0-3.0-13.4-0.4","616870f3f5785e447dd90a2f","C3","batch3","","424","","","tol_tohand","","","","","","","","","tol_peg_1","424","424","0","[[0,0,0],[2,3],[0]]","5","[[2,1,3],[0,0],[0]]","1","0","","","","","","5","",""
"","","","","","single-stim-button","218","422268","0.0-3.0-13.4-1.4","616870f3f5785e447dd90a2f","C3","batch3","","550","","","tol_toboard","","","","","","","","","tol_peg_3","550","550","0","[[0,0,0],[2,3],[1]]","5","[[2,1,3],[0,0],[0]]","1","0","","","","","","5","",""
"","","","","","single-stim-button","219","429454","0.0-3.0-13.5-0.5","616870f3f5785e447dd90a2f","C3","batch3","","7185","","","tol_tohand","","","","","","","","","tol_peg_2","7185","7185","0","[[0,0,0],[2,0],[1]]","6","[[2,1,3],[0,0],[0]]","1","0","","","","","","5","",""
"","","","","","single-stim-button","220","430296","0.0-3.0-13.5-1.5","616870f3f5785e447dd90a2f","C3","batch3","","842","","","tol_toboard","","","","","","","","","tol_peg_1","842","842","0","[[3,0,0],[2,0],[1]]","6","[[2,1,3],[0,0],[0]]","1","0","","","","","","5","",""
"","","","","","single-stim-button","221","431230","0.0-3.0-13.6-0.6","616870f3f5785e447dd90a2f","C3","batch3","","934","","","tol_tohand","","","","","","","","","tol_peg_3","934","934","0","[[3,0,0],[2,0],[0]]","7","[[2,1,3],[0,0],[0]]","1","0","","","","","","5","",""
"","","","","","single-stim-button","222","431824","0.0-3.0-13.6-1.6","616870f3f5785e447dd90a2f","C3","batch3","","594","","","tol_toboard","","","","","","","","","tol_peg_2","594","594","0","[[3,0,0],[2,1],[0]]","7","[[2,1,3],[0,0],[0]]","1","0","","","","","","5","",""
"","","","","","single-stim-button","223","437600","0.0-3.0-13.7-0.7","616870f3f5785e447dd90a2f","C3","batch3","","5776","","","tol_tohand","","","","","","","","","tol_peg_2","5776","5776","0","[[3,0,0],[2,0],[0]]","8","[[2,1,3],[0,0],[0]]","1","0","","","","","","5","",""
"","","","","","single-stim-button","224","438018","0.0-3.0-13.7-1.7","616870f3f5785e447dd90a2f","C3","batch3","","418","","","tol_toboard","","","","","","","","","tol_peg_1","418","418","0","[[3,1,0],[2,0],[0]]","8","[[2,1,3],[0,0],[0]]","1","0","","","","","","5","",""
"","","","","","single-stim-button","225","438478","0.0-3.0-13.8-0.8","616870f3f5785e447dd90a2f","C3","batch3","","460","","","tol_tohand","","","","","","","","","tol_peg_2","460","460","0","[[3,1,0],[0,0],[0]]","9","[[2,1,3],[0,0],[0]]","1","0","","","","","","5","",""
"","","","","","single-stim-button","226","438956","0.0-3.0-13.8-1.8","616870f3f5785e447dd90a2f","C3","batch3","","478","","","tol_toboard","","","","","","","","","tol_peg_3","478","478","0","[[3,1,0],[0,0],[2]]","9","[[2,1,3],[0,0],[0]]","1","0","","","","","","5","",""
"","","","","","single-stim-button","227","441089","0.0-3.0-13.9-0.9","616870f3f5785e447dd90a2f","C3","batch3","","2133","","","tol_tohand","","","","","","","","","tol_peg_1","2133","2133","0","[[3,0,0],[0,0],[2]]","10","[[2,1,3],[0,0],[0]]","1","0","","","","","","5","",""
"","","","","","single-stim-button","228","441504","0.0-3.0-13.9-1.9","616870f3f5785e447dd90a2f","C3","batch3","","414","","","tol_toboard","","","","","","","","","tol_peg_2","414","414","0","[[3,0,0],[1,0],[2]]","10","[[2,1,3],[0,0],[0]]","1","0","","","","","","5","",""
"","","","","","single-stim-button","229","441952","0.0-3.0-13.10-0.10","616870f3f5785e447dd90a2f","C3","batch3","","448","","","tol_tohand","","","","","","","","","tol_peg_1","448","448","0","[[0,0,0],[1,0],[2]]","11","[[2,1,3],[0,0],[0]]","1","0","","","","","","5","",""
"","","","","","single-stim-button","230","442246","0.0-3.0-13.10-1.10","616870f3f5785e447dd90a2f","C3","batch3","","293","","","tol_toboard","","","","","","","","","tol_peg_2","293","293","0","[[0,0,0],[1,3],[2]]","11","[[2,1,3],[0,0],[0]]","1","0","","","","","","5","",""
"","","","","","single-stim-button","231","442598","0.0-3.0-13.11-0.11","616870f3f5785e447dd90a2f","C3","batch3","","352","","","tol_tohand","","","","","","","","","tol_peg_3","352","352","0","[[0,0,0],[1,3],[0]]","12","[[2,1,3],[0,0],[0]]","1","0","","","","","","5","",""
"","","","","","single-stim-button","232","443128","0.0-3.0-13.11-1.11","616870f3f5785e447dd90a2f","C3","batch3","","530","","","tol_toboard","","","","","","","","","tol_peg_1","530","530","0","[[2,0,0],[1,3],[0]]","12","[[2,1,3],[0,0],[0]]","1","0","","","","","","5","",""
"","","","","","single-stim-button","233","444192","0.0-3.0-13.12-0.12","616870f3f5785e447dd90a2f","C3","batch3","","1064","","","tol_tohand","","","","","","","","","tol_peg_2","1064","1064","0","[[2,0,0],[1,0],[0]]","13","[[2,1,3],[0,0],[0]]","1","0","","","","","","5","",""
"","","","","","single-stim-button","234","444672","0.0-3.0-13.12-1.12","616870f3f5785e447dd90a2f","C3","batch3","","479","","","tol_toboard","","","","","","","","","tol_peg_3","479","479","0","[[2,0,0],[1,0],[3]]","13","[[2,1,3],[0,0],[0]]","1","0","","","","","","5","",""
"","","","","","single-stim-button","235","445110","0.0-3.0-13.13-0.13","616870f3f5785e447dd90a2f","C3","batch3","","438","","","tol_tohand","","","","","","","","","tol_peg_2","438","438","0","[[2,0,0],[0,0],[3]]","14","[[2,1,3],[0,0],[0]]","1","0","","","","","","5","",""
"","","","","","single-stim-button","236","445528","0.0-3.0-13.13-1.13","616870f3f5785e447dd90a2f","C3","batch3","","418","","","tol_toboard","","","","","","","","","tol_peg_1","418","418","0","[[2,1,0],[0,0],[3]]","14","[[2,1,3],[0,0],[0]]","1","0","","","","","","5","",""
"","","","","","single-stim-button","237","445938","0.0-3.0-13.14-0.14","616870f3f5785e447dd90a2f","C3","batch3","","410","","","tol_tohand","","","","","","","","","tol_peg_3","410","410","0","[[2,1,0],[0,0],[0]]","15","[[2,1,3],[0,0],[0]]","1","0","","","","","","5","",""
"","","","","","single-stim-button","238","446316","0.0-3.0-13.14-1.14","616870f3f5785e447dd90a2f","C3","batch3","","377","","","tol_toboard","","","","","","","","","tol_peg_1","377","377","0","[[2,1,3],[0,0],[0]]","15","[[2,1,3],[0,0],[0]]","1","0","","","","","","5","",""
"","","","","","poldrack-single-stim","239","447320","0.0-3.0-14.0","616870f3f5785e447dd90a2f","C3","batch3","","-1","","","tol_feedback","true","","","","","","","","","1000","1000","500","","","","","","-1","none","true","3524","26789","","",""
"","","","","","html-button-response","240","447904","0.0-3.0-15.0","616870f3f5785e447dd90a2f","C3","batch3","","582.8999999985099","<div class = centerbox><p class = center-block-text>problem <strong>3</strong> out of 25 problems</p></div>","0","tol_trial_num","","","","","","","","","","","","","","","","","","","","","","","","",""
"","","","","","single-stim-button","241","449674","0.0-3.0-16.0-0.0","616870f3f5785e447dd90a2f","C3","batch3","","1769","","","tol_tohand","","","","","","","","","tol_peg_1","1769","1769","0","[[2,0,0],[0,0],[1]]","1","[[1,2,0],[3,0],[0]]","2","0","","","","","","4","",""
"","","","","","single-stim-button","242","449936","0.0-3.0-16.0-1.0","616870f3f5785e447dd90a2f","C3","batch3","","262","","","tol_toboard","","","","","","","","","tol_peg_2","262","262","0","[[2,0,0],[3,0],[1]]","1","[[1,2,0],[3,0],[0]]","2","0","","","","","","4","",""
"","","","","","single-stim-button","243","452332","0.0-3.0-16.1-0.1","616870f3f5785e447dd90a2f","C3","batch3","","2395","","","tol_tohand","","","","","","","","","tol_peg_1","2395","2395","0","[[0,0,0],[3,0],[1]]","2","[[1,2,0],[3,0],[0]]","2","0","","","","","","4","",""
"","","","","","single-stim-button","244","452762","0.0-3.0-16.1-1.1","616870f3f5785e447dd90a2f","C3","batch3","","430","","","tol_toboard","","","","","","","","","tol_peg_2","430","430","0","[[0,0,0],[3,2],[1]]","2","[[1,2,0],[3,0],[0]]","2","0","","","","","","4","",""
"","","","","","single-stim-button","245","453170","0.0-3.0-16.2-0.2","616870f3f5785e447dd90a2f","C3","batch3","","407","","","tol_tohand","","","","","","","","","tol_peg_3","407","407","0","[[0,0,0],[3,2],[0]]","3","[[1,2,0],[3,0],[0]]","2","0","","","","","","4","",""
"","","","","","single-stim-button","246","453564","0.0-3.0-16.2-1.2","616870f3f5785e447dd90a2f","C3","batch3","","394","","","tol_toboard","","","","","","","","","tol_peg_1","394","394","0","[[1,0,0],[3,2],[0]]","3","[[1,2,0],[3,0],[0]]","2","0","","","","","","4","",""
"","","","","","single-stim-button","247","453952","0.0-3.0-16.3-0.3","616870f3f5785e447dd90a2f","C3","batch3","","388","","","tol_tohand","","","","","","","","","tol_peg_2","388","388","0","[[1,0,0],[3,0],[0]]","4","[[1,2,0],[3,0],[0]]","2","0","","","","","","4","",""
"","","","","","single-stim-button","248","454380","0.0-3.0-16.3-1.3","616870f3f5785e447dd90a2f","C3","batch3","","428","","","tol_toboard","","","","","","","","","tol_peg_1","428","428","0","[[1,2,0],[3,0],[0]]","4","[[1,2,0],[3,0],[0]]","2","0","","","","","","4","",""
"","","","","","poldrack-single-stim","249","455386","0.0-3.0-17.0","616870f3f5785e447dd90a2f","C3","batch3","","-1","","","tol_feedback","true","","","","","","","","","1000","1000","500","","","","","","-1","none","true","1769","4959","","",""
"","","","","","html-button-response","250","455960","0.0-3.0-18.0","616870f3f5785e447dd90a2f","C3","batch3","","572.7000000029802","<div class = centerbox><p class = center-block-text>problem <strong>4</strong> out of 25 problems</p></div>","0","tol_trial_num","","","","","","","","","","","","","","","","","","","","","","","","",""
"","","","","","single-stim-button","251","460306","0.0-3.0-19.0-0.0","616870f3f5785e447dd90a2f","C3","batch3","","4346","","","tol_tohand","","","","","","","","","tol_peg_2","4346","4346","0","[[3,0,0],[2,0],[0]]","1","[[3,0,0],[1,0],[2]]","3","0","","","","","","3","",""
"","","","","","single-stim-button","252","461598","0.0-3.0-19.0-1.0","616870f3f5785e447dd90a2f","C3","batch3","","1292","","","tol_toboard","","","","","","","","","tol_peg_1","1292","1292","0","[[3,1,0],[2,0],[0]]","1","[[3,0,0],[1,0],[2]]","3","0","","","","","","3","",""
"","","","","","single-stim-button","253","461952","0.0-3.0-19.1-0.1","616870f3f5785e447dd90a2f","C3","batch3","","353","","","tol_tohand","","","","","","","","","tol_peg_2","353","353","0","[[3,1,0],[0,0],[0]]","2","[[3,0,0],[1,0],[2]]","3","0","","","","","","3","",""
"","","","","","single-stim-button","254","462330","0.0-3.0-19.1-1.1","616870f3f5785e447dd90a2f","C3","batch3","","378","","","tol_toboard","","","","","","","","","tol_peg_3","378","378","0","[[3,1,0],[0,0],[2]]","2","[[3,0,0],[1,0],[2]]","3","0","","","","","","3","",""
"","","","","","single-stim-button","255","462934","0.0-3.0-19.2-0.2","616870f3f5785e447dd90a2f","C3","batch3","","604","","","tol_tohand","","","","","","","","","tol_peg_1","604","604","0","[[3,0,0],[0,0],[2]]","3","[[3,0,0],[1,0],[2]]","3","0","","","","","","3","",""
"","","","","","single-stim-button","256","463262","0.0-3.0-19.2-1.2","616870f3f5785e447dd90a2f","C3","batch3","","328","","","tol_toboard","","","","","","","","","tol_peg_2","328","328","0","[[3,0,0],[1,0],[2]]","3","[[3,0,0],[1,0],[2]]","3","0","","","","","","3","",""
"","","","","","poldrack-single-stim","257","464263","0.0-3.0-20.0","616870f3f5785e447dd90a2f","C3","batch3","","-1","","","tol_feedback","true","","","","","","","","","1000","1000","500","","","","","","-1","none","true","4346","5303","","",""
"","","","","","html-button-response","258","464670","0.0-3.0-21.0","616870f3f5785e447dd90a2f","C3","batch3","","406.1000000014901","<div class = centerbox><p class = center-block-text>problem <strong>5</strong> out of 25 problems</p></div>","0","tol_trial_num","","","","","","","","","","","","","","","","","","","","","","","","",""
"","","","","","single-stim-button","259","469804","0.0-3.0-22.0-0.0","616870f3f5785e447dd90a2f","C3","batch3","","5134","","","tol_tohand","","","","","","","","","tol_peg_3","5134","5134","0","[[1,0,0],[2,0],[0]]","1","[[0,0,0],[1,2],[3]]","4","0","","","","","","7","",""
"","","","","","single-stim-button","260","472624","0.0-3.0-22.0-1.0","616870f3f5785e447dd90a2f","C3","batch3","","2819","","","tol_toboard","","","","","","","","","tol_peg_3","2819","2819","0","[[1,0,0],[2,0],[3]]","1","[[0,0,0],[1,2],[3]]","4","0","","","","","","7","",""
"","","","","","single-stim-button","261","474530","0.0-3.0-22.1-0.1","616870f3f5785e447dd90a2f","C3","batch3","","1906","","","tol_tohand","","","","","","","","","tol_peg_3","1906","1906","0","[[1,0,0],[2,0],[0]]","2","[[0,0,0],[1,2],[3]]","4","0","","","","","","7","",""
"","","","","","single-stim-button","262","474808","0.0-3.0-22.1-1.1","616870f3f5785e447dd90a2f","C3","batch3","","278","","","tol_toboard","","","","","","","","","tol_peg_2","278","278","0","[[1,0,0],[2,3],[0]]","2","[[0,0,0],[1,2],[3]]","4","0","","","","","","7","",""
"","","","","","single-stim-button","263","475609","0.0-3.0-22.2-0.2","616870f3f5785e447dd90a2f","C3","batch3","","801","","","tol_tohand","","","","","","","","","tol_peg_1","801","801","0","[[0,0,0],[2,3],[0]]","3","[[0,0,0],[1,2],[3]]","4","0","","","","","","7","",""
"","","","","","single-stim-button","264","476684","0.0-3.0-22.2-1.2","616870f3f5785e447dd90a2f","C3","batch3","","1074","","","tol_toboard","","","","","","","","","tol_peg_3","1074","1074","0","[[0,0,0],[2,3],[1]]","3","[[0,0,0],[1,2],[3]]","4","0","","","","","","7","",""
"","","","","","single-stim-button","265","480896","0.0-3.0-22.3-0.3","616870f3f5785e447dd90a2f","C3","batch3","","4212","","","tol_tohand","","","","","","","","","tol_peg_2","4212","4212","0","[[0,0,0],[2,0],[1]]","4","[[0,0,0],[1,2],[3]]","4","0","","","","","","7","",""
"","","","","","single-stim-button","266","481224","0.0-3.0-22.3-1.3","616870f3f5785e447dd90a2f","C3","batch3","","328","","","tol_toboard","","","","","","","","","tol_peg_1","328","328","0","[[3,0,0],[2,0],[1]]","4","[[0,0,0],[1,2],[3]]","4","0","","","","","","7","",""
"","","","","","single-stim-button","267","482212","0.0-3.0-22.4-0.4","616870f3f5785e447dd90a2f","C3","batch3","","988","","","tol_tohand","","","","","","","","","tol_peg_2","988","988","0","[[3,0,0],[0,0],[1]]","5","[[0,0,0],[1,2],[3]]","4","0","","","","","","7","",""
"","","","","","single-stim-button","268","482596","0.0-3.0-22.4-1.4","616870f3f5785e447dd90a2f","C3","batch3","","384","","","tol_toboard","","","","","","","","","tol_peg_1","384","384","0","[[3,2,0],[0,0],[1]]","5","[[0,0,0],[1,2],[3]]","4","0","","","","","","7","",""
"","","","","","single-stim-button","269","483200","0.0-3.0-22.5-0.5","616870f3f5785e447dd90a2f","C3","batch3","","604","","","tol_tohand","","","","","","","","","tol_peg_3","604","604","0","[[3,2,0],[0,0],[0]]","6","[[0,0,0],[1,2],[3]]","4","0","","","","","","7","",""
"","","","","","single-stim-button","270","483558","0.0-3.0-22.5-1.5","616870f3f5785e447dd90a2f","C3","batch3","","358","","","tol_toboard","","","","","","","","","tol_peg_2","358","358","0","[[3,2,0],[1,0],[0]]","6","[[0,0,0],[1,2],[3]]","4","0","","","","","","7","",""
"","","","","","single-stim-button","271","483946","0.0-3.0-22.6-0.6","616870f3f5785e447dd90a2f","C3","batch3","","388","","","tol_tohand","","","","","","","","","tol_peg_1","388","388","0","[[3,0,0],[1,0],[0]]","7","[[0,0,0],[1,2],[3]]","4","0","","","","","","7","",""
"","","","","","single-stim-button","272","484340","0.0-3.0-22.6-1.6","616870f3f5785e447dd90a2f","C3","batch3","","394","","","tol_toboard","","","","","","","","","tol_peg_2","394","394","0","[[3,0,0],[1,2],[0]]","7","[[0,0,0],[1,2],[3]]","4","0","","","","","","7","",""
"","","","","","single-stim-button","273","484698","0.0-3.0-22.7-0.7","616870f3f5785e447dd90a2f","C3","batch3","","358","","","tol_tohand","","","","","","","","","tol_peg_1","358","358","0","[[0,0,0],[1,2],[0]]","8","[[0,0,0],[1,2],[3]]","4","0","","","","","","7","",""
"","","","","","single-stim-button","274","485082","0.0-3.0-22.7-1.7","616870f3f5785e447dd90a2f","C3","batch3","","383","","","tol_toboard","","","","","","","","","tol_peg_3","383","383","0","[[0,0,0],[1,2],[3]]","8","[[0,0,0],[1,2],[3]]","4","0","","","","","","7","",""
"","","","","","poldrack-single-stim","275","486084","0.0-3.0-23.0","616870f3f5785e447dd90a2f","C3","batch3","","-1","","","tol_feedback","true","","","","","","","","","1000","1000","500","","","","","","-1","none","true","5134","14391","","",""
"","","","","","html-button-response","276","486649","0.0-3.0-24.0","616870f3f5785e447dd90a2f","C3","batch3","","563.8999999985099","<div class = centerbox><p class = center-block-text>problem <strong>6</strong> out of 25 problems</p></div>","0","tol_trial_num","","","","","","","","","","","","","","","","","","","","","","","","",""
"","","","","","single-stim-button","277","493272","0.0-3.0-25.0-0.0","616870f3f5785e447dd90a2f","C3","batch3","","6622","","","tol_tohand","","","","","","","","","tol_peg_3","6622","6622","0","[[0,0,0],[1,2],[0]]","1","[[1,0,0],[2,3],[0]]","5","0","","","","","","6","",""
"","","","","","single-stim-button","278","493842","0.0-3.0-25.0-1.0","616870f3f5785e447dd90a2f","C3","batch3","","570","","","tol_toboard","","","","","","","","","tol_peg_1","570","570","0","[[3,0,0],[1,2],[0]]","1","[[1,0,0],[2,3],[0]]","5","0","","","","","","6","",""
"","","","","","single-stim-button","279","494190","0.0-3.0-25.1-0.1","616870f3f5785e447dd90a2f","C3","batch3","","348","","","tol_tohand","","","","","","","","","tol_peg_2","348","348","0","[[3,0,0],[1,0],[0]]","2","[[1,0,0],[2,3],[0]]","5","0","","","","","","6","",""
"","","","","","single-stim-button","280","494836","0.0-3.0-25.1-1.1","616870f3f5785e447dd90a2f","C3","batch3","","646","","","tol_toboard","","","","","","","","","tol_peg_3","646","646","0","[[3,0,0],[1,0],[2]]","2","[[1,0,0],[2,3],[0]]","5","0","","","","","","6","",""
"","","","","","single-stim-button","281","498660","0.0-3.0-25.2-0.2","616870f3f5785e447dd90a2f","C3","batch3","","3824","","","tol_tohand","","","","","","","","","tol_peg_2","3824","3824","0","[[3,0,0],[0,0],[2]]","3","[[1,0,0],[2,3],[0]]","5","0","","","","","","6","",""
"","","","","","single-stim-button","282","499001","0.0-3.0-25.2-1.2","616870f3f5785e447dd90a2f","C3","batch3","","341","","","tol_toboard","","","","","","","","","tol_peg_1","341","341","0","[[3,1,0],[0,0],[2]]","3","[[1,0,0],[2,3],[0]]","5","0","","","","","","6","",""
"","","","","","single-stim-button","283","499410","0.0-3.0-25.3-0.3","616870f3f5785e447dd90a2f","C3","batch3","","408","","","tol_tohand","","","","","","","","","tol_peg_3","408","408","0","[[3,1,0],[0,0],[0]]","4","[[1,0,0],[2,3],[0]]","5","0","","","","","","6","",""
"","","","","","single-stim-button","284","499714","0.0-3.0-25.3-1.3","616870f3f5785e447dd90a2f","C3","batch3","","304","","","tol_toboard","","","","","","","","","tol_peg_2","304","304","0","[[3,1,0],[2,0],[0]]","4","[[1,0,0],[2,3],[0]]","5","0","","","","","","6","",""
"","","","","","single-stim-button","285","500101","0.0-3.0-25.4-0.4","616870f3f5785e447dd90a2f","C3","batch3","","387","","","tol_tohand","","","","","","","","","tol_peg_1","387","387","0","[[3,0,0],[2,0],[0]]","5","[[1,0,0],[2,3],[0]]","5","0","","","","","","6","",""
"","","","","","single-stim-button","286","500662","0.0-3.0-25.4-1.4","616870f3f5785e447dd90a2f","C3","batch3","","559","","","tol_toboard","","","","","","","","","tol_peg_3","559","559","0","[[3,0,0],[2,0],[1]]","5","[[1,0,0],[2,3],[0]]","5","0","","","","","","6","",""
"","","","","","single-stim-button","287","500994","0.0-3.0-25.5-0.5","616870f3f5785e447dd90a2f","C3","batch3","","332","","","tol_tohand","","","","","","","","","tol_peg_1","332","332","0","[[0,0,0],[2,0],[1]]","6","[[1,0,0],[2,3],[0]]","5","0","","","","","","6","",""
"","","","","","single-stim-button","288","501454","0.0-3.0-25.5-1.5","616870f3f5785e447dd90a2f","C3","batch3","","460","","","tol_toboard","","","","","","","","","tol_peg_2","460","460","0","[[0,0,0],[2,3],[1]]","6","[[1,0,0],[2,3],[0]]","5","0","","","","","","6","",""
"","","","","","single-stim-button","289","501796","0.0-3.0-25.6-0.6","616870f3f5785e447dd90a2f","C3","batch3","","342","","","tol_tohand","","","","","","","","","tol_peg_3","342","342","0","[[0,0,0],[2,3],[0]]","7","[[1,0,0],[2,3],[0]]","5","0","","","","","","6","",""
"","","","","","single-stim-button","290","502634","0.0-3.0-25.6-1.6","616870f3f5785e447dd90a2f","C3","batch3","","838","","","tol_toboard","","","","","","","","","tol_peg_1","838","838","0","[[1,0,0],[2,3],[0]]","7","[[1,0,0],[2,3],[0]]","5","0","","","","","","6","",""
"","","","","","poldrack-single-stim","291","503635","0.0-3.0-26.0","616870f3f5785e447dd90a2f","C3","batch3","","-1","","","tol_feedback","true","","","","","","","","","1000","1000","500","","","","","","-1","none","true","6622","12263","","",""
"","","","","","html-button-response","292","504212","0.0-3.0-27.0","616870f3f5785e447dd90a2f","C3","batch3","","576","<div class = centerbox><p class = center-block-text>problem <strong>7</strong> out of 25 problems</p></div>","0","tol_trial_num","","","","","","","","","","","","","","","","","","","","","","","","",""
"","","","","","single-stim-button","293","506034","0.0-3.0-28.0-0.0","616870f3f5785e447dd90a2f","C3","batch3","","1821","","","tol_tohand","","","","","","","","","tol_peg_3","1821","1821","0","[[2,1,0],[0,0],[0]]","1","[[1,2,0],[3,0],[0]]","6","0","","","","","","5","",""
"","","","","","single-stim-button","294","511076","0.0-3.0-28.0-1.0","616870f3f5785e447dd90a2f","C3","batch3","","5042","","","tol_toboard","","","","","","","","","tol_peg_2","5042","5042","0","[[2,1,0],[3,0],[0]]","1","[[1,2,0],[3,0],[0]]","6","0","","","","","","5","",""
"","","","","","single-stim-button","295","511516","0.0-3.0-28.1-0.1","616870f3f5785e447dd90a2f","C3","batch3","","440","","","tol_tohand","","","","","","","","","tol_peg_1","440","440","0","[[2,0,0],[3,0],[0]]","2","[[1,2,0],[3,0],[0]]","6","0","","","","","","5","",""
"","","","","","single-stim-button","296","512005","0.0-3.0-28.1-1.1","616870f3f5785e447dd90a2f","C3","batch3","","489","","","tol_toboard","","","","","","","","","tol_peg_3","489","489","0","[[2,0,0],[3,0],[1]]","2","[[1,2,0],[3,0],[0]]","6","0","","","","","","5","",""
"","","","","","single-stim-button","297","512822","0.0-3.0-28.2-0.2","616870f3f5785e447dd90a2f","C3","batch3","","816","","","tol_tohand","","","","","","","","","tol_peg_1","816","816","0","[[0,0,0],[3,0],[1]]","3","[[1,2,0],[3,0],[0]]","6","0","","","","","","5","",""
"","","","","","single-stim-button","298","513124","0.0-3.0-28.2-1.2","616870f3f5785e447dd90a2f","C3","batch3","","302","","","tol_toboard","","","","","","","","","tol_peg_2","302","302","0","[[0,0,0],[3,2],[1]]","3","[[1,2,0],[3,0],[0]]","6","0","","","","","","5","",""
"","","","","","single-stim-button","299","513472","0.0-3.0-28.3-0.3","616870f3f5785e447dd90a2f","C3","batch3","","348","","","tol_tohand","","","","","","","","","tol_peg_3","348","348","0","[[0,0,0],[3,2],[0]]","4","[[1,2,0],[3,0],[0]]","6","0","","","","","","5","",""
"","","","","","single-stim-button","300","513830","0.0-3.0-28.3-1.3","616870f3f5785e447dd90a2f","C3","batch3","","358","","","tol_toboard","","","","","","","","","tol_peg_1","358","358","0","[[1,0,0],[3,2],[0]]","4","[[1,2,0],[3,0],[0]]","6","0","","","","","","5","",""
"","","","","","single-stim-button","301","514224","0.0-3.0-28.4-0.4","616870f3f5785e447dd90a2f","C3","batch3","","394","","","tol_tohand","","","","","","","","","tol_peg_2","394","394","0","[[1,0,0],[3,0],[0]]","5","[[1,2,0],[3,0],[0]]","6","0","","","","","","5","",""
"","","","","","single-stim-button","302","514542","0.0-3.0-28.4-1.4","616870f3f5785e447dd90a2f","C3","batch3","","318","","","tol_toboard","","","","","","","","","tol_peg_1","318","318","0","[[1,2,0],[3,0],[0]]","5","[[1,2,0],[3,0],[0]]","6","0","","","","","","5","",""
"","","","","","poldrack-single-stim","303","515543","0.0-3.0-29.0","616870f3f5785e447dd90a2f","C3","batch3","","-1","","","tol_feedback","true","","","","","","","","","1000","1000","500","","","","","","-1","none","true","1821","3819","","",""
"","","","","","html-button-response","304","515950","0.0-3.0-30.0","616870f3f5785e447dd90a2f","C3","batch3","","406","<div class = centerbox><p class = center-block-text>problem <strong>8</strong> out of 25 problems</p></div>","0","tol_trial_num","","","","","","","","","","","","","","","","","","","","","","","","",""
"","","","","","single-stim-button","305","519368","0.0-3.0-31.0-0.0","616870f3f5785e447dd90a2f","C3","batch3","","3417","","","tol_tohand","","","","","","","","","tol_peg_3","3417","3417","0","[[0,0,0],[2,3],[0]]","1","[[1,2,0],[3,0],[0]]","7","0","","","","","","4","",""
"","","","","","single-stim-button","306","520312","0.0-3.0-31.0-1.0","616870f3f5785e447dd90a2f","C3","batch3","","944","","","tol_toboard","","","","","","","","","tol_peg_1","944","944","0","[[1,0,0],[2,3],[0]]","1","[[1,2,0],[3,0],[0]]","7","0","","","","","","4","",""
"","","","","","single-stim-button","307","520770","0.0-3.0-31.1-0.1","616870f3f5785e447dd90a2f","C3","batch3","","458","","","tol_tohand","","","","","","","","","tol_peg_2","458","458","0","[[1,0,0],[2,0],[0]]","2","[[1,2,0],[3,0],[0]]","7","0","","","","","","4","",""
"","","","","","single-stim-button","308","521401","0.0-3.0-31.1-1.1","616870f3f5785e447dd90a2f","C3","batch3","","631","","","tol_toboard","","","","","","","","","tol_peg_3","631","631","0","[[1,0,0],[2,0],[3]]","2","[[1,2,0],[3,0],[0]]","7","0","","","","","","4","",""
"","","","","","single-stim-button","309","521730","0.0-3.0-31.2-0.2","616870f3f5785e447dd90a2f","C3","batch3","","328","","","tol_tohand","","","","","","","","","tol_peg_2","328","328","0","[[1,0,0],[0,0],[3]]","3","[[1,2,0],[3,0],[0]]","7","0","","","","","","4","",""
"","","","","","single-stim-button","310","523122","0.0-3.0-31.2-1.2","616870f3f5785e447dd90a2f","C3","batch3","","1391","","","tol_toboard","","","","","","","","","tol_peg_1","1391","1391","0","[[1,2,0],[0,0],[3]]","3","[[1,2,0],[3,0],[0]]","7","0","","","","","","4","",""
"","","","","","single-stim-button","311","523702","0.0-3.0-31.3-0.3","616870f3f5785e447dd90a2f","C3","batch3","","579","","","tol_tohand","","","","","","","","","tol_peg_3","579","579","0","[[1,2,0],[0,0],[0]]","4","[[1,2,0],[3,0],[0]]","7","0","","","","","","4","",""
"","","","","","single-stim-button","312","524080","0.0-3.0-31.3-1.3","616870f3f5785e447dd90a2f","C3","batch3","","378","","","tol_toboard","","","","","","","","","tol_peg_2","378","378","0","[[1,2,0],[3,0],[0]]","4","[[1,2,0],[3,0],[0]]","7","0","","","","","","4","",""
"","","","","","poldrack-single-stim","313","525081","0.0-3.0-32.0","616870f3f5785e447dd90a2f","C3","batch3","","-1","","","tol_feedback","true","","","","","","","","","1000","1000","500","","","","","","-1","none","true","3417","4782","","",""
"","","","","","html-button-response","314","525462","0.0-3.0-33.0","616870f3f5785e447dd90a2f","C3","batch3","","379.70000000298023","<div class = centerbox><p class = center-block-text>problem <strong>9</strong> out of 25 problems</p></div>","0","tol_trial_num","","","","","","","","","","","","","","","","","","","","","","","","",""
"","","","","","single-stim-button","315","530550","0.0-3.0-34.0-0.0","616870f3f5785e447dd90a2f","C3","batch3","","5088","","","tol_tohand","","","","","","","","","tol_peg_3","5088","5088","0","[[3,2,0],[0,0],[0]]","1","[[2,1,0],[3,0],[0]]","8","0","","","","","","6","",""
"","","","","","single-stim-button","316","530898","0.0-3.0-34.0-1.0","616870f3f5785e447dd90a2f","C3","batch3","","348","","","tol_toboard","","","","","","","","","tol_peg_2","348","348","0","[[3,2,0],[1,0],[0]]","1","[[2,1,0],[3,0],[0]]","8","0","","","","","","6","",""
"","","","","","single-stim-button","317","533038","0.0-3.0-34.1-0.1","616870f3f5785e447dd90a2f","C3","batch3","","2140","","","tol_tohand","","","","","","","","","tol_peg_1","2140","2140","0","[[3,0,0],[1,0],[0]]","2","[[2,1,0],[3,0],[0]]","8","0","","","","","","6","",""
"","","","","","single-stim-button","318","533400","0.0-3.0-34.1-1.1","616870f3f5785e447dd90a2f","C3","batch3","","362","","","tol_toboard","","","","","","","","","tol_peg_2","362","362","0","[[3,0,0],[1,2],[0]]","2","[[2,1,0],[3,0],[0]]","8","0","","","","","","6","",""
"","","","","","single-stim-button","319","534516","0.0-3.0-34.2-0.2","616870f3f5785e447dd90a2f","C3","batch3","","1115","","","tol_tohand","","","","","","","","","tol_peg_1","1115","1115","0","[[0,0,0],[1,2],[0]]","3","[[2,1,0],[3,0],[0]]","8","0","","","","","","6","",""
"","","","","","single-stim-button","320","535150","0.0-3.0-34.2-1.2","616870f3f5785e447dd90a2f","C3","batch3","","633","","","tol_toboard","","","","","","","","","tol_peg_3","633","633","0","[[0,0,0],[1,2],[3]]","3","[[2,1,0],[3,0],[0]]","8","0","","","","","","6","",""
"","","","","","single-stim-button","321","535911","0.0-3.0-34.3-0.3","616870f3f5785e447dd90a2f","C3","batch3","","761","","","tol_tohand","","","","","","","","","tol_peg_2","761","761","0","[[0,0,0],[1,0],[3]]","4","[[2,1,0],[3,0],[0]]","8","0","","","","","","6","",""
"","","","","","single-stim-button","322","536488","0.0-3.0-34.3-1.3","616870f3f5785e447dd90a2f","C3","batch3","","575","","","tol_toboard","","","","","","","","","tol_peg_1","575","575","0","[[2,0,0],[1,0],[3]]","4","[[2,1,0],[3,0],[0]]","8","0","","","","","","6","",""
"","","","","","single-stim-button","323","536764","0.0-3.0-34.4-0.4","616870f3f5785e447dd90a2f","C3","batch3","","275","","","tol_tohand","","","","","","","","","tol_peg_2","275","275","0","[[2,0,0],[0,0],[3]]","5","[[2,1,0],[3,0],[0]]","8","0","","","","","","6","",""
"","","","","","single-stim-button","324","537486","0.0-3.0-34.4-1.4","616870f3f5785e447dd90a2f","C3","batch3","","721","","","tol_toboard","","","","","","","","","tol_peg_1","721","721","0","[[2,1,0],[0,0],[3]]","5","[[2,1,0],[3,0],[0]]","8","0","","","","","","6","",""
"","","","","","single-stim-button","325","537950","0.0-3.0-34.5-0.5","616870f3f5785e447dd90a2f","C3","batch3","","463","","","tol_tohand","","","","","","","","","tol_peg_3","463","463","0","[[2,1,0],[0,0],[0]]","6","[[2,1,0],[3,0],[0]]","8","0","","","","","","6","",""
"","","","","","single-stim-button","326","538301","0.0-3.0-34.5-1.5","616870f3f5785e447dd90a2f","C3","batch3","","351","","","tol_toboard","","","","","","","","","tol_peg_2","351","351","0","[[2,1,0],[3,0],[0]]","6","[[2,1,0],[3,0],[0]]","8","0","","","","","","6","",""
"","","","","","poldrack-single-stim","327","539303","0.0-3.0-35.0","616870f3f5785e447dd90a2f","C3","batch3","","-1","","","tol_feedback","true","","","","","","","","","1000","1000","500","","","","","","-1","none","true","5088","9842","","",""
"","","","","","html-button-response","328","539740","0.0-3.0-36.0","616870f3f5785e447dd90a2f","C3","batch3","","435.69999999552965","<div class = centerbox><p class = center-block-text>problem <strong>10</strong> out of 25 problems</p></div>","0","tol_trial_num","","","","","","","","","","","","","","","","","","","","","","","","",""
"","","","","","single-stim-button","329","542712","0.0-3.0-37.0-0.0","616870f3f5785e447dd90a2f","C3","batch3","","2971","","","tol_tohand","","","","","","","","","tol_peg_2","2971","2971","0","[[3,0,0],[0,0],[2]]","1","[[3,0,0],[2,1],[0]]","9","0","","","","","","3","",""
"","","","","","single-stim-button","330","543693","0.0-3.0-37.0-1.0","616870f3f5785e447dd90a2f","C3","batch3","","981","","","tol_toboard","","","","","","","","","tol_peg_1","981","981","0","[[3,1,0],[0,0],[2]]","1","[[3,0,0],[2,1],[0]]","9","0","","","","","","3","",""
"","","","","","single-stim-button","331","544790","0.0-3.0-37.1-0.1","616870f3f5785e447dd90a2f","C3","batch3","","1095","","","tol_tohand","","","","","","","","","tol_peg_3","1095","1095","0","[[3,1,0],[0,0],[0]]","2","[[3,0,0],[2,1],[0]]","9","0","","","","","","3","",""
"","","","","","single-stim-button","332","545233","0.0-3.0-37.1-1.1","616870f3f5785e447dd90a2f","C3","batch3","","443","","","tol_toboard","","","","","","","","","tol_peg_2","443","443","0","[[3,1,0],[2,0],[0]]","2","[[3,0,0],[2,1],[0]]","9","0","","","","","","3","",""
"","","","","","single-stim-button","333","545615","0.0-3.0-37.2-0.2","616870f3f5785e447dd90a2f","C3","batch3","","381","","","tol_tohand","","","","","","","","","tol_peg_1","381","381","0","[[3,0,0],[2,0],[0]]","3","[[3,0,0],[2,1],[0]]","9","0","","","","","","3","",""
"","","","","","single-stim-button","334","546000","0.0-3.0-37.2-1.2","616870f3f5785e447dd90a2f","C3","batch3","","383","","","tol_toboard","","","","","","","","","tol_peg_2","383","383","0","[[3,0,0],[2,1],[0]]","3","[[3,0,0],[2,1],[0]]","9","0","","","","","","3","",""
"","","","","","poldrack-single-stim","335","547014","0.0-3.0-38.0","616870f3f5785e447dd90a2f","C3","batch3","","-1","","","tol_feedback","true","","","","","","","","","1000","1000","500","","","","","","-1","none","true","2971","4447","","",""
"","","","","","html-button-response","336","547432","0.0-3.0-39.0","616870f3f5785e447dd90a2f","C3","batch3","","416.3999999985099","<div class = centerbox><p class = center-block-text>problem <strong>11</strong> out of 25 problems</p></div>","0","tol_trial_num","","","","","","","","","","","","","","","","","","","","","","","","",""
"","","","","","single-stim-button","337","552621","0.0-3.0-40.0-0.0","616870f3f5785e447dd90a2f","C3","batch3","","5189","","","tol_tohand","","","","","","","","","tol_peg_1","5189","5189","0","[[1,0,0],[3,0],[0]]","1","[[2,0,0],[1,3],[0]]","10","0","","","","","","6","",""
"","","","","","single-stim-button","338","553927","0.0-3.0-40.0-1.0","616870f3f5785e447dd90a2f","C3","batch3","","1305","","","tol_toboard","","","","","","","","","tol_peg_3","1305","1305","0","[[1,0,0],[3,0],[2]]","1","[[2,0,0],[1,3],[0]]","10","0","","","","","","6","",""
"","","","","","single-stim-button","339","554816","0.0-3.0-40.1-0.1","616870f3f5785e447dd90a2f","C3","batch3","","887","","","tol_tohand","","","","","","","","","tol_peg_1","887","887","0","[[0,0,0],[3,0],[2]]","2","[[2,0,0],[1,3],[0]]","10","0","","","","","","6","",""
"","","","","","single-stim-button","340","555875","0.0-3.0-40.1-1.1","616870f3f5785e447dd90a2f","C3","batch3","","1059","","","tol_toboard","","","","","","","","","tol_peg_2","1059","1059","0","[[0,0,0],[3,1],[2]]","2","[[2,0,0],[1,3],[0]]","10","0","","","","","","6","",""
"","","","","","single-stim-button","341","556238","0.0-3.0-40.2-0.2","616870f3f5785e447dd90a2f","C3","batch3","","361","","","tol_tohand","","","","","","","","","tol_peg_3","361","361","0","[[0,0,0],[3,1],[0]]","3","[[2,0,0],[1,3],[0]]","10","0","","","","","","6","",""
"","","","","","single-stim-button","342","556751","0.0-3.0-40.2-1.2","616870f3f5785e447dd90a2f","C3","batch3","","513","","","tol_toboard","","","","","","","","","tol_peg_1","513","513","0","[[2,0,0],[3,1],[0]]","3","[[2,0,0],[1,3],[0]]","10","0","","","","","","6","",""
"","","","","","single-stim-button","343","558346","0.0-3.0-40.3-0.3","616870f3f5785e447dd90a2f","C3","batch3","","1593","","","tol_tohand","","","","","","","","","tol_peg_2","1593","1593","0","[[2,0,0],[3,0],[0]]","4","[[2,0,0],[1,3],[0]]","10","0","","","","","","6","",""
"","","","","","single-stim-button","344","561831","0.0-3.0-40.3-1.3","616870f3f5785e447dd90a2f","C3","batch3","","3485","","","tol_toboard","","","","","","","","","tol_peg_3","3485","3485","0","[[2,0,0],[3,0],[1]]","4","[[2,0,0],[1,3],[0]]","10","0","","","","","","6","",""
"","","","","","single-stim-button","345","562119","0.0-3.0-40.4-0.4","616870f3f5785e447dd90a2f","C3","batch3","","287","","","tol_tohand","","","","","","","","","tol_peg_2","287","287","0","[[2,0,0],[0,0],[1]]","5","[[2,0,0],[1,3],[0]]","10","0","","","","","","6","",""
"","","","","","single-stim-button","346","563324","0.0-3.0-40.4-1.4","616870f3f5785e447dd90a2f","C3","batch3","","1203","","","tol_toboard","","","","","","","","","tol_peg_1","1203","1203","0","[[2,3,0],[0,0],[1]]","5","[[2,0,0],[1,3],[0]]","10","0","","","","","","6","",""
"","","","","","single-stim-button","347","563830","0.0-3.0-40.5-0.5","616870f3f5785e447dd90a2f","C3","batch3","","505","","","tol_tohand","","","","","","","","","tol_peg_3","505","505","0","[[2,3,0],[0,0],[0]]","6","[[2,0,0],[1,3],[0]]","10","0","","","","","","6","",""
"","","","","","single-stim-button","348","564162","0.0-3.0-40.5-1.5","616870f3f5785e447dd90a2f","C3","batch3","","331","","","tol_toboard","","","","","","","","","tol_peg_2","331","331","0","[[2,3,0],[1,0],[0]]","6","[[2,0,0],[1,3],[0]]","10","0","","","","","","6","",""
