"success","timeout","failed_images","failed_audio","failed_video","trial_type","trial_index","time_elapsed","internal_node_id","subject_id","study_id","session_id","task","rt","stimulus","response","item","answer","correct","spm_correct","spm_rt","view_history","fiar_detect_rt","fiar_detect_correct","total_correct_fiar_detect","post_trial_gap","choices","mouse_click","stim_duration","block_duration","timing_post_trial","current_position","tol_num_moves_made","tol_target","tol_problem_id","tol_rt","key_press","possible_responses","tol_correct","preplanning","tol_rt_per_trial","tol_min_moves"
"true","false","[]","[]","[]","preload","0","60005","0.0-0.0","616c67fb68f7841abb442300","C3","batch3","","","","","","","","","","","","","","","","","","","","","","","","","","","","","",""
"true","","","","","fullscreen","1","77704","0.0-1.0-0.0","616c67fb68f7841abb442300","C3","batch3","","","","","","","","","","","","","","","","","","","","","","","","","","","","","",""
"true","","","","","fullscreen","2","82262","0.0-2.0-0.0","616c67fb68f7841abb442300","C3","batch3","spm_fullscreen","","","","","","","","","","","","","","","","","","","","","","","","","","","","",""
"","","","","","html-button-response","3","105448","0.0-2.0-1.0","616c67fb68f7841abb442300","C3","batch3","","23184.5","<p class = block-text><b>Instructions</b> <br>This is a widely used intelligence test in research. <br>In this test, a figure with a missing piece will be presented.<br>Below the figure are alternative pieces to complete the figure, only one of which is correct.<br> Different figures might involve different principles for obtaining the missing piece<br>Your job is to select the most logical piece to complete the figure.</p>","0","","","","","","","","","","","","","","","","","","","","","","","","","",""
"","","","","","html-keyboard-response","4","106261","0.0-2.0-2.0-0.0","616c67fb68f7841abb442300","C3","batch3","spm_show_trial_num","null","<p class=block-text>Trial 1 out of 60</p>","null","","","","","","","","","","","","","","","","","","","","","","","","","",""
"","","","","","image-button-response","5","120974","0.0-2.0-2.0-1.0","616c67fb68f7841abb442300","C3","batch3","spm_respsonse","14705.300000011921","img/question_1_1.jpeg","3","mat_01","4","1","1","14705.300000011921","","","","","","","","","","","","","","","","","","","","",""
"","","","","","html-keyboard-response","6","122035","0.0-2.0-2.0-0.1","616c67fb68f7841abb442300","C3","batch3","spm_show_trial_num","null","<p class=block-text>Trial 2 out of 60</p>","null","","","","","","","","","","","","","","","","","","","","","","","","","",""
"","","","","","image-button-response","7","124766","0.0-2.0-2.0-1.1","616c67fb68f7841abb442300","C3","batch3","spm_respsonse","2728.899999976158","img/question_1_2.jpeg","4","mat_02","5","1","1","2728.899999976158","","","","","","","","","","","","","","","","","","","","",""
"","","","","","html-keyboard-response","8","125827","0.0-2.0-2.0-0.2","616c67fb68f7841abb442300","C3","batch3","spm_show_trial_num","null","<p class=block-text>Trial 3 out of 60</p>","null","","","","","","","","","","","","","","","","","","","","","","","","","",""
"","","","","","image-button-response","9","128583","0.0-2.0-2.0-1.2","616c67fb68f7841abb442300","C3","batch3","spm_respsonse","2754.5","img/question_1_3.jpeg","0","mat_03","1","1","1","2754.5","","","","","","","","","","","","","","","","","","","","",""
"","","","","","html-keyboard-response","10","129642","0.0-2.0-2.0-0.3","616c67fb68f7841abb442300","C3","batch3","spm_show_trial_num","null","<p class=block-text>Trial 4 out of 60</p>","null","","","","","","","","","","","","","","","","","","","","","","","","","",""
"","","","","","image-button-response","11","132845","0.0-2.0-2.0-1.3","616c67fb68f7841abb442300","C3","batch3","spm_respsonse","3201.699999988079","img/question_1_4.jpeg","1","mat_04","2","1","1","3201.699999988079","","","","","","","","","","","","","","","","","","","","",""
"","","","","","html-keyboard-response","12","133907","0.0-2.0-2.0-0.4","616c67fb68f7841abb442300","C3","batch3","spm_show_trial_num","null","<p class=block-text>Trial 5 out of 60</p>","null","","","","","","","","","","","","","","","","","","","","","","","","","",""
"","","","","","image-button-response","13","137415","0.0-2.0-2.0-1.4","616c67fb68f7841abb442300","C3","batch3","spm_respsonse","3506","img/question_1_5.jpeg","5","mat_05","6","1","1","3506","","","","","","","","","","","","","","","","","","","","",""
"","","","","","html-keyboard-response","14","138486","0.0-2.0-2.0-0.5","616c67fb68f7841abb442300","C3","batch3","spm_show_trial_num","null","<p class=block-text>Trial 6 out of 60</p>","null","","","","","","","","","","","","","","","","","","","","","","","","","",""
"","","","","","image-button-response","15","141358","0.0-2.0-2.0-1.5","616c67fb68f7841abb442300","C3","batch3","spm_respsonse","2870.899999976158","img/question_1_6.jpeg","2","mat_06","3","1","1","2870.899999976158","","","","","","","","","","","","","","","","","","","","",""
"","","","","","html-keyboard-response","16","142447","0.0-2.0-2.0-0.6","616c67fb68f7841abb442300","C3","batch3","spm_show_trial_num","null","<p class=block-text>Trial 7 out of 60</p>","null","","","","","","","","","","","","","","","","","","","","","","","","","",""
"","","","","","image-button-response","17","145738","0.0-2.0-2.0-1.6","616c67fb68f7841abb442300","C3","batch3","spm_respsonse","3289.800000011921","img/question_1_7.jpeg","5","mat_07","6","1","1","3289.800000011921","","","","","","","","","","","","","","","","","","","","",""
"","","","","","html-keyboard-response","18","146808","0.0-2.0-2.0-0.7","616c67fb68f7841abb442300","C3","batch3","spm_show_trial_num","null","<p class=block-text>Trial 8 out of 60</p>","null","","","","","","","","","","","","","","","","","","","","","","","","","",""
"","","","","","image-button-response","19","151562","0.0-2.0-2.0-1.7","616c67fb68f7841abb442300","C3","batch3","spm_respsonse","4752.199999988079","img/question_1_8.jpeg","1","mat_08","2","1","1","4752.199999988079","","","","","","","","","","","","","","","","","","","","",""
"","","","","","html-keyboard-response","20","152637","0.0-2.0-2.0-0.8","616c67fb68f7841abb442300","C3","batch3","spm_show_trial_num","null","<p class=block-text>Trial 9 out of 60</p>","null","","","","","","","","","","","","","","","","","","","","","","","","","",""
"","","","","","image-button-response","21","157206","0.0-2.0-2.0-1.8","616c67fb68f7841abb442300","C3","batch3","spm_respsonse","4567.800000011921","img/question_1_9.jpeg","0","mat_09","1","1","1","4567.800000011921","","","","","","","","","","","","","","","","","","","","",""
"","","","","","html-keyboard-response","22","158280","0.0-2.0-2.0-0.9","616c67fb68f7841abb442300","C3","batch3","spm_show_trial_num","null","<p class=block-text>Trial 10 out of 60</p>","null","","","","","","","","","","","","","","","","","","","","","","","","","",""
"","","","","","image-button-response","23","165894","0.0-2.0-2.0-1.9","616c67fb68f7841abb442300","C3","batch3","spm_respsonse","7612","img/question_1_10.jpeg","2","mat_10","3","1","1","7612","","","","","","","","","","","","","","","","","","","","",""
"","","","","","html-keyboard-response","24","166971","0.0-2.0-2.0-0.10","616c67fb68f7841abb442300","C3","batch3","spm_show_trial_num","null","<p class=block-text>Trial 11 out of 60</p>","null","","","","","","","","","","","","","","","","","","","","","","","","","",""
"","","","","","image-button-response","25","172810","0.0-2.0-2.0-1.10","616c67fb68f7841abb442300","C3","batch3","spm_respsonse","5837.200000047684","img/question_1_11.jpeg","3","mat_11","4","1","1","5837.200000047684","","","","","","","","","","","","","","","","","","","","",""
"","","","","","html-keyboard-response","26","173866","0.0-2.0-2.0-0.11","616c67fb68f7841abb442300","C3","batch3","spm_show_trial_num","null","<p class=block-text>Trial 12 out of 60</p>","null","","","","","","","","","","","","","","","","","","","","","","","","","",""
"","","","","","image-button-response","27","186930","0.0-2.0-2.0-1.11","616c67fb68f7841abb442300","C3","batch3","spm_respsonse","13062.600000023842","img/question_1_12.jpeg","4","mat_12","5","1","1","13062.600000023842","","","","","","","","","","","","","","","","","","","","",""
"","","","","","html-keyboard-response","28","187998","0.0-2.0-2.0-0.12","616c67fb68f7841abb442300","C3","batch3","spm_show_trial_num","null","<p class=block-text>Trial 13 out of 60</p>","null","","","","","","","","","","","","","","","","","","","","","","","","","",""
"","","","","","image-button-response","29","190413","0.0-2.0-2.0-1.12","616c67fb68f7841abb442300","C3","batch3","spm_respsonse","2413.199999988079","img/question_2_1.jpeg","1","mat_13","2","1","1","2413.199999988079","","","","","","","","","","","","","","","","","","","","",""
"","","","","","html-keyboard-response","30","191476","0.0-2.0-2.0-0.13","616c67fb68f7841abb442300","C3","batch3","spm_show_trial_num","null","<p class=block-text>Trial 14 out of 60</p>","null","","","","","","","","","","","","","","","","","","","","","","","","","",""
"","","","","","image-button-response","31","196994","0.0-2.0-2.0-1.13","616c67fb68f7841abb442300","C3","batch3","spm_respsonse","5515.800000011921","img/question_2_2.jpeg","5","mat_14","6","1","1","5515.800000011921","","","","","","","","","","","","","","","","","","","","",""
"","","","","","html-keyboard-response","32","198070","0.0-2.0-2.0-0.14","616c67fb68f7841abb442300","C3","batch3","spm_show_trial_num","null","<p class=block-text>Trial 15 out of 60</p>","null","","","","","","","","","","","","","","","","","","","","","","","","","",""
"","","","","","image-button-response","33","201558","0.0-2.0-2.0-1.14","616c67fb68f7841abb442300","C3","batch3","spm_respsonse","3486.400000035763","img/question_2_3.jpeg","0","mat_15","1","1","1","3486.400000035763","","","","","","","","","","","","","","","","","","","","",""
"","","","","","html-keyboard-response","34","202620","0.0-2.0-2.0-0.15","616c67fb68f7841abb442300","C3","batch3","spm_show_trial_num","null","<p class=block-text>Trial 16 out of 60</p>","null","","","","","","","","","","","","","","","","","","","","","","","","","",""
"","","","","","image-button-response","35","205437","0.0-2.0-2.0-1.15","616c67fb68f7841abb442300","C3","batch3","spm_respsonse","2815.699999988079","img/question_2_4.jpeg","1","mat_16","2","1","1","2815.699999988079","","","","","","","","","","","","","","","","","","","","",""
"","","","","","html-keyboard-response","36","206507","0.0-2.0-2.0-0.16","616c67fb68f7841abb442300","C3","batch3","spm_show_trial_num","null","<p class=block-text>Trial 17 out of 60</p>","null","","","","","","","","","","","","","","","","","","","","","","","","","",""
"","","","","","image-button-response","37","210445","0.0-2.0-2.0-1.16","616c67fb68f7841abb442300","C3","batch3","spm_respsonse","3937.300000011921","img/question_2_5.jpeg","0","mat_17","1","1","1","3937.300000011921","","","","","","","","","","","","","","","","","","","","",""
"","","","","","html-keyboard-response","38","211505","0.0-2.0-2.0-0.17","616c67fb68f7841abb442300","C3","batch3","spm_show_trial_num","null","<p class=block-text>Trial 18 out of 60</p>","null","","","","","","","","","","","","","","","","","","","","","","","","","",""
"","","","","","image-button-response","39","217702","0.0-2.0-2.0-1.17","616c67fb68f7841abb442300","C3","batch3","spm_respsonse","6195.800000011921","img/question_2_6.jpeg","2","mat_18","3","1","1","6195.800000011921","","","","","","","","","","","","","","","","","","","","",""
"","","","","","html-keyboard-response","40","218781","0.0-2.0-2.0-0.18","616c67fb68f7841abb442300","C3","batch3","spm_show_trial_num","null","<p class=block-text>Trial 19 out of 60</p>","null","","","","","","","","","","","","","","","","","","","","","","","","","",""
"","","","","","image-button-response","41","223154","0.0-2.0-2.0-1.18","616c67fb68f7841abb442300","C3","batch3","spm_respsonse","4371.399999976158","img/question_2_7.jpeg","4","mat_19","5","1","1","4371.399999976158","","","","","","","","","","","","","","","","","","","","",""
"","","","","","html-keyboard-response","42","224225","0.0-2.0-2.0-0.19","616c67fb68f7841abb442300","C3","batch3","spm_show_trial_num","null","<p class=block-text>Trial 20 out of 60</p>","null","","","","","","","","","","","","","","","","","","","","","","","","","",""
"","","","","","image-button-response","43","230037","0.0-2.0-2.0-1.19","616c67fb68f7841abb442300","C3","batch3","spm_respsonse","5811.300000011921","img/question_2_8.jpeg","5","mat_20","6","1","1","5811.300000011921","","","","","","","","","","","","","","","","","","","","",""
"","","","","","html-keyboard-response","44","231105","0.0-2.0-2.0-0.20","616c67fb68f7841abb442300","C3","batch3","spm_show_trial_num","null","<p class=block-text>Trial 21 out of 60</p>","null","","","","","","","","","","","","","","","","","","","","","","","","","",""
"","","","","","image-button-response","45","235181","0.0-2.0-2.0-1.20","616c67fb68f7841abb442300","C3","batch3","spm_respsonse","4073.899999976158","img/question_2_9.jpeg","3","mat_21","4","1","1","4073.899999976158","","","","","","","","","","","","","","","","","","","","",""
"","","","","","html-keyboard-response","46","236241","0.0-2.0-2.0-0.21","616c67fb68f7841abb442300","C3","batch3","spm_show_trial_num","null","<p class=block-text>Trial 22 out of 60</p>","null","","","","","","","","","","","","","","","","","","","","","","","","","",""
"","","","","","image-button-response","47","240578","0.0-2.0-2.0-1.21","616c67fb68f7841abb442300","C3","batch3","spm_respsonse","4335.299999952316","img/question_2_10.jpeg","2","mat_22","3","1","1","4335.299999952316","","","","","","","","","","","","","","","","","","","","",""
"","","","","","html-keyboard-response","48","241639","0.0-2.0-2.0-0.22","616c67fb68f7841abb442300","C3","batch3","spm_show_trial_num","null","<p class=block-text>Trial 23 out of 60</p>","null","","","","","","","","","","","","","","","","","","","","","","","","","",""
"","","","","","image-button-response","49","248242","0.0-2.0-2.0-1.22","616c67fb68f7841abb442300","C3","batch3","spm_respsonse","6601","img/question_2_11.jpeg","3","mat_23","4","1","1","6601","","","","","","","","","","","","","","","","","","","","",""
"","","","","","html-keyboard-response","50","249305","0.0-2.0-2.0-0.23","616c67fb68f7841abb442300","C3","batch3","spm_show_trial_num","null","<p class=block-text>Trial 24 out of 60</p>","null","","","","","","","","","","","","","","","","","","","","","","","","","",""
"","","","","","image-button-response","51","280821","0.0-2.0-2.0-1.23","616c67fb68f7841abb442300","C3","batch3","spm_respsonse","31514.399999976158","img/question_2_12.jpeg","0","mat_24","5","0","0","31514.399999976158","","","","","","","","","","","","","","","","","","","","",""
"","","","","","html-button-response","52","282694","0.0-2.0-3.0","616c67fb68f7841abb442300","C3","batch3","attention_check","1611.8999999761581","<p class = block-text>Attention check: Please choose 1<br></p>","0","","","true","","","","","","","","","","","","","","","","","","","","","","",""
"","","","","","html-keyboard-response","53","283501","0.0-2.0-4.0-0.0","616c67fb68f7841abb442300","C3","batch3","spm_show_trial_num","null","<p class=block-text>Trial 25 out of 60</p>","null","","","","","","","","","","","","","","","","","","","","","","","","","",""
"","","","","","image-button-response","54","295486","0.0-2.0-4.0-1.0","616c67fb68f7841abb442300","C3","batch3","spm_respsonse","11983.399999976158","img/question_3_1.jpeg","7","mat_25","8","1","1","11983.399999976158","","","","","","","","","","","","","","","","","","","","",""
"","","","","","html-keyboard-response","55","296546","0.0-2.0-4.0-0.1","616c67fb68f7841abb442300","C3","batch3","spm_show_trial_num","null","<p class=block-text>Trial 26 out of 60</p>","null","","","","","","","","","","","","","","","","","","","","","","","","","",""
"","","","","","image-button-response","56","304214","0.0-2.0-4.0-1.1","616c67fb68f7841abb442300","C3","batch3","spm_respsonse","7666.099999964237","img/question_3_2.jpeg","1","mat_26","2","1","1","7666.099999964237","","","","","","","","","","","","","","","","","","","","",""
"","","","","","html-keyboard-response","57","305280","0.0-2.0-4.0-0.2","616c67fb68f7841abb442300","C3","batch3","spm_show_trial_num","null","<p class=block-text>Trial 27 out of 60</p>","null","","","","","","","","","","","","","","","","","","","","","","","","","",""
"","","","","","image-button-response","58","316918","0.0-2.0-4.0-1.2","616c67fb68f7841abb442300","C3","batch3","spm_respsonse","11635.900000035763","img/question_3_3.jpeg","2","mat_27","3","1","1","11635.900000035763","","","","","","","","","","","","","","","","","","","","",""
"","","","","","html-keyboard-response","59","317988","0.0-2.0-4.0-0.3","616c67fb68f7841abb442300","C3","batch3","spm_show_trial_num","null","<p class=block-text>Trial 28 out of 60</p>","null","","","","","","","","","","","","","","","","","","","","","","","","","",""
"","","","","","image-button-response","60","334398","0.0-2.0-4.0-1.3","616c67fb68f7841abb442300","C3","batch3","spm_respsonse","16407.799999952316","img/question_3_4.jpeg","2","mat_28","8","0","0","16407.799999952316","","","","","","","","","","","","","","","","","","","","",""
"","","","","","html-keyboard-response","61","335457","0.0-2.0-4.0-0.4","616c67fb68f7841abb442300","C3","batch3","spm_show_trial_num","null","<p class=block-text>Trial 29 out of 60</p>","null","","","","","","","","","","","","","","","","","","","","","","","","","",""
"","","","","","image-button-response","62","341522","0.0-2.0-4.0-1.4","616c67fb68f7841abb442300","C3","batch3","spm_respsonse","6063","img/question_3_5.jpeg","6","mat_29","7","1","1","6063","","","","","","","","","","","","","","","","","","","","",""
"","","","","","html-keyboard-response","63","342594","0.0-2.0-4.0-0.5","616c67fb68f7841abb442300","C3","batch3","spm_show_trial_num","null","<p class=block-text>Trial 30 out of 60</p>","null","","","","","","","","","","","","","","","","","","","","","","","","","",""
"","","","","","image-button-response","64","351022","0.0-2.0-4.0-1.5","616c67fb68f7841abb442300","C3","batch3","spm_respsonse","8425.899999976158","img/question_3_6.jpeg","3","mat_30","4","1","1","8425.899999976158","","","","","","","","","","","","","","","","","","","","",""
"","","","","","html-keyboard-response","65","352101","0.0-2.0-4.0-0.6","616c67fb68f7841abb442300","C3","batch3","spm_show_trial_num","null","<p class=block-text>Trial 31 out of 60</p>","null","","","","","","","","","","","","","","","","","","","","","","","","","",""
"","","","","","image-button-response","66","364958","0.0-2.0-4.0-1.6","616c67fb68f7841abb442300","C3","batch3","spm_respsonse","12855.299999952316","img/question_3_7.jpeg","4","mat_31","5","1","1","12855.299999952316","","","","","","","","","","","","","","","","","","","","",""
"","","","","","html-keyboard-response","67","366030","0.0-2.0-4.0-0.7","616c67fb68f7841abb442300","C3","batch3","spm_show_trial_num","null","<p class=block-text>Trial 32 out of 60</p>","null","","","","","","","","","","","","","","","","","","","","","","","","","",""
"","","","","","image-button-response","68","402354","0.0-2.0-4.0-1.7","616c67fb68f7841abb442300","C3","batch3","spm_respsonse","36322.5","img/question_3_8.jpeg","2","mat_32","1","0","0","36322.5","","","","","","","","","","","","","","","","","","","","",""
"","","","","","html-keyboard-response","69","403414","0.0-2.0-4.0-0.8","616c67fb68f7841abb442300","C3","batch3","spm_show_trial_num","null","<p class=block-text>Trial 33 out of 60</p>","null","","","","","","","","","","","","","","","","","","","","","","","","","",""
"","","","","","image-button-response","70","415737","0.0-2.0-4.0-1.8","616c67fb68f7841abb442300","C3","batch3","spm_respsonse","12322.300000011921","img/question_3_9.jpeg","6","mat_33","7","1","1","12322.300000011921","","","","","","","","","","","","","","","","","","","","",""
"","","","","","html-keyboard-response","71","416805","0.0-2.0-4.0-0.9","616c67fb68f7841abb442300","C3","batch3","spm_show_trial_num","null","<p class=block-text>Trial 34 out of 60</p>","null","","","","","","","","","","","","","","","","","","","","","","","","","",""
"","","","","","image-button-response","72","427350","0.0-2.0-4.0-1.9","616c67fb68f7841abb442300","C3","batch3","spm_respsonse","10542.899999976158","img/question_3_10.jpeg","1","mat_34","6","0","0","10542.899999976158","","","","","","","","","","","","","","","","","","","","",""
"","","","","","html-keyboard-response","73","428422","0.0-2.0-4.0-0.10","616c67fb68f7841abb442300","C3","batch3","spm_show_trial_num","null","<p class=block-text>Trial 35 out of 60</p>","null","","","","","","","","","","","","","","","","","","","","","","","","","",""
"","","","","","image-button-response","74","449733","0.0-2.0-4.0-1.10","616c67fb68f7841abb442300","C3","batch3","spm_respsonse","21310.30000001192","img/question_3_11.jpeg","0","mat_35","1","1","1","21310.30000001192","","","","","","","","","","","","","","","","","","","","",""
"","","","","","html-keyboard-response","75","450786","0.0-2.0-4.0-0.11","616c67fb68f7841abb442300","C3","batch3","spm_show_trial_num","null","<p class=block-text>Trial 36 out of 60</p>","null","","","","","","","","","","","","","","","","","","","","","","","","","",""
"","","","","","image-button-response","76","479637","0.0-2.0-4.0-1.11","616c67fb68f7841abb442300","C3","batch3","spm_respsonse","28850.30000001192","img/question_3_12.jpeg","0","mat_36","2","0","0","28850.30000001192","","","","","","","","","","","","","","","","","","","","",""
"","","","","","html-keyboard-response","77","480699","0.0-2.0-4.0-0.12","616c67fb68f7841abb442300","C3","batch3","spm_show_trial_num","null","<p class=block-text>Trial 37 out of 60</p>","null","","","","","","","","","","","","","","","","","","","","","","","","","",""
"","","","","","image-button-response","78","483773","0.0-2.0-4.0-1.12","616c67fb68f7841abb442300","C3","batch3","spm_respsonse","3073.5","img/question_4_1.jpeg","2","mat_37","3","1","1","3073.5","","","","","","","","","","","","","","","","","","","","",""
"","","","","","html-keyboard-response","79","484838","0.0-2.0-4.0-0.13","616c67fb68f7841abb442300","C3","batch3","spm_show_trial_num","null","<p class=block-text>Trial 38 out of 60</p>","null","","","","","","","","","","","","","","","","","","","","","","","","","",""
"","","","","","image-button-response","80","491514","0.0-2.0-4.0-1.13","616c67fb68f7841abb442300","C3","batch3","spm_respsonse","6674.299999952316","img/question_4_2.jpeg","3","mat_38","4","1","1","6674.299999952316","","","","","","","","","","","","","","","","","","","","",""
"","","","","","html-keyboard-response","81","492580","0.0-2.0-4.0-0.14","616c67fb68f7841abb442300","C3","batch3","spm_show_trial_num","null","<p class=block-text>Trial 39 out of 60</p>","null","","","","","","","","","","","","","","","","","","","","","","","","","",""
"","","","","","image-button-response","82","503006","0.0-2.0-4.0-1.14","616c67fb68f7841abb442300","C3","batch3","spm_respsonse","10423.799999952316","img/question_4_3.jpeg","2","mat_39","3","1","1","10423.799999952316","","","","","","","","","","","","","","","","","","","","",""
"","","","","","html-keyboard-response","83","504083","0.0-2.0-4.0-0.15","616c67fb68f7841abb442300","C3","batch3","spm_show_trial_num","null","<p class=block-text>Trial 40 out of 60</p>","null","","","","","","","","","","","","","","","","","","","","","","","","","",""
"","","","","","image-button-response","84","511573","0.0-2.0-4.0-1.15","616c67fb68f7841abb442300","C3","batch3","spm_respsonse","7488.300000011921","img/question_4_4.jpeg","6","mat_40","7","1","1","7488.300000011921","","","","","","","","","","","","","","","","","","","","",""
"","","","","","html-keyboard-response","85","512641","0.0-2.0-4.0-0.16","616c67fb68f7841abb442300","C3","batch3","spm_show_trial_num","null","<p class=block-text>Trial 41 out of 60</p>","null","","","","","","","","","","","","","","","","","","","","","","","","","",""
"","","","","","image-button-response","86","517270","0.0-2.0-4.0-1.16","616c67fb68f7841abb442300","C3","batch3","spm_respsonse","4626.699999988079","img/question_4_5.jpeg","7","mat_41","8","1","1","4626.699999988079","","","","","","","","","","","","","","","","","","","","",""
"","","","","","html-keyboard-response","87","518335","0.0-2.0-4.0-0.17","616c67fb68f7841abb442300","C3","batch3","spm_show_trial_num","null","<p class=block-text>Trial 42 out of 60</p>","null","","","","","","","","","","","","","","","","","","","","","","","","","",""
"","","","","","image-button-response","88","527134","0.0-2.0-4.0-1.17","616c67fb68f7841abb442300","C3","batch3","spm_respsonse","8797.5","img/question_4_6.jpeg","4","mat_42","6","0","0","8797.5","","","","","","","","","","","","","","","","","","","","",""
"","","","","","html-keyboard-response","89","528202","0.0-2.0-4.0-0.18","616c67fb68f7841abb442300","C3","batch3","spm_show_trial_num","null","<p class=block-text>Trial 43 out of 60</p>","null","","","","","","","","","","","","","","","","","","","","","","","","","",""
"","","","","","image-button-response","90","542873","0.0-2.0-4.0-1.18","616c67fb68f7841abb442300","C3","batch3","spm_respsonse","14669.5","img/question_4_7.jpeg","4","mat_43","5","1","1","14669.5","","","","","","","","","","","","","","","","","","","","",""
"","","","","","html-keyboard-response","91","543940","0.0-2.0-4.0-0.19","616c67fb68f7841abb442300","C3","batch3","spm_show_trial_num","null","<p class=block-text>Trial 44 out of 60</p>","null","","","","","","","","","","","","","","","","","","","","","","","","","",""
"","","","","","image-button-response","92","555317","0.0-2.0-4.0-1.19","616c67fb68f7841abb442300","C3","batch3","spm_respsonse","11376.100000023842","img/question_4_8.jpeg","3","mat_44","4","1","1","11376.100000023842","","","","","","","","","","","","","","","","","","","","",""
"","","","","","html-keyboard-response","93","556383","0.0-2.0-4.0-0.20","616c67fb68f7841abb442300","C3","batch3","spm_show_trial_num","null","<p class=block-text>Trial 45 out of 60</p>","null","","","","","","","","","","","","","","","","","","","","","","","","","",""
"","","","","","image-button-response","94","571173","0.0-2.0-4.0-1.20","616c67fb68f7841abb442300","C3","batch3","spm_respsonse","14789","img/question_4_9.jpeg","0","mat_45","1","1","1","14789","","","","","","","","","","","","","","","","","","","","",""
"","","","","","html-keyboard-response","95","572241","0.0-2.0-4.0-0.21","616c67fb68f7841abb442300","C3","batch3","spm_show_trial_num","null","<p class=block-text>Trial 46 out of 60</p>","null","","","","","","","","","","","","","","","","","","","","","","","","","",""
"","","","","","image-button-response","96","588282","0.0-2.0-4.0-1.21","616c67fb68f7841abb442300","C3","batch3","spm_respsonse","16038.900000035763","img/question_4_10.jpeg","1","mat_46","2","1","1","16038.900000035763","","","","","","","","","","","","","","","","","","","","",""
"","","","","","html-keyboard-response","97","589357","0.0-2.0-4.0-0.22","616c67fb68f7841abb442300","C3","batch3","spm_show_trial_num","null","<p class=block-text>Trial 47 out of 60</p>","null","","","","","","","","","","","","","","","","","","","","","","","","","",""
"","","","","","image-button-response","98","640021","0.0-2.0-4.0-1.22","616c67fb68f7841abb442300","C3","batch3","spm_respsonse","50662.80000001192","img/question_4_11.jpeg","6","mat_47","5","0","0","50662.80000001192","","","","","","","","","","","","","","","","","","","","",""
"","","","","","html-keyboard-response","99","641096","0.0-2.0-4.0-0.23","616c67fb68f7841abb442300","C3","batch3","spm_show_trial_num","null","<p class=block-text>Trial 48 out of 60</p>","null","","","","","","","","","","","","","","","","","","","","","","","","","",""
"","","","","","image-button-response","100","655909","0.0-2.0-4.0-1.23","616c67fb68f7841abb442300","C3","batch3","spm_respsonse","14811.799999952316","img/question_4_12.jpeg","5","mat_48","6","1","1","14811.799999952316","","","","","","","","","","","","","","","","","","","","",""
"","","","","","html-keyboard-response","101","656976","0.0-2.0-4.0-0.24","616c67fb68f7841abb442300","C3","batch3","spm_show_trial_num","null","<p class=block-text>Trial 49 out of 60</p>","null","","","","","","","","","","","","","","","","","","","","","","","","","",""
"","","","","","image-button-response","102","667245","0.0-2.0-4.0-1.24","616c67fb68f7841abb442300","C3","batch3","spm_respsonse","10267.600000023842","img/question_5_1.jpeg","6","mat_49","7","1","1","10267.600000023842","","","","","","","","","","","","","","","","","","","","",""
"","","","","","html-keyboard-response","103","668319","0.0-2.0-4.0-0.25","616c67fb68f7841abb442300","C3","batch3","spm_show_trial_num","null","<p class=block-text>Trial 50 out of 60</p>","null","","","","","","","","","","","","","","","","","","","","","","","","","",""
"","","","","","image-button-response","104","683670","0.0-2.0-4.0-1.25","616c67fb68f7841abb442300","C3","batch3","spm_respsonse","15348.400000035763","img/question_5_2.jpeg","2","mat_50","6","0","0","15348.400000035763","","","","","","","","","","","","","","","","","","","","",""
"","","","","","html-keyboard-response","105","684724","0.0-2.0-4.0-0.26","616c67fb68f7841abb442300","C3","batch3","spm_show_trial_num","null","<p class=block-text>Trial 51 out of 60</p>","null","","","","","","","","","","","","","","","","","","","","","","","","","",""
"","","","","","image-button-response","106","696322","0.0-2.0-4.0-1.26","616c67fb68f7841abb442300","C3","batch3","spm_respsonse","11595.800000011921","img/question_5_3.jpeg","7","mat_51","8","1","1","11595.800000011921","","","","","","","","","","","","","","","","","","","","",""
"","","","","","html-keyboard-response","107","697387","0.0-2.0-4.0-0.27","616c67fb68f7841abb442300","C3","batch3","spm_show_trial_num","null","<p class=block-text>Trial 52 out of 60</p>","null","","","","","","","","","","","","","","","","","","","","","","","","","",""
"","","","","","image-button-response","108","706582","0.0-2.0-4.0-1.27","616c67fb68f7841abb442300","C3","batch3","spm_respsonse","9192.399999976158","img/question_5_4.jpeg","1","mat_52","2","1","1","9192.399999976158","","","","","","","","","","","","","","","","","","","","",""
"","","","","","html-keyboard-response","109","707660","0.0-2.0-4.0-0.28","616c67fb68f7841abb442300","C3","batch3","spm_show_trial_num","null","<p class=block-text>Trial 53 out of 60</p>","null","","","","","","","","","","","","","","","","","","","","","","","","","",""
"","","","","","image-button-response","110","720980","0.0-2.0-4.0-1.28","616c67fb68f7841abb442300","C3","batch3","spm_respsonse","13319.199999988079","img/question_5_5.jpeg","0","mat_53","1","1","1","13319.199999988079","","","","","","","","","","","","","","","","","","","","",""
"","","","","","html-keyboard-response","111","722037","0.0-2.0-4.0-0.29","616c67fb68f7841abb442300","C3","batch3","spm_show_trial_num","null","<p class=block-text>Trial 54 out of 60</p>","null","","","","","","","","","","","","","","","","","","","","","","","","","",""
"","","","","","image-button-response","112","730852","0.0-2.0-4.0-1.29","616c67fb68f7841abb442300","C3","batch3","spm_respsonse","8814.300000011921","img/question_5_6.jpeg","7","mat_54","5","0","0","8814.300000011921","","","","","","","","","","","","","","","","","","","","",""
"","","","","","html-keyboard-response","113","731910","0.0-2.0-4.0-0.30","616c67fb68f7841abb442300","C3","batch3","spm_show_trial_num","null","<p class=block-text>Trial 55 out of 60</p>","null","","","","","","","","","","","","","","","","","","","","","","","","","",""
"","","","","","image-button-response","114","746601","0.0-2.0-4.0-1.30","616c67fb68f7841abb442300","C3","batch3","spm_respsonse","14689.600000023842","img/question_5_7.jpeg","2","mat_55","1","0","0","14689.600000023842","","","","","","","","","","","","","","","","","","","","",""
"","","","","","html-keyboard-response","115","747686","0.0-2.0-4.0-0.31","616c67fb68f7841abb442300","C3","batch3","spm_show_trial_num","null","<p class=block-text>Trial 56 out of 60</p>","null","","","","","","","","","","","","","","","","","","","","","","","","","",""
"","","","","","image-button-response","116","786137","0.0-2.0-4.0-1.31","616c67fb68f7841abb442300","C3","batch3","spm_respsonse","38449.5","img/question_5_8.jpeg","5","mat_56","6","1","1","38449.5","","","","","","","","","","","","","","","","","","","","",""
"","","","","","html-keyboard-response","117","787204","0.0-2.0-4.0-0.32","616c67fb68f7841abb442300","C3","batch3","spm_show_trial_num","null","<p class=block-text>Trial 57 out of 60</p>","null","","","","","","","","","","","","","","","","","","","","","","","","","",""
"","","","","","image-button-response","118","799554","0.0-2.0-4.0-1.32","616c67fb68f7841abb442300","C3","batch3","spm_respsonse","12348.800000011921","img/question_5_9.jpeg","2","mat_57","3","1","1","12348.800000011921","","","","","","","","","","","","","","","","","","","","",""
"","","","","","html-keyboard-response","119","800624","0.0-2.0-4.0-0.33","616c67fb68f7841abb442300","C3","batch3","spm_show_trial_num","null","<p class=block-text>Trial 58 out of 60</p>","null","","","","","","","","","","","","","","","","","","","","","","","","","",""
"","","","","","image-button-response","120","821077","0.0-2.0-4.0-1.33","616c67fb68f7841abb442300","C3","batch3","spm_respsonse","20451.30000001192","img/question_5_10.jpeg","4","mat_58","2","0","0","20451.30000001192","","","","","","","","","","","","","","","","","","","","",""
"","","","","","html-keyboard-response","121","822141","0.0-2.0-4.0-0.34","616c67fb68f7841abb442300","C3","batch3","spm_show_trial_num","null","<p class=block-text>Trial 59 out of 60</p>","null","","","","","","","","","","","","","","","","","","","","","","","","","",""
"","","","","","image-button-response","122","835397","0.0-2.0-4.0-1.34","616c67fb68f7841abb442300","C3","batch3","spm_respsonse","13254.599999964237","img/question_5_11.jpeg","2","mat_59","4","0","0","13254.599999964237","","","","","","","","","","","","","","","","","","","","",""
"","","","","","html-keyboard-response","123","836464","0.0-2.0-4.0-0.35","616c67fb68f7841abb442300","C3","batch3","spm_show_trial_num","null","<p class=block-text>Trial 60 out of 60</p>","null","","","","","","","","","","","","","","","","","","","","","","","","","",""
"","","","","","image-button-response","124","844813","0.0-2.0-4.0-1.35","616c67fb68f7841abb442300","C3","batch3","spm_respsonse","8347.199999988079","img/question_5_12.jpeg","3","mat_60","5","0","0","8347.199999988079","","","","","","","","","","","","","","","","","","","","",""
"","","","","","html-button-response","125","852269","0.0-2.0-5.0","616c67fb68f7841abb442300","C3","batch3","spm_goodbye","7191.700000047684","<p class= block-text>This concludes the Standard Progressive Matrix game. Thank you for your responses!<br> When you are ready, click the button continue</p>","0","","","","","","","","","","","","","","","","","","","","","","","","","",""
"true","","","","","fullscreen","126","856110","0.0-3.0-0.0","616c67fb68f7841abb442300","C3","batch3","","","","","","","","","","","","","","","","","","","","","","","","","","","","","",""
"","","","","","instructions","127","875052","0.0-3.0-1.0-0.0","616c67fb68f7841abb442300","C3","batch3","","18941.5","","","","","","","","[{""page_index"":0,""viewing_time"":13198.399999976158},{""page_index"":1,""viewing_time"":5743}]","","","","","","","","","","","","","","","","","","","",""
"","","","","","html-button-response","128","876298","0.0-3.0-1.0-1.0-0.0","616c67fb68f7841abb442300","C3","batch3","pattern_enter_quiz","1244.699999988079","<p class=block-text> Let's answer a few questions <br>","0","","","","","","","","","","","","","","","","","","","","","","","","","",""
"","","","","","html-button-response","129","879949","0.0-3.0-1.0-1.0-1.0","616c67fb68f7841abb442300","C3","batch3","pattern_quiz","3650.800000011921","<p class = block-text>True or False: You will have as much time as you want to make each choice. <br></p>","1","","","true","","","","","","","","","","","","","","","","","","","","","","",""
"","","","","","html-button-response","130","880881","0.0-3.0-1.0-1.0-2.0","616c67fb68f7841abb442300","C3","batch3","pattern_quiz_feedback","930.8000000119209","<p class = block-text>Correct! You should make your choice <strong> as fast as you can</strong>.</p>","0","","","","","","","","","","","","","","","","","","","","","","","","","",""
"","","","","","html-button-response","131","885353","0.0-3.0-1.0-1.0-3.0","616c67fb68f7841abb442300","C3","batch3","pattern_quiz","4471.300000011921","<p class = block-text>True or False: You will look for 4 pieces in black or white color connected in a row either horizontally, vertically or diagonally. <br></p>","0","","","true","","","","","","","","","","","","","","","","","","","","","","",""
"","","","","","html-button-response","132","886197","0.0-3.0-1.0-1.0-4.0","616c67fb68f7841abb442300","C3","batch3","pattern_quiz_feedback","842.3999999761581","<p class = block-text>Correct! </p>","0","","","","","","","","","","","","","","","","","","","","","","","","","",""
"","","","","","html-button-response","133","888393","0.0-3.0-2.0","616c67fb68f7841abb442300","C3","batch3","pattern_enter_practice","2194.899999976158","<p class=block-text> Now that you've understood the game, let's do a few practice trials before we start!<br> <br>","0","","","","","","","","","","","","","","","","","","","","","","","","","",""
"","","","","","image-keyboard-response","134","890363","0.0-3.0-3.0-0.0","616c67fb68f7841abb442300","C3","batch3","pattern_practice","1967.800000011921","stim/prac_yes_16_ver_w1.png","f","","f","true","","","","","","","","","","","","","","","","","","","","","","",""
"","","","","","html-keyboard-response","135","891379","0.0-3.0-3.0-1.0","616c67fb68f7841abb442300","C3","batch3","pattern_feedback","null","<p style=""font-size:30px;color:green;"">Correct!</p>","null","","","","","","","","","","","","","","","","","","","","","","","","","",""
"","","","","","image-keyboard-response","136","892833","0.0-3.0-3.0-0.1","616c67fb68f7841abb442300","C3","batch3","pattern_practice","1453","stim/prac_no_18_1.png","j","","j","true","","","","","","","","","","","","","","","","","","","","","","",""
"","","","","","html-keyboard-response","137","893842","0.0-3.0-3.0-1.1","616c67fb68f7841abb442300","C3","batch3","pattern_feedback","null","<p style=""font-size:30px;color:green;"">Correct!</p>","null","","","","","","","","","","","","","","","","","","","","","","","","","",""
"","","","","","image-keyboard-response","138","895955","0.0-3.0-3.0-0.2","616c67fb68f7841abb442300","C3","batch3","pattern_practice","2111.900000035763","stim/prac_yes_20_dia_b1.png","f","","f","true","","","","","","","","","","","","","","","","","","","","","","",""
"","","","","","html-keyboard-response","139","896965","0.0-3.0-3.0-1.2","616c67fb68f7841abb442300","C3","batch3","pattern_feedback","null","<p style=""font-size:30px;color:green;"">Correct!</p>","null","","","","","","","","","","","","","","","","","","","","","","","","","",""
"","","","","","image-keyboard-response","140","898919","0.0-3.0-3.0-0.3","616c67fb68f7841abb442300","C3","batch3","pattern_practice","1953.6000000238419","stim/prac_no_16_1.png","j","","j","true","","","","","","","","","","","","","","","","","","","","","","",""
"","","","","","html-keyboard-response","141","899935","0.0-3.0-3.0-1.3","616c67fb68f7841abb442300","C3","batch3","pattern_feedback","null","<p style=""font-size:30px;color:green;"">Correct!</p>","null","","","","","","","","","","","","","","","","","","","","","","","","","",""
"","","","","","image-keyboard-response","142","901237","0.0-3.0-3.0-0.4","616c67fb68f7841abb442300","C3","batch3","pattern_practice","1301.5","stim/prac_yes_18_hor_w1.png","f","","f","true","","","","","","","","","","","","","","","","","","","","","","",""
"","","","","","html-keyboard-response","143","902241","0.0-3.0-3.0-1.4","616c67fb68f7841abb442300","C3","batch3","pattern_feedback","null","<p style=""font-size:30px;color:green;"">Correct!</p>","null","","","","","","","","","","","","","","","","","","","","","","","","","",""
"","","","","","html-button-response","144","909109","0.0-3.0-4.0","616c67fb68f7841abb442300","C3","batch3","pattern_enter_official_trials","6866.5","<p class=block-text> Good job! You are done with practice trials!<br>
        You responded correctly on 100% of the trials.<br>
        Press the button below to start official trials. Now you won't see any feedback about your response</p>","0","","","","","","","","","","","","","","","","","","","","","","","","","",""
"","","","","","html-keyboard-response","145","909914","0.0-3.0-5.0-0.0","616c67fb68f7841abb442300","C3","batch3","pattern_show_trial_num","null","<p class=block-text>Trial 1 out of 78</p>","null","","","","","","","","","","","","","","","","","","","","","","","","","",""
"","","","","","image-keyboard-response","146","912097","0.0-3.0-5.0-1.0","616c67fb68f7841abb442300","C3","batch3","pattern_response","2181.699999988079","stim/no_25_1_b.png","j","pattern_09","j","true","","","","2181.699999988079","true","1","","","","","","","","","","","","","","","","",""
"","","","","","html-keyboard-response","147","913417","0.0-3.0-5.0-0.1","616c67fb68f7841abb442300","C3","batch3","pattern_show_trial_num","null","<p class=block-text>Trial 2 out of 78</p>","null","","","","","","","","","","","","","","","","","","","","","","","","","",""
"","","","","","image-keyboard-response","148","914672","0.0-3.0-5.0-1.1","616c67fb68f7841abb442300","C3","batch3","pattern_response","1252.800000011921","stim/yes_53_ver_b1_b.png","f","pattern_74","f","true","","","","1252.800000011921","true","2","","","","","","","","","","","","","","","","",""
"","","","","","html-keyboard-response","149","915985","0.0-3.0-5.0-0.2","616c67fb68f7841abb442300","C3","batch3","pattern_show_trial_num","null","<p class=block-text>Trial 3 out of 78</p>","null","","","","","","","","","","","","","","","","","","","","","","","","","",""
"","","","","","image-keyboard-response","150","916919","0.0-3.0-5.0-1.2","616c67fb68f7841abb442300","C3","batch3","pattern_response","933.5999999642372","stim/yes_29_hor_b1_b.png","f","pattern_52","f","true","","","","933.5999999642372","true","3","","","","","","","","","","","","","","","","",""
"","","","","","html-keyboard-response","151","918236","0.0-3.0-5.0-0.3","616c67fb68f7841abb442300","C3","batch3","pattern_show_trial_num","null","<p class=block-text>Trial 4 out of 78</p>","null","","","","","","","","","","","","","","","","","","","","","","","","","",""
"","","","","","image-keyboard-response","152","919159","0.0-3.0-5.0-1.3","616c67fb68f7841abb442300","C3","batch3","pattern_response","922.1000000238419","stim/no_22_1_b.png","j","pattern_07","j","true","","","","922.1000000238419","true","4","","","","","","","","","","","","","","","","",""
"","","","","","html-keyboard-response","153","920476","0.0-3.0-5.0-0.4","616c67fb68f7841abb442300","C3","batch3","pattern_show_trial_num","null","<p class=block-text>Trial 5 out of 78</p>","null","","","","","","","","","","","","","","","","","","","","","","","","","",""
"","","","","","image-keyboard-response","154","922716","0.0-3.0-5.0-1.4","616c67fb68f7841abb442300","C3","batch3","pattern_response","2239.5","stim/no_43_2_b.png","j","pattern_23","j","true","","","","2239.5","true","5","","","","","","","","","","","","","","","","",""
"","","","","","html-keyboard-response","155","924038","0.0-3.0-5.0-0.5","616c67fb68f7841abb442300","C3","batch3","pattern_show_trial_num","null","<p class=block-text>Trial 6 out of 78</p>","null","","","","","","","","","","","","","","","","","","","","","","","","","",""
"","","","","","image-keyboard-response","156","928065","0.0-3.0-5.0-1.5","616c67fb68f7841abb442300","C3","batch3","pattern_response","4025.800000011921","stim/no_51_1.png","j","pattern_31","j","true","","","","4025.800000011921","true","6","","","","","","","","","","","","","","","","",""
"","","","","","html-keyboard-response","157","929383","0.0-3.0-5.0-0.6","616c67fb68f7841abb442300","C3","batch3","pattern_show_trial_num","null","<p class=block-text>Trial 7 out of 78</p>","null","","","","","","","","","","","","","","","","","","","","","","","","","",""
"","","","","","image-keyboard-response","158","930255","0.0-3.0-5.0-1.6","616c67fb68f7841abb442300","C3","batch3","pattern_response","870.6999999880791","stim/yes_33_dia_w1_w.png","f","pattern_56","f","true","","","","870.6999999880791","true","7","","","","","","","","","","","","","","","","",""
"","","","","","html-keyboard-response","159","931568","0.0-3.0-5.0-0.7","616c67fb68f7841abb442300","C3","batch3","pattern_show_trial_num","null","<p class=block-text>Trial 8 out of 78</p>","null","","","","","","","","","","","","","","","","","","","","","","","","","",""
"","","","","","image-keyboard-response","160","936602","0.0-3.0-5.0-1.7","616c67fb68f7841abb442300","C3","batch3","pattern_response","5032.800000011921","stim/no_53_1_b.png","j","pattern_33","j","true","","","","5032.800000011921","true","8","","","","","","","","","","","","","","","","",""
"","","","","","html-keyboard-response","161","937945","0.0-3.0-5.0-0.8","616c67fb68f7841abb442300","C3","batch3","pattern_show_trial_num","null","<p class=block-text>Trial 9 out of 78</p>","null","","","","","","","","","","","","","","","","","","","","","","","","","",""
"","","","","","image-keyboard-response","162","939611","0.0-3.0-5.0-1.8","616c67fb68f7841abb442300","C3","batch3","pattern_response","1664.3999999761581","stim/yes_44_ver_w1_w.png","j","pattern_66","f","false","","","","1664.3999999761581","false","8","","","","","","","","","","","","","","","","",""
"","","","","","html-keyboard-response","163","940952","0.0-3.0-5.0-0.9","616c67fb68f7841abb442300","C3","batch3","pattern_show_trial_num","null","<p class=block-text>Trial 10 out of 78</p>","null","","","","","","","","","","","","","","","","","","","","","","","","","",""
"","","","","","image-keyboard-response","164","941712","0.0-3.0-5.0-1.9","616c67fb68f7841abb442300","C3","batch3","pattern_response","758.6999999880791","stim/yes_39_hor_w1_w.png","f","pattern_62","f","true","","","","758.6999999880791","true","9","","","","","","","","","","","","","","","","",""
"","","","","","html-keyboard-response","165","943035","0.0-3.0-5.0-0.10","616c67fb68f7841abb442300","C3","batch3","pattern_show_trial_num","null","<p class=block-text>Trial 11 out of 78</p>","null","","","","","","","","","","","","","","","","","","","","","","","","","",""
"","","","","","image-keyboard-response","166","943622","0.0-3.0-5.0-1.10","616c67fb68f7841abb442300","C3","batch3","pattern_response","586.5999999642372","stim/yes_12_hor_w1_w.png","f","pattern_42","f","true","","","","586.5999999642372","true","10","","","","","","","","","","","","","","","","",""
"","","","","","html-keyboard-response","167","944949","0.0-3.0-5.0-0.11","616c67fb68f7841abb442300","C3","batch3","pattern_show_trial_num","null","<p class=block-text>Trial 12 out of 78</p>","null","","","","","","","","","","","","","","","","","","","","","","","","","",""
"","","","","","image-keyboard-response","168","948912","0.0-3.0-5.0-1.11","616c67fb68f7841abb442300","C3","batch3","pattern_response","3965.899999976158","stim/yes_58_dia_w1_w.png","j","pattern_76","f","false","","","","3965.899999976158","false","10","","","","","","","","","","","","","","","","",""
"","","","","","html-keyboard-response","169","950216","0.0-3.0-5.0-0.12","616c67fb68f7841abb442300","C3","batch3","pattern_show_trial_num","null","<p class=block-text>Trial 13 out of 78</p>","null","","","","","","","","","","","","","","","","","","","","","","","","","",""
"","","","","","image-keyboard-response","170","951082","0.0-3.0-5.0-1.12","616c67fb68f7841abb442300","C3","batch3","pattern_response","863.7999999523163","stim/yes_36_ver_w1_w.png","f","pattern_58","f","true","","","","863.7999999523163","true","11","","","","","","","","","","","","","","","","",""
"","","","","","html-keyboard-response","171","952392","0.0-3.0-5.0-0.13","616c67fb68f7841abb442300","C3","batch3","pattern_show_trial_num","null","<p class=block-text>Trial 14 out of 78</p>","null","","","","","","","","","","","","","","","","","","","","","","","","","",""
"","","","","","image-keyboard-response","172","953087","0.0-3.0-5.0-1.13","616c67fb68f7841abb442300","C3","batch3","pattern_response","694","stim/yes_17_ver_b1_b.png","f","pattern_46","f","true","","","","694","true","12","","","","","","","","","","","","","","","","",""
"","","","","","html-keyboard-response","173","954396","0.0-3.0-5.0-0.14","616c67fb68f7841abb442300","C3","batch3","pattern_show_trial_num","null","<p class=block-text>Trial 15 out of 78</p>","null","","","","","","","","","","","","","","","","","","","","","","","","","",""
"","","","","","image-keyboard-response","174","956573","0.0-3.0-5.0-1.14","616c67fb68f7841abb442300","C3","batch3","pattern_response","2175.400000035763","stim/no_36_1_b.png","j","pattern_17","j","true","","","","2175.400000035763","true","13","","","","","","","","","","","","","","","","",""
"","","","","","html-keyboard-response","175","957898","0.0-3.0-5.0-0.15","616c67fb68f7841abb442300","C3","batch3","pattern_show_trial_num","null","<p class=block-text>Trial 16 out of 78</p>","null","","","","","","","","","","","","","","","","","","","","","","","","","",""
"","","","","","image-keyboard-response","176","958970","0.0-3.0-5.0-1.15","616c67fb68f7841abb442300","C3","batch3","pattern_response","1070.5","stim/no_30_1_b.png","j","pattern_13","j","true","","","","1070.5","true","14","","","","","","","","","","","","","","","","",""
"","","","","","html-keyboard-response","177","960311","0.0-3.0-5.0-0.16","616c67fb68f7841abb442300","C3","batch3","pattern_show_trial_num","null","<p class=block-text>Trial 17 out of 78</p>","null","","","","","","","","","","","","","","","","","","","","","","","","","",""
"","","","","","image-keyboard-response","178","961155","0.0-3.0-5.0-1.16","616c67fb68f7841abb442300","C3","batch3","pattern_response","843","stim/yes_37_hor_w1_w.png","f","pattern_60","f","true","","","","843","true","15","","","","","","","","","","","","","","","","",""
"","","","","","html-keyboard-response","179","962483","0.0-3.0-5.0-0.17","616c67fb68f7841abb442300","C3","batch3","pattern_show_trial_num","null","<p class=block-text>Trial 18 out of 78</p>","null","","","","","","","","","","","","","","","","","","","","","","","","","",""
"","","","","","image-keyboard-response","180","970129","0.0-3.0-5.0-1.17","616c67fb68f7841abb442300","C3","batch3","pattern_response","7645.700000047684","stim/yes_63_dia_b1.png","j","pattern_78","f","false","","","","7645.700000047684","false","15","","","","","","","","","","","","","","","","",""
"","","","","","html-keyboard-response","181","971438","0.0-3.0-5.0-0.18","616c67fb68f7841abb442300","C3","batch3","pattern_show_trial_num","null","<p class=block-text>Trial 19 out of 78</p>","null","","","","","","","","","","","","","","","","","","","","","","","","","",""
"","","","","","image-keyboard-response","182","973513","0.0-3.0-5.0-1.18","616c67fb68f7841abb442300","C3","batch3","pattern_response","2073.800000011921","stim/no_37_2_w.png","j","pattern_19","j","true","","","","2073.800000011921","true","16","","","","","","","","","","","","","","","","",""
"","","","","","html-keyboard-response","183","974829","0.0-3.0-5.0-0.19","616c67fb68f7841abb442300","C3","batch3","pattern_show_trial_num","null","<p class=block-text>Trial 20 out of 78</p>","null","","","","","","","","","","","","","","","","","","","","","","","","","",""
"","","","","","image-keyboard-response","184","977975","0.0-3.0-5.0-1.19","616c67fb68f7841abb442300","C3","batch3","pattern_response","3144.7999999523163","stim/no_39_1_w.png","j","pattern_21","j","true","","","","3144.7999999523163","true","17","","","","","","","","","","","","","","","","",""
"","","","","","html-keyboard-response","185","979289","0.0-3.0-5.0-0.20","616c67fb68f7841abb442300","C3","batch3","pattern_show_trial_num","null","<p class=block-text>Trial 21 out of 78</p>","null","","","","","","","","","","","","","","","","","","","","","","","","","",""
"","","","","","image-keyboard-response","186","982148","0.0-3.0-5.0-1.20","616c67fb68f7841abb442300","C3","batch3","pattern_response","2857.100000023842","stim/yes_46_ver_b1_b.png","j","pattern_68","f","false","","","","2857.100000023842","false","17","","","","","","","","","","","","","","","","",""
"","","","","","html-keyboard-response","187","983469","0.0-3.0-5.0-0.21","616c67fb68f7841abb442300","C3","batch3","pattern_show_trial_num","null","<p class=block-text>Trial 22 out of 78</p>","null","","","","","","","","","","","","","","","","","","","","","","","","","",""
"","","","","","image-keyboard-response","188","986713","0.0-3.0-5.0-1.21","616c67fb68f7841abb442300","C3","batch3","pattern_response","3242.2000000476837","stim/no_45_1_w.png","j","pattern_25","j","true","","","","3242.2000000476837","true","18","","","","","","","","","","","","","","","","",""
"","","","","","html-keyboard-response","189","988028","0.0-3.0-5.0-0.22","616c67fb68f7841abb442300","C3","batch3","pattern_show_trial_num","null","<p class=block-text>Trial 23 out of 78</p>","null","","","","","","","","","","","","","","","","","","","","","","","","","",""
"","","","","","image-keyboard-response","190","989352","0.0-3.0-5.0-1.22","616c67fb68f7841abb442300","C3","batch3","pattern_response","1323","stim/yes_30_ver_b1_b.png","f","pattern_54","f","true","","","","1323","true","19","","","","","","","","","","","","","","","","",""
"","","","","","html-keyboard-response","191","990677","0.0-3.0-5.0-0.23","616c67fb68f7841abb442300","C3","batch3","pattern_show_trial_num","null","<p class=block-text>Trial 24 out of 78</p>","null","","","","","","","","","","","","","","","","","","","","","","","","","",""
"","","","","","image-keyboard-response","192","991939","0.0-3.0-5.0-1.23","616c67fb68f7841abb442300","C3","batch3","pattern_response","1260.800000011921","stim/no_15_1_w.png","j","pattern_03","j","true","","","","1260.800000011921","true","20","","","","","","","","","","","","","","","","",""
"","","","","","html-keyboard-response","193","993244","0.0-3.0-5.0-0.24","616c67fb68f7841abb442300","C3","batch3","pattern_show_trial_num","null","<p class=block-text>Trial 25 out of 78</p>","null","","","","","","","","","","","","","","","","","","","","","","","","","",""
"","","","","","image-keyboard-response","194","995549","0.0-3.0-5.0-1.24","616c67fb68f7841abb442300","C3","batch3","pattern_response","2303.5","stim/yes_42_dia_w1_w.png","f","pattern_64","f","true","","","","2303.5","true","21","","","","","","","","","","","","","","","","",""
"","","","","","html-keyboard-response","195","996872","0.0-3.0-5.0-0.25","616c67fb68f7841abb442300","C3","batch3","pattern_show_trial_num","null","<p class=block-text>Trial 26 out of 78</p>","null","","","","","","","","","","","","","","","","","","","","","","","","","",""
"","","","","","image-keyboard-response","196","1001274","0.0-3.0-5.0-1.25","616c67fb68f7841abb442300","C3","batch3","pattern_response","4400.700000047684","stim/no_58_1_w.png","j","pattern_35","j","true","","","","4400.700000047684","true","22","","","","","","","","","","","","","","","","",""
"","","","","","html-keyboard-response","197","1002586","0.0-3.0-5.0-0.26","616c67fb68f7841abb442300","C3","batch3","pattern_show_trial_num","null","<p class=block-text>Trial 27 out of 78</p>","null","","","","","","","","","","","","","","","","","","","","","","","","","",""
"","","","","","image-keyboard-response","198","1003887","0.0-3.0-5.0-1.26","616c67fb68f7841abb442300","C3","batch3","pattern_response","1299","stim/yes_70_ver_b1.png","f","pattern_80","f","true","","","","1299","true","23","","","","","","","","","","","","","","","","",""
"","","","","","html-keyboard-response","199","1005194","0.0-3.0-5.0-0.27","616c67fb68f7841abb442300","C3","batch3","pattern_show_trial_num","null","<p class=block-text>Trial 28 out of 78</p>","null","","","","","","","","","","","","","","","","","","","","","","","","","",""
"","","","","","image-keyboard-response","200","1006224","0.0-3.0-5.0-1.27","616c67fb68f7841abb442300","C3","batch3","pattern_response","1028","stim/yes_15_dia_b1u_b.png","f","pattern_44","f","true","","","","1028","true","24","","","","","","","","","","","","","","","","",""
"","","","","","html-keyboard-response","201","1007551","0.0-3.0-5.0-0.28","616c67fb68f7841abb442300","C3","batch3","pattern_show_trial_num","null","<p class=block-text>Trial 29 out of 78</p>","null","","","","","","","","","","","","","","","","","","","","","","","","","",""
"","","","","","image-keyboard-response","202","1009376","0.0-3.0-5.0-1.28","616c67fb68f7841abb442300","C3","batch3","pattern_response","1824.3999999761581","stim/no_28_2.png","j","pattern_11","j","true","","","","1824.3999999761581","true","25","","","","","","","","","","","","","","","","",""
"","","","","","html-keyboard-response","203","1010690","0.0-3.0-5.0-0.29","616c67fb68f7841abb442300","C3","batch3","pattern_show_trial_num","null","<p class=block-text>Trial 30 out of 78</p>","null","","","","","","","","","","","","","","","","","","","","","","","","","",""
"","","","","","image-keyboard-response","204","1014380","0.0-3.0-5.0-1.29","616c67fb68f7841abb442300","C3","batch3","pattern_response","3688.800000011921","stim/no_47_1_b.png","j","pattern_27","j","true","","","","3688.800000011921","true","26","","","","","","","","","","","","","","","","",""
"","","","","","html-keyboard-response","205","1015701","0.0-3.0-5.0-0.30","616c67fb68f7841abb442300","C3","batch3","pattern_show_trial_num","null","<p class=block-text>Trial 31 out of 78</p>","null","","","","","","","","","","","","","","","","","","","","","","","","","",""
"","","","","","image-keyboard-response","206","1017534","0.0-3.0-5.0-1.30","616c67fb68f7841abb442300","C3","batch3","pattern_response","1831.3999999761581","stim/yes_49_hor_w1_b.png","f","pattern_70","f","true","","","","1831.3999999761581","true","27","","","","","","","","","","","","","","","","",""
"","","","","","html-keyboard-response","207","1018845","0.0-3.0-5.0-0.31","616c67fb68f7841abb442300","C3","batch3","pattern_show_trial_num","null","<p class=block-text>Trial 32 out of 78</p>","null","","","","","","","","","","","","","","","","","","","","","","","","","",""
"","","","","","image-keyboard-response","208","1019897","0.0-3.0-5.0-1.31","616c67fb68f7841abb442300","C3","batch3","pattern_response","1050.2000000476837","stim/no_18_1_b.png","j","pattern_05","j","true","","","","1050.2000000476837","true","28","","","","","","","","","","","","","","","","",""
"","","","","","html-keyboard-response","209","1021212","0.0-3.0-5.0-0.32","616c67fb68f7841abb442300","C3","batch3","pattern_show_trial_num","null","<p class=block-text>Trial 33 out of 78</p>","null","","","","","","","","","","","","","","","","","","","","","","","","","",""
"","","","","","image-keyboard-response","210","1023899","0.0-3.0-5.0-1.32","616c67fb68f7841abb442300","C3","batch3","pattern_response","2686.199999988079","stim/no_49_2_b.png","j","pattern_29","j","true","","","","2686.199999988079","true","29","","","","","","","","","","","","","","","","",""
"","","","","","html-keyboard-response","211","1025224","0.0-3.0-5.0-0.33","616c67fb68f7841abb442300","C3","batch3","pattern_show_trial_num","null","<p class=block-text>Trial 34 out of 78</p>","null","","","","","","","","","","","","","","","","","","","","","","","","","",""
"","","","","","image-keyboard-response","212","1027583","0.0-3.0-5.0-1.33","616c67fb68f7841abb442300","C3","batch3","pattern_response","2357.199999988079","stim/no_33_1_b.png","j","pattern_15","j","true","","","","2357.199999988079","true","30","","","","","","","","","","","","","","","","",""
"","","","","","html-keyboard-response","213","1028918","0.0-3.0-5.0-0.34","616c67fb68f7841abb442300","C3","batch3","pattern_show_trial_num","null","<p class=block-text>Trial 35 out of 78</p>","null","","","","","","","","","","","","","","","","","","","","","","","","","",""
"","","","","","image-keyboard-response","214","1031529","0.0-3.0-5.0-1.34","616c67fb68f7841abb442300","C3","batch3","pattern_response","2609.800000011921","stim/yes_51_dia_b1.png","j","pattern_72","f","false","","","","2609.800000011921","false","30","","","","","","","","","","","","","","","","",""
"","","","","","html-keyboard-response","215","1032859","0.0-3.0-5.0-0.35","616c67fb68f7841abb442300","C3","batch3","pattern_show_trial_num","null","<p class=block-text>Trial 36 out of 78</p>","null","","","","","","","","","","","","","","","","","","","","","","","","","",""
"","","","","","image-keyboard-response","216","1033641","0.0-3.0-5.0-1.35","616c67fb68f7841abb442300","C3","batch3","pattern_response","781.5","stim/no_12_1.png","j","pattern_01","j","true","","","","781.5","true","31","","","","","","","","","","","","","","","","",""
"","","","","","html-keyboard-response","217","1034962","0.0-3.0-5.0-0.36","616c67fb68f7841abb442300","C3","batch3","pattern_show_trial_num","null","<p class=block-text>Trial 37 out of 78</p>","null","","","","","","","","","","","","","","","","","","","","","","","","","",""
"","","","","","image-keyboard-response","218","1036290","0.0-3.0-5.0-1.36","616c67fb68f7841abb442300","C3","batch3","pattern_response","1326.5999999642372","stim/yes_26_dia_w2_w.png","f","pattern_50","f","true","","","","1326.5999999642372","true","32","","","","","","","","","","","","","","","","",""
"","","","","","html-keyboard-response","219","1037604","0.0-3.0-5.0-0.37","616c67fb68f7841abb442300","C3","batch3","pattern_show_trial_num","null","<p class=block-text>Trial 38 out of 78</p>","null","","","","","","","","","","","","","","","","","","","","","","","","","",""
"","","","","","image-keyboard-response","220","1042878","0.0-3.0-5.0-1.37","616c67fb68f7841abb442300","C3","batch3","pattern_response","5272.899999976158","stim/no_67_1.png","j","pattern_39","j","true","","","","5272.899999976158","true","33","","","","","","","","","","","","","","","","",""
"","","","","","html-keyboard-response","221","1044218","0.0-3.0-5.0-0.38","616c67fb68f7841abb442300","C3","batch3","pattern_show_trial_num","null","<p class=block-text>Trial 39 out of 78</p>","null","","","","","","","","","","","","","","","","","","","","","","","","","",""
"","","","","","image-keyboard-response","222","1045352","0.0-3.0-5.0-1.38","616c67fb68f7841abb442300","C3","batch3","pattern_response","1131.5","stim/yes_23_ver_b1.png","f","pattern_48","f","true","","","","1131.5","true","34","","","","","","","","","","","","","","","","",""
"","","","","","image-keyboard-response","223","1047262","0.0-3.0-6.0","616c67fb68f7841abb442300","C3","batch3","attention_check","1406.1000000238419","stim/empty_board.png","j","","j","true","","","","","","","500","[""f"",""j""]","","","","","","","","","","","","","","",""
"","","","","","html-keyboard-response","224","1048071","0.0-3.0-7.0-0.0","616c67fb68f7841abb442300","C3","batch3","pattern_show_trial_num","null","<p class=block-text>Trial 40 out of 78</p>","null","","","","","","","","","","","","","","","","","","","","","","","","","",""
"","","","","","image-keyboard-response","225","1049923","0.0-3.0-7.0-1.0","616c67fb68f7841abb442300","C3","batch3","pattern_response","1850.699999988079","stim/no_26_1_w.png","j","pattern_10","j","true","","","","1850.699999988079","true","35","","","","","","","","","","","","","","","","",""
"","","","","","html-keyboard-response","226","1051244","0.0-3.0-7.0-0.1","616c67fb68f7841abb442300","C3","batch3","pattern_show_trial_num","null","<p class=block-text>Trial 41 out of 78</p>","null","","","","","","","","","","","","","","","","","","","","","","","","","",""
"","","","","","image-keyboard-response","227","1052148","0.0-3.0-7.0-1.1","616c67fb68f7841abb442300","C3","batch3","pattern_response","898.3000000119209","stim/yes_22_ver_w1.png","f","pattern_47","f","true","","","","898.3000000119209","true","36","","","","","","","","","","","","","","","","",""
"","","","","","html-keyboard-response","228","1053459","0.0-3.0-7.0-0.2","616c67fb68f7841abb442300","C3","batch3","pattern_show_trial_num","null","<p class=block-text>Trial 42 out of 78</p>","null","","","","","","","","","","","","","","","","","","","","","","","","","",""
"","","","","","image-keyboard-response","229","1054647","0.0-3.0-7.0-1.2","616c67fb68f7841abb442300","C3","batch3","pattern_response","1186.9000000357628","stim/no_20_1_w.png","j","pattern_06","j","true","","","","1186.9000000357628","true","37","","","","","","","","","","","","","","","","",""
"","","","","","html-keyboard-response","230","1055973","0.0-3.0-7.0-0.3","616c67fb68f7841abb442300","C3","batch3","pattern_show_trial_num","null","<p class=block-text>Trial 43 out of 78</p>","null","","","","","","","","","","","","","","","","","","","","","","","","","",""
"","","","","","image-keyboard-response","231","1059385","0.0-3.0-7.0-1.3","616c67fb68f7841abb442300","C3","batch3","pattern_response","3410.600000023842","stim/no_48_1_w.png","j","pattern_28","j","true","","","","3410.600000023842","true","38","","","","","","","","","","","","","","","","",""
"","","","","","html-keyboard-response","232","1060716","0.0-3.0-7.0-0.4","616c67fb68f7841abb442300","C3","batch3","pattern_show_trial_num","null","<p class=block-text>Trial 44 out of 78</p>","null","","","","","","","","","","","","","","","","","","","","","","","","","",""
"","","","","","image-keyboard-response","233","1061934","0.0-3.0-7.0-1.4","616c67fb68f7841abb442300","C3","batch3","pattern_response","1216.5999999642372","stim/yes_60_ver_b1_b.png","f","pattern_77","f","true","","","","1216.5999999642372","true","39","","","","","","","","","","","","","","","","",""
"","","","","","html-keyboard-response","234","1063249","0.0-3.0-7.0-0.5","616c67fb68f7841abb442300","C3","batch3","pattern_show_trial_num","null","<p class=block-text>Trial 45 out of 78</p>","null","","","","","","","","","","","","","","","","","","","","","","","","","",""
"","","","","","image-keyboard-response","235","1064410","0.0-3.0-7.0-1.5","616c67fb68f7841abb442300","C3","batch3","pattern_response","1159.9000000357628","stim/yes_43_ver_w1_w.png","f","pattern_65","f","true","","","","1159.9000000357628","true","40","","","","","","","","","","","","","","","","",""
"","","","","","html-keyboard-response","236","1065729","0.0-3.0-7.0-0.6","616c67fb68f7841abb442300","C3","batch3","pattern_show_trial_num","null","<p class=block-text>Trial 46 out of 78</p>","null","","","","","","","","","","","","","","","","","","","","","","","","","",""
"","","","","","image-keyboard-response","237","1068937","0.0-3.0-7.0-1.6","616c67fb68f7841abb442300","C3","batch3","pattern_response","3207","stim/no_65_1_b.png","j","pattern_38","j","true","","","","3207","true","41","","","","","","","","","","","","","","","","",""
"","","","","","html-keyboard-response","238","1070276","0.0-3.0-7.0-0.7","616c67fb68f7841abb442300","C3","batch3","pattern_show_trial_num","null","<p class=block-text>Trial 47 out of 78</p>","null","","","","","","","","","","","","","","","","","","","","","","","","","",""
"","","","","","image-keyboard-response","239","1072524","0.0-3.0-7.0-1.7","616c67fb68f7841abb442300","C3","batch3","pattern_response","2246","stim/no_32_1_w.png","j","pattern_14","j","true","","","","2246","true","42","","","","","","","","","","","","","","","","",""
"","","","","","html-keyboard-response","240","1073840","0.0-3.0-7.0-0.8","616c67fb68f7841abb442300","C3","batch3","pattern_show_trial_num","null","<p class=block-text>Trial 48 out of 78</p>","null","","","","","","","","","","","","","","","","","","","","","","","","","",""
"","","","","","image-keyboard-response","241","1076921","0.0-3.0-7.0-1.8","616c67fb68f7841abb442300","C3","batch3","pattern_response","3079.199999988079","stim/no_29_1_b.png","j","pattern_12","j","true","","","","3079.199999988079","true","43","","","","","","","","","","","","","","","","",""
"","","","","","html-keyboard-response","242","1078234","0.0-3.0-7.0-0.9","616c67fb68f7841abb442300","C3","batch3","pattern_show_trial_num","null","<p class=block-text>Trial 49 out of 78</p>","null","","","","","","","","","","","","","","","","","","","","","","","","","",""
"","","","","","image-keyboard-response","243","1080788","0.0-3.0-7.0-1.9","616c67fb68f7841abb442300","C3","batch3","pattern_response","2552.2999999523163","stim/no_38_1_b.png","j","pattern_20","j","true","","","","2552.2999999523163","true","44","","","","","","","","","","","","","","","","",""
"","","","","","html-keyboard-response","244","1082102","0.0-3.0-7.0-0.10","616c67fb68f7841abb442300","C3","batch3","pattern_show_trial_num","null","<p class=block-text>Trial 50 out of 78</p>","null","","","","","","","","","","","","","","","","","","","","","","","","","",""
"","","","","","image-keyboard-response","245","1083207","0.0-3.0-7.0-1.10","616c67fb68f7841abb442300","C3","batch3","pattern_response","1104.5","stim/yes_17_dia_w1.png","f","pattern_45","f","true","","","","1104.5","true","45","","","","","","","","","","","","","","","","",""
"","","","","","html-keyboard-response","246","1084528","0.0-3.0-7.0-0.11","616c67fb68f7841abb442300","C3","batch3","pattern_show_trial_num","null","<p class=block-text>Trial 51 out of 78</p>","null","","","","","","","","","","","","","","","","","","","","","","","","","",""
"","","","","","image-keyboard-response","247","1088276","0.0-3.0-7.0-1.11","616c67fb68f7841abb442300","C3","batch3","pattern_response","3747.199999988079","stim/no_62_1_w.png","j","pattern_36","j","true","","","","3747.199999988079","true","46","","","","","","","","","","","","","","","","",""
"","","","","","html-keyboard-response","248","1089607","0.0-3.0-7.0-0.12","616c67fb68f7841abb442300","C3","batch3","pattern_show_trial_num","null","<p class=block-text>Trial 52 out of 78</p>","null","","","","","","","","","","","","","","","","","","","","","","","","","",""
"","","","","","image-keyboard-response","249","1091861","0.0-3.0-7.0-1.12","616c67fb68f7841abb442300","C3","batch3","pattern_response","2252.199999988079","stim/no_46_1_b.png","j","pattern_26","j","true","","","","2252.199999988079","true","47","","","","","","","","","","","","","","","","",""
"","","","","","html-keyboard-response","250","1093169","0.0-3.0-7.0-0.13","616c67fb68f7841abb442300","C3","batch3","pattern_show_trial_num","null","<p class=block-text>Trial 53 out of 78</p>","null","","","","","","","","","","","","","","","","","","","","","","","","","",""
"","","","","","image-keyboard-response","251","1095274","0.0-3.0-7.0-1.13","616c67fb68f7841abb442300","C3","batch3","pattern_response","2103.399999976158","stim/no_55_1_w.png","j","pattern_34","j","true","","","","2103.399999976158","true","48","","","","","","","","","","","","","","","","",""
"","","","","","html-keyboard-response","252","1096598","0.0-3.0-7.0-0.14","616c67fb68f7841abb442300","C3","batch3","pattern_show_trial_num","null","<p class=block-text>Trial 54 out of 78</p>","null","","","","","","","","","","","","","","","","","","","","","","","","","",""
"","","","","","image-keyboard-response","253","1098100","0.0-3.0-7.0-1.14","616c67fb68f7841abb442300","C3","batch3","pattern_response","1501.800000011921","stim/no_50_1.png","j","pattern_30","j","true","","","","1501.800000011921","true","49","","","","","","","","","","","","","","","","",""
"","","","","","html-keyboard-response","254","1099428","0.0-3.0-7.0-0.15","616c67fb68f7841abb442300","C3","batch3","pattern_show_trial_num","null","<p class=block-text>Trial 55 out of 78</p>","null","","","","","","","","","","","","","","","","","","","","","","","","","",""
"","","","","","image-keyboard-response","255","1100355","0.0-3.0-7.0-1.15","616c67fb68f7841abb442300","C3","batch3","pattern_response","925","stim/no_17_1_w.png","j","pattern_04","j","true","","","","925","true","50","","","","","","","","","","","","","","","","",""
"","","","","","html-keyboard-response","256","1101676","0.0-3.0-7.0-0.16","616c67fb68f7841abb442300","C3","batch3","pattern_show_trial_num","null","<p class=block-text>Trial 56 out of 78</p>","null","","","","","","","","","","","","","","","","","","","","","","","","","",""
"","","","","","image-keyboard-response","257","1103120","0.0-3.0-7.0-1.16","616c67fb68f7841abb442300","C3","batch3","pattern_response","1442.5999999642372","stim/no_34_1_b.png","j","pattern_16","j","true","","","","1442.5999999642372","true","51","","","","","","","","","","","","","","","","",""
"","","","","","html-keyboard-response","258","1104430","0.0-3.0-7.0-0.17","616c67fb68f7841abb442300","C3","batch3","pattern_show_trial_num","null","<p class=block-text>Trial 57 out of 78</p>","null","","","","","","","","","","","","","","","","","","","","","","","","","",""
"","","","","","image-keyboard-response","259","1106647","0.0-3.0-7.0-1.17","616c67fb68f7841abb442300","C3","batch3","pattern_response","2215.699999988079","stim/no_52_1.png","j","pattern_32","j","true","","","","2215.699999988079","true","52","","","","","","","","","","","","","","","","",""
"","","","","","html-keyboard-response","260","1107948","0.0-3.0-7.0-0.18","616c67fb68f7841abb442300","C3","batch3","pattern_show_trial_num","null","<p class=block-text>Trial 58 out of 78</p>","null","","","","","","","","","","","","","","","","","","","","","","","","","",""
"","","","","","image-keyboard-response","261","1108801","0.0-3.0-7.0-1.18","616c67fb68f7841abb442300","C3","batch3","pattern_response","851.8999999761581","stim/yes_55_hor_w1_w.png","f","pattern_75","f","true","","","","851.8999999761581","true","53","","","","","","","","","","","","","","","","",""
"","","","","","html-keyboard-response","262","1110132","0.0-3.0-7.0-0.19","616c67fb68f7841abb442300","C3","batch3","pattern_show_trial_num","null","<p class=block-text>Trial 59 out of 78</p>","null","","","","","","","","","","","","","","","","","","","","","","","","","",""
"","","","","","image-keyboard-response","263","1111028","0.0-3.0-7.0-1.19","616c67fb68f7841abb442300","C3","batch3","pattern_response","894.5","stim/no_13_2_b.png","j","pattern_02","j","true","","","","894.5","true","54","","","","","","","","","","","","","","","","",""
"","","","","","html-keyboard-response","264","1112335","0.0-3.0-7.0-0.20","616c67fb68f7841abb442300","C3","batch3","pattern_show_trial_num","null","<p class=block-text>Trial 60 out of 78</p>","null","","","","","","","","","","","","","","","","","","","","","","","","","",""
"","","","","","image-keyboard-response","265","1114385","0.0-3.0-7.0-1.20","616c67fb68f7841abb442300","C3","batch3","pattern_response","2048.199999988079","stim/yes_48_dia_w1_w.png","f","pattern_69","f","true","","","","2048.199999988079","true","55","","","","","","","","","","","","","","","","",""
"","","","","","html-keyboard-response","266","1115710","0.0-3.0-7.0-0.21","616c67fb68f7841abb442300","C3","batch3","pattern_show_trial_num","null","<p class=block-text>Trial 61 out of 78</p>","null","","","","","","","","","","","","","","","","","","","","","","","","","",""
"","","","","","image-keyboard-response","267","1117465","0.0-3.0-7.0-1.21","616c67fb68f7841abb442300","C3","batch3","pattern_response","1753.0999999642372","stim/no_42_1_w.png","j","pattern_22","j","true","","","","1753.0999999642372","true","56","","","","","","","","","","","","","","","","",""
"","","","","","html-keyboard-response","268","1118806","0.0-3.0-7.0-0.22","616c67fb68f7841abb442300","C3","batch3","pattern_show_trial_num","null","<p class=block-text>Trial 62 out of 78</p>","null","","","","","","","","","","","","","","","","","","","","","","","","","",""
"","","","","","image-keyboard-response","269","1121504","0.0-3.0-7.0-1.22","616c67fb68f7841abb442300","C3","batch3","pattern_response","2696.5","stim/no_36_2_w.png","j","pattern_18","j","true","","","","2696.5","true","57","","","","","","","","","","","","","","","","",""
"","","","","","html-keyboard-response","270","1122815","0.0-3.0-7.0-0.23","616c67fb68f7841abb442300","C3","batch3","pattern_show_trial_num","null","<p class=block-text>Trial 63 out of 78</p>","null","","","","","","","","","","","","","","","","","","","","","","","","","",""
"","","","","","image-keyboard-response","271","1123950","0.0-3.0-7.0-1.23","616c67fb68f7841abb442300","C3","batch3","pattern_response","1133.800000011921","stim/yes_52_ver_w1.png","f","pattern_73","f","true","","","","1133.800000011921","true","58","","","","","","","","","","","","","","","","",""
"","","","","","html-keyboard-response","272","1125265","0.0-3.0-7.0-0.24","616c67fb68f7841abb442300","C3","batch3","pattern_show_trial_num","null","<p class=block-text>Trial 64 out of 78</p>","null","","","","","","","","","","","","","","","","","","","","","","","","","",""
"","","","","","image-keyboard-response","273","1126656","0.0-3.0-7.0-1.24","616c67fb68f7841abb442300","C3","batch3","pattern_response","1389.4000000357628","stim/yes_38_hor_b1_b.png","f","pattern_61","f","true","","","","1389.4000000357628","true","59","","","","","","","","","","","","","","","","",""
"","","","","","html-keyboard-response","274","1127982","0.0-3.0-7.0-0.25","616c67fb68f7841abb442300","C3","batch3","pattern_show_trial_num","null","<p class=block-text>Trial 65 out of 78</p>","null","","","","","","","","","","","","","","","","","","","","","","","","","",""
"","","","","","image-keyboard-response","275","1129859","0.0-3.0-7.0-1.25","616c67fb68f7841abb442300","C3","batch3","pattern_response","1887.5","stim/yes_67_hor_b1.png","f","pattern_79","f","true","","","","1887.5","true","60","","","","","","","","","","","","","","","","",""
"","","","","","html-keyboard-response","276","1131181","0.0-3.0-7.0-0.26","616c67fb68f7841abb442300","C3","batch3","pattern_show_trial_num","null","<p class=block-text>Trial 66 out of 78</p>","null","","","","","","","","","","","","","","","","","","","","","","","","","",""
"","","","","","image-keyboard-response","277","1133284","0.0-3.0-7.0-1.26","616c67fb68f7841abb442300","C3","batch3","pattern_response","2101.900000035763","stim/yes_45_hor_b2_b.png","j","pattern_67","f","false","","","","2101.900000035763","false","60","","","","","","","","","","","","","","","","",""
"","","","","","html-keyboard-response","278","1134610","0.0-3.0-7.0-0.27","616c67fb68f7841abb442300","C3","batch3","pattern_show_trial_num","null","<p class=block-text>Trial 67 out of 78</p>","null","","","","","","","","","","","","","","","","","","","","","","","","","",""
"","","","","","image-keyboard-response","279","1136768","0.0-3.0-7.0-1.27","616c67fb68f7841abb442300","C3","batch3","pattern_response","2156.800000011921","stim/yes_40_dia_b1_b.png","j","pattern_63","f","false","","","","2156.800000011921","false","60","","","","","","","","","","","","","","","","",""
"","","","","","html-keyboard-response","280","1138084","0.0-3.0-7.0-0.28","616c67fb68f7841abb442300","C3","batch3","pattern_show_trial_num","null","<p class=block-text>Trial 68 out of 78</p>","null","","","","","","","","","","","","","","","","","","","","","","","","","",""
"","","","","","image-keyboard-response","281","1139105","0.0-3.0-7.0-1.28","616c67fb68f7841abb442300","C3","batch3","pattern_response","1019.6999999880791","stim/yes_35_dia_b1.png","f","pattern_57","f","true","","","","1019.6999999880791","true","61","","","","","","","","","","","","","","","","",""
"","","","","","html-keyboard-response","282","1140422","0.0-3.0-7.0-0.29","616c67fb68f7841abb442300","C3","batch3","pattern_show_trial_num","null","<p class=block-text>Trial 69 out of 78</p>","null","","","","","","","","","","","","","","","","","","","","","","","","","",""
"","","","","","image-keyboard-response","283","1141374","0.0-3.0-7.0-1.29","616c67fb68f7841abb442300","C3","batch3","pattern_response","951.3999999761581","stim/yes_28_ver_b1.png","f","pattern_51","f","true","","","","951.3999999761581","true","62","","","","","","","","","","","","","","","","",""
"","","","","","html-keyboard-response","284","1142676","0.0-3.0-7.0-0.30","616c67fb68f7841abb442300","C3","batch3","pattern_show_trial_num","null","<p class=block-text>Trial 70 out of 78</p>","null","","","","","","","","","","","","","","","","","","","","","","","","","",""
"","","","","","image-keyboard-response","285","1146803","0.0-3.0-7.0-1.30","616c67fb68f7841abb442300","C3","batch3","pattern_response","4126.900000035763","stim/yes_37_dia_w1.png","j","pattern_59","f","false","","","","4126.900000035763","false","62","","","","","","","","","","","","","","","","",""
"","","","","","html-keyboard-response","286","1148125","0.0-3.0-7.0-0.31","616c67fb68f7841abb442300","C3","batch3","pattern_show_trial_num","null","<p class=block-text>Trial 71 out of 78</p>","null","","","","","","","","","","","","","","","","","","","","","","","","","",""
"","","","","","image-keyboard-response","287","1150354","0.0-3.0-7.0-1.31","616c67fb68f7841abb442300","C3","batch3","pattern_response","2227.5","stim/yes_31_hor_b1.png","f","pattern_55","f","true","","","","2227.5","true","63","","","","","","","","","","","","","","","","",""
"","","","","","html-keyboard-response","288","1151678","0.0-3.0-7.0-0.32","616c67fb68f7841abb442300","C3","batch3","pattern_show_trial_num","null","<p class=block-text>Trial 72 out of 78</p>","null","","","","","","","","","","","","","","","","","","","","","","","","","",""
"","","","","","image-keyboard-response","289","1154555","0.0-3.0-7.0-1.32","616c67fb68f7841abb442300","C3","batch3","pattern_response","2876.599999964237","stim/yes_50_dia_w1.png","f","pattern_71","f","true","","","","2876.599999964237","true","64","","","","","","","","","","","","","","","","",""
"","","","","","html-keyboard-response","290","1155871","0.0-3.0-7.0-0.33","616c67fb68f7841abb442300","C3","batch3","pattern_show_trial_num","null","<p class=block-text>Trial 73 out of 78</p>","null","","","","","","","","","","","","","","","","","","","","","","","","","",""
"","","","","","image-keyboard-response","291","1156689","0.0-3.0-7.0-1.33","616c67fb68f7841abb442300","C3","batch3","pattern_response","816.8000000119209","stim/yes_25_hor_b1_b.png","f","pattern_49","f","true","","","","816.8000000119209","true","65","","","","","","","","","","","","","","","","",""
"","","","","","html-keyboard-response","292","1158006","0.0-3.0-7.0-0.34","616c67fb68f7841abb442300","C3","batch3","pattern_show_trial_num","null","<p class=block-text>Trial 74 out of 78</p>","null","","","","","","","","","","","","","","","","","","","","","","","","","",""
"","","","","","image-keyboard-response","293","1161294","0.0-3.0-7.0-1.34","616c67fb68f7841abb442300","C3","batch3","pattern_response","3287.5","stim/no_44_1.png","j","pattern_24","j","true","","","","3287.5","true","66","","","","","","","","","","","","","","","","",""
"","","","","","html-keyboard-response","294","1162627","0.0-3.0-7.0-0.35","616c67fb68f7841abb442300","C3","batch3","pattern_show_trial_num","null","<p class=block-text>Trial 75 out of 78</p>","null","","","","","","","","","","","","","","","","","","","","","","","","","",""
"","","","","","image-keyboard-response","295","1163544","0.0-3.0-7.0-1.35","616c67fb68f7841abb442300","C3","batch3","pattern_response","915.8999999761581","stim/yes_29_ver_w1.png","f","pattern_53","f","true","","","","915.8999999761581","true","67","","","","","","","","","","","","","","","","",""
"","","","","","html-keyboard-response","296","1164878","0.0-3.0-7.0-0.36","616c67fb68f7841abb442300","C3","batch3","pattern_show_trial_num","null","<p class=block-text>Trial 76 out of 78</p>","null","","","","","","","","","","","","","","","","","","","","","","","","","",""
"","","","","","image-keyboard-response","297","1165654","0.0-3.0-7.0-1.36","616c67fb68f7841abb442300","C3","batch3","pattern_response","775.1999999880791","stim/yes_14_hor_b1_w.png","f","pattern_43","f","true","","","","775.1999999880791","true","68","","","","","","","","","","","","","","","","",""
"","","","","","html-keyboard-response","298","1166963","0.0-3.0-7.0-0.37","616c67fb68f7841abb442300","C3","batch3","pattern_show_trial_num","null","<p class=block-text>Trial 77 out of 78</p>","null","","","","","","","","","","","","","","","","","","","","","","","","","",""
"","","","","","image-keyboard-response","299","1170705","0.0-3.0-7.0-1.37","616c67fb68f7841abb442300","C3","batch3","pattern_response","3741.199999988079","stim/no_70_2.png","j","pattern_40","j","true","","","","3741.199999988079","true","69","","","","","","","","","","","","","","","","",""
"","","","","","html-keyboard-response","300","1172024","0.0-3.0-7.0-0.38","616c67fb68f7841abb442300","C3","batch3","pattern_show_trial_num","null","<p class=block-text>Trial 78 out of 78</p>","null","","","","","","","","","","","","","","","","","","","","","","","","","",""
"","","","","","image-keyboard-response","301","1172956","0.0-3.0-7.0-1.38","616c67fb68f7841abb442300","C3","batch3","pattern_response","930.7000000476837","stim/no_23_1.png","j","pattern_08","j","true","","","","930.7000000476837","true","70","","","","","","","","","","","","","","","","",""
"","","","","","html-button-response","302","1178021","0.0-3.0-8.0","616c67fb68f7841abb442300","C3","batch3","","4549.400000035763","<p class = block-text>This concludes the 4-in-a-row detection game.Thank you for your responses!<br>
            You responded correctly on 90% of the trials.<br>
            When you are ready, press ""Continue"" button to continue </p>","0","","","","","","","","","","","","","","","","","","","","","","","","","",""
"true","","","","","fullscreen","303","1181884","0.0-4.0-0.0","616c67fb68f7841abb442300","C3","batch3","","","","","","","","","","","","","","","","","","","","","","","","","","","","","",""
"","","","","","instructions","304","1248233","0.0-4.0-1.0-0.0-0.0","616c67fb68f7841abb442300","C3","batch3","tol-instructions","66335.80000001192","","","","","","","","[{""page_index"":0,""viewing_time"":11899.400000035763},{""page_index"":1,""viewing_time"":5928.299999952316},{""page_index"":2,""viewing_time"":6355.700000047684},{""page_index"":3,""viewing_time"":12196.199999988079},{""page_index"":4,""viewing_time"":7908},{""page_index"":5,""viewing_time"":17687.69999998808},{""page_index"":6,""viewing_time"":4360.300000011921}]","","","","","","","","","","","","","","","","","","","",""
"","","","","","html-button-response","305","1249265","0.0-4.0-1.0-1.0-0.0","616c67fb68f7841abb442300","C3","batch3","tol_enter_quiz","1031","<p class=block-text> Let's answer a few questions <br>","0","","","","","","","","","","","","","","","","","","","","","","","","","",""
"","","","","","html-button-response","306","1253141","0.0-4.0-1.0-1.0-1.0","616c67fb68f7841abb442300","C3","batch3","tol_quiz","3875.5","<p class = block-text>True or False: You can only move the ball on top of a peg. <br></p>","1","","","false","","","","","","","","","","","","","","","","","","","","","","",""
"","","","","","html-button-response","307","1256484","0.0-4.0-1.0-1.0-2.0","616c67fb68f7841abb442300","C3","batch3","tol_quiz_feedback","3342.900000035763","<p class = block-text>Incorrect. Remember, you can only move the ball on top of a peg.</p>","0","","","","","","","","","","","","","","","","","","","","","","","","","",""
"","","","","","html-button-response","308","1259396","0.0-4.0-1.0-1.0-3.0","616c67fb68f7841abb442300","C3","batch3","tol_quiz","2911.300000011921","<p class = block-text>True or False: You should try to match your board with the target board with fewest moves possible. <br></p>","0","","","true","","","","","","","","","","","","","","","","","","","","","","",""
"","","","","","html-button-response","309","1260149","0.0-4.0-1.0-1.0-4.0","616c67fb68f7841abb442300","C3","batch3","tol_quiz_feedback","751.3000000119209","<p class = block-text>Correct! </p>","0","","","","","","","","","","","","","","","","","","","","","","","","","",""
"","","","","","html-button-response","310","1263057","0.0-4.0-1.0-2.0-0.0","616c67fb68f7841abb442300","C3","batch3","","2907.300000011921","<p class = block-text>You made too many incorrect choices.</p><p class = block-text>You will now repeat the instructions and quiz</p>","0","","","","","","","","","","","","","","","","","","","","","","","","","",""
"","","","","","instructions","311","1275617","0.0-4.0-1.1-0.1-0.1","616c67fb68f7841abb442300","C3","batch3","tol-instructions","12560.300000011921","","","","","","","","[{""page_index"":0,""viewing_time"":1991},{""page_index"":1,""viewing_time"":588.1000000238419},{""page_index"":2,""viewing_time"":496},{""page_index"":3,""viewing_time"":560},{""page_index"":4,""viewing_time"":507.5999999642372},{""page_index"":5,""viewing_time"":476.30000001192093},{""page_index"":6,""viewing_time"":7941.100000023842}]","","","","","","","","","","","","","","","","","","","",""
"","","","","","html-button-response","312","1276573","0.0-4.0-1.1-1.1-0.1","616c67fb68f7841abb442300","C3","batch3","tol_enter_quiz","954.6000000238419","<p class=block-text> Let's answer a few questions <br>","0","","","","","","","","","","","","","","","","","","","","","","","","","",""
"","","","","","html-button-response","313","1280352","0.0-4.0-1.1-1.1-1.1","616c67fb68f7841abb442300","C3","batch3","tol_quiz","3779","<p class = block-text>True or False: You can only move the ball on top of a peg. <br></p>","0","","","true","","","","","","","","","","","","","","","","","","","","","","",""
"","","","","","html-button-response","314","1281228","0.0-4.0-1.1-1.1-2.1","616c67fb68f7841abb442300","C3","batch3","tol_quiz_feedback","875.1999999880791","<p class = block-text>Correct! You can only move the ball on top of a peg.</p>","0","","","","","","","","","","","","","","","","","","","","","","","","","",""
"","","","","","html-button-response","315","1284105","0.0-4.0-1.1-1.1-3.1","616c67fb68f7841abb442300","C3","batch3","tol_quiz","2875.900000035763","<p class = block-text>True or False: You should try to match your board with the target board with fewest moves possible. <br></p>","0","","","true","","","","","","","","","","","","","","","","","","","","","","",""
"","","","","","html-button-response","316","1284784","0.0-4.0-1.1-1.1-4.1","616c67fb68f7841abb442300","C3","batch3","tol_quiz_feedback","679.1000000238419","<p class = block-text>Correct! </p>","0","","","","","","","","","","","","","","","","","","","","","","","","","",""
"","","","","","html-button-response","317","1289293","0.0-4.0-2.0","616c67fb68f7841abb442300","C3","batch3","","4507.5","<p class=block-text> Now that you've understood the game, let's practice a few easier examples before we start!<br> <br>","0","","","","","","","","","","","","","","","","","","","","","","","","","",""
"","","","","","single-stim-button","318","1292205","0.0-4.0-3.0-0.0","616c67fb68f7841abb442300","C3","batch3","tol_practice","2912","","","","","","","","","","","","","","tol_peg_2","2912","2912","0","[[1,2,0],[0,0],[0]]","1","[[1,2,0],[0,0],[3]]","practice","2912","","","","","",""
"","","","","","single-stim-button","319","1293721","0.0-4.0-3.0-1.0","616c67fb68f7841abb442300","C3","batch3","tol_practice","1514","","","","","","","","","","","","","","tol_peg_3","1514","1514","0","[[1,2,0],[0,0],[3]]","1","[[1,2,0],[0,0],[3]]","practice","1514","","","","","",""
"","","","","","poldrack-single-stim","320","1294722","0.0-4.0-4.0","616c67fb68f7841abb442300","C3","batch3","tol_feedback","-1","","","","","true","","","","","","","","","","1000","1000","500","","","","","","-1","none","true","","0",""
"","","","","","single-stim-button","321","1298469","0.0-4.0-5.0-0.0","616c67fb68f7841abb442300","C3","batch3","tol_practice","3746","","","","","","","","","","","","","","tol_peg_1","3746","3746","0","[[1,0,0],[3,0],[0]]","2","[[0,0,0],[3,1],[2]]","practice","3746","","","","","",""
"","","","","","single-stim-button","322","1299837","0.0-4.0-5.0-1.0","616c67fb68f7841abb442300","C3","batch3","tol_practice","1366","","","","","","","","","","","","","","tol_peg_3","1366","1366","0","[[1,0,0],[3,0],[2]]","2","[[0,0,0],[3,1],[2]]","practice","1366","","","","","",""
"","","","","","single-stim-button","323","1300777","0.0-4.0-5.1-0.1","616c67fb68f7841abb442300","C3","batch3","tol_practice","939","","","","","","","","","","","","","","tol_peg_1","939","939","0","[[0,0,0],[3,0],[2]]","3","[[0,0,0],[3,1],[2]]","practice","939","","","","","",""
"","","","","","single-stim-button","324","1301456","0.0-4.0-5.1-1.1","616c67fb68f7841abb442300","C3","batch3","tol_practice","679","","","","","","","","","","","","","","tol_peg_2","679","679","0","[[0,0,0],[3,1],[2]]","3","[[0,0,0],[3,1],[2]]","practice","679","","","","","",""
"","","","","","poldrack-single-stim","325","1302458","0.0-4.0-6.0","616c67fb68f7841abb442300","C3","batch3","tol_feedback","-1","","","","","true","","","","","","","","","","1000","1000","500","","","","","","-1","none","true","","0",""
"","","","","","single-stim-button","326","1305533","0.0-4.0-7.0-0.0","616c67fb68f7841abb442300","C3","batch3","tol_practice","3073","","","","","","","","","","","","","","tol_peg_2","3073","3073","0","[[1,2,0],[0,0],[0]]","4","[[1,0,0],[2,0],[3]]","practice","3073","","","","","",""
"","","","","","single-stim-button","327","1306541","0.0-4.0-7.0-1.0","616c67fb68f7841abb442300","C3","batch3","tol_practice","1008","","","","","","","","","","","","","","tol_peg_3","1008","1008","0","[[1,2,0],[0,0],[3]]","4","[[1,0,0],[2,0],[3]]","practice","1008","","","","","",""
"","","","","","single-stim-button","328","1307365","0.0-4.0-7.1-0.1","616c67fb68f7841abb442300","C3","batch3","tol_practice","824","","","","","","","","","","","","","","tol_peg_1","824","824","0","[[1,0,0],[0,0],[3]]","5","[[1,0,0],[2,0],[3]]","practice","824","","","","","",""
"","","","","","single-stim-button","329","1307976","0.0-4.0-7.1-1.1","616c67fb68f7841abb442300","C3","batch3","tol_practice","610","","","","","","","","","","","","","","tol_peg_2","610","610","0","[[1,0,0],[2,0],[3]]","5","[[1,0,0],[2,0],[3]]","practice","610","","","","","",""
"","","","","","poldrack-single-stim","330","1308985","0.0-4.0-8.0","616c67fb68f7841abb442300","C3","batch3","tol_feedback","-1","","","","","true","","","","","","","","","","1000","1000","500","","","","","","-1","none","true","","0",""
"","","","","","html-button-response","331","1314872","0.0-4.0-9.0","616c67fb68f7841abb442300","C3","batch3","tol_instruction","5886.600000023842","<div class = centerbox><p class = center-block-text>Great job! You are done with practice trials<br>You are about to start official trials.<br> <br> Problem <strong>1</strong> out of 25 problems</p></div>","0","","","","","","","","","","","","","","","","","","","","","","","","","",""
"","","","","","single-stim-button","332","1321121","0.0-4.0-10.0-0.0","616c67fb68f7841abb442300","C3","batch3","tol_tohand","5234","","","","","","","","","","","","","","tol_peg_2","5234","5234","0","[[1,2,0],[0,0],[0]]","1","[[1,3,0],[2,0],[0]]","0","0","","","","","","3"
"","","","","","single-stim-button","333","1322772","0.0-4.0-10.0-1.0","616c67fb68f7841abb442300","C3","batch3","tol_toboard","1651","","","","","","","","","","","","","","tol_peg_3","1651","1651","0","[[1,2,0],[0,0],[3]]","1","[[1,3,0],[2,0],[0]]","0","0","","","","","","3"
"","","","","","single-stim-button","334","1323492","0.0-4.0-10.1-0.1","616c67fb68f7841abb442300","C3","batch3","tol_tohand","719","","","","","","","","","","","","","","tol_peg_1","719","719","0","[[1,0,0],[0,0],[3]]","2","[[1,3,0],[2,0],[0]]","0","0","","","","","","3"
"","","","","","single-stim-button","335","1324392","0.0-4.0-10.1-1.1","616c67fb68f7841abb442300","C3","batch3","tol_toboard","899","","","","","","","","","","","","","","tol_peg_2","899","899","0","[[1,0,0],[2,0],[3]]","2","[[1,3,0],[2,0],[0]]","0","0","","","","","","3"
"","","","","","single-stim-button","336","1325208","0.0-4.0-10.2-0.2","616c67fb68f7841abb442300","C3","batch3","tol_tohand","815","","","","","","","","","","","","","","tol_peg_3","815","815","0","[[1,0,0],[2,0],[0]]","3","[[1,3,0],[2,0],[0]]","0","0","","","","","","3"
"","","","","","single-stim-button","337","1325912","0.0-4.0-10.2-1.2","616c67fb68f7841abb442300","C3","batch3","tol_toboard","703","","","","","","","","","","","","","","tol_peg_1","703","703","0","[[1,3,0],[2,0],[0]]","3","[[1,3,0],[2,0],[0]]","0","0","","","","","","3"
"","","","","","poldrack-single-stim","338","1326915","0.0-4.0-11.0","616c67fb68f7841abb442300","C3","batch3","tol_feedback","-1","","","","","true","","","","","","","","","","1000","1000","500","","","","","","-1","none","true","5234","6768",""
"","","","","","html-button-response","339","1327844","0.0-4.0-12.0","616c67fb68f7841abb442300","C3","batch3","tol_trial_num","928.1000000238419","<div class = centerbox><p class = center-block-text>problem <strong>2</strong> out of 25 problems</p></div>","0","","","","","","","","","","","","","","","","","","","","","","","","","",""
"","","","","","single-stim-button","340","1334440","0.0-4.0-13.0-0.0","616c67fb68f7841abb442300","C3","batch3","tol_tohand","6596","","","","","","","","","","","","","","tol_peg_1","6596","6596","0","[[1,0,0],[3,0],[0]]","1","[[2,1,3],[0,0],[0]]","1","0","","","","","","5"
"","","","","","single-stim-button","341","1335365","0.0-4.0-13.0-1.0","616c67fb68f7841abb442300","C3","batch3","tol_toboard","923","","","","","","","","","","","","","","tol_peg_3","923","923","0","[[1,0,0],[3,0],[2]]","1","[[2,1,3],[0,0],[0]]","1","0","","","","","","5"
"","","","","","single-stim-button","342","1336508","0.0-4.0-13.1-0.1","616c67fb68f7841abb442300","C3","batch3","tol_tohand","1143","","","","","","","","","","","","","","tol_peg_1","1143","1143","0","[[0,0,0],[3,0],[2]]","2","[[2,1,3],[0,0],[0]]","1","0","","","","","","5"
"","","","","","single-stim-button","343","1339799","0.0-4.0-13.1-1.1","616c67fb68f7841abb442300","C3","batch3","tol_toboard","3290","","","","","","","","","","","","","","tol_peg_2","3290","3290","0","[[0,0,0],[3,1],[2]]","2","[[2,1,3],[0,0],[0]]","1","0","","","","","","5"
"","","","","","single-stim-button","344","1340488","0.0-4.0-13.2-0.2","616c67fb68f7841abb442300","C3","batch3","tol_tohand","687","","","","","","","","","","","","","","tol_peg_3","687","687","0","[[0,0,0],[3,1],[0]]","3","[[2,1,3],[0,0],[0]]","1","0","","","","","","5"
"","","","","","single-stim-button","345","1341291","0.0-4.0-13.2-1.2","616c67fb68f7841abb442300","C3","batch3","tol_toboard","803","","","","","","","","","","","","","","tol_peg_1","803","803","0","[[2,0,0],[3,1],[0]]","3","[[2,1,3],[0,0],[0]]","1","0","","","","","","5"
