"success","timeout","failed_images","failed_audio","failed_video","trial_type","trial_index","time_elapsed","internal_node_id","subject_id","study_id","session_id","view_history","rt","task","stimulus","response","correct","mouse_click","stim_duration","block_duration","timing_post_trial","current_position","tol_num_moves_made","tol_target","tol_problem_id","tol_rt","key_press","possible_responses","tol_correct","preplanning","tol_rt_per_trial","tol_min_moves","answer","item","fiar_detect_rt","fiar_detect_correct","total_correct_fiar_detect","post_trial_gap","choices","spm_correct","spm_rt"
"true","false","[]","[]","[]","preload","0","9869","0.0-0.0","61bb389740db417c1a138cad","C3","batch3","","","","","","","","","","","","","","","","","","","","","","","","","","","","","",""
"true","","","","","fullscreen","1","38477","0.0-1.0-0.0","61bb389740db417c1a138cad","C3","batch3","","","","","","","","","","","","","","","","","","","","","","","","","","","","","",""
"true","","","","","fullscreen","2","42876","0.0-2.0-0.0","61bb389740db417c1a138cad","C3","batch3","","","","","","","","","","","","","","","","","","","","","","","","","","","","","",""
"","","","","","instructions","3","152424","0.0-2.0-1.0-0.0-0.0","61bb389740db417c1a138cad","C3","batch3","[{""page_index"":0,""viewing_time"":14398.099999904633},{""page_index"":1,""viewing_time"":7287.400000095367},{""page_index"":2,""viewing_time"":24492.299999952316},{""page_index"":3,""viewing_time"":21505.900000095367},{""page_index"":4,""viewing_time"":10703.799999952316},{""page_index"":5,""viewing_time"":14036.400000095367},{""page_index"":6,""viewing_time"":17123.599999904633}]","109547.90000009537","tol-instructions","","","","","","","","","","","","","","","","","","","","","","","","","","",""
"","","","","","html-button-response","4","153787","0.0-2.0-1.0-1.0-0.0","61bb389740db417c1a138cad","C3","batch3","","1361","tol_enter_quiz","<p class=block-text> Let's answer a few questions <br>","0","","","","","","","","","","","","","","","","","","","","","","","","",""
"","","","","","html-button-response","5","161389","0.0-2.0-1.0-1.0-1.0","61bb389740db417c1a138cad","C3","batch3","","7600.400000095367","tol_quiz","<p class = block-text>True or False: You can only move the ball on top of a peg. <br></p>","0","true","","","","","","","","","","","","","","","","","","","","","","","",""
"","","","","","html-button-response","6","163203","0.0-2.0-1.0-1.0-2.0","61bb389740db417c1a138cad","C3","batch3","","1812.7000000476837","tol_quiz_feedback","<p class = block-text>Correct! You can only move the ball on top of a peg.</p>","0","","","","","","","","","","","","","","","","","","","","","","","","",""
"","","","","","html-button-response","7","167299","0.0-2.0-1.0-1.0-3.0","61bb389740db417c1a138cad","C3","batch3","","4095.4000000953674","tol_quiz","<p class = block-text>True or False: You should try to match your board with the target board with fewest moves possible. <br></p>","0","true","","","","","","","","","","","","","","","","","","","","","","","",""
"","","","","","html-button-response","8","168670","0.0-2.0-1.0-1.0-4.0","61bb389740db417c1a138cad","C3","batch3","","1370.7999999523163","tol_quiz_feedback","<p class = block-text>Correct! </p>","0","","","","","","","","","","","","","","","","","","","","","","","","",""
"","","","","","html-button-response","9","171194","0.0-2.0-2.0","61bb389740db417c1a138cad","C3","batch3","","2522","","<p class=block-text> Now that you've understood the game, let's practice a few easier examples before we start!<br> <br>","0","","","","","","","","","","","","","","","","","","","","","","","","",""
"","","","","","single-stim-button","10","175392","0.0-2.0-3.0-0.0","61bb389740db417c1a138cad","C3","batch3","","4196","tol_practice","","","","tol_peg_2","4196","4196","0","[[1,2,0],[0,0],[0]]","1","[[1,2,0],[0,0],[3]]","practice","4196","","","","","","","","","","","","","","",""
"","","","","","single-stim-button","11","178523","0.0-2.0-3.0-1.0","61bb389740db417c1a138cad","C3","batch3","","3131","tol_practice","","","","tol_peg_3","3131","3131","0","[[1,2,0],[0,0],[3]]","1","[[1,2,0],[0,0],[3]]","practice","3131","","","","","","","","","","","","","","",""
"","","","","","poldrack-single-stim","12","179526","0.0-2.0-4.0","61bb389740db417c1a138cad","C3","batch3","","-1","tol_feedback","","","true","","1000","1000","500","","","","","","-1","none","true","","0","","","","","","","","","",""
"","","","","","single-stim-button","13","186354","0.0-2.0-5.0-0.0","61bb389740db417c1a138cad","C3","batch3","","6828","tol_practice","","","","tol_peg_1","6828","6828","0","[[1,0,0],[3,0],[0]]","2","[[0,0,0],[3,1],[2]]","practice","6828","","","","","","","","","","","","","","",""
"","","","","","single-stim-button","14","188117","0.0-2.0-5.0-1.0","61bb389740db417c1a138cad","C3","batch3","","1761","tol_practice","","","","tol_peg_3","1761","1761","0","[[1,0,0],[3,0],[2]]","2","[[0,0,0],[3,1],[2]]","practice","1761","","","","","","","","","","","","","","",""
"","","","","","single-stim-button","15","189665","0.0-2.0-5.1-0.1","61bb389740db417c1a138cad","C3","batch3","","1546","tol_practice","","","","tol_peg_1","1546","1546","0","[[0,0,0],[3,0],[2]]","3","[[0,0,0],[3,1],[2]]","practice","1546","","","","","","","","","","","","","","",""
"","","","","","single-stim-button","16","190658","0.0-2.0-5.1-1.1","61bb389740db417c1a138cad","C3","batch3","","993","tol_practice","","","","tol_peg_2","993","993","0","[[0,0,0],[3,1],[2]]","3","[[0,0,0],[3,1],[2]]","practice","993","","","","","","","","","","","","","","",""
"","","","","","poldrack-single-stim","17","191675","0.0-2.0-6.0","61bb389740db417c1a138cad","C3","batch3","","-1","tol_feedback","","","true","","1000","1000","500","","","","","","-1","none","true","","0","","","","","","","","","",""
"","","","","","single-stim-button","18","195700","0.0-2.0-7.0-0.0","61bb389740db417c1a138cad","C3","batch3","","4024","tol_practice","","","","tol_peg_2","4024","4024","0","[[1,2,0],[0,0],[0]]","4","[[1,0,0],[2,0],[3]]","practice","4024","","","","","","","","","","","","","","",""
"","","","","","single-stim-button","19","196817","0.0-2.0-7.0-1.0","61bb389740db417c1a138cad","C3","batch3","","1115","tol_practice","","","","tol_peg_3","1115","1115","0","[[1,2,0],[0,0],[3]]","4","[[1,0,0],[2,0],[3]]","practice","1115","","","","","","","","","","","","","","",""
"","","","","","single-stim-button","20","197784","0.0-2.0-7.1-0.1","61bb389740db417c1a138cad","C3","batch3","","967","tol_practice","","","","tol_peg_1","967","967","0","[[1,0,0],[0,0],[3]]","5","[[1,0,0],[2,0],[3]]","practice","967","","","","","","","","","","","","","","",""
"","","","","","single-stim-button","21","198656","0.0-2.0-7.1-1.1","61bb389740db417c1a138cad","C3","batch3","","871","tol_practice","","","","tol_peg_2","871","871","0","[[1,0,0],[2,0],[3]]","5","[[1,0,0],[2,0],[3]]","practice","871","","","","","","","","","","","","","","",""
"","","","","","poldrack-single-stim","22","199673","0.0-2.0-8.0","61bb389740db417c1a138cad","C3","batch3","","-1","tol_feedback","","","true","","1000","1000","500","","","","","","-1","none","true","","0","","","","","","","","","",""
"","","","","","html-button-response","23","203625","0.0-2.0-9.0","61bb389740db417c1a138cad","C3","batch3","","3950.7999999523163","tol_instruction","<div class = centerbox><p class = center-block-text>Great job! You are done with practice trials<br>You are about to start official trials.<br> <br> Problem <strong>1</strong> out of 25 problems</p></div>","0","","","","","","","","","","","","","","","","","","","","","","","","",""
"","","","","","single-stim-button","24","214100","0.0-2.0-10.0-0.0","61bb389740db417c1a138cad","C3","batch3","","9459","tol_tohand","","","","tol_peg_1","9459","9459","0","[[1,0,0],[3,0],[0]]","1","[[1,3,0],[2,0],[0]]","0","0","","","","","","3","","","","","","","","",""
"","","","","","single-stim-button","25","215452","0.0-2.0-10.0-1.0","61bb389740db417c1a138cad","C3","batch3","","1351","tol_toboard","","","","tol_peg_3","1351","1351","0","[[1,0,0],[3,0],[2]]","1","[[1,3,0],[2,0],[0]]","0","0","","","","","","3","","","","","","","","",""
"","","","","","single-stim-button","26","216380","0.0-2.0-10.1-0.1","61bb389740db417c1a138cad","C3","batch3","","927","tol_tohand","","","","tol_peg_2","927","927","0","[[1,0,0],[0,0],[2]]","2","[[1,3,0],[2,0],[0]]","0","0","","","","","","3","","","","","","","","",""
"","","","","","single-stim-button","27","218540","0.0-2.0-10.1-1.1","61bb389740db417c1a138cad","C3","batch3","","2159","tol_toboard","","","","tol_peg_1","2159","2159","0","[[1,3,0],[0,0],[2]]","2","[[1,3,0],[2,0],[0]]","0","0","","","","","","3","","","","","","","","",""
"","","","","","single-stim-button","28","219670","0.0-2.0-10.2-0.2","61bb389740db417c1a138cad","C3","batch3","","1129","tol_tohand","","","","tol_peg_3","1129","1129","0","[[1,3,0],[0,0],[0]]","3","[[1,3,0],[2,0],[0]]","0","0","","","","","","3","","","","","","","","",""
"","","","","","single-stim-button","29","220566","0.0-2.0-10.2-1.2","61bb389740db417c1a138cad","C3","batch3","","895","tol_toboard","","","","tol_peg_2","895","895","0","[[1,3,0],[2,0],[0]]","3","[[1,3,0],[2,0],[0]]","0","0","","","","","","3","","","","","","","","",""
"","","","","","poldrack-single-stim","30","221577","0.0-2.0-11.0","61bb389740db417c1a138cad","C3","batch3","","-1","tol_feedback","","","true","","1000","1000","500","","","","","","-1","none","true","9459","11515","","","","","","","","","",""
"","","","","","html-button-response","31","223887","0.0-2.0-12.0","61bb389740db417c1a138cad","C3","batch3","","2308.2000000476837","tol_trial_num","<div class = centerbox><p class = center-block-text>problem <strong>2</strong> out of 25 problems</p></div>","0","","","","","","","","","","","","","","","","","","","","","","","","",""
"","","","","","single-stim-button","32","236082","0.0-2.0-13.0-0.0","61bb389740db417c1a138cad","C3","batch3","","12195","tol_tohand","","","","tol_peg_1","12195","12195","0","[[1,0,0],[3,0],[0]]","1","[[2,1,3],[0,0],[0]]","1","0","","","","","","5","","","","","","","","",""
"","","","","","single-stim-button","33","237625","0.0-2.0-13.0-1.0","61bb389740db417c1a138cad","C3","batch3","","1543","tol_toboard","","","","tol_peg_2","1543","1543","0","[[1,0,0],[3,2],[0]]","1","[[2,1,3],[0,0],[0]]","1","0","","","","","","5","","","","","","","","",""
"","","","","","single-stim-button","34","238543","0.0-2.0-13.1-0.1","61bb389740db417c1a138cad","C3","batch3","","917","tol_tohand","","","","tol_peg_1","917","917","0","[[0,0,0],[3,2],[0]]","2","[[2,1,3],[0,0],[0]]","1","0","","","","","","5","","","","","","","","",""
"","","","","","single-stim-button","35","239987","0.0-2.0-13.1-1.1","61bb389740db417c1a138cad","C3","batch3","","1443","tol_toboard","","","","tol_peg_3","1443","1443","0","[[0,0,0],[3,2],[1]]","2","[[2,1,3],[0,0],[0]]","1","0","","","","","","5","","","","","","","","",""
"","","","","","single-stim-button","36","240949","0.0-2.0-13.2-0.2","61bb389740db417c1a138cad","C3","batch3","","961","tol_tohand","","","","tol_peg_2","961","961","0","[[0,0,0],[3,0],[1]]","3","[[2,1,3],[0,0],[0]]","1","0","","","","","","5","","","","","","","","",""
"","","","","","single-stim-button","37","241983","0.0-2.0-13.2-1.2","61bb389740db417c1a138cad","C3","batch3","","1033","tol_toboard","","","","tol_peg_1","1033","1033","0","[[2,0,0],[3,0],[1]]","3","[[2,1,3],[0,0],[0]]","1","0","","","","","","5","","","","","","","","",""
"","","","","","single-stim-button","38","243875","0.0-2.0-13.3-0.3","61bb389740db417c1a138cad","C3","batch3","","1891","tol_tohand","","","","tol_peg_3","1891","1891","0","[[2,0,0],[3,0],[0]]","4","[[2,1,3],[0,0],[0]]","1","0","","","","","","5","","","","","","","","",""
"","","","","","single-stim-button","39","245041","0.0-2.0-13.3-1.3","61bb389740db417c1a138cad","C3","batch3","","1164","tol_toboard","","","","tol_peg_1","1164","1164","0","[[2,1,0],[3,0],[0]]","4","[[2,1,3],[0,0],[0]]","1","0","","","","","","5","","","","","","","","",""
"","","","","","single-stim-button","40","246389","0.0-2.0-13.4-0.4","61bb389740db417c1a138cad","C3","batch3","","1348","tol_tohand","","","","tol_peg_2","1348","1348","0","[[2,1,0],[0,0],[0]]","5","[[2,1,3],[0,0],[0]]","1","0","","","","","","5","","","","","","","","",""
"","","","","","single-stim-button","41","247475","0.0-2.0-13.4-1.4","61bb389740db417c1a138cad","C3","batch3","","1085","tol_toboard","","","","tol_peg_1","1085","1085","0","[[2,1,3],[0,0],[0]]","5","[[2,1,3],[0,0],[0]]","1","0","","","","","","5","","","","","","","","",""
"","","","","","poldrack-single-stim","42","248476","0.0-2.0-14.0","61bb389740db417c1a138cad","C3","batch3","","-1","tol_feedback","","","true","","1000","1000","500","","","","","","-1","none","true","12195","17312","","","","","","","","","",""
"","","","","","html-button-response","43","250209","0.0-2.0-15.0","61bb389740db417c1a138cad","C3","batch3","","1732.5","tol_trial_num","<div class = centerbox><p class = center-block-text>problem <strong>3</strong> out of 25 problems</p></div>","0","","","","","","","","","","","","","","","","","","","","","","","","",""
"","","","","","single-stim-button","44","259671","0.0-2.0-16.0-0.0","61bb389740db417c1a138cad","C3","batch3","","9462","tol_tohand","","","","tol_peg_1","9462","9462","0","[[2,0,0],[0,0],[1]]","1","[[1,2,0],[3,0],[0]]","2","0","","","","","","4","","","","","","","","",""
"","","","","","single-stim-button","45","261159","0.0-2.0-16.0-1.0","61bb389740db417c1a138cad","C3","batch3","","1488","tol_toboard","","","","tol_peg_2","1488","1488","0","[[2,0,0],[3,0],[1]]","1","[[1,2,0],[3,0],[0]]","2","0","","","","","","4","","","","","","","","",""
"","","","","","single-stim-button","46","262411","0.0-2.0-16.1-0.1","61bb389740db417c1a138cad","C3","batch3","","1251","tol_tohand","","","","tol_peg_1","1251","1251","0","[[0,0,0],[3,0],[1]]","2","[[1,2,0],[3,0],[0]]","2","0","","","","","","4","","","","","","","","",""
"","","","","","single-stim-button","47","263893","0.0-2.0-16.1-1.1","61bb389740db417c1a138cad","C3","batch3","","1481","tol_toboard","","","","tol_peg_2","1481","1481","0","[[0,0,0],[3,2],[1]]","2","[[1,2,0],[3,0],[0]]","2","0","","","","","","4","","","","","","","","",""
"","","","","","single-stim-button","48","264777","0.0-2.0-16.2-0.2","61bb389740db417c1a138cad","C3","batch3","","884","tol_tohand","","","","tol_peg_3","884","884","0","[[0,0,0],[3,2],[0]]","3","[[1,2,0],[3,0],[0]]","2","0","","","","","","4","","","","","","","","",""
"","","","","","single-stim-button","49","265781","0.0-2.0-16.2-1.2","61bb389740db417c1a138cad","C3","batch3","","1003","tol_toboard","","","","tol_peg_1","1003","1003","0","[[1,0,0],[3,2],[0]]","3","[[1,2,0],[3,0],[0]]","2","0","","","","","","4","","","","","","","","",""
"","","","","","single-stim-button","50","266895","0.0-2.0-16.3-0.3","61bb389740db417c1a138cad","C3","batch3","","1114","tol_tohand","","","","tol_peg_2","1114","1114","0","[[1,0,0],[3,0],[0]]","4","[[1,2,0],[3,0],[0]]","2","0","","","","","","4","","","","","","","","",""
"","","","","","single-stim-button","51","268323","0.0-2.0-16.3-1.3","61bb389740db417c1a138cad","C3","batch3","","1427","tol_toboard","","","","tol_peg_1","1427","1427","0","[[1,2,0],[3,0],[0]]","4","[[1,2,0],[3,0],[0]]","2","0","","","","","","4","","","","","","","","",""
"","","","","","poldrack-single-stim","52","269325","0.0-2.0-17.0","61bb389740db417c1a138cad","C3","batch3","","-1","tol_feedback","","","true","","1000","1000","500","","","","","","-1","none","true","9462","12711","","","","","","","","","",""
"","","","","","html-button-response","53","270633","0.0-2.0-18.0","61bb389740db417c1a138cad","C3","batch3","","1306.5","tol_trial_num","<div class = centerbox><p class = center-block-text>problem <strong>4</strong> out of 25 problems</p></div>","0","","","","","","","","","","","","","","","","","","","","","","","","",""
"","","","","","single-stim-button","54","275039","0.0-2.0-19.0-0.0","61bb389740db417c1a138cad","C3","batch3","","4405","tol_tohand","","","","tol_peg_2","4405","4405","0","[[3,0,0],[2,0],[0]]","1","[[3,0,0],[1,0],[2]]","3","0","","","","","","3","","","","","","","","",""
"","","","","","single-stim-button","55","277233","0.0-2.0-19.0-1.0","61bb389740db417c1a138cad","C3","batch3","","2193","tol_toboard","","","","tol_peg_1","2193","2193","0","[[3,1,0],[2,0],[0]]","1","[[3,0,0],[1,0],[2]]","3","0","","","","","","3","","","","","","","","",""
"","","","","","single-stim-button","56","278051","0.0-2.0-19.1-0.1","61bb389740db417c1a138cad","C3","batch3","","818","tol_tohand","","","","tol_peg_2","818","818","0","[[3,1,0],[0,0],[0]]","2","[[3,0,0],[1,0],[2]]","3","0","","","","","","3","","","","","","","","",""
"","","","","","single-stim-button","57","279030","0.0-2.0-19.1-1.1","61bb389740db417c1a138cad","C3","batch3","","977","tol_toboard","","","","tol_peg_3","977","977","0","[[3,1,0],[0,0],[2]]","2","[[3,0,0],[1,0],[2]]","3","0","","","","","","3","","","","","","","","",""
"","","","","","single-stim-button","58","280014","0.0-2.0-19.2-0.2","61bb389740db417c1a138cad","C3","batch3","","983","tol_tohand","","","","tol_peg_1","983","983","0","[[3,0,0],[0,0],[2]]","3","[[3,0,0],[1,0],[2]]","3","0","","","","","","3","","","","","","","","",""
"","","","","","single-stim-button","59","280931","0.0-2.0-19.2-1.2","61bb389740db417c1a138cad","C3","batch3","","917","tol_toboard","","","","tol_peg_2","917","917","0","[[3,0,0],[1,0],[2]]","3","[[3,0,0],[1,0],[2]]","3","0","","","","","","3","","","","","","","","",""
"","","","","","poldrack-single-stim","60","281948","0.0-2.0-20.0","61bb389740db417c1a138cad","C3","batch3","","-1","tol_feedback","","","true","","1000","1000","500","","","","","","-1","none","true","4405","6206","","","","","","","","","",""
"","","","","","html-button-response","61","283509","0.0-2.0-21.0","61bb389740db417c1a138cad","C3","batch3","","1559.7000000476837","tol_trial_num","<div class = centerbox><p class = center-block-text>problem <strong>5</strong> out of 25 problems</p></div>","0","","","","","","","","","","","","","","","","","","","","","","","","",""
"","","","","","single-stim-button","62","314639","0.0-2.0-22.0-0.0","61bb389740db417c1a138cad","C3","batch3","","31130","tol_tohand","","","","tol_peg_3","31130","31130","0","[[1,0,0],[2,0],[0]]","1","[[0,0,0],[1,2],[3]]","4","0","","","","","","7","","","","","","","","",""
"","","","","","single-stim-button","63","315663","0.0-2.0-22.0-1.0","61bb389740db417c1a138cad","C3","batch3","","1023","tol_toboard","","","","tol_peg_1","1023","1023","0","[[1,3,0],[2,0],[0]]","1","[[0,0,0],[1,2],[3]]","4","0","","","","","","7","","","","","","","","",""
"","","","","","single-stim-button","64","316373","0.0-2.0-22.1-0.1","61bb389740db417c1a138cad","C3","batch3","","710","tol_tohand","","","","tol_peg_2","710","710","0","[[1,3,0],[0,0],[0]]","2","[[0,0,0],[1,2],[3]]","4","0","","","","","","7","","","","","","","","",""
"","","","","","single-stim-button","65","317447","0.0-2.0-22.1-1.1","61bb389740db417c1a138cad","C3","batch3","","1074","tol_toboard","","","","tol_peg_3","1074","1074","0","[[1,3,0],[0,0],[2]]","2","[[0,0,0],[1,2],[3]]","4","0","","","","","","7","","","","","","","","",""
"","","","","","single-stim-button","66","325827","0.0-2.0-22.2-0.2","61bb389740db417c1a138cad","C3","batch3","","8380","tol_tohand","","","","tol_peg_1","8380","8380","0","[[1,0,0],[0,0],[2]]","3","[[0,0,0],[1,2],[3]]","4","0","","","","","","7","","","","","","","","",""
"","","","","","single-stim-button","67","326973","0.0-2.0-22.2-1.2","61bb389740db417c1a138cad","C3","batch3","","1145","tol_toboard","","","","tol_peg_2","1145","1145","0","[[1,0,0],[3,0],[2]]","3","[[0,0,0],[1,2],[3]]","4","0","","","","","","7","","","","","","","","",""
"","","","","","single-stim-button","68","328465","0.0-2.0-22.3-0.3","61bb389740db417c1a138cad","C3","batch3","","1492","tol_tohand","","","","tol_peg_3","1492","1492","0","[[1,0,0],[3,0],[0]]","4","[[0,0,0],[1,2],[3]]","4","0","","","","","","7","","","","","","","","",""
"","","","","","single-stim-button","69","329443","0.0-2.0-22.3-1.3","61bb389740db417c1a138cad","C3","batch3","","978","tol_toboard","","","","tol_peg_2","978","978","0","[[1,0,0],[3,2],[0]]","4","[[0,0,0],[1,2],[3]]","4","0","","","","","","7","","","","","","","","",""
"","","","","","single-stim-button","70","330169","0.0-2.0-22.4-0.4","61bb389740db417c1a138cad","C3","batch3","","725","tol_tohand","","","","tol_peg_1","725","725","0","[[0,0,0],[3,2],[0]]","5","[[0,0,0],[1,2],[3]]","4","0","","","","","","7","","","","","","","","",""
"","","","","","single-stim-button","71","331117","0.0-2.0-22.4-1.4","61bb389740db417c1a138cad","C3","batch3","","948","tol_toboard","","","","tol_peg_3","948","948","0","[[0,0,0],[3,2],[1]]","5","[[0,0,0],[1,2],[3]]","4","0","","","","","","7","","","","","","","","",""
"","","","","","single-stim-button","72","331925","0.0-2.0-22.5-0.5","61bb389740db417c1a138cad","C3","batch3","","808","tol_tohand","","","","tol_peg_2","808","808","0","[[0,0,0],[3,0],[1]]","6","[[0,0,0],[1,2],[3]]","4","0","","","","","","7","","","","","","","","",""
"","","","","","single-stim-button","73","333211","0.0-2.0-22.5-1.5","61bb389740db417c1a138cad","C3","batch3","","1286","tol_toboard","","","","tol_peg_1","1286","1286","0","[[2,0,0],[3,0],[1]]","6","[[0,0,0],[1,2],[3]]","4","0","","","","","","7","","","","","","","","",""
"","","","","","single-stim-button","74","334239","0.0-2.0-22.6-0.6","61bb389740db417c1a138cad","C3","batch3","","1028","tol_tohand","","","","tol_peg_3","1028","1028","0","[[2,0,0],[3,0],[0]]","7","[[0,0,0],[1,2],[3]]","4","0","","","","","","7","","","","","","","","",""
"","","","","","single-stim-button","75","335359","0.0-2.0-22.6-1.6","61bb389740db417c1a138cad","C3","batch3","","1120","tol_toboard","","","","tol_peg_1","1120","1120","0","[[2,1,0],[3,0],[0]]","7","[[0,0,0],[1,2],[3]]","4","0","","","","","","7","","","","","","","","",""
"","","","","","single-stim-button","76","336201","0.0-2.0-22.7-0.7","61bb389740db417c1a138cad","C3","batch3","","841","tol_tohand","","","","tol_peg_2","841","841","0","[[2,1,0],[0,0],[0]]","8","[[0,0,0],[1,2],[3]]","4","0","","","","","","7","","","","","","","","",""
"","","","","","single-stim-button","77","337215","0.0-2.0-22.7-1.7","61bb389740db417c1a138cad","C3","batch3","","1014","tol_toboard","","","","tol_peg_3","1014","1014","0","[[2,1,0],[0,0],[3]]","8","[[0,0,0],[1,2],[3]]","4","0","","","","","","7","","","","","","","","",""
"","","","","","single-stim-button","78","338027","0.0-2.0-22.8-0.8","61bb389740db417c1a138cad","C3","batch3","","811","tol_tohand","","","","tol_peg_1","811","811","0","[[2,0,0],[0,0],[3]]","9","[[0,0,0],[1,2],[3]]","4","0","","","","","","7","","","","","","","","",""
"","","","","","single-stim-button","79","339087","0.0-2.0-22.8-1.8","61bb389740db417c1a138cad","C3","batch3","","1060","tol_toboard","","","","tol_peg_2","1060","1060","0","[[2,0,0],[1,0],[3]]","9","[[0,0,0],[1,2],[3]]","4","0","","","","","","7","","","","","","","","",""
"","","","","","single-stim-button","80","340071","0.0-2.0-22.9-0.9","61bb389740db417c1a138cad","C3","batch3","","984","tol_tohand","","","","tol_peg_1","984","984","0","[[0,0,0],[1,0],[3]]","10","[[0,0,0],[1,2],[3]]","4","0","","","","","","7","","","","","","","","",""
"","","","","","single-stim-button","81","341063","0.0-2.0-22.9-1.9","61bb389740db417c1a138cad","C3","batch3","","992","tol_toboard","","","","tol_peg_2","992","992","0","[[0,0,0],[1,2],[3]]","10","[[0,0,0],[1,2],[3]]","4","0","","","","","","7","","","","","","","","",""
"","","","","","poldrack-single-stim","82","342064","0.0-2.0-23.0","61bb389740db417c1a138cad","C3","batch3","","-1","tol_feedback","","","true","","1000","1000","500","","","","","","-1","none","true","31130","46909","","","","","","","","","",""
"","","","","","html-button-response","83","343747","0.0-2.0-24.0","61bb389740db417c1a138cad","C3","batch3","","1681.4000000953674","tol_trial_num","<div class = centerbox><p class = center-block-text>problem <strong>6</strong> out of 25 problems</p></div>","0","","","","","","","","","","","","","","","","","","","","","","","","",""
"","","","","","single-stim-button","84","375145","0.0-2.0-25.0-0.0","61bb389740db417c1a138cad","C3","batch3","","31397","tol_tohand","","","","tol_peg_3","31397","31397","0","[[0,0,0],[1,2],[0]]","1","[[1,0,0],[2,3],[0]]","5","0","","","","","","6","","","","","","","","",""
"","","","","","single-stim-button","85","377767","0.0-2.0-25.0-1.0","61bb389740db417c1a138cad","C3","batch3","","2621","tol_toboard","","","","tol_peg_1","2621","2621","0","[[3,0,0],[1,2],[0]]","1","[[1,0,0],[2,3],[0]]","5","0","","","","","","6","","","","","","","","",""
"","","","","","single-stim-button","86","378636","0.0-2.0-25.1-0.1","61bb389740db417c1a138cad","C3","batch3","","869","tol_tohand","","","","tol_peg_2","869","869","0","[[3,0,0],[1,0],[0]]","2","[[1,0,0],[2,3],[0]]","5","0","","","","","","6","","","","","","","","",""
"","","","","","single-stim-button","87","379709","0.0-2.0-25.1-1.1","61bb389740db417c1a138cad","C3","batch3","","1072","tol_toboard","","","","tol_peg_1","1072","1072","0","[[3,2,0],[1,0],[0]]","2","[[1,0,0],[2,3],[0]]","5","0","","","","","","6","","","","","","","","",""
"","","","","","single-stim-button","88","380560","0.0-2.0-25.2-0.2","61bb389740db417c1a138cad","C3","batch3","","851","tol_tohand","","","","tol_peg_2","851","851","0","[[3,2,0],[0,0],[0]]","3","[[1,0,0],[2,3],[0]]","5","0","","","","","","6","","","","","","","","",""
"","","","","","single-stim-button","89","381584","0.0-2.0-25.2-1.2","61bb389740db417c1a138cad","C3","batch3","","1023","tol_toboard","","","","tol_peg_3","1023","1023","0","[[3,2,0],[0,0],[1]]","3","[[1,0,0],[2,3],[0]]","5","0","","","","","","6","","","","","","","","",""
"","","","","","single-stim-button","90","382416","0.0-2.0-25.3-0.3","61bb389740db417c1a138cad","C3","batch3","","831","tol_tohand","","","","tol_peg_1","831","831","0","[[3,0,0],[0,0],[1]]","4","[[1,0,0],[2,3],[0]]","5","0","","","","","","6","","","","","","","","",""
"","","","","","single-stim-button","91","383477","0.0-2.0-25.3-1.3","61bb389740db417c1a138cad","C3","batch3","","1059","tol_toboard","","","","tol_peg_2","1059","1059","0","[[3,0,0],[2,0],[1]]","4","[[1,0,0],[2,3],[0]]","5","0","","","","","","6","","","","","","","","",""
"","","","","","single-stim-button","92","384303","0.0-2.0-25.4-0.4","61bb389740db417c1a138cad","C3","batch3","","826","tol_tohand","","","","tol_peg_1","826","826","0","[[0,0,0],[2,0],[1]]","5","[[1,0,0],[2,3],[0]]","5","0","","","","","","6","","","","","","","","",""
"","","","","","single-stim-button","93","385353","0.0-2.0-25.4-1.4","61bb389740db417c1a138cad","C3","batch3","","1049","tol_toboard","","","","tol_peg_2","1049","1049","0","[[0,0,0],[2,3],[1]]","5","[[1,0,0],[2,3],[0]]","5","0","","","","","","6","","","","","","","","",""
"","","","","","single-stim-button","94","386164","0.0-2.0-25.5-0.5","61bb389740db417c1a138cad","C3","batch3","","811","tol_tohand","","","","tol_peg_3","811","811","0","[[0,0,0],[2,3],[0]]","6","[[1,0,0],[2,3],[0]]","5","0","","","","","","6","","","","","","","","",""
"","","","","","single-stim-button","95","387123","0.0-2.0-25.5-1.5","61bb389740db417c1a138cad","C3","batch3","","957","tol_toboard","","","","tol_peg_1","957","957","0","[[1,0,0],[2,3],[0]]","6","[[1,0,0],[2,3],[0]]","5","0","","","","","","6","","","","","","","","",""
"","","","","","poldrack-single-stim","96","388125","0.0-2.0-26.0","61bb389740db417c1a138cad","C3","batch3","","-1","tol_feedback","","","true","","1000","1000","500","","","","","","-1","none","true","31397","35585","","","","","","","","","",""
"","","","","","html-button-response","97","389392","0.0-2.0-27.0","61bb389740db417c1a138cad","C3","batch3","","1266.3999998569489","tol_trial_num","<div class = centerbox><p class = center-block-text>problem <strong>7</strong> out of 25 problems</p></div>","0","","","","","","","","","","","","","","","","","","","","","","","","",""
"","","","","","single-stim-button","98","400953","0.0-2.0-28.0-0.0","61bb389740db417c1a138cad","C3","batch3","","11560","tol_tohand","","","","tol_peg_3","11560","11560","0","[[2,1,0],[0,0],[0]]","1","[[1,2,0],[3,0],[0]]","6","0","","","","","","5","","","","","","","","",""
"","","","","","single-stim-button","99","402069","0.0-2.0-28.0-1.0","61bb389740db417c1a138cad","C3","batch3","","1114","tol_toboard","","","","tol_peg_2","1114","1114","0","[[2,1,0],[3,0],[0]]","1","[[1,2,0],[3,0],[0]]","6","0","","","","","","5","","","","","","","","",""
"","","","","","single-stim-button","100","404074","0.0-2.0-28.1-0.1","61bb389740db417c1a138cad","C3","batch3","","2005","tol_tohand","","","","tol_peg_1","2005","2005","0","[[2,0,0],[3,0],[0]]","2","[[1,2,0],[3,0],[0]]","6","0","","","","","","5","","","","","","","","",""
"","","","","","single-stim-button","101","405054","0.0-2.0-28.1-1.1","61bb389740db417c1a138cad","C3","batch3","","979","tol_toboard","","","","tol_peg_2","979","979","0","[[2,0,0],[3,1],[0]]","2","[[1,2,0],[3,0],[0]]","6","0","","","","","","5","","","","","","","","",""
"","","","","","single-stim-button","102","405881","0.0-2.0-28.2-0.2","61bb389740db417c1a138cad","C3","batch3","","825","tol_tohand","","","","tol_peg_1","825","825","0","[[0,0,0],[3,1],[0]]","3","[[1,2,0],[3,0],[0]]","6","0","","","","","","5","","","","","","","","",""
"","","","","","single-stim-button","103","407253","0.0-2.0-28.2-1.2","61bb389740db417c1a138cad","C3","batch3","","1371","tol_toboard","","","","tol_peg_3","1371","1371","0","[[0,0,0],[3,1],[2]]","3","[[1,2,0],[3,0],[0]]","6","0","","","","","","5","","","","","","","","",""
"","","","","","single-stim-button","104","408021","0.0-2.0-28.3-0.3","61bb389740db417c1a138cad","C3","batch3","","768","tol_tohand","","","","tol_peg_2","768","768","0","[[0,0,0],[3,0],[2]]","4","[[1,2,0],[3,0],[0]]","6","0","","","","","","5","","","","","","","","",""
"","","","","","single-stim-button","105","409108","0.0-2.0-28.3-1.3","61bb389740db417c1a138cad","C3","batch3","","1087","tol_toboard","","","","tol_peg_1","1087","1087","0","[[1,0,0],[3,0],[2]]","4","[[1,2,0],[3,0],[0]]","6","0","","","","","","5","","","","","","","","",""
"","","","","","single-stim-button","106","409906","0.0-2.0-28.4-0.4","61bb389740db417c1a138cad","C3","batch3","","797","tol_tohand","","","","tol_peg_3","797","797","0","[[1,0,0],[3,0],[0]]","5","[[1,2,0],[3,0],[0]]","6","0","","","","","","5","","","","","","","","",""
"","","","","","single-stim-button","107","410868","0.0-2.0-28.4-1.4","61bb389740db417c1a138cad","C3","batch3","","962","tol_toboard","","","","tol_peg_1","962","962","0","[[1,2,0],[3,0],[0]]","5","[[1,2,0],[3,0],[0]]","6","0","","","","","","5","","","","","","","","",""
"","","","","","poldrack-single-stim","108","411887","0.0-2.0-29.0","61bb389740db417c1a138cad","C3","batch3","","-1","tol_feedback","","","true","","1000","1000","500","","","","","","-1","none","true","11560","15955","","","","","","","","","",""
"","","","","","html-button-response","109","413595","0.0-2.0-30.0","61bb389740db417c1a138cad","C3","batch3","","1706.2000000476837","tol_trial_num","<div class = centerbox><p class = center-block-text>problem <strong>8</strong> out of 25 problems</p></div>","0","","","","","","","","","","","","","","","","","","","","","","","","",""
"","","","","","single-stim-button","110","421134","0.0-2.0-31.0-0.0","61bb389740db417c1a138cad","C3","batch3","","7539","tol_tohand","","","","tol_peg_3","7539","7539","0","[[0,0,0],[2,3],[0]]","1","[[1,2,0],[3,0],[0]]","7","0","","","","","","4","","","","","","","","",""
"","","","","","single-stim-button","111","422929","0.0-2.0-31.0-1.0","61bb389740db417c1a138cad","C3","batch3","","1794","tol_toboard","","","","tol_peg_1","1794","1794","0","[[1,0,0],[2,3],[0]]","1","[[1,2,0],[3,0],[0]]","7","0","","","","","","4","","","","","","","","",""
"","","","","","single-stim-button","112","423674","0.0-2.0-31.1-0.1","61bb389740db417c1a138cad","C3","batch3","","745","tol_tohand","","","","tol_peg_2","745","745","0","[[1,0,0],[2,0],[0]]","2","[[1,2,0],[3,0],[0]]","7","0","","","","","","4","","","","","","","","",""
"","","","","","single-stim-button","113","424728","0.0-2.0-31.1-1.1","61bb389740db417c1a138cad","C3","batch3","","1053","tol_toboard","","","","tol_peg_3","1053","1053","0","[[1,0,0],[2,0],[3]]","2","[[1,2,0],[3,0],[0]]","7","0","","","","","","4","","","","","","","","",""
"","","","","","single-stim-button","114","425481","0.0-2.0-31.2-0.2","61bb389740db417c1a138cad","C3","batch3","","751","tol_tohand","","","","tol_peg_2","751","751","0","[[1,0,0],[0,0],[3]]","3","[[1,2,0],[3,0],[0]]","7","0","","","","","","4","","","","","","","","",""
"","","","","","single-stim-button","115","426448","0.0-2.0-31.2-1.2","61bb389740db417c1a138cad","C3","batch3","","967","tol_toboard","","","","tol_peg_1","967","967","0","[[1,2,0],[0,0],[3]]","3","[[1,2,0],[3,0],[0]]","7","0","","","","","","4","","","","","","","","",""
"","","","","","single-stim-button","116","427246","0.0-2.0-31.3-0.3","61bb389740db417c1a138cad","C3","batch3","","798","tol_tohand","","","","tol_peg_3","798","798","0","[[1,2,0],[0,0],[0]]","4","[[1,2,0],[3,0],[0]]","7","0","","","","","","4","","","","","","","","",""
"","","","","","single-stim-button","117","428148","0.0-2.0-31.3-1.3","61bb389740db417c1a138cad","C3","batch3","","901","tol_toboard","","","","tol_peg_2","901","901","0","[[1,2,0],[3,0],[0]]","4","[[1,2,0],[3,0],[0]]","7","0","","","","","","4","","","","","","","","",""
"","","","","","poldrack-single-stim","118","429157","0.0-2.0-32.0","61bb389740db417c1a138cad","C3","batch3","","-1","tol_feedback","","","true","","1000","1000","500","","","","","","-1","none","true","7539","9833","","","","","","","","","",""
"","","","","","html-button-response","119","430650","0.0-2.0-33.0","61bb389740db417c1a138cad","C3","batch3","","1492.9000000953674","tol_trial_num","<div class = centerbox><p class = center-block-text>problem <strong>9</strong> out of 25 problems</p></div>","0","","","","","","","","","","","","","","","","","","","","","","","","",""
"","","","","","single-stim-button","120","459848","0.0-2.0-34.0-0.0","61bb389740db417c1a138cad","C3","batch3","","29197","tol_tohand","","","","tol_peg_1","29197","29197","0","[[3,0,0],[0,0],[1]]","1","[[2,1,0],[3,0],[0]]","8","0","","","","","","6","","","","","","","","",""
"","","","","","single-stim-button","121","461628","0.0-2.0-34.0-1.0","61bb389740db417c1a138cad","C3","batch3","","1779","tol_toboard","","","","tol_peg_2","1779","1779","0","[[3,0,0],[2,0],[1]]","1","[[2,1,0],[3,0],[0]]","8","0","","","","","","6","","","","","","","","",""
"","","","","","single-stim-button","122","462460","0.0-2.0-34.1-0.1","61bb389740db417c1a138cad","C3","batch3","","831","tol_tohand","","","","tol_peg_3","831","831","0","[[3,0,0],[2,0],[0]]","2","[[2,1,0],[3,0],[0]]","8","0","","","","","","6","","","","","","","","",""
"","","","","","single-stim-button","123","463398","0.0-2.0-34.1-1.1","61bb389740db417c1a138cad","C3","batch3","","938","tol_toboard","","","","tol_peg_2","938","938","0","[[3,0,0],[2,1],[0]]","2","[[2,1,0],[3,0],[0]]","8","0","","","","","","6","","","","","","","","",""
"","","","","","single-stim-button","124","464770","0.0-2.0-34.2-0.2","61bb389740db417c1a138cad","C3","batch3","","1372","tol_tohand","","","","tol_peg_1","1372","1372","0","[[0,0,0],[2,1],[0]]","3","[[2,1,0],[3,0],[0]]","8","0","","","","","","6","","","","","","","","",""
"","","","","","single-stim-button","125","466264","0.0-2.0-34.2-1.2","61bb389740db417c1a138cad","C3","batch3","","1494","tol_toboard","","","","tol_peg_3","1494","1494","0","[[0,0,0],[2,1],[3]]","3","[[2,1,0],[3,0],[0]]","8","0","","","","","","6","","","","","","","","",""
"","","","","","single-stim-button","126","468630","0.0-2.0-34.3-0.3","61bb389740db417c1a138cad","C3","batch3","","2366","tol_tohand","","","","tol_peg_3","2366","2366","0","[[0,0,0],[2,1],[0]]","4","[[2,1,0],[3,0],[0]]","8","0","","","","","","6","","","","","","","","",""
"","","","","","single-stim-button","127","469996","0.0-2.0-34.3-1.3","61bb389740db417c1a138cad","C3","batch3","","1365","tol_toboard","","","","tol_peg_1","1365","1365","0","[[3,0,0],[2,1],[0]]","4","[[2,1,0],[3,0],[0]]","8","0","","","","","","6","","","","","","","","",""
"","","","","","single-stim-button","128","471524","0.0-2.0-34.4-0.4","61bb389740db417c1a138cad","C3","batch3","","1528","tol_tohand","","","","tol_peg_2","1528","1528","0","[[3,0,0],[2,0],[0]]","5","[[2,1,0],[3,0],[0]]","8","0","","","","","","6","","","","","","","","",""
"","","","","","single-stim-button","129","472710","0.0-2.0-34.4-1.4","61bb389740db417c1a138cad","C3","batch3","","1186","tol_toboard","","","","tol_peg_3","1186","1186","0","[[3,0,0],[2,0],[1]]","5","[[2,1,0],[3,0],[0]]","8","0","","","","","","6","","","","","","","","",""
"","","","","","single-stim-button","130","473366","0.0-2.0-34.5-0.5","61bb389740db417c1a138cad","C3","batch3","","656","tol_tohand","","","","tol_peg_2","656","656","0","[[3,0,0],[0,0],[1]]","6","[[2,1,0],[3,0],[0]]","8","0","","","","","","6","","","","","","","","",""
"","","","","","single-stim-button","131","474470","0.0-2.0-34.5-1.5","61bb389740db417c1a138cad","C3","batch3","","1104","tol_toboard","","","","tol_peg_1","1104","1104","0","[[3,2,0],[0,0],[1]]","6","[[2,1,0],[3,0],[0]]","8","0","","","","","","6","","","","","","","","",""
"","","","","","single-stim-button","132","477291","0.0-2.0-34.6-0.6","61bb389740db417c1a138cad","C3","batch3","","2819","tol_tohand","","","","tol_peg_1","2819","2819","0","[[3,0,0],[0,0],[1]]","7","[[2,1,0],[3,0],[0]]","8","0","","","","","","6","","","","","","","","",""
"","","","","","single-stim-button","133","487240","0.0-2.0-34.6-1.6","61bb389740db417c1a138cad","C3","batch3","","9949","tol_toboard","","","","tol_peg_1","9949","9949","0","[[3,2,0],[0,0],[1]]","7","[[2,1,0],[3,0],[0]]","8","0","","","","","","6","","","","","","","","",""
"","","","","","single-stim-button","134","488300","0.0-2.0-34.7-0.7","61bb389740db417c1a138cad","C3","batch3","","1059","tol_tohand","","","","tol_peg_3","1059","1059","0","[[3,2,0],[0,0],[0]]","8","[[2,1,0],[3,0],[0]]","8","0","","","","","","6","","","","","","","","",""
"","","","","","single-stim-button","135","489284","0.0-2.0-34.7-1.7","61bb389740db417c1a138cad","C3","batch3","","983","tol_toboard","","","","tol_peg_2","983","983","0","[[3,2,0],[1,0],[0]]","8","[[2,1,0],[3,0],[0]]","8","0","","","","","","6","","","","","","","","",""
"","","","","","single-stim-button","136","489984","0.0-2.0-34.8-0.8","61bb389740db417c1a138cad","C3","batch3","","700","tol_tohand","","","","tol_peg_1","700","700","0","[[3,0,0],[1,0],[0]]","9","[[2,1,0],[3,0],[0]]","8","0","","","","","","6","","","","","","","","",""
"","","","","","single-stim-button","137","490902","0.0-2.0-34.8-1.8","61bb389740db417c1a138cad","C3","batch3","","918","tol_toboard","","","","tol_peg_2","918","918","0","[[3,0,0],[1,2],[0]]","9","[[2,1,0],[3,0],[0]]","8","0","","","","","","6","","","","","","","","",""
"","","","","","single-stim-button","138","491725","0.0-2.0-34.9-0.9","61bb389740db417c1a138cad","C3","batch3","","822","tol_tohand","","","","tol_peg_1","822","822","0","[[0,0,0],[1,2],[0]]","10","[[2,1,0],[3,0],[0]]","8","0","","","","","","6","","","","","","","","",""
"","","","","","single-stim-button","139","492890","0.0-2.0-34.9-1.9","61bb389740db417c1a138cad","C3","batch3","","1165","tol_toboard","","","","tol_peg_3","1165","1165","0","[[0,0,0],[1,2],[3]]","10","[[2,1,0],[3,0],[0]]","8","0","","","","","","6","","","","","","","","",""
"","","","","","single-stim-button","140","493706","0.0-2.0-34.10-0.10","61bb389740db417c1a138cad","C3","batch3","","815","tol_tohand","","","","tol_peg_2","815","815","0","[[0,0,0],[1,0],[3]]","11","[[2,1,0],[3,0],[0]]","8","0","","","","","","6","","","","","","","","",""
"","","","","","single-stim-button","141","494862","0.0-2.0-34.10-1.10","61bb389740db417c1a138cad","C3","batch3","","1155","tol_toboard","","","","tol_peg_1","1155","1155","0","[[2,0,0],[1,0],[3]]","11","[[2,1,0],[3,0],[0]]","8","0","","","","","","6","","","","","","","","",""
"","","","","","single-stim-button","142","495680","0.0-2.0-34.11-0.11","61bb389740db417c1a138cad","C3","batch3","","817","tol_tohand","","","","tol_peg_2","817","817","0","[[2,0,0],[0,0],[3]]","12","[[2,1,0],[3,0],[0]]","8","0","","","","","","6","","","","","","","","",""
"","","","","","single-stim-button","143","496794","0.0-2.0-34.11-1.11","61bb389740db417c1a138cad","C3","batch3","","1114","tol_toboard","","","","tol_peg_1","1114","1114","0","[[2,1,0],[0,0],[3]]","12","[[2,1,0],[3,0],[0]]","8","0","","","","","","6","","","","","","","","",""
"","","","","","single-stim-button","144","497576","0.0-2.0-34.12-0.12","61bb389740db417c1a138cad","C3","batch3","","782","tol_tohand","","","","tol_peg_3","782","782","0","[[2,1,0],[0,0],[0]]","13","[[2,1,0],[3,0],[0]]","8","0","","","","","","6","","","","","","","","",""
"","","","","","single-stim-button","145","498432","0.0-2.0-34.12-1.12","61bb389740db417c1a138cad","C3","batch3","","856","tol_toboard","","","","tol_peg_2","856","856","0","[[2,1,0],[3,0],[0]]","13","[[2,1,0],[3,0],[0]]","8","0","","","","","","6","","","","","","","","",""
"","","","","","poldrack-single-stim","146","499434","0.0-2.0-35.0","61bb389740db417c1a138cad","C3","batch3","","-1","tol_feedback","","","true","","1000","1000","500","","","","","","-1","none","true","29197","43764","","","","","","","","","",""
"","","","","","html-button-response","147","500934","0.0-2.0-36.0","61bb389740db417c1a138cad","C3","batch3","","1499","tol_trial_num","<div class = centerbox><p class = center-block-text>problem <strong>10</strong> out of 25 problems</p></div>","0","","","","","","","","","","","","","","","","","","","","","","","","",""
"","","","","","single-stim-button","148","509242","0.0-2.0-37.0-0.0","61bb389740db417c1a138cad","C3","batch3","","8308","tol_tohand","","","","tol_peg_2","8308","8308","0","[[3,0,0],[0,0],[2]]","1","[[3,0,0],[2,1],[0]]","9","0","","","","","","3","","","","","","","","",""
"","","","","","single-stim-button","149","510512","0.0-2.0-37.0-1.0","61bb389740db417c1a138cad","C3","batch3","","1269","tol_toboard","","","","tol_peg_1","1269","1269","0","[[3,1,0],[0,0],[2]]","1","[[3,0,0],[2,1],[0]]","9","0","","","","","","3","","","","","","","","",""
"","","","","","single-stim-button","150","511512","0.0-2.0-37.1-0.1","61bb389740db417c1a138cad","C3","batch3","","1000","tol_tohand","","","","tol_peg_3","1000","1000","0","[[3,1,0],[0,0],[0]]","2","[[3,0,0],[2,1],[0]]","9","0","","","","","","3","","","","","","","","",""
"","","","","","single-stim-button","151","512434","0.0-2.0-37.1-1.1","61bb389740db417c1a138cad","C3","batch3","","922","tol_toboard","","","","tol_peg_2","922","922","0","[[3,1,0],[2,0],[0]]","2","[[3,0,0],[2,1],[0]]","9","0","","","","","","3","","","","","","","","",""
"","","","","","single-stim-button","152","514362","0.0-2.0-37.2-0.2","61bb389740db417c1a138cad","C3","batch3","","1928","tol_tohand","","","","tol_peg_1","1928","1928","0","[[3,0,0],[2,0],[0]]","3","[[3,0,0],[2,1],[0]]","9","0","","","","","","3","","","","","","","","",""
"","","","","","single-stim-button","153","515390","0.0-2.0-37.2-1.2","61bb389740db417c1a138cad","C3","batch3","","1028","tol_toboard","","","","tol_peg_2","1028","1028","0","[[3,0,0],[2,1],[0]]","3","[[3,0,0],[2,1],[0]]","9","0","","","","","","3","","","","","","","","",""
"","","","","","poldrack-single-stim","154","516405","0.0-2.0-38.0","61bb389740db417c1a138cad","C3","batch3","","-1","tol_feedback","","","true","","1000","1000","500","","","","","","-1","none","true","8308","11236","","","","","","","","","",""
"","","","","","html-button-response","155","518170","0.0-2.0-39.0","61bb389740db417c1a138cad","C3","batch3","","1764.2999999523163","tol_trial_num","<div class = centerbox><p class = center-block-text>problem <strong>11</strong> out of 25 problems</p></div>","0","","","","","","","","","","","","","","","","","","","","","","","","",""
"","","","","","single-stim-button","156","554553","0.0-2.0-40.0-0.0","61bb389740db417c1a138cad","C3","batch3","","36382","tol_tohand","","","","tol_peg_1","36382","36382","0","[[1,0,0],[3,0],[0]]","1","[[2,0,0],[1,3],[0]]","10","0","","","","","","6","","","","","","","","",""
"","","","","","single-stim-button","157","555719","0.0-2.0-40.0-1.0","61bb389740db417c1a138cad","C3","batch3","","1166","tol_toboard","","","","tol_peg_2","1166","1166","0","[[1,0,0],[3,2],[0]]","1","[[2,0,0],[1,3],[0]]","10","0","","","","","","6","","","","","","","","",""
"","","","","","single-stim-button","158","556505","0.0-2.0-40.1-0.1","61bb389740db417c1a138cad","C3","batch3","","786","tol_tohand","","","","tol_peg_1","786","786","0","[[0,0,0],[3,2],[0]]","2","[[2,0,0],[1,3],[0]]","10","0","","","","","","6","","","","","","","","",""
"","","","","","single-stim-button","159","557661","0.0-2.0-40.1-1.1","61bb389740db417c1a138cad","C3","batch3","","1156","tol_toboard","","","","tol_peg_3","1156","1156","0","[[0,0,0],[3,2],[1]]","2","[[2,0,0],[1,3],[0]]","10","0","","","","","","6","","","","","","","","",""
"","","","","","single-stim-button","160","559897","0.0-2.0-40.2-0.2","61bb389740db417c1a138cad","C3","batch3","","2236","tol_tohand","","","","tol_peg_2","2236","2236","0","[[0,0,0],[3,0],[1]]","3","[[2,0,0],[1,3],[0]]","10","0","","","","","","6","","","","","","","","",""
"","","","","","single-stim-button","161","561467","0.0-2.0-40.2-1.2","61bb389740db417c1a138cad","C3","batch3","","1570","tol_toboard","","","","tol_peg_1","1570","1570","0","[[2,0,0],[3,0],[1]]","3","[[2,0,0],[1,3],[0]]","10","0","","","","","","6","","","","","","","","",""
"","","","","","single-stim-button","162","562989","0.0-2.0-40.3-0.3","61bb389740db417c1a138cad","C3","batch3","","1522","tol_tohand","","","","tol_peg_2","1522","1522","0","[[2,0,0],[0,0],[1]]","4","[[2,0,0],[1,3],[0]]","10","0","","","","","","6","","","","","","","","",""
"","","","","","single-stim-button","163","564659","0.0-2.0-40.3-1.3","61bb389740db417c1a138cad","C3","batch3","","1670","tol_toboard","","","","tol_peg_1","1670","1670","0","[[2,3,0],[0,0],[1]]","4","[[2,0,0],[1,3],[0]]","10","0","","","","","","6","","","","","","","","",""
"","","","","","single-stim-button","164","565677","0.0-2.0-40.4-0.4","61bb389740db417c1a138cad","C3","batch3","","1018","tol_tohand","","","","tol_peg_3","1018","1018","0","[[2,3,0],[0,0],[0]]","5","[[2,0,0],[1,3],[0]]","10","0","","","","","","6","","","","","","","","",""
"","","","","","single-stim-button","165","566455","0.0-2.0-40.4-1.4","61bb389740db417c1a138cad","C3","batch3","","778","tol_toboard","","","","tol_peg_2","778","778","0","[[2,3,0],[1,0],[0]]","5","[[2,0,0],[1,3],[0]]","10","0","","","","","","6","","","","","","","","",""
"","","","","","single-stim-button","166","567233","0.0-2.0-40.5-0.5","61bb389740db417c1a138cad","C3","batch3","","778","tol_tohand","","","","tol_peg_1","778","778","0","[[2,0,0],[1,0],[0]]","6","[[2,0,0],[1,3],[0]]","10","0","","","","","","6","","","","","","","","",""
"","","","","","single-stim-button","167","568095","0.0-2.0-40.5-1.5","61bb389740db417c1a138cad","C3","batch3","","862","tol_toboard","","","","tol_peg_2","862","862","0","[[2,0,0],[1,3],[0]]","6","[[2,0,0],[1,3],[0]]","10","0","","","","","","6","","","","","","","","",""
"","","","","","poldrack-single-stim","168","569100","0.0-2.0-41.0","61bb389740db417c1a138cad","C3","batch3","","-1","tol_feedback","","","true","","1000","1000","500","","","","","","-1","none","true","36382","42722","","","","","","","","","",""
"","","","","","html-button-response","169","570485","0.0-2.0-42.0","61bb389740db417c1a138cad","C3","batch3","","1384.0999999046326","tol_trial_num","<div class = centerbox><p class = center-block-text>problem <strong>12</strong> out of 25 problems</p></div>","0","","","","","","","","","","","","","","","","","","","","","","","","",""
"","","","","","single-stim-button","170","582318","0.0-2.0-43.0-0.0","61bb389740db417c1a138cad","C3","batch3","","11832","tol_tohand","","","","tol_peg_2","11832","11832","0","[[1,2,0],[0,0],[0]]","1","[[2,3,0],[0,0],[1]]","11","0","","","","","","4","","","","","","","","",""
"","","","","","single-stim-button","171","583055","0.0-2.0-43.0-1.0","61bb389740db417c1a138cad","C3","batch3","","735","tol_toboard","","","","tol_peg_3","735","735","0","[[1,2,0],[0,0],[3]]","1","[[2,3,0],[0,0],[1]]","11","0","","","","","","4","","","","","","","","",""
"","","","","","single-stim-button","172","584355","0.0-2.0-43.1-0.1","61bb389740db417c1a138cad","C3","batch3","","1300","tol_tohand","","","","tol_peg_1","1300","1300","0","[[1,0,0],[0,0],[3]]","2","[[2,3,0],[0,0],[1]]","11","0","","","","","","4","","","","","","","","",""
"","","","","","single-stim-button","173","585557","0.0-2.0-43.1-1.1","61bb389740db417c1a138cad","C3","batch3","","1201","tol_toboard","","","","tol_peg_2","1201","1201","0","[[1,0,0],[2,0],[3]]","2","[[2,3,0],[0,0],[1]]","11","0","","","","","","4","","","","","","","","",""
"","","","","","single-stim-button","174","597313","0.0-2.0-43.2-0.2","61bb389740db417c1a138cad","C3","batch3","","11756","tol_tohand","","","","tol_peg_3","11756","11756","0","[[1,0,0],[2,0],[0]]","3","[[2,3,0],[0,0],[1]]","11","0","","","","","","4","","","","","","","","",""
"","","","","","single-stim-button","175","598281","0.0-2.0-43.2-1.2","61bb389740db417c1a138cad","C3","batch3","","968","tol_toboard","","","","tol_peg_2","968","968","0","[[1,0,0],[2,3],[0]]","3","[[2,3,0],[0,0],[1]]","11","0","","","","","","4","","","","","","","","",""
"","","","","","single-stim-button","176","599089","0.0-2.0-43.3-0.3","61bb389740db417c1a138cad","C3","batch3","","808","tol_tohand","","","","tol_peg_1","808","808","0","[[0,0,0],[2,3],[0]]","4","[[2,3,0],[0,0],[1]]","11","0","","","","","","4","","","","","","","","",""
"","","","","","single-stim-button","177","600319","0.0-2.0-43.3-1.3","61bb389740db417c1a138cad","C3","batch3","","1229","tol_toboard","","","","tol_peg_3","1229","1229","0","[[0,0,0],[2,3],[1]]","4","[[2,3,0],[0,0],[1]]","11","0","","","","","","4","","","","","","","","",""
"","","","","","single-stim-button","178","603250","0.0-2.0-43.4-0.4","61bb389740db417c1a138cad","C3","batch3","","2931","tol_tohand","","","","tol_peg_2","2931","2931","0","[[0,0,0],[2,0],[1]]","5","[[2,3,0],[0,0],[1]]","11","0","","","","","","4","","","","","","","","",""
"","","","","","single-stim-button","179","604268","0.0-2.0-43.4-1.4","61bb389740db417c1a138cad","C3","batch3","","1017","tol_toboard","","","","tol_peg_1","1017","1017","0","[[3,0,0],[2,0],[1]]","5","[[2,3,0],[0,0],[1]]","11","0","","","","","","4","","","","","","","","",""
"","","","","","single-stim-button","180","609359","0.0-2.0-43.5-0.5","61bb389740db417c1a138cad","C3","batch3","","5089","tol_tohand","","","","tol_peg_3","5089","5089","0","[[3,0,0],[2,0],[0]]","6","[[2,3,0],[0,0],[1]]","11","0","","","","","","4","","","","","","","","",""
"","","","","","single-stim-button","181","610333","0.0-2.0-43.5-1.5","61bb389740db417c1a138cad","C3","batch3","","974","tol_toboard","","","","tol_peg_1","974","974","0","[[3,1,0],[2,0],[0]]","6","[[2,3,0],[0,0],[1]]","11","0","","","","","","4","","","","","","","","",""
"","","","","","single-stim-button","182","611099","0.0-2.0-43.6-0.6","61bb389740db417c1a138cad","C3","batch3","","766","tol_tohand","","","","tol_peg_2","766","766","0","[[3,1,0],[0,0],[0]]","7","[[2,3,0],[0,0],[1]]","11","0","","","","","","4","","","","","","","","",""
"","","","","","single-stim-button","183","611966","0.0-2.0-43.6-1.6","61bb389740db417c1a138cad","C3","batch3","","867","tol_toboard","","","","tol_peg_3","867","867","0","[[3,1,0],[0,0],[2]]","7","[[2,3,0],[0,0],[1]]","11","0","","","","","","4","","","","","","","","",""
"","","","","","single-stim-button","184","612733","0.0-2.0-43.7-0.7","61bb389740db417c1a138cad","C3","batch3","","765","tol_tohand","","","","tol_peg_1","765","765","0","[[3,0,0],[0,0],[2]]","8","[[2,3,0],[0,0],[1]]","11","0","","","","","","4","","","","","","","","",""
"","","","","","single-stim-button","185","613826","0.0-2.0-43.7-1.7","61bb389740db417c1a138cad","C3","batch3","","1093","tol_toboard","","","","tol_peg_2","1093","1093","0","[[3,0,0],[1,0],[2]]","8","[[2,3,0],[0,0],[1]]","11","0","","","","","","4","","","","","","","","",""
"","","","","","single-stim-button","186","614856","0.0-2.0-43.8-0.8","61bb389740db417c1a138cad","C3","batch3","","1029","tol_tohand","","","","tol_peg_1","1029","1029","0","[[0,0,0],[1,0],[2]]","9","[[2,3,0],[0,0],[1]]","11","0","","","","","","4","","","","","","","","",""
"","","","","","single-stim-button","187","615790","0.0-2.0-43.8-1.8","61bb389740db417c1a138cad","C3","batch3","","934","tol_toboard","","","","tol_peg_2","934","934","0","[[0,0,0],[1,3],[2]]","9","[[2,3,0],[0,0],[1]]","11","0","","","","","","4","","","","","","","","",""
"","","","","","single-stim-button","188","616728","0.0-2.0-43.9-0.9","61bb389740db417c1a138cad","C3","batch3","","938","tol_tohand","","","","tol_peg_3","938","938","0","[[0,0,0],[1,3],[0]]","10","[[2,3,0],[0,0],[1]]","11","0","","","","","","4","","","","","","","","",""
"","","","","","single-stim-button","189","617792","0.0-2.0-43.9-1.9","61bb389740db417c1a138cad","C3","batch3","","1064","tol_toboard","","","","tol_peg_1","1064","1064","0","[[2,0,0],[1,3],[0]]","10","[[2,3,0],[0,0],[1]]","11","0","","","","","","4","","","","","","","","",""
"","","","","","single-stim-button","190","618710","0.0-2.0-43.10-0.10","61bb389740db417c1a138cad","C3","batch3","","917","tol_tohand","","","","tol_peg_2","917","917","0","[[2,0,0],[1,0],[0]]","11","[[2,3,0],[0,0],[1]]","11","0","","","","","","4","","","","","","","","",""
"","","","","","single-stim-button","191","619418","0.0-2.0-43.10-1.10","61bb389740db417c1a138cad","C3","batch3","","708","tol_toboard","","","","tol_peg_1","708","708","0","[[2,3,0],[1,0],[0]]","11","[[2,3,0],[0,0],[1]]","11","0","","","","","","4","","","","","","","","",""
"","","","","","single-stim-button","192","620296","0.0-2.0-43.11-0.11","61bb389740db417c1a138cad","C3","batch3","","878","tol_tohand","","","","tol_peg_2","878","878","0","[[2,3,0],[0,0],[0]]","12","[[2,3,0],[0,0],[1]]","11","0","","","","","","4","","","","","","","","",""
"","","","","","single-stim-button","193","621642","0.0-2.0-43.11-1.11","61bb389740db417c1a138cad","C3","batch3","","1345","tol_toboard","","","","tol_peg_3","1345","1345","0","[[2,3,0],[0,0],[1]]","12","[[2,3,0],[0,0],[1]]","11","0","","","","","","4","","","","","","","","",""
"","","","","","poldrack-single-stim","194","622643","0.0-2.0-44.0","61bb389740db417c1a138cad","C3","batch3","","-1","tol_feedback","","","true","","1000","1000","500","","","","","","-1","none","true","11832","39009","","","","","","","","","",""
"","","","","","html-button-response","195","624118","0.0-2.0-45.0","61bb389740db417c1a138cad","C3","batch3","","1473.5","tol_trial_num","<div class = centerbox><p class = center-block-text>problem <strong>13</strong> out of 25 problems</p></div>","0","","","","","","","","","","","","","","","","","","","","","","","","",""
"","","","","","single-stim-button","196","630646","0.0-2.0-46.0-0.0","61bb389740db417c1a138cad","C3","batch3","","6528","tol_tohand","","","","tol_peg_1","6528","6528","0","[[1,0,0],[3,0],[0]]","1","[[0,0,0],[2,3],[1]]","12","0","","","","","","4","","","","","","","","",""
"","","","","","single-stim-button","197","633390","0.0-2.0-46.0-1.0","61bb389740db417c1a138cad","C3","batch3","","2743","tol_toboard","","","","tol_peg_1","2743","2743","0","[[1,2,0],[3,0],[0]]","1","[[0,0,0],[2,3],[1]]","12","0","","","","","","4","","","","","","","","",""
"","","","","","single-stim-button","198","638335","0.0-2.0-46.1-0.1","61bb389740db417c1a138cad","C3","batch3","","4944","tol_tohand","","","","tol_peg_2","4944","4944","0","[[1,2,0],[0,0],[0]]","2","[[0,0,0],[2,3],[1]]","12","0","","","","","","4","","","","","","","","",""
"","","","","","single-stim-button","199","646024","0.0-2.0-46.1-1.1","61bb389740db417c1a138cad","C3","batch3","","7688","tol_toboard","","","","tol_peg_3","7688","7688","0","[[1,2,0],[0,0],[3]]","2","[[0,0,0],[2,3],[1]]","12","0","","","","","","4","","","","","","","","",""
"","","","","","single-stim-button","200","647074","0.0-2.0-46.2-0.2","61bb389740db417c1a138cad","C3","batch3","","1049","tol_tohand","","","","tol_peg_1","1049","1049","0","[[1,0,0],[0,0],[3]]","3","[[0,0,0],[2,3],[1]]","12","0","","","","","","4","","","","","","","","",""
"","","","","","single-stim-button","201","648324","0.0-2.0-46.2-1.2","61bb389740db417c1a138cad","C3","batch3","","1250","tol_toboard","","","","tol_peg_2","1250","1250","0","[[1,0,0],[2,0],[3]]","3","[[0,0,0],[2,3],[1]]","12","0","","","","","","4","","","","","","","","",""
"","","","","","single-stim-button","202","649096","0.0-2.0-46.3-0.3","61bb389740db417c1a138cad","C3","batch3","","772","tol_tohand","","","","tol_peg_3","772","772","0","[[1,0,0],[2,0],[0]]","4","[[0,0,0],[2,3],[1]]","12","0","","","","","","4","","","","","","","","",""
"","","","","","single-stim-button","203","649882","0.0-2.0-46.3-1.3","61bb389740db417c1a138cad","C3","batch3","","786","tol_toboard","","","","tol_peg_2","786","786","0","[[1,0,0],[2,3],[0]]","4","[[0,0,0],[2,3],[1]]","12","0","","","","","","4","","","","","","","","",""
"","","","","","single-stim-button","204","651062","0.0-2.0-46.4-0.4","61bb389740db417c1a138cad","C3","batch3","","1179","tol_tohand","","","","tol_peg_1","1179","1179","0","[[0,0,0],[2,3],[0]]","5","[[0,0,0],[2,3],[1]]","12","0","","","","","","4","","","","","","","","",""
"","","","","","single-stim-button","205","651916","0.0-2.0-46.4-1.4","61bb389740db417c1a138cad","C3","batch3","","854","tol_toboard","","","","tol_peg_3","854","854","0","[[0,0,0],[2,3],[1]]","5","[[0,0,0],[2,3],[1]]","12","0","","","","","","4","","","","","","","","",""
"","","","","","poldrack-single-stim","206","652919","0.0-2.0-47.0","61bb389740db417c1a138cad","C3","batch3","","-1","tol_feedback","","","true","","1000","1000","500","","","","","","-1","none","true","6528","14472","","","","","","","","","",""
"","","","","","html-button-response","207","657110","0.0-2.0-48.0","61bb389740db417c1a138cad","C3","batch3","","4189.799999952316","attention_check","<p class = block-text>How many balls are in your board<br></p>","1","true","","","","","","","","","","","","","","","","","","","","","","","",""
"","","","","","html-button-response","208","658522","0.0-2.0-49.0","61bb389740db417c1a138cad","C3","batch3","","1411.2000000476837","tol_trial_num","<div class = centerbox><p class = center-block-text>problem <strong>14</strong> out of 25 problems</p></div>","0","","","","","","","","","","","","","","","","","","","","","","","","",""
"","","","","","single-stim-button","209","665422","0.0-2.0-50.0-0.0","61bb389740db417c1a138cad","C3","batch3","","6900","tol_tohand","","","","tol_peg_1","6900","6900","0","[[2,0,0],[3,0],[0]]","1","[[1,2,0],[3,0],[0]]","13","0","","","","","","4","","","","","","","","",""
"","","","","","single-stim-button","210","666834","0.0-2.0-50.0-1.0","61bb389740db417c1a138cad","C3","batch3","","1412","tol_toboard","","","","tol_peg_2","1412","1412","0","[[2,0,0],[3,1],[0]]","1","[[1,2,0],[3,0],[0]]","13","0","","","","","","4","","","","","","","","",""
"","","","","","single-stim-button","211","667566","0.0-2.0-50.1-0.1","61bb389740db417c1a138cad","C3","batch3","","731","tol_tohand","","","","tol_peg_1","731","731","0","[[0,0,0],[3,1],[0]]","2","[[1,2,0],[3,0],[0]]","13","0","","","","","","4","","","","","","","","",""
"","","","","","single-stim-button","212","668540","0.0-2.0-50.1-1.1","61bb389740db417c1a138cad","C3","batch3","","974","tol_toboard","","","","tol_peg_3","974","974","0","[[0,0,0],[3,1],[2]]","2","[[1,2,0],[3,0],[0]]","13","0","","","","","","4","","","","","","","","",""
"","","","","","single-stim-button","213","669250","0.0-2.0-50.2-0.2","61bb389740db417c1a138cad","C3","batch3","","710","tol_tohand","","","","tol_peg_2","710","710","0","[[0,0,0],[3,0],[2]]","3","[[1,2,0],[3,0],[0]]","13","0","","","","","","4","","","","","","","","",""
"","","","","","single-stim-button","214","669962","0.0-2.0-50.2-1.2","61bb389740db417c1a138cad","C3","batch3","","712","tol_toboard","","","","tol_peg_1","712","712","0","[[1,0,0],[3,0],[2]]","3","[[1,2,0],[3,0],[0]]","13","0","","","","","","4","","","","","","","","",""
"","","","","","single-stim-button","215","670730","0.0-2.0-50.3-0.3","61bb389740db417c1a138cad","C3","batch3","","768","tol_tohand","","","","tol_peg_3","768","768","0","[[1,0,0],[3,0],[0]]","4","[[1,2,0],[3,0],[0]]","13","0","","","","","","4","","","","","","","","",""
"","","","","","single-stim-button","216","671768","0.0-2.0-50.3-1.3","61bb389740db417c1a138cad","C3","batch3","","1038","tol_toboard","","","","tol_peg_1","1038","1038","0","[[1,2,0],[3,0],[0]]","4","[[1,2,0],[3,0],[0]]","13","0","","","","","","4","","","","","","","","",""
"","","","","","poldrack-single-stim","217","672770","0.0-2.0-51.0","61bb389740db417c1a138cad","C3","batch3","","-1","tol_feedback","","","true","","1000","1000","500","","","","","","-1","none","true","6900","9109","","","","","","","","","",""
"","","","","","html-button-response","218","674154","0.0-2.0-52.0","61bb389740db417c1a138cad","C3","batch3","","1382.7000000476837","tol_trial_num","<div class = centerbox><p class = center-block-text>problem <strong>15</strong> out of 25 problems</p></div>","0","","","","","","","","","","","","","","","","","","","","","","","","",""
"","","","","","single-stim-button","219","679734","0.0-2.0-53.0-0.0","61bb389740db417c1a138cad","C3","batch3","","5580","tol_tohand","","","","tol_peg_1","5580","5580","0","[[1,0,0],[3,0],[0]]","1","[[2,0,0],[3,0],[1]]","14","0","","","","","","3","","","","","","","","",""
"","","","","","single-stim-button","220","680400","0.0-2.0-53.0-1.0","61bb389740db417c1a138cad","C3","batch3","","666","tol_toboard","","","","tol_peg_2","666","666","0","[[1,0,0],[3,2],[0]]","1","[[2,0,0],[3,0],[1]]","14","0","","","","","","3","","","","","","","","",""
"","","","","","single-stim-button","221","681136","0.0-2.0-53.1-0.1","61bb389740db417c1a138cad","C3","batch3","","736","tol_tohand","","","","tol_peg_1","736","736","0","[[0,0,0],[3,2],[0]]","2","[[2,0,0],[3,0],[1]]","14","0","","","","","","3","","","","","","","","",""
"","","","","","single-stim-button","222","682000","0.0-2.0-53.1-1.1","61bb389740db417c1a138cad","C3","batch3","","863","tol_toboard","","","","tol_peg_3","863","863","0","[[0,0,0],[3,2],[1]]","2","[[2,0,0],[3,0],[1]]","14","0","","","","","","3","","","","","","","","",""
"","","","","","single-stim-button","223","682878","0.0-2.0-53.2-0.2","61bb389740db417c1a138cad","C3","batch3","","878","tol_tohand","","","","tol_peg_2","878","878","0","[[0,0,0],[3,0],[1]]","3","[[2,0,0],[3,0],[1]]","14","0","","","","","","3","","","","","","","","",""
"","","","","","single-stim-button","224","684134","0.0-2.0-53.2-1.2","61bb389740db417c1a138cad","C3","batch3","","1256","tol_toboard","","","","tol_peg_1","1256","1256","0","[[2,0,0],[3,0],[1]]","3","[[2,0,0],[3,0],[1]]","14","0","","","","","","3","","","","","","","","",""
"","","","","","poldrack-single-stim","225","685150","0.0-2.0-54.0","61bb389740db417c1a138cad","C3","batch3","","-1","tol_feedback","","","true","","1000","1000","500","","","","","","-1","none","true","5580","7194","","","","","","","","","",""
"","","","","","html-button-response","226","687152","0.0-2.0-55.0","61bb389740db417c1a138cad","C3","batch3","","2001.2000000476837","tol_trial_num","<div class = centerbox><p class = center-block-text>problem <strong>16</strong> out of 25 problems</p></div>","0","","","","","","","","","","","","","","","","","","","","","","","","",""
"","","","","","single-stim-button","227","704890","0.0-2.0-56.0-0.0","61bb389740db417c1a138cad","C3","batch3","","17737","tol_tohand","","","","tol_peg_3","17737","17737","0","[[0,0,0],[2,3],[0]]","1","[[2,3,0],[1,0],[0]]","15","0","","","","","","7","","","","","","","","",""
"","","","","","single-stim-button","228","705844","0.0-2.0-56.0-1.0","61bb389740db417c1a138cad","C3","batch3","","954","tol_toboard","","","","tol_peg_1","954","954","0","[[1,0,0],[2,3],[0]]","1","[[2,3,0],[1,0],[0]]","15","0","","","","","","7","","","","","","","","",""
"","","","","","single-stim-button","229","706686","0.0-2.0-56.1-0.1","61bb389740db417c1a138cad","C3","batch3","","842","tol_tohand","","","","tol_peg_2","842","842","0","[[1,0,0],[2,0],[0]]","2","[[2,3,0],[1,0],[0]]","15","0","","","","","","7","","","","","","","","",""
"","","","","","single-stim-button","230","707916","0.0-2.0-56.1-1.1","61bb389740db417c1a138cad","C3","batch3","","1230","tol_toboard","","","","tol_peg_3","1230","1230","0","[[1,0,0],[2,0],[3]]","2","[[2,3,0],[1,0],[0]]","15","0","","","","","","7","","","","","","","","",""
"","","","","","single-stim-button","231","712406","0.0-2.0-56.2-0.2","61bb389740db417c1a138cad","C3","batch3","","4489","tol_tohand","","","","tol_peg_2","4489","4489","0","[[1,0,0],[0,0],[3]]","3","[[2,3,0],[1,0],[0]]","15","0","","","","","","7","","","","","","","","",""
"","","","","","single-stim-button","232","713454","0.0-2.0-56.2-1.2","61bb389740db417c1a138cad","C3","batch3","","1048","tol_toboard","","","","tol_peg_1","1048","1048","0","[[1,2,0],[0,0],[3]]","3","[[2,3,0],[1,0],[0]]","15","0","","","","","","7","","","","","","","","",""
"","","","","","single-stim-button","233","716722","0.0-2.0-56.3-0.3","61bb389740db417c1a138cad","C3","batch3","","3267","tol_tohand","","","","tol_peg_3","3267","3267","0","[[1,2,0],[0,0],[0]]","4","[[2,3,0],[1,0],[0]]","15","0","","","","","","7","","","","","","","","",""
"","","","","","single-stim-button","234","717838","0.0-2.0-56.3-1.3","61bb389740db417c1a138cad","C3","batch3","","1115","tol_toboard","","","","tol_peg_2","1115","1115","0","[[1,2,0],[3,0],[0]]","4","[[2,3,0],[1,0],[0]]","15","0","","","","","","7","","","","","","","","",""
"","","","","","single-stim-button","235","718660","0.0-2.0-56.4-0.4","61bb389740db417c1a138cad","C3","batch3","","821","tol_tohand","","","","tol_peg_1","821","821","0","[[1,0,0],[3,0],[0]]","5","[[2,3,0],[1,0],[0]]","15","0","","","","","","7","","","","","","","","",""
"","","","","","single-stim-button","236","719678","0.0-2.0-56.4-1.4","61bb389740db417c1a138cad","C3","batch3","","1018","tol_toboard","","","","tol_peg_2","1018","1018","0","[[1,0,0],[3,2],[0]]","5","[[2,3,0],[1,0],[0]]","15","0","","","","","","7","","","","","","","","",""
"","","","","","single-stim-button","237","720562","0.0-2.0-56.5-0.5","61bb389740db417c1a138cad","C3","batch3","","884","tol_tohand","","","","tol_peg_1","884","884","0","[[0,0,0],[3,2],[0]]","6","[[2,3,0],[1,0],[0]]","15","0","","","","","","7","","","","","","","","",""
"","","","","","single-stim-button","238","721656","0.0-2.0-56.5-1.5","61bb389740db417c1a138cad","C3","batch3","","1094","tol_toboard","","","","tol_peg_3","1094","1094","0","[[0,0,0],[3,2],[1]]","6","[[2,3,0],[1,0],[0]]","15","0","","","","","","7","","","","","","","","",""
"","","","","","single-stim-button","239","722372","0.0-2.0-56.6-0.6","61bb389740db417c1a138cad","C3","batch3","","716","tol_tohand","","","","tol_peg_2","716","716","0","[[0,0,0],[3,0],[1]]","7","[[2,3,0],[1,0],[0]]","15","0","","","","","","7","","","","","","","","",""
"","","","","","single-stim-button","240","723426","0.0-2.0-56.6-1.6","61bb389740db417c1a138cad","C3","batch3","","1053","tol_toboard","","","","tol_peg_1","1053","1053","0","[[2,0,0],[3,0],[1]]","7","[[2,3,0],[1,0],[0]]","15","0","","","","","","7","","","","","","","","",""
"","","","","","single-stim-button","241","724224","0.0-2.0-56.7-0.7","61bb389740db417c1a138cad","C3","batch3","","797","tol_tohand","","","","tol_peg_2","797","797","0","[[2,0,0],[0,0],[1]]","8","[[2,3,0],[1,0],[0]]","15","0","","","","","","7","","","","","","","","",""
"","","","","","single-stim-button","242","725116","0.0-2.0-56.7-1.7","61bb389740db417c1a138cad","C3","batch3","","892","tol_toboard","","","","tol_peg_1","892","892","0","[[2,3,0],[0,0],[1]]","8","[[2,3,0],[1,0],[0]]","15","0","","","","","","7","","","","","","","","",""
"","","","","","single-stim-button","243","731592","0.0-2.0-56.8-0.8","61bb389740db417c1a138cad","C3","batch3","","6475","tol_tohand","","","","tol_peg_3","6475","6475","0","[[2,3,0],[0,0],[0]]","9","[[2,3,0],[1,0],[0]]","15","0","","","","","","7","","","","","","","","",""
"","","","","","single-stim-button","244","732526","0.0-2.0-56.8-1.8","61bb389740db417c1a138cad","C3","batch3","","934","tol_toboard","","","","tol_peg_2","934","934","0","[[2,3,0],[1,0],[0]]","9","[[2,3,0],[1,0],[0]]","15","0","","","","","","7","","","","","","","","",""
"","","","","","poldrack-single-stim","245","733542","0.0-2.0-57.0","61bb389740db417c1a138cad","C3","batch3","","-1","tol_feedback","","","true","","1000","1000","500","","","","","","-1","none","true","17737","36028","","","","","","","","","",""
"","","","","","html-button-response","246","741328","0.0-2.0-58.0","61bb389740db417c1a138cad","C3","batch3","","7784.600000143051","tol_trial_num","<div class = centerbox><p class = center-block-text>problem <strong>17</strong> out of 25 problems</p></div>","0","","","","","","","","","","","","","","","","","","","","","","","","",""
"","","","","","single-stim-button","247","794140","0.0-2.0-59.0-0.0","61bb389740db417c1a138cad","C3","batch3","","52812","tol_tohand","","","","tol_peg_2","52812","52812","0","[[1,2,0],[0,0],[0]]","1","[[3,1,0],[2,0],[0]]","16","0","","","","","","5","","","","","","","","",""
"","","","","","single-stim-button","248","795058","0.0-2.0-59.0-1.0","61bb389740db417c1a138cad","C3","batch3","","917","tol_toboard","","","","tol_peg_3","917","917","0","[[1,2,0],[0,0],[3]]","1","[[3,1,0],[2,0],[0]]","16","0","","","","","","5","","","","","","","","",""
"","","","","","single-stim-button","249","796052","0.0-2.0-59.1-0.1","61bb389740db417c1a138cad","C3","batch3","","994","tol_tohand","","","","tol_peg_1","994","994","0","[[1,0,0],[0,0],[3]]","2","[[3,1,0],[2,0],[0]]","16","0","","","","","","5","","","","","","","","",""
"","","","","","single-stim-button","250","797182","0.0-2.0-59.1-1.1","61bb389740db417c1a138cad","C3","batch3","","1130","tol_toboard","","","","tol_peg_2","1130","1130","0","[[1,0,0],[2,0],[3]]","2","[[3,1,0],[2,0],[0]]","16","0","","","","","","5","","","","","","","","",""
"","","","","","single-stim-button","251","798054","0.0-2.0-59.2-0.2","61bb389740db417c1a138cad","C3","batch3","","872","tol_tohand","","","","tol_peg_1","872","872","0","[[0,0,0],[2,0],[3]]","3","[[3,1,0],[2,0],[0]]","16","0","","","","","","5","","","","","","","","",""
"","","","","","single-stim-button","252","798882","0.0-2.0-59.2-1.2","61bb389740db417c1a138cad","C3","batch3","","827","tol_toboard","","","","tol_peg_2","827","827","0","[[0,0,0],[2,1],[3]]","3","[[3,1,0],[2,0],[0]]","16","0","","","","","","5","","","","","","","","",""
"","","","","","single-stim-button","253","799754","0.0-2.0-59.3-0.3","61bb389740db417c1a138cad","C3","batch3","","871","tol_tohand","","","","tol_peg_3","871","871","0","[[0,0,0],[2,1],[0]]","4","[[3,1,0],[2,0],[0]]","16","0","","","","","","5","","","","","","","","",""
"","","","","","single-stim-button","254","800754","0.0-2.0-59.3-1.3","61bb389740db417c1a138cad","C3","batch3","","999","tol_toboard","","","","tol_peg_1","999","999","0","[[3,0,0],[2,1],[0]]","4","[[3,1,0],[2,0],[0]]","16","0","","","","","","5","","","","","","","","",""
"","","","","","single-stim-button","255","801510","0.0-2.0-59.4-0.4","61bb389740db417c1a138cad","C3","batch3","","756","tol_tohand","","","","tol_peg_2","756","756","0","[[3,0,0],[2,0],[0]]","5","[[3,1,0],[2,0],[0]]","16","0","","","","","","5","","","","","","","","",""
"","","","","","single-stim-button","256","802292","0.0-2.0-59.4-1.4","61bb389740db417c1a138cad","C3","batch3","","782","tol_toboard","","","","tol_peg_1","782","782","0","[[3,1,0],[2,0],[0]]","5","[[3,1,0],[2,0],[0]]","16","0","","","","","","5","","","","","","","","",""
"","","","","","poldrack-single-stim","257","803294","0.0-2.0-60.0","61bb389740db417c1a138cad","C3","batch3","","-1","tol_feedback","","","true","","1000","1000","500","","","","","","-1","none","true","52812","56305","","","","","","","","","",""
"","","","","","html-button-response","258","804798","0.0-2.0-61.0","61bb389740db417c1a138cad","C3","batch3","","1502.7999999523163","tol_trial_num","<div class = centerbox><p class = center-block-text>problem <strong>18</strong> out of 25 problems</p></div>","0","","","","","","","","","","","","","","","","","","","","","","","","",""
"","","","","","single-stim-button","259","820732","0.0-2.0-62.0-0.0","61bb389740db417c1a138cad","C3","batch3","","15934","tol_tohand","","","","tol_peg_2","15934","15934","0","[[1,2,0],[0,0],[0]]","1","[[3,0,0],[2,0],[1]]","17","0","","","","","","5","","","","","","","","",""
"","","","","","single-stim-button","260","821644","0.0-2.0-62.0-1.0","61bb389740db417c1a138cad","C3","batch3","","912","tol_toboard","","","","tol_peg_3","912","912","0","[[1,2,0],[0,0],[3]]","1","[[3,0,0],[2,0],[1]]","17","0","","","","","","5","","","","","","","","",""
"","","","","","single-stim-button","261","822508","0.0-2.0-62.1-0.1","61bb389740db417c1a138cad","C3","batch3","","863","tol_tohand","","","","tol_peg_1","863","863","0","[[1,0,0],[0,0],[3]]","2","[[3,0,0],[2,0],[1]]","17","0","","","","","","5","","","","","","","","",""
"","","","","","single-stim-button","262","823384","0.0-2.0-62.1-1.1","61bb389740db417c1a138cad","C3","batch3","","876","tol_toboard","","","","tol_peg_2","876","876","0","[[1,0,0],[2,0],[3]]","2","[[3,0,0],[2,0],[1]]","17","0","","","","","","5","","","","","","","","",""
"","","","","","single-stim-button","263","824292","0.0-2.0-62.2-0.2","61bb389740db417c1a138cad","C3","batch3","","908","tol_tohand","","","","tol_peg_1","908","908","0","[[0,0,0],[2,0],[3]]","3","[[3,0,0],[2,0],[1]]","17","0","","","","","","5","","","","","","","","",""
"","","","","","single-stim-button","264","825392","0.0-2.0-62.2-1.2","61bb389740db417c1a138cad","C3","batch3","","1100","tol_toboard","","","","tol_peg_2","1100","1100","0","[[0,0,0],[2,1],[3]]","3","[[3,0,0],[2,0],[1]]","17","0","","","","","","5","","","","","","","","",""
"","","","","","single-stim-button","265","826294","0.0-2.0-62.3-0.3","61bb389740db417c1a138cad","C3","batch3","","902","tol_tohand","","","","tol_peg_3","902","902","0","[[0,0,0],[2,1],[0]]","4","[[3,0,0],[2,0],[1]]","17","0","","","","","","5","","","","","","","","",""
"","","","","","single-stim-button","266","827516","0.0-2.0-62.3-1.3","61bb389740db417c1a138cad","C3","batch3","","1221","tol_toboard","","","","tol_peg_1","1221","1221","0","[[3,0,0],[2,1],[0]]","4","[[3,0,0],[2,0],[1]]","17","0","","","","","","5","","","","","","","","",""
"","","","","","single-stim-button","267","828434","0.0-2.0-62.4-0.4","61bb389740db417c1a138cad","C3","batch3","","918","tol_tohand","","","","tol_peg_2","918","918","0","[[3,0,0],[2,0],[0]]","5","[[3,0,0],[2,0],[1]]","17","0","","","","","","5","","","","","","","","",""
"","","","","","single-stim-button","268","829568","0.0-2.0-62.4-1.4","61bb389740db417c1a138cad","C3","batch3","","1134","tol_toboard","","","","tol_peg_3","1134","1134","0","[[3,0,0],[2,0],[1]]","5","[[3,0,0],[2,0],[1]]","17","0","","","","","","5","","","","","","","","",""
"","","","","","poldrack-single-stim","269","830584","0.0-2.0-63.0","61bb389740db417c1a138cad","C3","batch3","","-1","tol_feedback","","","true","","1000","1000","500","","","","","","-1","none","true","15934","19525","","","","","","","","","",""
"","","","","","html-button-response","270","831788","0.0-2.0-64.0","61bb389740db417c1a138cad","C3","batch3","","1203.1000001430511","tol_trial_num","<div class = centerbox><p class = center-block-text>problem <strong>19</strong> out of 25 problems</p></div>","0","","","","","","","","","","","","","","","","","","","","","","","","",""
"","","","","","single-stim-button","271","858657","0.0-2.0-65.0-0.0","61bb389740db417c1a138cad","C3","batch3","","26868","tol_tohand","","","","tol_peg_1","26868","26868","0","[[1,0,0],[3,0],[0]]","1","[[0,0,0],[1,2],[3]]","18","0","","","","","","7","","","","","","","","",""
"","","","","","single-stim-button","272","864412","0.0-2.0-65.0-1.0","61bb389740db417c1a138cad","C3","batch3","","5755","tol_toboard","","","","tol_peg_1","5755","5755","0","[[1,2,0],[3,0],[0]]","1","[[0,0,0],[1,2],[3]]","18","0","","","","","","7","","","","","","","","",""
"","","","","","single-stim-button","273","888305","0.0-2.0-65.1-0.1","61bb389740db417c1a138cad","C3","batch3","","23891","tol_tohand","","","","tol_peg_1","23891","23891","0","[[1,0,0],[3,0],[0]]","2","[[0,0,0],[1,2],[3]]","18","0","","","","","","7","","","","","","","","",""
"","","","","","single-stim-button","274","891555","0.0-2.0-65.1-1.1","61bb389740db417c1a138cad","C3","batch3","","3249","tol_toboard","","","","tol_peg_3","3249","3249","0","[[1,0,0],[3,0],[2]]","2","[[0,0,0],[1,2],[3]]","18","0","","","","","","7","","","","","","","","",""
"","","","","","single-stim-button","275","893178","0.0-2.0-65.2-0.2","61bb389740db417c1a138cad","C3","batch3","","1623","tol_tohand","","","","tol_peg_1","1623","1623","0","[[0,0,0],[3,0],[2]]","3","[[0,0,0],[1,2],[3]]","18","0","","","","","","7","","","","","","","","",""
"","","","","","single-stim-button","276","894146","0.0-2.0-65.2-1.2","61bb389740db417c1a138cad","C3","batch3","","967","tol_toboard","","","","tol_peg_2","967","967","0","[[0,0,0],[3,1],[2]]","3","[[0,0,0],[1,2],[3]]","18","0","","","","","","7","","","","","","","","",""
"","","","","","single-stim-button","277","897259","0.0-2.0-65.3-0.3","61bb389740db417c1a138cad","C3","batch3","","3111","tol_tohand","","","","tol_peg_3","3111","3111","0","[[0,0,0],[3,1],[0]]","4","[[0,0,0],[1,2],[3]]","18","0","","","","","","7","","","","","","","","",""
"","","","","","single-stim-button","278","898096","0.0-2.0-65.3-1.3","61bb389740db417c1a138cad","C3","batch3","","837","tol_toboard","","","","tol_peg_1","837","837","0","[[2,0,0],[3,1],[0]]","4","[[0,0,0],[1,2],[3]]","18","0","","","","","","7","","","","","","","","",""
"","","","","","single-stim-button","279","899908","0.0-2.0-65.4-0.4","61bb389740db417c1a138cad","C3","batch3","","1811","tol_tohand","","","","tol_peg_2","1811","1811","0","[[2,0,0],[3,0],[0]]","5","[[0,0,0],[1,2],[3]]","18","0","","","","","","7","","","","","","","","",""
"","","","","","single-stim-button","280","901214","0.0-2.0-65.4-1.4","61bb389740db417c1a138cad","C3","batch3","","1305","tol_toboard","","","","tol_peg_1","1305","1305","0","[[2,1,0],[3,0],[0]]","5","[[0,0,0],[1,2],[3]]","18","0","","","","","","7","","","","","","","","",""
"","","","","","single-stim-button","281","901941","0.0-2.0-65.5-0.5","61bb389740db417c1a138cad","C3","batch3","","725","tol_tohand","","","","tol_peg_2","725","725","0","[[2,1,0],[0,0],[0]]","6","[[0,0,0],[1,2],[3]]","18","0","","","","","","7","","","","","","","","",""
"","","","","","single-stim-button","282","903146","0.0-2.0-65.5-1.5","61bb389740db417c1a138cad","C3","batch3","","1205","tol_toboard","","","","tol_peg_3","1205","1205","0","[[2,1,0],[0,0],[3]]","6","[[0,0,0],[1,2],[3]]","18","0","","","","","","7","","","","","","","","",""
"","","","","","single-stim-button","283","903839","0.0-2.0-65.6-0.6","61bb389740db417c1a138cad","C3","batch3","","691","tol_tohand","","","","tol_peg_1","691","691","0","[[2,0,0],[0,0],[3]]","7","[[0,0,0],[1,2],[3]]","18","0","","","","","","7","","","","","","","","",""
"","","","","","single-stim-button","284","904806","0.0-2.0-65.6-1.6","61bb389740db417c1a138cad","C3","batch3","","967","tol_toboard","","","","tol_peg_2","967","967","0","[[2,0,0],[1,0],[3]]","7","[[0,0,0],[1,2],[3]]","18","0","","","","","","7","","","","","","","","",""
"","","","","","single-stim-button","285","905486","0.0-2.0-65.7-0.7","61bb389740db417c1a138cad","C3","batch3","","679","tol_tohand","","","","tol_peg_1","679","679","0","[[0,0,0],[1,0],[3]]","8","[[0,0,0],[1,2],[3]]","18","0","","","","","","7","","","","","","","","",""
"","","","","","single-stim-button","286","906138","0.0-2.0-65.7-1.7","61bb389740db417c1a138cad","C3","batch3","","652","tol_toboard","","","","tol_peg_2","652","652","0","[[0,0,0],[1,2],[3]]","8","[[0,0,0],[1,2],[3]]","18","0","","","","","","7","","","","","","","","",""
"","","","","","poldrack-single-stim","287","907153","0.0-2.0-66.0","61bb389740db417c1a138cad","C3","batch3","","-1","tol_feedback","","","true","","1000","1000","500","","","","","","-1","none","true","26868","59399","","","","","","","","","",""
"","","","","","html-button-response","288","908564","0.0-2.0-67.0","61bb389740db417c1a138cad","C3","batch3","","1409.7999999523163","tol_trial_num","<div class = centerbox><p class = center-block-text>problem <strong>20</strong> out of 25 problems</p></div>","0","","","","","","","","","","","","","","","","","","","","","","","","",""
"","","","","","single-stim-button","289","933819","0.0-2.0-68.0-0.0","61bb389740db417c1a138cad","C3","batch3","","25253","tol_tohand","","","","tol_peg_1","25253","25253","0","[[1,0,0],[3,0],[0]]","1","[[2,1,0],[0,0],[3]]","19","0","","","","","","5","","","","","","","","",""
"","","","","","single-stim-button","290","934988","0.0-2.0-68.0-1.0","61bb389740db417c1a138cad","C3","batch3","","1169","tol_toboard","","","","tol_peg_3","1169","1169","0","[[1,0,0],[3,0],[2]]","1","[[2,1,0],[0,0],[3]]","19","0","","","","","","5","","","","","","","","",""
"","","","","","single-stim-button","291","935775","0.0-2.0-68.1-0.1","61bb389740db417c1a138cad","C3","batch3","","787","tol_tohand","","","","tol_peg_1","787","787","0","[[0,0,0],[3,0],[2]]","2","[[2,1,0],[0,0],[3]]","19","0","","","","","","5","","","","","","","","",""
"","","","","","single-stim-button","292","936466","0.0-2.0-68.1-1.1","61bb389740db417c1a138cad","C3","batch3","","691","tol_toboard","","","","tol_peg_2","691","691","0","[[0,0,0],[3,1],[2]]","2","[[2,1,0],[0,0],[3]]","19","0","","","","","","5","","","","","","","","",""
"","","","","","single-stim-button","293","937232","0.0-2.0-68.2-0.2","61bb389740db417c1a138cad","C3","batch3","","766","tol_tohand","","","","tol_peg_3","766","766","0","[[0,0,0],[3,1],[0]]","3","[[2,1,0],[0,0],[3]]","19","0","","","","","","5","","","","","","","","",""
"","","","","","single-stim-button","294","938382","0.0-2.0-68.2-1.2","61bb389740db417c1a138cad","C3","batch3","","1149","tol_toboard","","","","tol_peg_1","1149","1149","0","[[2,0,0],[3,1],[0]]","3","[[2,1,0],[0,0],[3]]","19","0","","","","","","5","","","","","","","","",""
"","","","","","single-stim-button","295","939168","0.0-2.0-68.3-0.3","61bb389740db417c1a138cad","C3","batch3","","785","tol_tohand","","","","tol_peg_2","785","785","0","[[2,0,0],[3,0],[0]]","4","[[2,1,0],[0,0],[3]]","19","0","","","","","","5","","","","","","","","",""
"","","","","","single-stim-button","296","940032","0.0-2.0-68.3-1.3","61bb389740db417c1a138cad","C3","batch3","","863","tol_toboard","","","","tol_peg_1","863","863","0","[[2,1,0],[3,0],[0]]","4","[[2,1,0],[0,0],[3]]","19","0","","","","","","5","","","","","","","","",""
"","","","","","single-stim-button","297","940858","0.0-2.0-68.4-0.4","61bb389740db417c1a138cad","C3","batch3","","826","tol_tohand","","","","tol_peg_2","826","826","0","[[2,1,0],[0,0],[0]]","5","[[2,1,0],[0,0],[3]]","19","0","","","","","","5","","","","","","","","",""
"","","","","","single-stim-button","298","941772","0.0-2.0-68.4-1.4","61bb389740db417c1a138cad","C3","batch3","","913","tol_toboard","","","","tol_peg_3","913","913","0","[[2,1,0],[0,0],[3]]","5","[[2,1,0],[0,0],[3]]","19","0","","","","","","5","","","","","","","","",""
"","","","","","poldrack-single-stim","299","942789","0.0-2.0-69.0","61bb389740db417c1a138cad","C3","batch3","","-1","tol_feedback","","","true","","1000","1000","500","","","","","","-1","none","true","25253","28417","","","","","","","","","",""
"","","","","","html-button-response","300","944192","0.0-2.0-70.0","61bb389740db417c1a138cad","C3","batch3","","1402.3000001907349","tol_trial_num","<div class = centerbox><p class = center-block-text>problem <strong>21</strong> out of 25 problems</p></div>","0","","","","","","","","","","","","","","","","","","","","","","","","",""
"","","","","","single-stim-button","301","968478","0.0-2.0-71.0-0.0","61bb389740db417c1a138cad","C3","batch3","","24286","tol_tohand","","","","tol_peg_2","24286","24286","0","[[1,2,0],[0,0],[0]]","1","[[3,2,0],[0,0],[1]]","20","0","","","","","","6","","","","","","","","",""
"","","","","","single-stim-button","302","969780","0.0-2.0-71.0-1.0","61bb389740db417c1a138cad","C3","batch3","","1301","tol_toboard","","","","tol_peg_3","1301","1301","0","[[1,2,0],[0,0],[3]]","1","[[3,2,0],[0,0],[1]]","20","0","","","","","","6","","","","","","","","",""
"","","","","","single-stim-button","303","971434","0.0-2.0-71.1-0.1","61bb389740db417c1a138cad","C3","batch3","","1654","tol_tohand","","","","tol_peg_1","1654","1654","0","[[1,0,0],[0,0],[3]]","2","[[3,2,0],[0,0],[1]]","20","0","","","","","","6","","","","","","","","",""
"","","","","","single-stim-button","304","972472","0.0-2.0-71.1-1.1","61bb389740db417c1a138cad","C3","batch3","","1038","tol_toboard","","","","tol_peg_2","1038","1038","0","[[1,0,0],[2,0],[3]]","2","[[3,2,0],[0,0],[1]]","20","0","","","","","","6","","","","","","","","",""
"","","","","","single-stim-button","305","975524","0.0-2.0-71.2-0.2","61bb389740db417c1a138cad","C3","batch3","","3052","tol_tohand","","","","tol_peg_1","3052","3052","0","[[0,0,0],[2,0],[3]]","3","[[3,2,0],[0,0],[1]]","20","0","","","","","","6","","","","","","","","",""
"","","","","","single-stim-button","306","976700","0.0-2.0-71.2-1.2","61bb389740db417c1a138cad","C3","batch3","","1175","tol_toboard","","","","tol_peg_2","1175","1175","0","[[0,0,0],[2,1],[3]]","3","[[3,2,0],[0,0],[1]]","20","0","","","","","","6","","","","","","","","",""
"","","","","","single-stim-button","307","977436","0.0-2.0-71.3-0.3","61bb389740db417c1a138cad","C3","batch3","","736","tol_tohand","","","","tol_peg_3","736","736","0","[[0,0,0],[2,1],[0]]","4","[[3,2,0],[0,0],[1]]","20","0","","","","","","6","","","","","","","","",""
"","","","","","single-stim-button","308","978818","0.0-2.0-71.3-1.3","61bb389740db417c1a138cad","C3","batch3","","1381","tol_toboard","","","","tol_peg_1","1381","1381","0","[[3,0,0],[2,1],[0]]","4","[[3,2,0],[0,0],[1]]","20","0","","","","","","6","","","","","","","","",""
"","","","","","single-stim-button","309","979796","0.0-2.0-71.4-0.4","61bb389740db417c1a138cad","C3","batch3","","977","tol_tohand","","","","tol_peg_2","977","977","0","[[3,0,0],[2,0],[0]]","5","[[3,2,0],[0,0],[1]]","20","0","","","","","","6","","","","","","","","",""
"","","","","","single-stim-button","310","980608","0.0-2.0-71.4-1.4","61bb389740db417c1a138cad","C3","batch3","","810","tol_toboard","","","","tol_peg_3","810","810","0","[[3,0,0],[2,0],[1]]","5","[[3,2,0],[0,0],[1]]","20","0","","","","","","6","","","","","","","","",""
"","","","","","single-stim-button","311","981273","0.0-2.0-71.5-0.5","61bb389740db417c1a138cad","C3","batch3","","665","tol_tohand","","","","tol_peg_2","665","665","0","[[3,0,0],[0,0],[1]]","6","[[3,2,0],[0,0],[1]]","20","0","","","","","","6","","","","","","","","",""
"","","","","","single-stim-button","312","982066","0.0-2.0-71.5-1.5","61bb389740db417c1a138cad","C3","batch3","","792","tol_toboard","","","","tol_peg_1","792","792","0","[[3,2,0],[0,0],[1]]","6","[[3,2,0],[0,0],[1]]","20","0","","","","","","6","","","","","","","","",""
"","","","","","poldrack-single-stim","313","983083","0.0-2.0-72.0","61bb389740db417c1a138cad","C3","batch3","","-1","tol_feedback","","","true","","1000","1000","500","","","","","","-1","none","true","24286","31370","","","","","","","","","",""
"","","","","","html-button-response","314","984432","0.0-2.0-73.0","61bb389740db417c1a138cad","C3","batch3","","1347.2999999523163","tol_trial_num","<div class = centerbox><p class = center-block-text>problem <strong>22</strong> out of 25 problems</p></div>","0","","","","","","","","","","","","","","","","","","","","","","","","",""
"","","","","","single-stim-button","315","1010826","0.0-2.0-74.0-0.0","61bb389740db417c1a138cad","C3","batch3","","26393","tol_tohand","","","","tol_peg_1","26393","26393","0","[[0,0,0],[2,3],[0]]","1","[[0,0,0],[1,2],[3]]","21","0","","","","","","6","","","","","","","","",""
"","","","","","single-stim-button","316","1012052","0.0-2.0-74.0-1.0","61bb389740db417c1a138cad","C3","batch3","","1226","tol_toboard","","","","tol_peg_3","1226","1226","0","[[0,0,0],[2,3],[1]]","1","[[0,0,0],[1,2],[3]]","21","0","","","","","","6","","","","","","","","",""
"","","","","","single-stim-button","317","1014240","0.0-2.0-74.1-0.1","61bb389740db417c1a138cad","C3","batch3","","2188","tol_tohand","","","","tol_peg_2","2188","2188","0","[[0,0,0],[2,0],[1]]","2","[[0,0,0],[1,2],[3]]","21","0","","","","","","6","","","","","","","","",""
"","","","","","single-stim-button","318","1015607","0.0-2.0-74.1-1.1","61bb389740db417c1a138cad","C3","batch3","","1367","tol_toboard","","","","tol_peg_1","1367","1367","0","[[3,0,0],[2,0],[1]]","2","[[0,0,0],[1,2],[3]]","21","0","","","","","","6","","","","","","","","",""
"","","","","","single-stim-button","319","1016384","0.0-2.0-74.2-0.2","61bb389740db417c1a138cad","C3","batch3","","775","tol_tohand","","","","tol_peg_2","775","775","0","[[3,0,0],[0,0],[1]]","3","[[0,0,0],[1,2],[3]]","21","0","","","","","","6","","","","","","","","",""
"","","","","","single-stim-button","320","1017140","0.0-2.0-74.2-1.2","61bb389740db417c1a138cad","C3","batch3","","756","tol_toboard","","","","tol_peg_1","756","756","0","[[3,2,0],[0,0],[1]]","3","[[0,0,0],[1,2],[3]]","21","0","","","","","","6","","","","","","","","",""
"","","","","","single-stim-button","321","1018054","0.0-2.0-74.3-0.3","61bb389740db417c1a138cad","C3","batch3","","913","tol_tohand","","","","tol_peg_3","913","913","0","[[3,2,0],[0,0],[0]]","4","[[0,0,0],[1,2],[3]]","21","0","","","","","","6","","","","","","","","",""
"","","","","","single-stim-button","322","1019002","0.0-2.0-74.3-1.3","61bb389740db417c1a138cad","C3","batch3","","948","tol_toboard","","","","tol_peg_2","948","948","0","[[3,2,0],[1,0],[0]]","4","[[0,0,0],[1,2],[3]]","21","0","","","","","","6","","","","","","","","",""
"","","","","","single-stim-button","323","1019818","0.0-2.0-74.4-0.4","61bb389740db417c1a138cad","C3","batch3","","816","tol_tohand","","","","tol_peg_1","816","816","0","[[3,0,0],[1,0],[0]]","5","[[0,0,0],[1,2],[3]]","21","0","","","","","","6","","","","","","","","",""
"","","","","","single-stim-button","324","1020636","0.0-2.0-74.4-1.4","61bb389740db417c1a138cad","C3","batch3","","817","tol_toboard","","","","tol_peg_2","817","817","0","[[3,0,0],[1,2],[0]]","5","[[0,0,0],[1,2],[3]]","21","0","","","","","","6","","","","","","","","",""
"","","","","","single-stim-button","325","1021398","0.0-2.0-74.5-0.5","61bb389740db417c1a138cad","C3","batch3","","761","tol_tohand","","","","tol_peg_1","761","761","0","[[0,0,0],[1,2],[0]]","6","[[0,0,0],[1,2],[3]]","21","0","","","","","","6","","","","","","","","",""
"","","","","","single-stim-button","326","1022664","0.0-2.0-74.5-1.5","61bb389740db417c1a138cad","C3","batch3","","1266","tol_toboard","","","","tol_peg_3","1266","1266","0","[[0,0,0],[1,2],[3]]","6","[[0,0,0],[1,2],[3]]","21","0","","","","","","6","","","","","","","","",""
"","","","","","poldrack-single-stim","327","1023667","0.0-2.0-75.0","61bb389740db417c1a138cad","C3","batch3","","-1","tol_feedback","","","true","","1000","1000","500","","","","","","-1","none","true","26393","31846","","","","","","","","","",""
"","","","","","html-button-response","328","1024898","0.0-2.0-76.0","61bb389740db417c1a138cad","C3","batch3","","1229.7000000476837","tol_trial_num","<div class = centerbox><p class = center-block-text>problem <strong>23</strong> out of 25 problems</p></div>","0","","","","","","","","","","","","","","","","","","","","","","","","",""
"","","","","","single-stim-button","329","1034692","0.0-2.0-77.0-0.0","61bb389740db417c1a138cad","C3","batch3","","9793","tol_tohand","","","","tol_peg_1","9793","9793","0","[[1,0,0],[3,0],[0]]","1","[[1,3,2],[0,0],[0]]","22","0","","","","","","3","","","","","","","","",""
"","","","","","single-stim-button","330","1036125","0.0-2.0-77.0-1.0","61bb389740db417c1a138cad","C3","batch3","","1433","tol_toboard","","","","tol_peg_3","1433","1433","0","[[1,0,0],[3,0],[2]]","1","[[1,3,2],[0,0],[0]]","22","0","","","","","","3","","","","","","","","",""
"","","","","","single-stim-button","331","1036951","0.0-2.0-77.1-0.1","61bb389740db417c1a138cad","C3","batch3","","825","tol_tohand","","","","tol_peg_2","825","825","0","[[1,0,0],[0,0],[2]]","2","[[1,3,2],[0,0],[0]]","22","0","","","","","","3","","","","","","","","",""
"","","","","","single-stim-button","332","1037720","0.0-2.0-77.1-1.1","61bb389740db417c1a138cad","C3","batch3","","768","tol_toboard","","","","tol_peg_1","768","768","0","[[1,3,0],[0,0],[2]]","2","[[1,3,2],[0,0],[0]]","22","0","","","","","","3","","","","","","","","",""
"","","","","","single-stim-button","333","1038612","0.0-2.0-77.2-0.2","61bb389740db417c1a138cad","C3","batch3","","891","tol_tohand","","","","tol_peg_3","891","891","0","[[1,3,0],[0,0],[0]]","3","[[1,3,2],[0,0],[0]]","22","0","","","","","","3","","","","","","","","",""
"","","","","","single-stim-button","334","1039788","0.0-2.0-77.2-1.2","61bb389740db417c1a138cad","C3","batch3","","1175","tol_toboard","","","","tol_peg_1","1175","1175","0","[[1,3,2],[0,0],[0]]","3","[[1,3,2],[0,0],[0]]","22","0","","","","","","3","","","","","","","","",""
"","","","","","poldrack-single-stim","335","1040793","0.0-2.0-78.0","61bb389740db417c1a138cad","C3","batch3","","-1","tol_feedback","","","true","","1000","1000","500","","","","","","-1","none","true","9793","11509","","","","","","","","","",""
"","","","","","html-button-response","336","1042516","0.0-2.0-79.0","61bb389740db417c1a138cad","C3","batch3","","1721.7000000476837","tol_trial_num","<div class = centerbox><p class = center-block-text>problem <strong>24</strong> out of 25 problems</p></div>","0","","","","","","","","","","","","","","","","","","","","","","","","",""
"","","","","","single-stim-button","337","1059010","0.0-2.0-80.0-0.0","61bb389740db417c1a138cad","C3","batch3","","16494","tol_tohand","","","","tol_peg_3","16494","16494","0","[[0,0,0],[2,3],[0]]","1","[[2,0,0],[3,0],[1]]","23","0","","","","","","7","","","","","","","","",""
"","","","","","single-stim-button","338","1067812","0.0-2.0-80.0-1.0","61bb389740db417c1a138cad","C3","batch3","","8801","tol_toboard","","","","tol_peg_1","8801","8801","0","[[1,0,0],[2,3],[0]]","1","[[2,0,0],[3,0],[1]]","23","0","","","","","","7","","","","","","","","",""
"","","","","","single-stim-button","339","1071200","0.0-2.0-80.1-0.1","61bb389740db417c1a138cad","C3","batch3","","3388","tol_tohand","","","","tol_peg_2","3388","3388","0","[[1,0,0],[2,0],[0]]","2","[[2,0,0],[3,0],[1]]","23","0","","","","","","7","","","","","","","","",""
"","","","","","single-stim-button","340","1073277","0.0-2.0-80.1-1.1","61bb389740db417c1a138cad","C3","batch3","","2077","tol_toboard","","","","tol_peg_1","2077","2077","0","[[1,3,0],[2,0],[0]]","2","[[2,0,0],[3,0],[1]]","23","0","","","","","","7","","","","","","","","",""
"","","","","","single-stim-button","341","1074126","0.0-2.0-80.2-0.2","61bb389740db417c1a138cad","C3","batch3","","848","tol_tohand","","","","tol_peg_2","848","848","0","[[1,3,0],[0,0],[0]]","3","[[2,0,0],[3,0],[1]]","23","0","","","","","","7","","","","","","","","",""
"","","","","","single-stim-button","342","1075326","0.0-2.0-80.2-1.2","61bb389740db417c1a138cad","C3","batch3","","1200","tol_toboard","","","","tol_peg_3","1200","1200","0","[[1,3,0],[0,0],[2]]","3","[[2,0,0],[3,0],[1]]","23","0","","","","","","7","","","","","","","","",""
"","","","","","single-stim-button","343","1076311","0.0-2.0-80.3-0.3","61bb389740db417c1a138cad","C3","batch3","","985","tol_tohand","","","","tol_peg_1","985","985","0","[[1,0,0],[0,0],[2]]","4","[[2,0,0],[3,0],[1]]","23","0","","","","","","7","","","","","","","","",""
"","","","","","single-stim-button","344","1077284","0.0-2.0-80.3-1.3","61bb389740db417c1a138cad","C3","batch3","","972","tol_toboard","","","","tol_peg_2","972","972","0","[[1,0,0],[3,0],[2]]","4","[[2,0,0],[3,0],[1]]","23","0","","","","","","7","","","","","","","","",""
"","","","","","single-stim-button","345","1078161","0.0-2.0-80.4-0.4","61bb389740db417c1a138cad","C3","batch3","","877","tol_tohand","","","","tol_peg_3","877","877","0","[[1,0,0],[3,0],[0]]","5","[[2,0,0],[3,0],[1]]","23","0","","","","","","7","","","","","","","","",""
"","","","","","single-stim-button","346","1079436","0.0-2.0-80.4-1.4","61bb389740db417c1a138cad","C3","batch3","","1274","tol_toboard","","","","tol_peg_2","1274","1274","0","[[1,0,0],[3,2],[0]]","5","[[2,0,0],[3,0],[1]]","23","0","","","","","","7","","","","","","","","",""
"","","","","","single-stim-button","347","1080092","0.0-2.0-80.5-0.5","61bb389740db417c1a138cad","C3","batch3","","656","tol_tohand","","","","tol_peg_1","656","656","0","[[0,0,0],[3,2],[0]]","6","[[2,0,0],[3,0],[1]]","23","0","","","","","","7","","","","","","","","",""
"","","","","","single-stim-button","348","1081060","0.0-2.0-80.5-1.5","61bb389740db417c1a138cad","C3","batch3","","967","tol_toboard","","","","tol_peg_3","967","967","0","[[0,0,0],[3,2],[1]]","6","[[2,0,0],[3,0],[1]]","23","0","","","","","","7","","","","","","","","",""
"","","","","","single-stim-button","349","1081742","0.0-2.0-80.6-0.6","61bb389740db417c1a138cad","C3","batch3","","682","tol_tohand","","","","tol_peg_2","682","682","0","[[0,0,0],[3,0],[1]]","7","[[2,0,0],[3,0],[1]]","23","0","","","","","","7","","","","","","","","",""
"","","","","","single-stim-button","350","1082956","0.0-2.0-80.6-1.6","61bb389740db417c1a138cad","C3","batch3","","1214","tol_toboard","","","","tol_peg_1","1214","1214","0","[[2,0,0],[3,0],[1]]","7","[[2,0,0],[3,0],[1]]","23","0","","","","","","7","","","","","","","","",""
"","","","","","poldrack-single-stim","351","1083957","0.0-2.0-81.0","61bb389740db417c1a138cad","C3","batch3","","-1","tol_feedback","","","true","","1000","1000","500","","","","","","-1","none","true","16494","23930","","","","","","","","","",""
"","","","","","html-button-response","352","1085195","0.0-2.0-82.0","61bb389740db417c1a138cad","C3","batch3","","1236.8000001907349","tol_trial_num","<div class = centerbox><p class = center-block-text>problem <strong>25</strong> out of 25 problems</p></div>","0","","","","","","","","","","","","","","","","","","","","","","","","",""
"","","","","","single-stim-button","353","1098098","0.0-2.0-83.0-0.0","61bb389740db417c1a138cad","C3","batch3","","12901","tol_tohand","","","","tol_peg_2","12901","12901","0","[[1,2,0],[0,0],[0]]","1","[[3,0,0],[1,0],[2]]","24","0","","","","","","7","","","","","","","","",""
"","","","","","single-stim-button","354","1099162","0.0-2.0-83.0-1.0","61bb389740db417c1a138cad","C3","batch3","","1064","tol_toboard","","","","tol_peg_3","1064","1064","0","[[1,2,0],[0,0],[3]]","1","[[3,0,0],[1,0],[2]]","24","0","","","","","","7","","","","","","","","",""
