"success","timeout","failed_images","failed_audio","failed_video","trial_type","trial_index","time_elapsed","internal_node_id","subject_id","study_id","session_id","task","rt","stimulus","response","item","answer","correct","spm_correct","spm_rt","view_history","mouse_click","stim_duration","block_duration","timing_post_trial","current_position","tol_num_moves_made","tol_target","tol_problem_id","tol_rt","key_press","possible_responses","tol_correct","preplanning","tol_rt_per_trial","tol_min_moves","fiar_detect_rt","fiar_detect_correct","total_correct_fiar_detect","post_trial_gap","choices"
"true","false","[]","[]","[]","preload","0","3648","0.0-0.0","61bb397040db417c1a138e4d","B2","batch2","","","","","","","","","","","","","","","","","","","","","","","","","","","","","",""
"true","","","","","fullscreen","1","19297","0.0-1.0-0.0","61bb397040db417c1a138e4d","B2","batch2","","","","","","","","","","","","","","","","","","","","","","","","","","","","","",""
"true","","","","","fullscreen","2","22931","0.0-2.0-0.0","61bb397040db417c1a138e4d","B2","batch2","spm_fullscreen","","","","","","","","","","","","","","","","","","","","","","","","","","","","",""
"","","","","","html-button-response","3","34201","0.0-2.0-1.0","61bb397040db417c1a138e4d","B2","batch2","","11266.300000011921","<p class = block-text><b>Instructions</b> <br>This is a widely used intelligence test in research. <br>In this test, a figure with a missing piece will be presented.<br>Below the figure are alternative pieces to complete the figure, only one of which is correct.<br> Different figures might involve different principles for obtaining the missing piece<br>Your job is to select the most logical piece to complete the figure.</p>","0","","","","","","","","","","","","","","","","","","","","","","","","","",""
"","","","","","html-keyboard-response","4","35004","0.0-2.0-2.0-0.0","61bb397040db417c1a138e4d","B2","batch2","spm_show_trial_num","null","<p class=block-text>Trial 1 out of 60</p>","null","","","","","","","","","","","","","","","","","","","","","","","","","",""
"","","","","","image-button-response","5","39748","0.0-2.0-2.0-1.0","61bb397040db417c1a138e4d","B2","batch2","spm_respsonse","4716.100000023842","img/question_1_1.jpeg","3","mat_01","4","1","1","4716.100000023842","","","","","","","","","","","","","","","","","","","","",""
"","","","","","html-keyboard-response","6","40802","0.0-2.0-2.0-0.1","61bb397040db417c1a138e4d","B2","batch2","spm_show_trial_num","null","<p class=block-text>Trial 2 out of 60</p>","null","","","","","","","","","","","","","","","","","","","","","","","","","",""
"","","","","","image-button-response","7","45063","0.0-2.0-2.0-1.1","61bb397040db417c1a138e4d","B2","batch2","spm_respsonse","4256.5","img/question_1_2.jpeg","4","mat_02","5","1","1","4256.5","","","","","","","","","","","","","","","","","","","","",""
"","","","","","html-keyboard-response","8","46115","0.0-2.0-2.0-0.2","61bb397040db417c1a138e4d","B2","batch2","spm_show_trial_num","null","<p class=block-text>Trial 3 out of 60</p>","null","","","","","","","","","","","","","","","","","","","","","","","","","",""
"","","","","","image-button-response","9","49570","0.0-2.0-2.0-1.2","61bb397040db417c1a138e4d","B2","batch2","spm_respsonse","3450.399999976158","img/question_1_3.jpeg","0","mat_03","1","1","1","3450.399999976158","","","","","","","","","","","","","","","","","","","","",""
"","","","","","html-keyboard-response","10","50622","0.0-2.0-2.0-0.3","61bb397040db417c1a138e4d","B2","batch2","spm_show_trial_num","null","<p class=block-text>Trial 4 out of 60</p>","null","","","","","","","","","","","","","","","","","","","","","","","","","",""
"","","","","","image-button-response","11","54021","0.0-2.0-2.0-1.3","61bb397040db417c1a138e4d","B2","batch2","spm_respsonse","3394","img/question_1_4.jpeg","1","mat_04","2","1","1","3394","","","","","","","","","","","","","","","","","","","","",""
"","","","","","html-keyboard-response","12","55073","0.0-2.0-2.0-0.4","61bb397040db417c1a138e4d","B2","batch2","spm_show_trial_num","null","<p class=block-text>Trial 5 out of 60</p>","null","","","","","","","","","","","","","","","","","","","","","","","","","",""
"","","","","","image-button-response","13","60275","0.0-2.0-2.0-1.4","61bb397040db417c1a138e4d","B2","batch2","spm_respsonse","5196","img/question_1_5.jpeg","5","mat_05","6","1","1","5196","","","","","","","","","","","","","","","","","","","","",""
"","","","","","html-keyboard-response","14","61327","0.0-2.0-2.0-0.5","61bb397040db417c1a138e4d","B2","batch2","spm_show_trial_num","null","<p class=block-text>Trial 6 out of 60</p>","null","","","","","","","","","","","","","","","","","","","","","","","","","",""
"","","","","","image-button-response","15","64913","0.0-2.0-2.0-1.5","61bb397040db417c1a138e4d","B2","batch2","spm_respsonse","3580.199999988079","img/question_1_6.jpeg","2","mat_06","3","1","1","3580.199999988079","","","","","","","","","","","","","","","","","","","","",""
"","","","","","html-keyboard-response","16","65966","0.0-2.0-2.0-0.6","61bb397040db417c1a138e4d","B2","batch2","spm_show_trial_num","null","<p class=block-text>Trial 7 out of 60</p>","null","","","","","","","","","","","","","","","","","","","","","","","","","",""
"","","","","","image-button-response","17","69282","0.0-2.0-2.0-1.6","61bb397040db417c1a138e4d","B2","batch2","spm_respsonse","3310.899999976158","img/question_1_7.jpeg","5","mat_07","6","1","1","3310.899999976158","","","","","","","","","","","","","","","","","","","","",""
"","","","","","html-keyboard-response","18","70335","0.0-2.0-2.0-0.7","61bb397040db417c1a138e4d","B2","batch2","spm_show_trial_num","null","<p class=block-text>Trial 8 out of 60</p>","null","","","","","","","","","","","","","","","","","","","","","","","","","",""
"","","","","","image-button-response","19","76640","0.0-2.0-2.0-1.7","61bb397040db417c1a138e4d","B2","batch2","spm_respsonse","6300","img/question_1_8.jpeg","1","mat_08","2","1","1","6300","","","","","","","","","","","","","","","","","","","","",""
"","","","","","html-keyboard-response","20","77693","0.0-2.0-2.0-0.8","61bb397040db417c1a138e4d","B2","batch2","spm_show_trial_num","null","<p class=block-text>Trial 9 out of 60</p>","null","","","","","","","","","","","","","","","","","","","","","","","","","",""
"","","","","","image-button-response","21","81361","0.0-2.0-2.0-1.8","61bb397040db417c1a138e4d","B2","batch2","spm_respsonse","3663.199999988079","img/question_1_9.jpeg","0","mat_09","1","1","1","3663.199999988079","","","","","","","","","","","","","","","","","","","","",""
"","","","","","html-keyboard-response","22","82413","0.0-2.0-2.0-0.9","61bb397040db417c1a138e4d","B2","batch2","spm_show_trial_num","null","<p class=block-text>Trial 10 out of 60</p>","null","","","","","","","","","","","","","","","","","","","","","","","","","",""
"","","","","","image-button-response","23","88434","0.0-2.0-2.0-1.9","61bb397040db417c1a138e4d","B2","batch2","spm_respsonse","6016","img/question_1_10.jpeg","2","mat_10","3","1","1","6016","","","","","","","","","","","","","","","","","","","","",""
"","","","","","html-keyboard-response","24","89487","0.0-2.0-2.0-0.10","61bb397040db417c1a138e4d","B2","batch2","spm_show_trial_num","null","<p class=block-text>Trial 11 out of 60</p>","null","","","","","","","","","","","","","","","","","","","","","","","","","",""
"","","","","","image-button-response","25","96833","0.0-2.0-2.0-1.10","61bb397040db417c1a138e4d","B2","batch2","spm_respsonse","7341.699999988079","img/question_1_11.jpeg","3","mat_11","4","1","1","7341.699999988079","","","","","","","","","","","","","","","","","","","","",""
"","","","","","html-keyboard-response","26","97886","0.0-2.0-2.0-0.11","61bb397040db417c1a138e4d","B2","batch2","spm_show_trial_num","null","<p class=block-text>Trial 12 out of 60</p>","null","","","","","","","","","","","","","","","","","","","","","","","","","",""
"","","","","","image-button-response","27","122659","0.0-2.0-2.0-1.11","61bb397040db417c1a138e4d","B2","batch2","spm_respsonse","24768","img/question_1_12.jpeg","4","mat_12","5","1","1","24768","","","","","","","","","","","","","","","","","","","","",""
"","","","","","html-keyboard-response","28","123711","0.0-2.0-2.0-0.12","61bb397040db417c1a138e4d","B2","batch2","spm_show_trial_num","null","<p class=block-text>Trial 13 out of 60</p>","null","","","","","","","","","","","","","","","","","","","","","","","","","",""
"","","","","","image-button-response","29","126388","0.0-2.0-2.0-1.12","61bb397040db417c1a138e4d","B2","batch2","spm_respsonse","2672.800000011921","img/question_2_1.jpeg","1","mat_13","2","1","1","2672.800000011921","","","","","","","","","","","","","","","","","","","","",""
"","","","","","html-keyboard-response","30","127440","0.0-2.0-2.0-0.13","61bb397040db417c1a138e4d","B2","batch2","spm_show_trial_num","null","<p class=block-text>Trial 14 out of 60</p>","null","","","","","","","","","","","","","","","","","","","","","","","","","",""
"","","","","","image-button-response","31","131666","0.0-2.0-2.0-1.13","61bb397040db417c1a138e4d","B2","batch2","spm_respsonse","4221.400000035763","img/question_2_2.jpeg","5","mat_14","6","1","1","4221.400000035763","","","","","","","","","","","","","","","","","","","","",""
"","","","","","html-keyboard-response","32","132718","0.0-2.0-2.0-0.14","61bb397040db417c1a138e4d","B2","batch2","spm_show_trial_num","null","<p class=block-text>Trial 15 out of 60</p>","null","","","","","","","","","","","","","","","","","","","","","","","","","",""
"","","","","","image-button-response","33","135872","0.0-2.0-2.0-1.14","61bb397040db417c1a138e4d","B2","batch2","spm_respsonse","3148.899999976158","img/question_2_3.jpeg","0","mat_15","1","1","1","3148.899999976158","","","","","","","","","","","","","","","","","","","","",""
"","","","","","html-keyboard-response","34","136924","0.0-2.0-2.0-0.15","61bb397040db417c1a138e4d","B2","batch2","spm_show_trial_num","null","<p class=block-text>Trial 16 out of 60</p>","null","","","","","","","","","","","","","","","","","","","","","","","","","",""
"","","","","","image-button-response","35","140444","0.0-2.0-2.0-1.15","61bb397040db417c1a138e4d","B2","batch2","spm_respsonse","3515.199999988079","img/question_2_4.jpeg","1","mat_16","2","1","1","3515.199999988079","","","","","","","","","","","","","","","","","","","","",""
"","","","","","html-keyboard-response","36","141496","0.0-2.0-2.0-0.16","61bb397040db417c1a138e4d","B2","batch2","spm_show_trial_num","null","<p class=block-text>Trial 17 out of 60</p>","null","","","","","","","","","","","","","","","","","","","","","","","","","",""
"","","","","","image-button-response","37","145990","0.0-2.0-2.0-1.16","61bb397040db417c1a138e4d","B2","batch2","spm_respsonse","4489.399999976158","img/question_2_5.jpeg","0","mat_17","1","1","1","4489.399999976158","","","","","","","","","","","","","","","","","","","","",""
"","","","","","html-keyboard-response","38","147042","0.0-2.0-2.0-0.17","61bb397040db417c1a138e4d","B2","batch2","spm_show_trial_num","null","<p class=block-text>Trial 18 out of 60</p>","null","","","","","","","","","","","","","","","","","","","","","","","","","",""
"","","","","","image-button-response","39","154111","0.0-2.0-2.0-1.17","61bb397040db417c1a138e4d","B2","batch2","spm_respsonse","7064","img/question_2_6.jpeg","2","mat_18","3","1","1","7064","","","","","","","","","","","","","","","","","","","","",""
"","","","","","html-keyboard-response","40","155163","0.0-2.0-2.0-0.18","61bb397040db417c1a138e4d","B2","batch2","spm_show_trial_num","null","<p class=block-text>Trial 19 out of 60</p>","null","","","","","","","","","","","","","","","","","","","","","","","","","",""
"","","","","","image-button-response","41","164278","0.0-2.0-2.0-1.18","61bb397040db417c1a138e4d","B2","batch2","spm_respsonse","9110","img/question_2_7.jpeg","4","mat_19","5","1","1","9110","","","","","","","","","","","","","","","","","","","","",""
"","","","","","html-keyboard-response","42","165330","0.0-2.0-2.0-0.19","61bb397040db417c1a138e4d","B2","batch2","spm_show_trial_num","null","<p class=block-text>Trial 20 out of 60</p>","null","","","","","","","","","","","","","","","","","","","","","","","","","",""
"","","","","","image-button-response","43","171257","0.0-2.0-2.0-1.19","61bb397040db417c1a138e4d","B2","batch2","spm_respsonse","5921.299999952316","img/question_2_8.jpeg","5","mat_20","6","1","1","5921.299999952316","","","","","","","","","","","","","","","","","","","","",""
"","","","","","html-keyboard-response","44","172309","0.0-2.0-2.0-0.20","61bb397040db417c1a138e4d","B2","batch2","spm_show_trial_num","null","<p class=block-text>Trial 21 out of 60</p>","null","","","","","","","","","","","","","","","","","","","","","","","","","",""
"","","","","","image-button-response","45","176999","0.0-2.0-2.0-1.20","61bb397040db417c1a138e4d","B2","batch2","spm_respsonse","4684.100000023842","img/question_2_9.jpeg","3","mat_21","4","1","1","4684.100000023842","","","","","","","","","","","","","","","","","","","","",""
"","","","","","html-keyboard-response","46","178051","0.0-2.0-2.0-0.21","61bb397040db417c1a138e4d","B2","batch2","spm_show_trial_num","null","<p class=block-text>Trial 22 out of 60</p>","null","","","","","","","","","","","","","","","","","","","","","","","","","",""
"","","","","","image-button-response","47","182040","0.0-2.0-2.0-1.21","61bb397040db417c1a138e4d","B2","batch2","spm_respsonse","3982.199999988079","img/question_2_10.jpeg","2","mat_22","3","1","1","3982.199999988079","","","","","","","","","","","","","","","","","","","","",""
"","","","","","html-keyboard-response","48","183092","0.0-2.0-2.0-0.22","61bb397040db417c1a138e4d","B2","batch2","spm_show_trial_num","null","<p class=block-text>Trial 23 out of 60</p>","null","","","","","","","","","","","","","","","","","","","","","","","","","",""
"","","","","","image-button-response","49","187439","0.0-2.0-2.0-1.22","61bb397040db417c1a138e4d","B2","batch2","spm_respsonse","4343.100000023842","img/question_2_11.jpeg","3","mat_23","4","1","1","4343.100000023842","","","","","","","","","","","","","","","","","","","","",""
"","","","","","html-keyboard-response","50","188491","0.0-2.0-2.0-0.23","61bb397040db417c1a138e4d","B2","batch2","spm_show_trial_num","null","<p class=block-text>Trial 24 out of 60</p>","null","","","","","","","","","","","","","","","","","","","","","","","","","",""
"","","","","","image-button-response","51","202398","0.0-2.0-2.0-1.23","61bb397040db417c1a138e4d","B2","batch2","spm_respsonse","13902.5","img/question_2_12.jpeg","4","mat_24","5","1","1","13902.5","","","","","","","","","","","","","","","","","","","","",""
"","","","","","html-button-response","52","204258","0.0-2.0-3.0","61bb397040db417c1a138e4d","B2","batch2","attention_check","1606.3999999761581","<p class = block-text>Attention check: Please choose 1<br></p>","0","","","true","","","","","","","","","","","","","","","","","","","","","","",""
"","","","","","html-keyboard-response","53","205059","0.0-2.0-4.0-0.0","61bb397040db417c1a138e4d","B2","batch2","spm_show_trial_num","null","<p class=block-text>Trial 25 out of 60</p>","null","","","","","","","","","","","","","","","","","","","","","","","","","",""
"","","","","","image-button-response","54","210158","0.0-2.0-4.0-1.0","61bb397040db417c1a138e4d","B2","batch2","spm_respsonse","5092.300000011921","img/question_3_1.jpeg","7","mat_25","8","1","1","5092.300000011921","","","","","","","","","","","","","","","","","","","","",""
"","","","","","html-keyboard-response","55","211210","0.0-2.0-4.0-0.1","61bb397040db417c1a138e4d","B2","batch2","spm_show_trial_num","null","<p class=block-text>Trial 26 out of 60</p>","null","","","","","","","","","","","","","","","","","","","","","","","","","",""
"","","","","","image-button-response","56","218856","0.0-2.0-4.0-1.1","61bb397040db417c1a138e4d","B2","batch2","spm_respsonse","7640.300000011921","img/question_3_2.jpeg","1","mat_26","2","1","1","7640.300000011921","","","","","","","","","","","","","","","","","","","","",""
"","","","","","html-keyboard-response","57","219908","0.0-2.0-4.0-0.2","61bb397040db417c1a138e4d","B2","batch2","spm_show_trial_num","null","<p class=block-text>Trial 27 out of 60</p>","null","","","","","","","","","","","","","","","","","","","","","","","","","",""
"","","","","","image-button-response","58","227833","0.0-2.0-4.0-1.2","61bb397040db417c1a138e4d","B2","batch2","spm_respsonse","7918.699999988079","img/question_3_3.jpeg","2","mat_27","3","1","1","7918.699999988079","","","","","","","","","","","","","","","","","","","","",""
"","","","","","html-keyboard-response","59","228886","0.0-2.0-4.0-0.3","61bb397040db417c1a138e4d","B2","batch2","spm_show_trial_num","null","<p class=block-text>Trial 28 out of 60</p>","null","","","","","","","","","","","","","","","","","","","","","","","","","",""
"","","","","","image-button-response","60","243553","0.0-2.0-4.0-1.3","61bb397040db417c1a138e4d","B2","batch2","spm_respsonse","14662.099999964237","img/question_3_4.jpeg","7","mat_28","8","1","1","14662.099999964237","","","","","","","","","","","","","","","","","","","","",""
"","","","","","html-keyboard-response","61","244605","0.0-2.0-4.0-0.4","61bb397040db417c1a138e4d","B2","batch2","spm_show_trial_num","null","<p class=block-text>Trial 29 out of 60</p>","null","","","","","","","","","","","","","","","","","","","","","","","","","",""
"","","","","","image-button-response","62","256264","0.0-2.0-4.0-1.4","61bb397040db417c1a138e4d","B2","batch2","spm_respsonse","11653.400000035763","img/question_3_5.jpeg","6","mat_29","7","1","1","11653.400000035763","","","","","","","","","","","","","","","","","","","","",""
"","","","","","html-keyboard-response","63","257316","0.0-2.0-4.0-0.5","61bb397040db417c1a138e4d","B2","batch2","spm_show_trial_num","null","<p class=block-text>Trial 30 out of 60</p>","null","","","","","","","","","","","","","","","","","","","","","","","","","",""
"","","","","","image-button-response","64","264173","0.0-2.0-4.0-1.5","61bb397040db417c1a138e4d","B2","batch2","spm_respsonse","6851.299999952316","img/question_3_6.jpeg","3","mat_30","4","1","1","6851.299999952316","","","","","","","","","","","","","","","","","","","","",""
"","","","","","html-keyboard-response","65","265225","0.0-2.0-4.0-0.6","61bb397040db417c1a138e4d","B2","batch2","spm_show_trial_num","null","<p class=block-text>Trial 31 out of 60</p>","null","","","","","","","","","","","","","","","","","","","","","","","","","",""
"","","","","","image-button-response","66","275662","0.0-2.0-4.0-1.6","61bb397040db417c1a138e4d","B2","batch2","spm_respsonse","10431.300000011921","img/question_3_7.jpeg","4","mat_31","5","1","1","10431.300000011921","","","","","","","","","","","","","","","","","","","","",""
"","","","","","html-keyboard-response","67","276715","0.0-2.0-4.0-0.7","61bb397040db417c1a138e4d","B2","batch2","spm_show_trial_num","null","<p class=block-text>Trial 32 out of 60</p>","null","","","","","","","","","","","","","","","","","","","","","","","","","",""
"","","","","","image-button-response","68","317063","0.0-2.0-4.0-1.7","61bb397040db417c1a138e4d","B2","batch2","spm_respsonse","40342.30000001192","img/question_3_8.jpeg","0","mat_32","1","1","1","40342.30000001192","","","","","","","","","","","","","","","","","","","","",""
"","","","","","html-keyboard-response","69","318116","0.0-2.0-4.0-0.8","61bb397040db417c1a138e4d","B2","batch2","spm_show_trial_num","null","<p class=block-text>Trial 33 out of 60</p>","null","","","","","","","","","","","","","","","","","","","","","","","","","",""
"","","","","","image-button-response","70","326213","0.0-2.0-4.0-1.8","61bb397040db417c1a138e4d","B2","batch2","spm_respsonse","8090.900000035763","img/question_3_9.jpeg","6","mat_33","7","1","1","8090.900000035763","","","","","","","","","","","","","","","","","","","","",""
"","","","","","html-keyboard-response","71","327265","0.0-2.0-4.0-0.9","61bb397040db417c1a138e4d","B2","batch2","spm_show_trial_num","null","<p class=block-text>Trial 34 out of 60</p>","null","","","","","","","","","","","","","","","","","","","","","","","","","",""
"","","","","","image-button-response","72","340400","0.0-2.0-4.0-1.9","61bb397040db417c1a138e4d","B2","batch2","spm_respsonse","13130.200000047684","img/question_3_10.jpeg","5","mat_34","6","1","1","13130.200000047684","","","","","","","","","","","","","","","","","","","","",""
"","","","","","html-keyboard-response","73","341452","0.0-2.0-4.0-0.10","61bb397040db417c1a138e4d","B2","batch2","spm_show_trial_num","null","<p class=block-text>Trial 35 out of 60</p>","null","","","","","","","","","","","","","","","","","","","","","","","","","",""
"","","","","","image-button-response","74","369526","0.0-2.0-4.0-1.10","61bb397040db417c1a138e4d","B2","batch2","spm_respsonse","28068.799999952316","img/question_3_11.jpeg","0","mat_35","1","1","1","28068.799999952316","","","","","","","","","","","","","","","","","","","","",""
"","","","","","html-keyboard-response","75","370578","0.0-2.0-4.0-0.11","61bb397040db417c1a138e4d","B2","batch2","spm_show_trial_num","null","<p class=block-text>Trial 36 out of 60</p>","null","","","","","","","","","","","","","","","","","","","","","","","","","",""
"","","","","","image-button-response","76","386485","0.0-2.0-4.0-1.11","61bb397040db417c1a138e4d","B2","batch2","spm_respsonse","15902.100000023842","img/question_3_12.jpeg","1","mat_36","2","1","1","15902.100000023842","","","","","","","","","","","","","","","","","","","","",""
"","","","","","html-keyboard-response","77","387538","0.0-2.0-4.0-0.12","61bb397040db417c1a138e4d","B2","batch2","spm_show_trial_num","null","<p class=block-text>Trial 37 out of 60</p>","null","","","","","","","","","","","","","","","","","","","","","","","","","",""
"","","","","","image-button-response","78","390630","0.0-2.0-4.0-1.12","61bb397040db417c1a138e4d","B2","batch2","spm_respsonse","3085.300000011921","img/question_4_1.jpeg","2","mat_37","3","1","1","3085.300000011921","","","","","","","","","","","","","","","","","","","","",""
"","","","","","html-keyboard-response","79","391682","0.0-2.0-4.0-0.13","61bb397040db417c1a138e4d","B2","batch2","spm_show_trial_num","null","<p class=block-text>Trial 38 out of 60</p>","null","","","","","","","","","","","","","","","","","","","","","","","","","",""
"","","","","","image-button-response","80","400199","0.0-2.0-4.0-1.13","61bb397040db417c1a138e4d","B2","batch2","spm_respsonse","8512.300000011921","img/question_4_2.jpeg","3","mat_38","4","1","1","8512.300000011921","","","","","","","","","","","","","","","","","","","","",""
"","","","","","html-keyboard-response","81","401251","0.0-2.0-4.0-0.14","61bb397040db417c1a138e4d","B2","batch2","spm_show_trial_num","null","<p class=block-text>Trial 39 out of 60</p>","null","","","","","","","","","","","","","","","","","","","","","","","","","",""
"","","","","","image-button-response","82","415143","0.0-2.0-4.0-1.14","61bb397040db417c1a138e4d","B2","batch2","spm_respsonse","13885.599999964237","img/question_4_3.jpeg","2","mat_39","3","1","1","13885.599999964237","","","","","","","","","","","","","","","","","","","","",""
"","","","","","html-keyboard-response","83","416195","0.0-2.0-4.0-0.15","61bb397040db417c1a138e4d","B2","batch2","spm_show_trial_num","null","<p class=block-text>Trial 40 out of 60</p>","null","","","","","","","","","","","","","","","","","","","","","","","","","",""
"","","","","","image-button-response","84","423186","0.0-2.0-4.0-1.15","61bb397040db417c1a138e4d","B2","batch2","spm_respsonse","6985.300000011921","img/question_4_4.jpeg","6","mat_40","7","1","1","6985.300000011921","","","","","","","","","","","","","","","","","","","","",""
"","","","","","html-keyboard-response","85","424239","0.0-2.0-4.0-0.16","61bb397040db417c1a138e4d","B2","batch2","spm_show_trial_num","null","<p class=block-text>Trial 41 out of 60</p>","null","","","","","","","","","","","","","","","","","","","","","","","","","",""
"","","","","","image-button-response","86","437845","0.0-2.0-4.0-1.16","61bb397040db417c1a138e4d","B2","batch2","spm_respsonse","13600","img/question_4_5.jpeg","7","mat_41","8","1","1","13600","","","","","","","","","","","","","","","","","","","","",""
"","","","","","html-keyboard-response","87","438897","0.0-2.0-4.0-0.17","61bb397040db417c1a138e4d","B2","batch2","spm_show_trial_num","null","<p class=block-text>Trial 42 out of 60</p>","null","","","","","","","","","","","","","","","","","","","","","","","","","",""
"","","","","","image-button-response","88","450122","0.0-2.0-4.0-1.17","61bb397040db417c1a138e4d","B2","batch2","spm_respsonse","11218.300000011921","img/question_4_6.jpeg","5","mat_42","6","1","1","11218.300000011921","","","","","","","","","","","","","","","","","","","","",""
"","","","","","html-keyboard-response","89","451174","0.0-2.0-4.0-0.18","61bb397040db417c1a138e4d","B2","batch2","spm_show_trial_num","null","<p class=block-text>Trial 43 out of 60</p>","null","","","","","","","","","","","","","","","","","","","","","","","","","",""
"","","","","","image-button-response","90","459987","0.0-2.0-4.0-1.18","61bb397040db417c1a138e4d","B2","batch2","spm_respsonse","8808.100000023842","img/question_4_7.jpeg","4","mat_43","5","1","1","8808.100000023842","","","","","","","","","","","","","","","","","","","","",""
"","","","","","html-keyboard-response","91","461040","0.0-2.0-4.0-0.19","61bb397040db417c1a138e4d","B2","batch2","spm_show_trial_num","null","<p class=block-text>Trial 44 out of 60</p>","null","","","","","","","","","","","","","","","","","","","","","","","","","",""
"","","","","","image-button-response","92","472604","0.0-2.0-4.0-1.19","61bb397040db417c1a138e4d","B2","batch2","spm_respsonse","11558.899999976158","img/question_4_8.jpeg","3","mat_44","4","1","1","11558.899999976158","","","","","","","","","","","","","","","","","","","","",""
"","","","","","html-keyboard-response","93","473656","0.0-2.0-4.0-0.20","61bb397040db417c1a138e4d","B2","batch2","spm_show_trial_num","null","<p class=block-text>Trial 45 out of 60</p>","null","","","","","","","","","","","","","","","","","","","","","","","","","",""
"","","","","","image-button-response","94","490458","0.0-2.0-4.0-1.20","61bb397040db417c1a138e4d","B2","batch2","spm_respsonse","16795.700000047684","img/question_4_9.jpeg","0","mat_45","1","1","1","16795.700000047684","","","","","","","","","","","","","","","","","","","","",""
"","","","","","html-keyboard-response","95","491512","0.0-2.0-4.0-0.21","61bb397040db417c1a138e4d","B2","batch2","spm_show_trial_num","null","<p class=block-text>Trial 46 out of 60</p>","null","","","","","","","","","","","","","","","","","","","","","","","","","",""
"","","","","","image-button-response","96","511052","0.0-2.0-4.0-1.21","61bb397040db417c1a138e4d","B2","batch2","spm_respsonse","14591.100000023842","img/question_4_10.jpeg","1","mat_46","2","1","1","14591.100000023842","","","","","","","","","","","","","","","","","","","","",""
"","","","","","html-keyboard-response","97","512104","0.0-2.0-4.0-0.22","61bb397040db417c1a138e4d","B2","batch2","spm_show_trial_num","null","<p class=block-text>Trial 47 out of 60</p>","null","","","","","","","","","","","","","","","","","","","","","","","","","",""
"","","","","","image-button-response","98","569929","0.0-2.0-4.0-1.22","61bb397040db417c1a138e4d","B2","batch2","spm_respsonse","57814","img/question_4_11.jpeg","5","mat_47","5","0","0","57814","","","","","","","","","","","","","","","","","","","","",""
"","","","","","html-keyboard-response","99","570987","0.0-2.0-4.0-0.23","61bb397040db417c1a138e4d","B2","batch2","spm_show_trial_num","null","<p class=block-text>Trial 48 out of 60</p>","null","","","","","","","","","","","","","","","","","","","","","","","","","",""
"","","","","","image-button-response","100","608191","0.0-2.0-4.0-1.23","61bb397040db417c1a138e4d","B2","batch2","spm_respsonse","37197.80000001192","img/question_4_12.jpeg","3","mat_48","6","0","0","37197.80000001192","","","","","","","","","","","","","","","","","","","","",""
"","","","","","html-keyboard-response","101","609243","0.0-2.0-4.0-0.24","61bb397040db417c1a138e4d","B2","batch2","spm_show_trial_num","null","<p class=block-text>Trial 49 out of 60</p>","null","","","","","","","","","","","","","","","","","","","","","","","","","",""
"","","","","","image-button-response","102","621853","0.0-2.0-4.0-1.24","61bb397040db417c1a138e4d","B2","batch2","spm_respsonse","12604.5","img/question_5_1.jpeg","5","mat_49","7","0","0","12604.5","","","","","","","","","","","","","","","","","","","","",""
"","","","","","html-keyboard-response","103","622905","0.0-2.0-4.0-0.25","61bb397040db417c1a138e4d","B2","batch2","spm_show_trial_num","null","<p class=block-text>Trial 50 out of 60</p>","null","","","","","","","","","","","","","","","","","","","","","","","","","",""
"","","","","","image-button-response","104","648326","0.0-2.0-4.0-1.25","61bb397040db417c1a138e4d","B2","batch2","spm_respsonse","25415.200000047684","img/question_5_2.jpeg","5","mat_50","6","1","1","25415.200000047684","","","","","","","","","","","","","","","","","","","","",""
"","","","","","html-keyboard-response","105","649378","0.0-2.0-4.0-0.26","61bb397040db417c1a138e4d","B2","batch2","spm_show_trial_num","null","<p class=block-text>Trial 51 out of 60</p>","null","","","","","","","","","","","","","","","","","","","","","","","","","",""
"","","","","","image-button-response","106","665551","0.0-2.0-4.0-1.26","61bb397040db417c1a138e4d","B2","batch2","spm_respsonse","16167.699999988079","img/question_5_3.jpeg","7","mat_51","8","1","1","16167.699999988079","","","","","","","","","","","","","","","","","","","","",""
"","","","","","html-keyboard-response","107","666604","0.0-2.0-4.0-0.27","61bb397040db417c1a138e4d","B2","batch2","spm_show_trial_num","null","<p class=block-text>Trial 52 out of 60</p>","null","","","","","","","","","","","","","","","","","","","","","","","","","",""
"","","","","","image-button-response","108","676754","0.0-2.0-4.0-1.27","61bb397040db417c1a138e4d","B2","batch2","spm_respsonse","10144.700000047684","img/question_5_4.jpeg","1","mat_52","2","1","1","10144.700000047684","","","","","","","","","","","","","","","","","","","","",""
"","","","","","html-keyboard-response","109","677806","0.0-2.0-4.0-0.28","61bb397040db417c1a138e4d","B2","batch2","spm_show_trial_num","null","<p class=block-text>Trial 53 out of 60</p>","null","","","","","","","","","","","","","","","","","","","","","","","","","",""
"","","","","","image-button-response","110","684354","0.0-2.0-4.0-1.28","61bb397040db417c1a138e4d","B2","batch2","spm_respsonse","6542.799999952316","img/question_5_5.jpeg","0","mat_53","1","1","1","6542.799999952316","","","","","","","","","","","","","","","","","","","","",""
"","","","","","html-keyboard-response","111","685406","0.0-2.0-4.0-0.29","61bb397040db417c1a138e4d","B2","batch2","spm_show_trial_num","null","<p class=block-text>Trial 54 out of 60</p>","null","","","","","","","","","","","","","","","","","","","","","","","","","",""
"","","","","","image-button-response","112","711376","0.0-2.0-4.0-1.29","61bb397040db417c1a138e4d","B2","batch2","spm_respsonse","25963.700000047684","img/question_5_6.jpeg","4","mat_54","5","1","1","25963.700000047684","","","","","","","","","","","","","","","","","","","","",""
"","","","","","html-keyboard-response","113","712428","0.0-2.0-4.0-0.30","61bb397040db417c1a138e4d","B2","batch2","spm_show_trial_num","null","<p class=block-text>Trial 55 out of 60</p>","null","","","","","","","","","","","","","","","","","","","","","","","","","",""
"","","","","","image-button-response","114","742945","0.0-2.0-4.0-1.30","61bb397040db417c1a138e4d","B2","batch2","spm_respsonse","30511.19999998808","img/question_5_7.jpeg","0","mat_55","1","1","1","30511.19999998808","","","","","","","","","","","","","","","","","","","","",""
"","","","","","html-keyboard-response","115","743997","0.0-2.0-4.0-0.31","61bb397040db417c1a138e4d","B2","batch2","spm_show_trial_num","null","<p class=block-text>Trial 56 out of 60</p>","null","","","","","","","","","","","","","","","","","","","","","","","","","",""
"","","","","","image-button-response","116","754131","0.0-2.0-4.0-1.31","61bb397040db417c1a138e4d","B2","batch2","spm_respsonse","10128.400000035763","img/question_5_8.jpeg","5","mat_56","6","1","1","10128.400000035763","","","","","","","","","","","","","","","","","","","","",""
"","","","","","html-keyboard-response","117","755184","0.0-2.0-4.0-0.32","61bb397040db417c1a138e4d","B2","batch2","spm_show_trial_num","null","<p class=block-text>Trial 57 out of 60</p>","null","","","","","","","","","","","","","","","","","","","","","","","","","",""
"","","","","","image-button-response","118","774743","0.0-2.0-4.0-1.32","61bb397040db417c1a138e4d","B2","batch2","spm_respsonse","19553.900000035763","img/question_5_9.jpeg","2","mat_57","3","1","1","19553.900000035763","","","","","","","","","","","","","","","","","","","","",""
"","","","","","html-keyboard-response","119","775795","0.0-2.0-4.0-0.33","61bb397040db417c1a138e4d","B2","batch2","spm_show_trial_num","null","<p class=block-text>Trial 58 out of 60</p>","null","","","","","","","","","","","","","","","","","","","","","","","","","",""
"","","","","","image-button-response","120","793727","0.0-2.0-4.0-1.33","61bb397040db417c1a138e4d","B2","batch2","spm_respsonse","17926.600000023842","img/question_5_10.jpeg","1","mat_58","2","1","1","17926.600000023842","","","","","","","","","","","","","","","","","","","","",""
"","","","","","html-keyboard-response","121","794779","0.0-2.0-4.0-0.34","61bb397040db417c1a138e4d","B2","batch2","spm_show_trial_num","null","<p class=block-text>Trial 59 out of 60</p>","null","","","","","","","","","","","","","","","","","","","","","","","","","",""
"","","","","","image-button-response","122","864967","0.0-2.0-4.0-1.34","61bb397040db417c1a138e4d","B2","batch2","spm_respsonse","70183","img/question_5_11.jpeg","7","mat_59","4","0","0","70183","","","","","","","","","","","","","","","","","","","","",""
"","","","","","html-keyboard-response","123","866019","0.0-2.0-4.0-0.35","61bb397040db417c1a138e4d","B2","batch2","spm_show_trial_num","null","<p class=block-text>Trial 60 out of 60</p>","null","","","","","","","","","","","","","","","","","","","","","","","","","",""
"","","","","","image-button-response","124","900371","0.0-2.0-4.0-1.35","61bb397040db417c1a138e4d","B2","batch2","spm_respsonse","34346.69999998808","img/question_5_12.jpeg","1","mat_60","5","0","0","34346.69999998808","","","","","","","","","","","","","","","","","","","","",""
"","","","","","html-button-response","125","902313","0.0-2.0-5.0","61bb397040db417c1a138e4d","B2","batch2","spm_goodbye","1687.5","<p class= block-text>This concludes the Standard Progressive Matrix game. Thank you for your responses!<br> When you are ready, click the button continue</p>","0","","","","","","","","","","","","","","","","","","","","","","","","","",""
"true","","","","","fullscreen","126","906201","0.0-3.0-0.0","61bb397040db417c1a138e4d","B2","batch2","","","","","","","","","","","","","","","","","","","","","","","","","","","","","",""
"","","","","","instructions","127","949712","0.0-3.0-1.0-0.0-0.0","61bb397040db417c1a138e4d","B2","batch2","tol-instructions","43508.69999998808","","","","","","","","[{""page_index"":0,""viewing_time"":6294.899999976158},{""page_index"":1,""viewing_time"":3517.800000011921},{""page_index"":2,""viewing_time"":2821.099999964237},{""page_index"":3,""viewing_time"":10661.200000047684},{""page_index"":4,""viewing_time"":8399.699999988079},{""page_index"":5,""viewing_time"":7394},{""page_index"":6,""viewing_time"":4418.699999988079}]","","","","","","","","","","","","","","","","","","","",""
"","","","","","html-button-response","128","950889","0.0-3.0-1.0-1.0-0.0","61bb397040db417c1a138e4d","B2","batch2","tol_enter_quiz","1174.1000000238419","<p class=block-text> Let's answer a few questions <br>","0","","","","","","","","","","","","","","","","","","","","","","","","","",""
"","","","","","html-button-response","129","953781","0.0-3.0-1.0-1.0-1.0","61bb397040db417c1a138e4d","B2","batch2","tol_quiz","2888.599999964237","<p class = block-text>True or False: You can only move the ball on top of a peg. <br></p>","0","","","true","","","","","","","","","","","","","","","","","","","","","","",""
"","","","","","html-button-response","130","955216","0.0-3.0-1.0-1.0-2.0","61bb397040db417c1a138e4d","B2","batch2","tol_quiz_feedback","1431.300000011921","<p class = block-text>Correct! You can only move the ball on top of a peg.</p>","0","","","","","","","","","","","","","","","","","","","","","","","","","",""
"","","","","","html-button-response","131","959086","0.0-3.0-1.0-1.0-3.0","61bb397040db417c1a138e4d","B2","batch2","tol_quiz","3867","<p class = block-text>True or False: You should try to match your board with the target board with fewest moves possible. <br></p>","0","","","true","","","","","","","","","","","","","","","","","","","","","","",""
"","","","","","html-button-response","132","959971","0.0-3.0-1.0-1.0-4.0","61bb397040db417c1a138e4d","B2","batch2","tol_quiz_feedback","881.1000000238419","<p class = block-text>Correct! </p>","0","","","","","","","","","","","","","","","","","","","","","","","","","",""
"","","","","","html-button-response","133","961354","0.0-3.0-2.0","61bb397040db417c1a138e4d","B2","batch2","","1366.8999999761581","<p class=block-text> Now that you've understood the game, let's practice a few easier examples before we start!<br> <br>","0","","","","","","","","","","","","","","","","","","","","","","","","","",""
"","","","","","single-stim-button","134","965485","0.0-3.0-3.0-0.0","61bb397040db417c1a138e4d","B2","batch2","tol_practice","4125","","","","","","","","","tol_peg_2","4125","4125","0","[[1,2,0],[0,0],[0]]","1","[[1,2,0],[0,0],[3]]","practice","4125","","","","","","","","","","",""
"","","","","","single-stim-button","135","966813","0.0-3.0-3.0-1.0","61bb397040db417c1a138e4d","B2","batch2","tol_practice","1325","","","","","","","","","tol_peg_3","1325","1325","0","[[1,2,0],[0,0],[3]]","1","[[1,2,0],[0,0],[3]]","practice","1325","","","","","","","","","","",""
"","","","","","poldrack-single-stim","136","967818","0.0-3.0-4.0","61bb397040db417c1a138e4d","B2","batch2","tol_feedback","-1","","","","","true","","","","","1000","1000","500","","","","","","-1","none","true","","0","","","","","",""
"","","","","","single-stim-button","137","970288","0.0-3.0-5.0-0.0","61bb397040db417c1a138e4d","B2","batch2","tol_practice","2468","","","","","","","","","tol_peg_1","2468","2468","0","[[1,0,0],[3,0],[0]]","2","[[0,0,0],[3,1],[2]]","practice","2468","","","","","","","","","","",""
"","","","","","single-stim-button","138","971467","0.0-3.0-5.0-1.0","61bb397040db417c1a138e4d","B2","batch2","tol_practice","1177","","","","","","","","","tol_peg_3","1177","1177","0","[[1,0,0],[3,0],[2]]","2","[[0,0,0],[3,1],[2]]","practice","1177","","","","","","","","","","",""
"","","","","","single-stim-button","139","972476","0.0-3.0-5.1-0.1","61bb397040db417c1a138e4d","B2","batch2","tol_practice","1007","","","","","","","","","tol_peg_1","1007","1007","0","[[0,0,0],[3,0],[2]]","3","[[0,0,0],[3,1],[2]]","practice","1007","","","","","","","","","","",""
"","","","","","single-stim-button","140","973463","0.0-3.0-5.1-1.1","61bb397040db417c1a138e4d","B2","batch2","tol_practice","985","","","","","","","","","tol_peg_2","985","985","0","[[0,0,0],[3,1],[2]]","3","[[0,0,0],[3,1],[2]]","practice","985","","","","","","","","","","",""
"","","","","","poldrack-single-stim","141","974465","0.0-3.0-6.0","61bb397040db417c1a138e4d","B2","batch2","tol_feedback","-1","","","","","true","","","","","1000","1000","500","","","","","","-1","none","true","","0","","","","","",""
"","","","","","single-stim-button","142","976773","0.0-3.0-7.0-0.0","61bb397040db417c1a138e4d","B2","batch2","tol_practice","2305","","","","","","","","","tol_peg_2","2305","2305","0","[[1,2,0],[0,0],[0]]","4","[[1,0,0],[2,0],[3]]","practice","2305","","","","","","","","","","",""
"","","","","","single-stim-button","143","977806","0.0-3.0-7.0-1.0","61bb397040db417c1a138e4d","B2","batch2","tol_practice","1030","","","","","","","","","tol_peg_3","1030","1030","0","[[1,2,0],[0,0],[3]]","4","[[1,0,0],[2,0],[3]]","practice","1030","","","","","","","","","","",""
"","","","","","single-stim-button","144","978804","0.0-3.0-7.1-0.1","61bb397040db417c1a138e4d","B2","batch2","tol_practice","995","","","","","","","","","tol_peg_1","995","995","0","[[1,0,0],[0,0],[3]]","5","[[1,0,0],[2,0],[3]]","practice","995","","","","","","","","","","",""
"","","","","","single-stim-button","145","980185","0.0-3.0-7.1-1.1","61bb397040db417c1a138e4d","B2","batch2","tol_practice","1379","","","","","","","","","tol_peg_2","1379","1379","0","[[1,0,0],[2,0],[3]]","5","[[1,0,0],[2,0],[3]]","practice","1379","","","","","","","","","","",""
"","","","","","poldrack-single-stim","146","981188","0.0-3.0-8.0","61bb397040db417c1a138e4d","B2","batch2","tol_feedback","-1","","","","","true","","","","","1000","1000","500","","","","","","-1","none","true","","0","","","","","",""
"","","","","","html-button-response","147","982701","0.0-3.0-9.0","61bb397040db417c1a138e4d","B2","batch2","tol_instruction","1511.699999988079","<div class = centerbox><p class = center-block-text>Great job! You are done with practice trials<br>You are about to start official trials.<br> <br> Problem <strong>1</strong> out of 25 problems</p></div>","0","","","","","","","","","","","","","","","","","","","","","","","","","",""
"","","","","","single-stim-button","148","986316","0.0-3.0-10.0-0.0","61bb397040db417c1a138e4d","B2","batch2","tol_tohand","2612","","","","","","","","","tol_peg_1","2612","2612","0","[[1,0,0],[3,0],[0]]","1","[[1,3,0],[2,0],[0]]","0","0","","","","","","3","","","","",""
"","","","","","single-stim-button","149","987700","0.0-3.0-10.0-1.0","61bb397040db417c1a138e4d","B2","batch2","tol_toboard","1382","","","","","","","","","tol_peg_3","1382","1382","0","[[1,0,0],[3,0],[2]]","1","[[1,3,0],[2,0],[0]]","0","0","","","","","","3","","","","",""
"","","","","","single-stim-button","150","988808","0.0-3.0-10.1-0.1","61bb397040db417c1a138e4d","B2","batch2","tol_tohand","1105","","","","","","","","","tol_peg_2","1105","1105","0","[[1,0,0],[0,0],[2]]","2","[[1,3,0],[2,0],[0]]","0","0","","","","","","3","","","","",""
"","","","","","single-stim-button","151","989639","0.0-3.0-10.1-1.1","61bb397040db417c1a138e4d","B2","batch2","tol_toboard","829","","","","","","","","","tol_peg_1","829","829","0","[[1,3,0],[0,0],[2]]","2","[[1,3,0],[2,0],[0]]","0","0","","","","","","3","","","","",""
"","","","","","single-stim-button","152","990555","0.0-3.0-10.2-0.2","61bb397040db417c1a138e4d","B2","batch2","tol_tohand","914","","","","","","","","","tol_peg_3","914","914","0","[[1,3,0],[0,0],[0]]","3","[[1,3,0],[2,0],[0]]","0","0","","","","","","3","","","","",""
"","","","","","single-stim-button","153","991639","0.0-3.0-10.2-1.2","61bb397040db417c1a138e4d","B2","batch2","tol_toboard","1082","","","","","","","","","tol_peg_2","1082","1082","0","[[1,3,0],[2,0],[0]]","3","[[1,3,0],[2,0],[0]]","0","0","","","","","","3","","","","",""
"","","","","","poldrack-single-stim","154","992642","0.0-3.0-11.0","61bb397040db417c1a138e4d","B2","batch2","tol_feedback","-1","","","","","true","","","","","1000","1000","500","","","","","","-1","none","true","2612","4631","","","","","",""
"","","","","","html-button-response","155","993824","0.0-3.0-12.0","61bb397040db417c1a138e4d","B2","batch2","tol_trial_num","1179.3999999761581","<div class = centerbox><p class = center-block-text>problem <strong>2</strong> out of 25 problems</p></div>","0","","","","","","","","","","","","","","","","","","","","","","","","","",""
"","","","","","single-stim-button","156","1006080","0.0-3.0-13.0-0.0","61bb397040db417c1a138e4d","B2","batch2","tol_tohand","12253","","","","","","","","","tol_peg_1","12253","12253","0","[[1,0,0],[3,0],[0]]","1","[[2,1,3],[0,0],[0]]","1","0","","","","","","5","","","","",""
"","","","","","single-stim-button","157","1009106","0.0-3.0-13.0-1.0","61bb397040db417c1a138e4d","B2","batch2","tol_toboard","3024","","","","","","","","","tol_peg_3","3024","3024","0","[[1,0,0],[3,0],[2]]","1","[[2,1,3],[0,0],[0]]","1","0","","","","","","5","","","","",""
"","","","","","single-stim-button","158","1010356","0.0-3.0-13.1-0.1","61bb397040db417c1a138e4d","B2","batch2","tol_tohand","1248","","","","","","","","","tol_peg_1","1248","1248","0","[[0,0,0],[3,0],[2]]","2","[[2,1,3],[0,0],[0]]","1","0","","","","","","5","","","","",""
"","","","","","single-stim-button","159","1011217","0.0-3.0-13.1-1.1","61bb397040db417c1a138e4d","B2","batch2","tol_toboard","859","","","","","","","","","tol_peg_2","859","859","0","[[0,0,0],[3,1],[2]]","2","[[2,1,3],[0,0],[0]]","1","0","","","","","","5","","","","",""
"","","","","","single-stim-button","160","1012016","0.0-3.0-13.2-0.2","61bb397040db417c1a138e4d","B2","batch2","tol_tohand","795","","","","","","","","","tol_peg_3","795","795","0","[[0,0,0],[3,1],[0]]","3","[[2,1,3],[0,0],[0]]","1","0","","","","","","5","","","","",""
"","","","","","single-stim-button","161","1012915","0.0-3.0-13.2-1.2","61bb397040db417c1a138e4d","B2","batch2","tol_toboard","898","","","","","","","","","tol_peg_1","898","898","0","[[2,0,0],[3,1],[0]]","3","[[2,1,3],[0,0],[0]]","1","0","","","","","","5","","","","",""
"","","","","","single-stim-button","162","1013889","0.0-3.0-13.3-0.3","61bb397040db417c1a138e4d","B2","batch2","tol_tohand","972","","","","","","","","","tol_peg_2","972","972","0","[[2,0,0],[3,0],[0]]","4","[[2,1,3],[0,0],[0]]","1","0","","","","","","5","","","","",""
"","","","","","single-stim-button","163","1014701","0.0-3.0-13.3-1.3","61bb397040db417c1a138e4d","B2","batch2","tol_toboard","810","","","","","","","","","tol_peg_1","810","810","0","[[2,1,0],[3,0],[0]]","4","[[2,1,3],[0,0],[0]]","1","0","","","","","","5","","","","",""
"","","","","","single-stim-button","164","1015411","0.0-3.0-13.4-0.4","61bb397040db417c1a138e4d","B2","batch2","tol_tohand","708","","","","","","","","","tol_peg_2","708","708","0","[[2,1,0],[0,0],[0]]","5","[[2,1,3],[0,0],[0]]","1","0","","","","","","5","","","","",""
"","","","","","single-stim-button","165","1016073","0.0-3.0-13.4-1.4","61bb397040db417c1a138e4d","B2","batch2","tol_toboard","660","","","","","","","","","tol_peg_1","660","660","0","[[2,1,3],[0,0],[0]]","5","[[2,1,3],[0,0],[0]]","1","0","","","","","","5","","","","",""
"","","","","","poldrack-single-stim","166","1017076","0.0-3.0-14.0","61bb397040db417c1a138e4d","B2","batch2","tol_feedback","-1","","","","","true","","","","","1000","1000","500","","","","","","-1","none","true","12253","15976","","","","","",""
"","","","","","html-button-response","167","1018735","0.0-3.0-15.0","61bb397040db417c1a138e4d","B2","batch2","tol_trial_num","1656.199999988079","<div class = centerbox><p class = center-block-text>problem <strong>3</strong> out of 25 problems</p></div>","0","","","","","","","","","","","","","","","","","","","","","","","","","",""
"","","","","","single-stim-button","168","1024598","0.0-3.0-16.0-0.0","61bb397040db417c1a138e4d","B2","batch2","tol_tohand","5860","","","","","","","","","tol_peg_1","5860","5860","0","[[2,0,0],[0,0],[1]]","1","[[1,2,0],[3,0],[0]]","2","0","","","","","","4","","","","",""
"","","","","","single-stim-button","169","1025628","0.0-3.0-16.0-1.0","61bb397040db417c1a138e4d","B2","batch2","tol_toboard","1028","","","","","","","","","tol_peg_2","1028","1028","0","[[2,0,0],[3,0],[1]]","1","[[1,2,0],[3,0],[0]]","2","0","","","","","","4","","","","",""
"","","","","","single-stim-button","170","1027592","0.0-3.0-16.1-0.1","61bb397040db417c1a138e4d","B2","batch2","tol_tohand","1961","","","","","","","","","tol_peg_3","1961","1961","0","[[2,0,0],[3,0],[0]]","2","[[1,2,0],[3,0],[0]]","2","0","","","","","","4","","","","",""
"","","","","","single-stim-button","171","1028433","0.0-3.0-16.1-1.1","61bb397040db417c1a138e4d","B2","batch2","tol_toboard","838","","","","","","","","","tol_peg_2","838","838","0","[[2,0,0],[3,1],[0]]","2","[[1,2,0],[3,0],[0]]","2","0","","","","","","4","","","","",""
"","","","","","single-stim-button","172","1029082","0.0-3.0-16.2-0.2","61bb397040db417c1a138e4d","B2","batch2","tol_tohand","647","","","","","","","","","tol_peg_1","647","647","0","[[0,0,0],[3,1],[0]]","3","[[1,2,0],[3,0],[0]]","2","0","","","","","","4","","","","",""
"","","","","","single-stim-button","173","1029952","0.0-3.0-16.2-1.2","61bb397040db417c1a138e4d","B2","batch2","tol_toboard","867","","","","","","","","","tol_peg_3","867","867","0","[[0,0,0],[3,1],[2]]","3","[[1,2,0],[3,0],[0]]","2","0","","","","","","4","","","","",""
"","","","","","single-stim-button","174","1031049","0.0-3.0-16.3-0.3","61bb397040db417c1a138e4d","B2","batch2","tol_tohand","1094","","","","","","","","","tol_peg_2","1094","1094","0","[[0,0,0],[3,0],[2]]","4","[[1,2,0],[3,0],[0]]","2","0","","","","","","4","","","","",""
"","","","","","single-stim-button","175","1031832","0.0-3.0-16.3-1.3","61bb397040db417c1a138e4d","B2","batch2","tol_toboard","781","","","","","","","","","tol_peg_1","781","781","0","[[1,0,0],[3,0],[2]]","4","[[1,2,0],[3,0],[0]]","2","0","","","","","","4","","","","",""
"","","","","","single-stim-button","176","1032857","0.0-3.0-16.4-0.4","61bb397040db417c1a138e4d","B2","batch2","tol_tohand","1023","","","","","","","","","tol_peg_3","1023","1023","0","[[1,0,0],[3,0],[0]]","5","[[1,2,0],[3,0],[0]]","2","0","","","","","","4","","","","",""
"","","","","","single-stim-button","177","1033588","0.0-3.0-16.4-1.4","61bb397040db417c1a138e4d","B2","batch2","tol_toboard","729","","","","","","","","","tol_peg_1","729","729","0","[[1,2,0],[3,0],[0]]","5","[[1,2,0],[3,0],[0]]","2","0","","","","","","4","","","","",""
"","","","","","poldrack-single-stim","178","1034591","0.0-3.0-17.0","61bb397040db417c1a138e4d","B2","batch2","tol_feedback","-1","","","","","true","","","","","1000","1000","500","","","","","","-1","none","true","5860","10585","","","","","",""
"","","","","","html-button-response","179","1035662","0.0-3.0-18.0","61bb397040db417c1a138e4d","B2","batch2","tol_trial_num","1068.800000011921","<div class = centerbox><p class = center-block-text>problem <strong>4</strong> out of 25 problems</p></div>","0","","","","","","","","","","","","","","","","","","","","","","","","","",""
"","","","","","single-stim-button","180","1038923","0.0-3.0-19.0-0.0","61bb397040db417c1a138e4d","B2","batch2","tol_tohand","3259","","","","","","","","","tol_peg_2","3259","3259","0","[[3,0,0],[2,0],[0]]","1","[[3,0,0],[1,0],[2]]","3","0","","","","","","3","","","","",""
"","","","","","single-stim-button","181","1039654","0.0-3.0-19.0-1.0","61bb397040db417c1a138e4d","B2","batch2","tol_toboard","729","","","","","","","","","tol_peg_1","729","729","0","[[3,1,0],[2,0],[0]]","1","[[3,0,0],[1,0],[2]]","3","0","","","","","","3","","","","",""
"","","","","","single-stim-button","182","1040487","0.0-3.0-19.1-0.1","61bb397040db417c1a138e4d","B2","batch2","tol_tohand","831","","","","","","","","","tol_peg_2","831","831","0","[[3,1,0],[0,0],[0]]","2","[[3,0,0],[1,0],[2]]","3","0","","","","","","3","","","","",""
"","","","","","single-stim-button","183","1041199","0.0-3.0-19.1-1.1","61bb397040db417c1a138e4d","B2","batch2","tol_toboard","710","","","","","","","","","tol_peg_3","710","710","0","[[3,1,0],[0,0],[2]]","2","[[3,0,0],[1,0],[2]]","3","0","","","","","","3","","","","",""
"","","","","","single-stim-button","184","1042019","0.0-3.0-19.2-0.2","61bb397040db417c1a138e4d","B2","batch2","tol_tohand","818","","","","","","","","","tol_peg_1","818","818","0","[[3,0,0],[0,0],[2]]","3","[[3,0,0],[1,0],[2]]","3","0","","","","","","3","","","","",""
"","","","","","single-stim-button","185","1042696","0.0-3.0-19.2-1.2","61bb397040db417c1a138e4d","B2","batch2","tol_toboard","675","","","","","","","","","tol_peg_2","675","675","0","[[3,0,0],[1,0],[2]]","3","[[3,0,0],[1,0],[2]]","3","0","","","","","","3","","","","",""
"","","","","","poldrack-single-stim","186","1043699","0.0-3.0-20.0","61bb397040db417c1a138e4d","B2","batch2","tol_feedback","-1","","","","","true","","","","","1000","1000","500","","","","","","-1","none","true","3259","4908","","","","","",""
"","","","","","html-button-response","187","1044628","0.0-3.0-21.0","61bb397040db417c1a138e4d","B2","batch2","tol_trial_num","927.3000000119209","<div class = centerbox><p class = center-block-text>problem <strong>5</strong> out of 25 problems</p></div>","0","","","","","","","","","","","","","","","","","","","","","","","","","",""
"","","","","","single-stim-button","188","1073158","0.0-3.0-22.0-0.0","61bb397040db417c1a138e4d","B2","batch2","tol_tohand","28528","","","","","","","","","tol_peg_3","28528","28528","0","[[1,0,0],[2,0],[0]]","1","[[0,0,0],[1,2],[3]]","4","0","","","","","","7","","","","",""
"","","","","","single-stim-button","189","1074637","0.0-3.0-22.0-1.0","61bb397040db417c1a138e4d","B2","batch2","tol_toboard","1475","","","","","","","","","tol_peg_1","1475","1475","0","[[1,3,0],[2,0],[0]]","1","[[0,0,0],[1,2],[3]]","4","0","","","","","","7","","","","",""
"","","","","","single-stim-button","190","1086272","0.0-3.0-22.1-0.1","61bb397040db417c1a138e4d","B2","batch2","tol_tohand","11633","","","","","","","","","tol_peg_1","11633","11633","0","[[1,0,0],[2,0],[0]]","2","[[0,0,0],[1,2],[3]]","4","0","","","","","","7","","","","",""
"","","","","","single-stim-button","191","1087647","0.0-3.0-22.1-1.1","61bb397040db417c1a138e4d","B2","batch2","tol_toboard","1372","","","","","","","","","tol_peg_3","1372","1372","0","[[1,0,0],[2,0],[3]]","2","[[0,0,0],[1,2],[3]]","4","0","","","","","","7","","","","",""
"","","","","","single-stim-button","192","1089797","0.0-3.0-22.2-0.2","61bb397040db417c1a138e4d","B2","batch2","tol_tohand","2147","","","","","","","","","tol_peg_1","2147","2147","0","[[0,0,0],[2,0],[3]]","3","[[0,0,0],[1,2],[3]]","4","0","","","","","","7","","","","",""
"","","","","","single-stim-button","193","1093751","0.0-3.0-22.2-1.2","61bb397040db417c1a138e4d","B2","batch2","tol_toboard","3952","","","","","","","","","tol_peg_1","3952","3952","0","[[1,0,0],[2,0],[3]]","3","[[0,0,0],[1,2],[3]]","4","0","","","","","","7","","","","",""
"","","","","","single-stim-button","194","1100061","0.0-3.0-22.3-0.3","61bb397040db417c1a138e4d","B2","batch2","tol_tohand","6303","","","","","","","","","tol_peg_3","6303","6303","0","[[1,0,0],[2,0],[0]]","4","[[0,0,0],[1,2],[3]]","4","0","","","","","","7","","","","",""
"","","","","","single-stim-button","195","1105072","0.0-3.0-22.3-1.3","61bb397040db417c1a138e4d","B2","batch2","tol_toboard","5008","","","","","","","","","tol_peg_2","5008","5008","0","[[1,0,0],[2,3],[0]]","4","[[0,0,0],[1,2],[3]]","4","0","","","","","","7","","","","",""
"","","","","","single-stim-button","196","1105987","0.0-3.0-22.4-0.4","61bb397040db417c1a138e4d","B2","batch2","tol_tohand","913","","","","","","","","","tol_peg_1","913","913","0","[[0,0,0],[2,3],[0]]","5","[[0,0,0],[1,2],[3]]","4","0","","","","","","7","","","","",""
"","","","","","single-stim-button","197","1107121","0.0-3.0-22.4-1.4","61bb397040db417c1a138e4d","B2","batch2","tol_toboard","1132","","","","","","","","","tol_peg_3","1132","1132","0","[[0,0,0],[2,3],[1]]","5","[[0,0,0],[1,2],[3]]","4","0","","","","","","7","","","","",""
"","","","","","single-stim-button","198","1108337","0.0-3.0-22.5-0.5","61bb397040db417c1a138e4d","B2","batch2","tol_tohand","1212","","","","","","","","","tol_peg_2","1212","1212","0","[[0,0,0],[2,0],[1]]","6","[[0,0,0],[1,2],[3]]","4","0","","","","","","7","","","","",""
"","","","","","single-stim-button","199","1109397","0.0-3.0-22.5-1.5","61bb397040db417c1a138e4d","B2","batch2","tol_toboard","1058","","","","","","","","","tol_peg_1","1058","1058","0","[[3,0,0],[2,0],[1]]","6","[[0,0,0],[1,2],[3]]","4","0","","","","","","7","","","","",""
"","","","","","single-stim-button","200","1110218","0.0-3.0-22.6-0.6","61bb397040db417c1a138e4d","B2","batch2","tol_tohand","818","","","","","","","","","tol_peg_2","818","818","0","[[3,0,0],[0,0],[1]]","7","[[0,0,0],[1,2],[3]]","4","0","","","","","","7","","","","",""
"","","","","","single-stim-button","201","1111080","0.0-3.0-22.6-1.6","61bb397040db417c1a138e4d","B2","batch2","tol_toboard","859","","","","","","","","","tol_peg_1","859","859","0","[[3,2,0],[0,0],[1]]","7","[[0,0,0],[1,2],[3]]","4","0","","","","","","7","","","","",""
"","","","","","single-stim-button","202","1112115","0.0-3.0-22.7-0.7","61bb397040db417c1a138e4d","B2","batch2","tol_tohand","1032","","","","","","","","","tol_peg_3","1032","1032","0","[[3,2,0],[0,0],[0]]","8","[[0,0,0],[1,2],[3]]","4","0","","","","","","7","","","","",""
"","","","","","single-stim-button","203","1112981","0.0-3.0-22.7-1.7","61bb397040db417c1a138e4d","B2","batch2","tol_toboard","863","","","","","","","","","tol_peg_2","863","863","0","[[3,2,0],[1,0],[0]]","8","[[0,0,0],[1,2],[3]]","4","0","","","","","","7","","","","",""
"","","","","","single-stim-button","204","1114334","0.0-3.0-22.8-0.8","61bb397040db417c1a138e4d","B2","batch2","tol_tohand","1351","","","","","","","","","tol_peg_1","1351","1351","0","[[3,0,0],[1,0],[0]]","9","[[0,0,0],[1,2],[3]]","4","0","","","","","","7","","","","",""
"","","","","","single-stim-button","205","1115045","0.0-3.0-22.8-1.8","61bb397040db417c1a138e4d","B2","batch2","tol_toboard","709","","","","","","","","","tol_peg_2","709","709","0","[[3,0,0],[1,2],[0]]","9","[[0,0,0],[1,2],[3]]","4","0","","","","","","7","","","","",""
"","","","","","single-stim-button","206","1115707","0.0-3.0-22.9-0.9","61bb397040db417c1a138e4d","B2","batch2","tol_tohand","660","","","","","","","","","tol_peg_1","660","660","0","[[0,0,0],[1,2],[0]]","10","[[0,0,0],[1,2],[3]]","4","0","","","","","","7","","","","",""
"","","","","","single-stim-button","207","1116425","0.0-3.0-22.9-1.9","61bb397040db417c1a138e4d","B2","batch2","tol_toboard","715","","","","","","","","","tol_peg_3","715","715","0","[[0,0,0],[1,2],[3]]","10","[[0,0,0],[1,2],[3]]","4","0","","","","","","7","","","","",""
"","","","","","poldrack-single-stim","208","1117428","0.0-3.0-23.0","61bb397040db417c1a138e4d","B2","batch2","tol_feedback","-1","","","","","true","","","","","1000","1000","500","","","","","","-1","none","true","28528","54597","","","","","",""
"","","","","","html-button-response","209","1118448","0.0-3.0-24.0","61bb397040db417c1a138e4d","B2","batch2","tol_trial_num","1018","<div class = centerbox><p class = center-block-text>problem <strong>6</strong> out of 25 problems</p></div>","0","","","","","","","","","","","","","","","","","","","","","","","","","",""
"","","","","","single-stim-button","210","1128924","0.0-3.0-25.0-0.0","61bb397040db417c1a138e4d","B2","batch2","tol_tohand","10472","","","","","","","","","tol_peg_3","10472","10472","0","[[0,0,0],[1,2],[0]]","1","[[1,0,0],[2,3],[0]]","5","0","","","","","","6","","","","",""
"","","","","","single-stim-button","211","1130013","0.0-3.0-25.0-1.0","61bb397040db417c1a138e4d","B2","batch2","tol_toboard","1087","","","","","","","","","tol_peg_1","1087","1087","0","[[3,0,0],[1,2],[0]]","1","[[1,0,0],[2,3],[0]]","5","0","","","","","","6","","","","",""
"","","","","","single-stim-button","212","1130960","0.0-3.0-25.1-0.1","61bb397040db417c1a138e4d","B2","batch2","tol_tohand","945","","","","","","","","","tol_peg_2","945","945","0","[[3,0,0],[1,0],[0]]","2","[[1,0,0],[2,3],[0]]","5","0","","","","","","6","","","","",""
"","","","","","single-stim-button","213","1132117","0.0-3.0-25.1-1.1","61bb397040db417c1a138e4d","B2","batch2","tol_toboard","1155","","","","","","","","","tol_peg_3","1155","1155","0","[[3,0,0],[1,0],[2]]","2","[[1,0,0],[2,3],[0]]","5","0","","","","","","6","","","","",""
"","","","","","single-stim-button","214","1133605","0.0-3.0-25.2-0.2","61bb397040db417c1a138e4d","B2","batch2","tol_tohand","1486","","","","","","","","","tol_peg_2","1486","1486","0","[[3,0,0],[0,0],[2]]","3","[[1,0,0],[2,3],[0]]","5","0","","","","","","6","","","","",""
"","","","","","single-stim-button","215","1134808","0.0-3.0-25.2-1.2","61bb397040db417c1a138e4d","B2","batch2","tol_toboard","1201","","","","","","","","","tol_peg_1","1201","1201","0","[[3,1,0],[0,0],[2]]","3","[[1,0,0],[2,3],[0]]","5","0","","","","","","6","","","","",""
"","","","","","single-stim-button","216","1135621","0.0-3.0-25.3-0.3","61bb397040db417c1a138e4d","B2","batch2","tol_tohand","811","","","","","","","","","tol_peg_3","811","811","0","[[3,1,0],[0,0],[0]]","4","[[1,0,0],[2,3],[0]]","5","0","","","","","","6","","","","",""
"","","","","","single-stim-button","217","1136497","0.0-3.0-25.3-1.3","61bb397040db417c1a138e4d","B2","batch2","tol_toboard","874","","","","","","","","","tol_peg_2","874","874","0","[[3,1,0],[2,0],[0]]","4","[[1,0,0],[2,3],[0]]","5","0","","","","","","6","","","","",""
"","","","","","single-stim-button","218","1137362","0.0-3.0-25.4-0.4","61bb397040db417c1a138e4d","B2","batch2","tol_tohand","863","","","","","","","","","tol_peg_1","863","863","0","[[3,0,0],[2,0],[0]]","5","[[1,0,0],[2,3],[0]]","5","0","","","","","","6","","","","",""
"","","","","","single-stim-button","219","1138376","0.0-3.0-25.4-1.4","61bb397040db417c1a138e4d","B2","batch2","tol_toboard","1012","","","","","","","","","tol_peg_3","1012","1012","0","[[3,0,0],[2,0],[1]]","5","[[1,0,0],[2,3],[0]]","5","0","","","","","","6","","","","",""
"","","","","","single-stim-button","220","1140177","0.0-3.0-25.5-0.5","61bb397040db417c1a138e4d","B2","batch2","tol_tohand","1799","","","","","","","","","tol_peg_1","1799","1799","0","[[0,0,0],[2,0],[1]]","6","[[1,0,0],[2,3],[0]]","5","0","","","","","","6","","","","",""
"","","","","","single-stim-button","221","1141075","0.0-3.0-25.5-1.5","61bb397040db417c1a138e4d","B2","batch2","tol_toboard","896","","","","","","","","","tol_peg_2","896","896","0","[[0,0,0],[2,3],[1]]","6","[[1,0,0],[2,3],[0]]","5","0","","","","","","6","","","","",""
"","","","","","single-stim-button","222","1141875","0.0-3.0-25.6-0.6","61bb397040db417c1a138e4d","B2","batch2","tol_tohand","798","","","","","","","","","tol_peg_3","798","798","0","[[0,0,0],[2,3],[0]]","7","[[1,0,0],[2,3],[0]]","5","0","","","","","","6","","","","",""
"","","","","","single-stim-button","223","1142719","0.0-3.0-25.6-1.6","61bb397040db417c1a138e4d","B2","batch2","tol_toboard","841","","","","","","","","","tol_peg_1","841","841","0","[[1,0,0],[2,3],[0]]","7","[[1,0,0],[2,3],[0]]","5","0","","","","","","6","","","","",""
"","","","","","poldrack-single-stim","224","1143722","0.0-3.0-26.0","61bb397040db417c1a138e4d","B2","batch2","tol_feedback","-1","","","","","true","","","","","1000","1000","500","","","","","","-1","none","true","10472","17174","","","","","",""
"","","","","","html-button-response","225","1145345","0.0-3.0-27.0","61bb397040db417c1a138e4d","B2","batch2","tol_trial_num","1620.2999999523163","<div class = centerbox><p class = center-block-text>problem <strong>7</strong> out of 25 problems</p></div>","0","","","","","","","","","","","","","","","","","","","","","","","","","",""
"","","","","","single-stim-button","226","1151385","0.0-3.0-28.0-0.0","61bb397040db417c1a138e4d","B2","batch2","tol_tohand","6038","","","","","","","","","tol_peg_3","6038","6038","0","[[2,1,0],[0,0],[0]]","1","[[1,2,0],[3,0],[0]]","6","0","","","","","","5","","","","",""
"","","","","","single-stim-button","227","1152262","0.0-3.0-28.0-1.0","61bb397040db417c1a138e4d","B2","batch2","tol_toboard","875","","","","","","","","","tol_peg_2","875","875","0","[[2,1,0],[3,0],[0]]","1","[[1,2,0],[3,0],[0]]","6","0","","","","","","5","","","","",""
"","","","","","single-stim-button","228","1154288","0.0-3.0-28.1-0.1","61bb397040db417c1a138e4d","B2","batch2","tol_tohand","2024","","","","","","","","","tol_peg_1","2024","2024","0","[[2,0,0],[3,0],[0]]","2","[[1,2,0],[3,0],[0]]","6","0","","","","","","5","","","","",""
"","","","","","single-stim-button","229","1155037","0.0-3.0-28.1-1.1","61bb397040db417c1a138e4d","B2","batch2","tol_toboard","746","","","","","","","","","tol_peg_2","746","746","0","[[2,0,0],[3,1],[0]]","2","[[1,2,0],[3,0],[0]]","6","0","","","","","","5","","","","",""
"","","","","","single-stim-button","230","1155842","0.0-3.0-28.2-0.2","61bb397040db417c1a138e4d","B2","batch2","tol_tohand","803","","","","","","","","","tol_peg_1","803","803","0","[[0,0,0],[3,1],[0]]","3","[[1,2,0],[3,0],[0]]","6","0","","","","","","5","","","","",""
"","","","","","single-stim-button","231","1156631","0.0-3.0-28.2-1.2","61bb397040db417c1a138e4d","B2","batch2","tol_toboard","786","","","","","","","","","tol_peg_3","786","786","0","[[0,0,0],[3,1],[2]]","3","[[1,2,0],[3,0],[0]]","6","0","","","","","","5","","","","",""
"","","","","","single-stim-button","232","1157641","0.0-3.0-28.3-0.3","61bb397040db417c1a138e4d","B2","batch2","tol_tohand","1008","","","","","","","","","tol_peg_2","1008","1008","0","[[0,0,0],[3,0],[2]]","4","[[1,2,0],[3,0],[0]]","6","0","","","","","","5","","","","",""
"","","","","","single-stim-button","233","1158410","0.0-3.0-28.3-1.3","61bb397040db417c1a138e4d","B2","batch2","tol_toboard","767","","","","","","","","","tol_peg_1","767","767","0","[[1,0,0],[3,0],[2]]","4","[[1,2,0],[3,0],[0]]","6","0","","","","","","5","","","","",""
"","","","","","single-stim-button","234","1159473","0.0-3.0-28.4-0.4","61bb397040db417c1a138e4d","B2","batch2","tol_tohand","1061","","","","","","","","","tol_peg_3","1061","1061","0","[[1,0,0],[3,0],[0]]","5","[[1,2,0],[3,0],[0]]","6","0","","","","","","5","","","","",""
"","","","","","single-stim-button","235","1160297","0.0-3.0-28.4-1.4","61bb397040db417c1a138e4d","B2","batch2","tol_toboard","821","","","","","","","","","tol_peg_1","821","821","0","[[1,2,0],[3,0],[0]]","5","[[1,2,0],[3,0],[0]]","6","0","","","","","","5","","","","",""
"","","","","","poldrack-single-stim","236","1161300","0.0-3.0-29.0","61bb397040db417c1a138e4d","B2","batch2","tol_feedback","-1","","","","","true","","","","","1000","1000","500","","","","","","-1","none","true","6038","10934","","","","","",""
"","","","","","html-button-response","237","1163342","0.0-3.0-30.0","61bb397040db417c1a138e4d","B2","batch2","tol_trial_num","2039.6000000238419","<div class = centerbox><p class = center-block-text>problem <strong>8</strong> out of 25 problems</p></div>","0","","","","","","","","","","","","","","","","","","","","","","","","","",""
"","","","","","single-stim-button","238","1167397","0.0-3.0-31.0-0.0","61bb397040db417c1a138e4d","B2","batch2","tol_tohand","4052","","","","","","","","","tol_peg_3","4052","4052","0","[[0,0,0],[2,3],[0]]","1","[[1,2,0],[3,0],[0]]","7","0","","","","","","4","","","","",""
"","","","","","single-stim-button","239","1168732","0.0-3.0-31.0-1.0","61bb397040db417c1a138e4d","B2","batch2","tol_toboard","1332","","","","","","","","","tol_peg_1","1332","1332","0","[[1,0,0],[2,3],[0]]","1","[[1,2,0],[3,0],[0]]","7","0","","","","","","4","","","","",""
"","","","","","single-stim-button","240","1169556","0.0-3.0-31.1-0.1","61bb397040db417c1a138e4d","B2","batch2","tol_tohand","822","","","","","","","","","tol_peg_2","822","822","0","[[1,0,0],[2,0],[0]]","2","[[1,2,0],[3,0],[0]]","7","0","","","","","","4","","","","",""
"","","","","","single-stim-button","241","1170993","0.0-3.0-31.1-1.1","61bb397040db417c1a138e4d","B2","batch2","tol_toboard","1432","","","","","","","","","tol_peg_3","1432","1432","0","[[1,0,0],[2,0],[3]]","2","[[1,2,0],[3,0],[0]]","7","0","","","","","","4","","","","",""
"","","","","","single-stim-button","242","1171622","0.0-3.0-31.2-0.2","61bb397040db417c1a138e4d","B2","batch2","tol_tohand","626","","","","","","","","","tol_peg_2","626","626","0","[[1,0,0],[0,0],[3]]","3","[[1,2,0],[3,0],[0]]","7","0","","","","","","4","","","","",""
"","","","","","single-stim-button","243","1172325","0.0-3.0-31.2-1.2","61bb397040db417c1a138e4d","B2","batch2","tol_toboard","701","","","","","","","","","tol_peg_1","701","701","0","[[1,2,0],[0,0],[3]]","3","[[1,2,0],[3,0],[0]]","7","0","","","","","","4","","","","",""
"","","","","","single-stim-button","244","1172991","0.0-3.0-31.3-0.3","61bb397040db417c1a138e4d","B2","batch2","tol_tohand","664","","","","","","","","","tol_peg_3","664","664","0","[[1,2,0],[0,0],[0]]","4","[[1,2,0],[3,0],[0]]","7","0","","","","","","4","","","","",""
"","","","","","single-stim-button","245","1173790","0.0-3.0-31.3-1.3","61bb397040db417c1a138e4d","B2","batch2","tol_toboard","796","","","","","","","","","tol_peg_2","796","796","0","[[1,2,0],[3,0],[0]]","4","[[1,2,0],[3,0],[0]]","7","0","","","","","","4","","","","",""
"","","","","","poldrack-single-stim","246","1174793","0.0-3.0-32.0","61bb397040db417c1a138e4d","B2","batch2","tol_feedback","-1","","","","","true","","","","","1000","1000","500","","","","","","-1","none","true","4052","6164","","","","","",""
"","","","","","html-button-response","247","1176206","0.0-3.0-33.0","61bb397040db417c1a138e4d","B2","batch2","tol_trial_num","1411.699999988079","<div class = centerbox><p class = center-block-text>problem <strong>9</strong> out of 25 problems</p></div>","0","","","","","","","","","","","","","","","","","","","","","","","","","",""
"","","","","","single-stim-button","248","1195471","0.0-3.0-34.0-0.0","61bb397040db417c1a138e4d","B2","batch2","tol_tohand","19262","","","","","","","","","tol_peg_3","19262","19262","0","[[3,2,0],[0,0],[0]]","1","[[2,1,0],[3,0],[0]]","8","0","","","","","","6","","","","",""
"","","","","","single-stim-button","249","1196491","0.0-3.0-34.0-1.0","61bb397040db417c1a138e4d","B2","batch2","tol_toboard","1017","","","","","","","","","tol_peg_2","1017","1017","0","[[3,2,0],[1,0],[0]]","1","[[2,1,0],[3,0],[0]]","8","0","","","","","","6","","","","",""
"","","","","","single-stim-button","250","1197487","0.0-3.0-34.1-0.1","61bb397040db417c1a138e4d","B2","batch2","tol_tohand","994","","","","","","","","","tol_peg_1","994","994","0","[[3,0,0],[1,0],[0]]","2","[[2,1,0],[3,0],[0]]","8","0","","","","","","6","","","","",""
"","","","","","single-stim-button","251","1199180","0.0-3.0-34.1-1.1","61bb397040db417c1a138e4d","B2","batch2","tol_toboard","1692","","","","","","","","","tol_peg_2","1692","1692","0","[[3,0,0],[1,2],[0]]","2","[[2,1,0],[3,0],[0]]","8","0","","","","","","6","","","","",""
"","","","","","single-stim-button","252","1201487","0.0-3.0-34.2-0.2","61bb397040db417c1a138e4d","B2","batch2","tol_tohand","2305","","","","","","","","","tol_peg_1","2305","2305","0","[[0,0,0],[1,2],[0]]","3","[[2,1,0],[3,0],[0]]","8","0","","","","","","6","","","","",""
"","","","","","single-stim-button","253","1202631","0.0-3.0-34.2-1.2","61bb397040db417c1a138e4d","B2","batch2","tol_toboard","1142","","","","","","","","","tol_peg_3","1142","1142","0","[[0,0,0],[1,2],[3]]","3","[[2,1,0],[3,0],[0]]","8","0","","","","","","6","","","","",""
"","","","","","single-stim-button","254","1203391","0.0-3.0-34.3-0.3","61bb397040db417c1a138e4d","B2","batch2","tol_tohand","758","","","","","","","","","tol_peg_2","758","758","0","[[0,0,0],[1,0],[3]]","4","[[2,1,0],[3,0],[0]]","8","0","","","","","","6","","","","",""
"","","","","","single-stim-button","255","1204092","0.0-3.0-34.3-1.3","61bb397040db417c1a138e4d","B2","batch2","tol_toboard","698","","","","","","","","","tol_peg_1","698","698","0","[[2,0,0],[1,0],[3]]","4","[[2,1,0],[3,0],[0]]","8","0","","","","","","6","","","","",""
"","","","","","single-stim-button","256","1205693","0.0-3.0-34.4-0.4","61bb397040db417c1a138e4d","B2","batch2","tol_tohand","1599","","","","","","","","","tol_peg_2","1599","1599","0","[[2,0,0],[0,0],[3]]","5","[[2,1,0],[3,0],[0]]","8","0","","","","","","6","","","","",""
"","","","","","single-stim-button","257","1206359","0.0-3.0-34.4-1.4","61bb397040db417c1a138e4d","B2","batch2","tol_toboard","664","","","","","","","","","tol_peg_1","664","664","0","[[2,1,0],[0,0],[3]]","5","[[2,1,0],[3,0],[0]]","8","0","","","","","","6","","","","",""
"","","","","","single-stim-button","258","1207326","0.0-3.0-34.5-0.5","61bb397040db417c1a138e4d","B2","batch2","tol_tohand","965","","","","","","","","","tol_peg_3","965","965","0","[[2,1,0],[0,0],[0]]","6","[[2,1,0],[3,0],[0]]","8","0","","","","","","6","","","","",""
"","","","","","single-stim-button","259","1208624","0.0-3.0-34.5-1.5","61bb397040db417c1a138e4d","B2","batch2","tol_toboard","1296","","","","","","","","","tol_peg_2","1296","1296","0","[[2,1,0],[3,0],[0]]","6","[[2,1,0],[3,0],[0]]","8","0","","","","","","6","","","","",""
"","","","","","poldrack-single-stim","260","1209627","0.0-3.0-35.0","61bb397040db417c1a138e4d","B2","batch2","tol_feedback","-1","","","","","true","","","","","1000","1000","500","","","","","","-1","none","true","19262","25883","","","","","",""
"","","","","","html-button-response","261","1210677","0.0-3.0-36.0","61bb397040db417c1a138e4d","B2","batch2","tol_trial_num","1048","<div class = centerbox><p class = center-block-text>problem <strong>10</strong> out of 25 problems</p></div>","0","","","","","","","","","","","","","","","","","","","","","","","","","",""
"","","","","","single-stim-button","262","1213416","0.0-3.0-37.0-0.0","61bb397040db417c1a138e4d","B2","batch2","tol_tohand","2736","","","","","","","","","tol_peg_2","2736","2736","0","[[3,0,0],[0,0],[2]]","1","[[3,0,0],[2,1],[0]]","9","0","","","","","","3","","","","",""
"","","","","","single-stim-button","263","1214436","0.0-3.0-37.0-1.0","61bb397040db417c1a138e4d","B2","batch2","tol_toboard","1018","","","","","","","","","tol_peg_1","1018","1018","0","[[3,1,0],[0,0],[2]]","1","[[3,0,0],[2,1],[0]]","9","0","","","","","","3","","","","",""
"","","","","","single-stim-button","264","1215371","0.0-3.0-37.1-0.1","61bb397040db417c1a138e4d","B2","batch2","tol_tohand","933","","","","","","","","","tol_peg_3","933","933","0","[[3,1,0],[0,0],[0]]","2","[[3,0,0],[2,1],[0]]","9","0","","","","","","3","","","","",""
"","","","","","single-stim-button","265","1216145","0.0-3.0-37.1-1.1","61bb397040db417c1a138e4d","B2","batch2","tol_toboard","772","","","","","","","","","tol_peg_2","772","772","0","[[3,1,0],[2,0],[0]]","2","[[3,0,0],[2,1],[0]]","9","0","","","","","","3","","","","",""
"","","","","","single-stim-button","266","1216919","0.0-3.0-37.2-0.2","61bb397040db417c1a138e4d","B2","batch2","tol_tohand","772","","","","","","","","","tol_peg_1","772","772","0","[[3,0,0],[2,0],[0]]","3","[[3,0,0],[2,1],[0]]","9","0","","","","","","3","","","","",""
"","","","","","single-stim-button","267","1217558","0.0-3.0-37.2-1.2","61bb397040db417c1a138e4d","B2","batch2","tol_toboard","637","","","","","","","","","tol_peg_2","637","637","0","[[3,0,0],[2,1],[0]]","3","[[3,0,0],[2,1],[0]]","9","0","","","","","","3","","","","",""
"","","","","","poldrack-single-stim","268","1218561","0.0-3.0-38.0","61bb397040db417c1a138e4d","B2","batch2","tol_feedback","-1","","","","","true","","","","","1000","1000","500","","","","","","-1","none","true","2736","4441","","","","","",""
"","","","","","html-button-response","269","1220143","0.0-3.0-39.0","61bb397040db417c1a138e4d","B2","batch2","tol_trial_num","1580.5","<div class = centerbox><p class = center-block-text>problem <strong>11</strong> out of 25 problems</p></div>","0","","","","","","","","","","","","","","","","","","","","","","","","","",""
"","","","","","single-stim-button","270","1235297","0.0-3.0-40.0-0.0","61bb397040db417c1a138e4d","B2","batch2","tol_tohand","15150","","","","","","","","","tol_peg_1","15150","15150","0","[[1,0,0],[3,0],[0]]","1","[[2,0,0],[1,3],[0]]","10","0","","","","","","6","","","","",""
"","","","","","single-stim-button","271","1236389","0.0-3.0-40.0-1.0","61bb397040db417c1a138e4d","B2","batch2","tol_toboard","1089","","","","","","","","","tol_peg_2","1089","1089","0","[[1,0,0],[3,2],[0]]","1","[[2,0,0],[1,3],[0]]","10","0","","","","","","6","","","","",""
"","","","","","single-stim-button","272","1237300","0.0-3.0-40.1-0.1","61bb397040db417c1a138e4d","B2","batch2","tol_tohand","908","","","","","","","","","tol_peg_1","908","908","0","[[0,0,0],[3,2],[0]]","2","[[2,0,0],[1,3],[0]]","10","0","","","","","","6","","","","",""
"","","","","","single-stim-button","273","1238239","0.0-3.0-40.1-1.1","61bb397040db417c1a138e4d","B2","batch2","tol_toboard","938","","","","","","","","","tol_peg_3","938","938","0","[[0,0,0],[3,2],[1]]","2","[[2,0,0],[1,3],[0]]","10","0","","","","","","6","","","","",""
"","","","","","single-stim-button","274","1239033","0.0-3.0-40.2-0.2","61bb397040db417c1a138e4d","B2","batch2","tol_tohand","791","","","","","","","","","tol_peg_2","791","791","0","[[0,0,0],[3,0],[1]]","3","[[2,0,0],[1,3],[0]]","10","0","","","","","","6","","","","",""
"","","","","","single-stim-button","275","1240174","0.0-3.0-40.2-1.2","61bb397040db417c1a138e4d","B2","batch2","tol_toboard","1139","","","","","","","","","tol_peg_1","1139","1139","0","[[2,0,0],[3,0],[1]]","3","[[2,0,0],[1,3],[0]]","10","0","","","","","","6","","","","",""
"","","","","","single-stim-button","276","1240886","0.0-3.0-40.3-0.3","61bb397040db417c1a138e4d","B2","batch2","tol_tohand","710","","","","","","","","","tol_peg_2","710","710","0","[[2,0,0],[0,0],[1]]","4","[[2,0,0],[1,3],[0]]","10","0","","","","","","6","","","","",""
"","","","","","single-stim-button","277","1241634","0.0-3.0-40.3-1.3","61bb397040db417c1a138e4d","B2","batch2","tol_toboard","746","","","","","","","","","tol_peg_1","746","746","0","[[2,3,0],[0,0],[1]]","4","[[2,0,0],[1,3],[0]]","10","0","","","","","","6","","","","",""
"","","","","","single-stim-button","278","1242397","0.0-3.0-40.4-0.4","61bb397040db417c1a138e4d","B2","batch2","tol_tohand","761","","","","","","","","","tol_peg_3","761","761","0","[[2,3,0],[0,0],[0]]","5","[[2,0,0],[1,3],[0]]","10","0","","","","","","6","","","","",""
"","","","","","single-stim-button","279","1243124","0.0-3.0-40.4-1.4","61bb397040db417c1a138e4d","B2","batch2","tol_toboard","724","","","","","","","","","tol_peg_2","724","724","0","[[2,3,0],[1,0],[0]]","5","[[2,0,0],[1,3],[0]]","10","0","","","","","","6","","","","",""
"","","","","","single-stim-button","280","1243837","0.0-3.0-40.5-0.5","61bb397040db417c1a138e4d","B2","batch2","tol_tohand","711","","","","","","","","","tol_peg_1","711","711","0","[[2,0,0],[1,0],[0]]","6","[[2,0,0],[1,3],[0]]","10","0","","","","","","6","","","","",""
"","","","","","single-stim-button","281","1244526","0.0-3.0-40.5-1.5","61bb397040db417c1a138e4d","B2","batch2","tol_toboard","686","","","","","","","","","tol_peg_2","686","686","0","[[2,0,0],[1,3],[0]]","6","[[2,0,0],[1,3],[0]]","10","0","","","","","","6","","","","",""
"","","","","","poldrack-single-stim","282","1245529","0.0-3.0-41.0","61bb397040db417c1a138e4d","B2","batch2","tol_feedback","-1","","","","","true","","","","","1000","1000","500","","","","","","-1","none","true","15150","19031","","","","","",""
"","","","","","html-button-response","283","1250354","0.0-3.0-42.0","61bb397040db417c1a138e4d","B2","batch2","tol_trial_num","4822.599999964237","<div class = centerbox><p class = center-block-text>problem <strong>12</strong> out of 25 problems</p></div>","0","","","","","","","","","","","","","","","","","","","","","","","","","",""
"","","","","","single-stim-button","284","1255088","0.0-3.0-43.0-0.0","61bb397040db417c1a138e4d","B2","batch2","tol_tohand","4732","","","","","","","","","tol_peg_1","4732","4732","0","[[1,0,0],[3,0],[0]]","1","[[2,3,0],[0,0],[1]]","11","0","","","","","","4","","","","",""
"","","","","","single-stim-button","285","1255789","0.0-3.0-43.0-1.0","61bb397040db417c1a138e4d","B2","batch2","tol_toboard","697","","","","","","","","","tol_peg_2","697","697","0","[[1,0,0],[3,2],[0]]","1","[[2,3,0],[0,0],[1]]","11","0","","","","","","4","","","","",""
"","","","","","single-stim-button","286","1256552","0.0-3.0-43.1-0.1","61bb397040db417c1a138e4d","B2","batch2","tol_tohand","762","","","","","","","","","tol_peg_1","762","762","0","[[0,0,0],[3,2],[0]]","2","[[2,3,0],[0,0],[1]]","11","0","","","","","","4","","","","",""
"","","","","","single-stim-button","287","1257346","0.0-3.0-43.1-1.1","61bb397040db417c1a138e4d","B2","batch2","tol_toboard","792","","","","","","","","","tol_peg_3","792","792","0","[[0,0,0],[3,2],[1]]","2","[[2,3,0],[0,0],[1]]","11","0","","","","","","4","","","","",""
"","","","","","single-stim-button","288","1257956","0.0-3.0-43.2-0.2","61bb397040db417c1a138e4d","B2","batch2","tol_tohand","608","","","","","","","","","tol_peg_2","608","608","0","[[0,0,0],[3,0],[1]]","3","[[2,3,0],[0,0],[1]]","11","0","","","","","","4","","","","",""
"","","","","","single-stim-button","289","1259256","0.0-3.0-43.2-1.2","61bb397040db417c1a138e4d","B2","batch2","tol_toboard","1298","","","","","","","","","tol_peg_1","1298","1298","0","[[2,0,0],[3,0],[1]]","3","[[2,3,0],[0,0],[1]]","11","0","","","","","","4","","","","",""
"","","","","","single-stim-button","290","1259942","0.0-3.0-43.3-0.3","61bb397040db417c1a138e4d","B2","batch2","tol_tohand","684","","","","","","","","","tol_peg_2","684","684","0","[[2,0,0],[0,0],[1]]","4","[[2,3,0],[0,0],[1]]","11","0","","","","","","4","","","","",""
"","","","","","single-stim-button","291","1260551","0.0-3.0-43.3-1.3","61bb397040db417c1a138e4d","B2","batch2","tol_toboard","606","","","","","","","","","tol_peg_1","606","606","0","[[2,3,0],[0,0],[1]]","4","[[2,3,0],[0,0],[1]]","11","0","","","","","","4","","","","",""
"","","","","","poldrack-single-stim","292","1261553","0.0-3.0-44.0","61bb397040db417c1a138e4d","B2","batch2","tol_feedback","-1","","","","","true","","","","","1000","1000","500","","","","","","-1","none","true","4732","6786","","","","","",""
"","","","","","html-button-response","293","1262741","0.0-3.0-45.0","61bb397040db417c1a138e4d","B2","batch2","tol_trial_num","1185.199999988079","<div class = centerbox><p class = center-block-text>problem <strong>13</strong> out of 25 problems</p></div>","0","","","","","","","","","","","","","","","","","","","","","","","","","",""
"","","","","","single-stim-button","294","1266152","0.0-3.0-46.0-0.0","61bb397040db417c1a138e4d","B2","batch2","tol_tohand","3408","","","","","","","","","tol_peg_1","3408","3408","0","[[1,0,0],[3,0],[0]]","1","[[0,0,0],[2,3],[1]]","12","0","","","","","","4","","","","",""
"","","","","","single-stim-button","295","1267005","0.0-3.0-46.0-1.0","61bb397040db417c1a138e4d","B2","batch2","tol_toboard","851","","","","","","","","","tol_peg_2","851","851","0","[[1,0,0],[3,2],[0]]","1","[[0,0,0],[2,3],[1]]","12","0","","","","","","4","","","","",""
"","","","","","single-stim-button","296","1268284","0.0-3.0-46.1-0.1","61bb397040db417c1a138e4d","B2","batch2","tol_tohand","1277","","","","","","","","","tol_peg_1","1277","1277","0","[[0,0,0],[3,2],[0]]","2","[[0,0,0],[2,3],[1]]","12","0","","","","","","4","","","","",""
"","","","","","single-stim-button","297","1269323","0.0-3.0-46.1-1.1","61bb397040db417c1a138e4d","B2","batch2","tol_toboard","1037","","","","","","","","","tol_peg_3","1037","1037","0","[[0,0,0],[3,2],[1]]","2","[[0,0,0],[2,3],[1]]","12","0","","","","","","4","","","","",""
"","","","","","single-stim-button","298","1273484","0.0-3.0-46.2-0.2","61bb397040db417c1a138e4d","B2","batch2","tol_tohand","4159","","","","","","","","","tol_peg_3","4159","4159","0","[[0,0,0],[3,2],[0]]","3","[[0,0,0],[2,3],[1]]","12","0","","","","","","4","","","","",""
"","","","","","single-stim-button","299","1274377","0.0-3.0-46.2-1.2","61bb397040db417c1a138e4d","B2","batch2","tol_toboard","891","","","","","","","","","tol_peg_1","891","891","0","[[1,0,0],[3,2],[0]]","3","[[0,0,0],[2,3],[1]]","12","0","","","","","","4","","","","",""
"","","","","","single-stim-button","300","1275248","0.0-3.0-46.3-0.3","61bb397040db417c1a138e4d","B2","batch2","tol_tohand","868","","","","","","","","","tol_peg_2","868","868","0","[[1,0,0],[3,0],[0]]","4","[[0,0,0],[2,3],[1]]","12","0","","","","","","4","","","","",""
"","","","","","single-stim-button","301","1276077","0.0-3.0-46.3-1.3","61bb397040db417c1a138e4d","B2","batch2","tol_toboard","826","","","","","","","","","tol_peg_1","826","826","0","[[1,2,0],[3,0],[0]]","4","[[0,0,0],[2,3],[1]]","12","0","","","","","","4","","","","",""
"","","","","","single-stim-button","302","1277062","0.0-3.0-46.4-0.4","61bb397040db417c1a138e4d","B2","batch2","tol_tohand","983","","","","","","","","","tol_peg_2","983","983","0","[[1,2,0],[0,0],[0]]","5","[[0,0,0],[2,3],[1]]","12","0","","","","","","4","","","","",""
"","","","","","single-stim-button","303","1277992","0.0-3.0-46.4-1.4","61bb397040db417c1a138e4d","B2","batch2","tol_toboard","928","","","","","","","","","tol_peg_3","928","928","0","[[1,2,0],[0,0],[3]]","5","[[0,0,0],[2,3],[1]]","12","0","","","","","","4","","","","",""
"","","","","","single-stim-button","304","1279018","0.0-3.0-46.5-0.5","61bb397040db417c1a138e4d","B2","batch2","tol_tohand","1024","","","","","","","","","tol_peg_1","1024","1024","0","[[1,0,0],[0,0],[3]]","6","[[0,0,0],[2,3],[1]]","12","0","","","","","","4","","","","",""
"","","","","","single-stim-button","305","1279897","0.0-3.0-46.5-1.5","61bb397040db417c1a138e4d","B2","batch2","tol_toboard","876","","","","","","","","","tol_peg_2","876","876","0","[[1,0,0],[2,0],[3]]","6","[[0,0,0],[2,3],[1]]","12","0","","","","","","4","","","","",""
"","","","","","single-stim-button","306","1280638","0.0-3.0-46.6-0.6","61bb397040db417c1a138e4d","B2","batch2","tol_tohand","739","","","","","","","","","tol_peg_3","739","739","0","[[1,0,0],[2,0],[0]]","7","[[0,0,0],[2,3],[1]]","12","0","","","","","","4","","","","",""
"","","","","","single-stim-button","307","1281273","0.0-3.0-46.6-1.6","61bb397040db417c1a138e4d","B2","batch2","tol_toboard","633","","","","","","","","","tol_peg_2","633","633","0","[[1,0,0],[2,3],[0]]","7","[[0,0,0],[2,3],[1]]","12","0","","","","","","4","","","","",""
"","","","","","single-stim-button","308","1281871","0.0-3.0-46.7-0.7","61bb397040db417c1a138e4d","B2","batch2","tol_tohand","595","","","","","","","","","tol_peg_1","595","595","0","[[0,0,0],[2,3],[0]]","8","[[0,0,0],[2,3],[1]]","12","0","","","","","","4","","","","",""
"","","","","","single-stim-button","309","1282536","0.0-3.0-46.7-1.7","61bb397040db417c1a138e4d","B2","batch2","tol_toboard","664","","","","","","","","","tol_peg_3","664","664","0","[[0,0,0],[2,3],[1]]","8","[[0,0,0],[2,3],[1]]","12","0","","","","","","4","","","","",""
"","","","","","poldrack-single-stim","310","1283539","0.0-3.0-47.0","61bb397040db417c1a138e4d","B2","batch2","tol_feedback","-1","","","","","true","","","","","1000","1000","500","","","","","","-1","none","true","3408","13053","","","","","",""
"","","","","","html-button-response","311","1290168","0.0-3.0-48.0","61bb397040db417c1a138e4d","B2","batch2","attention_check","6626.699999988079","<p class = block-text>How many balls are in your board<br></p>","1","","","true","","","","","","","","","","","","","","","","","","","","","","",""
"","","","","","html-button-response","312","1291321","0.0-3.0-49.0","61bb397040db417c1a138e4d","B2","batch2","tol_trial_num","1150","<div class = centerbox><p class = center-block-text>problem <strong>14</strong> out of 25 problems</p></div>","0","","","","","","","","","","","","","","","","","","","","","","","","","",""
"","","","","","single-stim-button","313","1296580","0.0-3.0-50.0-0.0","61bb397040db417c1a138e4d","B2","batch2","tol_tohand","5256","","","","","","","","","tol_peg_1","5256","5256","0","[[2,0,0],[3,0],[0]]","1","[[1,2,0],[3,0],[0]]","13","0","","","","","","4","","","","",""
"","","","","","single-stim-button","314","1297532","0.0-3.0-50.0-1.0","61bb397040db417c1a138e4d","B2","batch2","tol_toboard","949","","","","","","","","","tol_peg_3","949","949","0","[[2,0,0],[3,0],[1]]","1","[[1,2,0],[3,0],[0]]","13","0","","","","","","4","","","","",""
"","","","","","single-stim-button","315","1298303","0.0-3.0-50.1-0.1","61bb397040db417c1a138e4d","B2","batch2","tol_tohand","769","","","","","","","","","tol_peg_1","769","769","0","[[0,0,0],[3,0],[1]]","2","[[1,2,0],[3,0],[0]]","13","0","","","","","","4","","","","",""
"","","","","","single-stim-button","316","1299006","0.0-3.0-50.1-1.1","61bb397040db417c1a138e4d","B2","batch2","tol_toboard","700","","","","","","","","","tol_peg_2","700","700","0","[[0,0,0],[3,2],[1]]","2","[[1,2,0],[3,0],[0]]","13","0","","","","","","4","","","","",""
"","","","","","single-stim-button","317","1299770","0.0-3.0-50.2-0.2","61bb397040db417c1a138e4d","B2","batch2","tol_tohand","762","","","","","","","","","tol_peg_3","762","762","0","[[0,0,0],[3,2],[0]]","3","[[1,2,0],[3,0],[0]]","13","0","","","","","","4","","","","",""
"","","","","","single-stim-button","318","1300571","0.0-3.0-50.2-1.2","61bb397040db417c1a138e4d","B2","batch2","tol_toboard","799","","","","","","","","","tol_peg_1","799","799","0","[[1,0,0],[3,2],[0]]","3","[[1,2,0],[3,0],[0]]","13","0","","","","","","4","","","","",""
"","","","","","single-stim-button","319","1301299","0.0-3.0-50.3-0.3","61bb397040db417c1a138e4d","B2","batch2","tol_tohand","725","","","","","","","","","tol_peg_2","725","725","0","[[1,0,0],[3,0],[0]]","4","[[1,2,0],[3,0],[0]]","13","0","","","","","","4","","","","",""
"","","","","","single-stim-button","320","1301959","0.0-3.0-50.3-1.3","61bb397040db417c1a138e4d","B2","batch2","tol_toboard","659","","","","","","","","","tol_peg_1","659","659","0","[[1,2,0],[3,0],[0]]","4","[[1,2,0],[3,0],[0]]","13","0","","","","","","4","","","","",""
"","","","","","poldrack-single-stim","321","1302962","0.0-3.0-51.0","61bb397040db417c1a138e4d","B2","batch2","tol_feedback","-1","","","","","true","","","","","1000","1000","500","","","","","","-1","none","true","5256","7512","","","","","",""
"","","","","","html-button-response","322","1303996","0.0-3.0-52.0","61bb397040db417c1a138e4d","B2","batch2","tol_trial_num","1031.6000000238419","<div class = centerbox><p class = center-block-text>problem <strong>15</strong> out of 25 problems</p></div>","0","","","","","","","","","","","","","","","","","","","","","","","","","",""
"","","","","","single-stim-button","323","1307294","0.0-3.0-53.0-0.0","61bb397040db417c1a138e4d","B2","batch2","tol_tohand","3295","","","","","","","","","tol_peg_1","3295","3295","0","[[1,0,0],[3,0],[0]]","1","[[2,0,0],[3,0],[1]]","14","0","","","","","","3","","","","",""
"","","","","","single-stim-button","324","1308222","0.0-3.0-53.0-1.0","61bb397040db417c1a138e4d","B2","batch2","tol_toboard","926","","","","","","","","","tol_peg_2","926","926","0","[[1,0,0],[3,2],[0]]","1","[[2,0,0],[3,0],[1]]","14","0","","","","","","3","","","","",""
"","","","","","single-stim-button","325","1308921","0.0-3.0-53.1-0.1","61bb397040db417c1a138e4d","B2","batch2","tol_tohand","696","","","","","","","","","tol_peg_1","696","696","0","[[0,0,0],[3,2],[0]]","2","[[2,0,0],[3,0],[1]]","14","0","","","","","","3","","","","",""
"","","","","","single-stim-button","326","1309647","0.0-3.0-53.1-1.1","61bb397040db417c1a138e4d","B2","batch2","tol_toboard","724","","","","","","","","","tol_peg_3","724","724","0","[[0,0,0],[3,2],[1]]","2","[[2,0,0],[3,0],[1]]","14","0","","","","","","3","","","","",""
"","","","","","single-stim-button","327","1310578","0.0-3.0-53.2-0.2","61bb397040db417c1a138e4d","B2","batch2","tol_tohand","929","","","","","","","","","tol_peg_2","929","929","0","[[0,0,0],[3,0],[1]]","3","[[2,0,0],[3,0],[1]]","14","0","","","","","","3","","","","",""
"","","","","","single-stim-button","328","1311277","0.0-3.0-53.2-1.2","61bb397040db417c1a138e4d","B2","batch2","tol_toboard","697","","","","","","","","","tol_peg_1","697","697","0","[[2,0,0],[3,0],[1]]","3","[[2,0,0],[3,0],[1]]","14","0","","","","","","3","","","","",""
"","","","","","poldrack-single-stim","329","1312280","0.0-3.0-54.0","61bb397040db417c1a138e4d","B2","batch2","tol_feedback","-1","","","","","true","","","","","1000","1000","500","","","","","","-1","none","true","3295","4920","","","","","",""
"","","","","","html-button-response","330","1313763","0.0-3.0-55.0","61bb397040db417c1a138e4d","B2","batch2","tol_trial_num","1481.300000011921","<div class = centerbox><p class = center-block-text>problem <strong>16</strong> out of 25 problems</p></div>","0","","","","","","","","","","","","","","","","","","","","","","","","","",""
"","","","","","single-stim-button","331","1318905","0.0-3.0-56.0-0.0","61bb397040db417c1a138e4d","B2","batch2","tol_tohand","5140","","","","","","","","","tol_peg_3","5140","5140","0","[[0,0,0],[2,3],[0]]","1","[[2,3,0],[1,0],[0]]","15","0","","","","","","7","","","","",""
"","","","","","single-stim-button","332","1325737","0.0-3.0-56.0-1.0","61bb397040db417c1a138e4d","B2","batch2","tol_toboard","6830","","","","","","","","","tol_peg_1","6830","6830","0","[[1,0,0],[2,3],[0]]","1","[[2,3,0],[1,0],[0]]","15","0","","","","","","7","","","","",""
"","","","","","single-stim-button","333","1327412","0.0-3.0-56.1-0.1","61bb397040db417c1a138e4d","B2","batch2","tol_tohand","1672","","","","","","","","","tol_peg_2","1672","1672","0","[[1,0,0],[2,0],[0]]","2","[[2,3,0],[1,0],[0]]","15","0","","","","","","7","","","","",""
"","","","","","single-stim-button","334","1328201","0.0-3.0-56.1-1.1","61bb397040db417c1a138e4d","B2","batch2","tol_toboard","787","","","","","","","","","tol_peg_1","787","787","0","[[1,3,0],[2,0],[0]]","2","[[2,3,0],[1,0],[0]]","15","0","","","","","","7","","","","",""
"","","","","","single-stim-button","335","1329094","0.0-3.0-56.2-0.2","61bb397040db417c1a138e4d","B2","batch2","tol_tohand","891","","","","","","","","","tol_peg_2","891","891","0","[[1,3,0],[0,0],[0]]","3","[[2,3,0],[1,0],[0]]","15","0","","","","","","7","","","","",""
"","","","","","single-stim-button","336","1330840","0.0-3.0-56.2-1.2","61bb397040db417c1a138e4d","B2","batch2","tol_toboard","1743","","","","","","","","","tol_peg_3","1743","1743","0","[[1,3,0],[0,0],[2]]","3","[[2,3,0],[1,0],[0]]","15","0","","","","","","7","","","","",""
"","","","","","single-stim-button","337","1331745","0.0-3.0-56.3-0.3","61bb397040db417c1a138e4d","B2","batch2","tol_tohand","903","","","","","","","","","tol_peg_1","903","903","0","[[1,0,0],[0,0],[2]]","4","[[2,3,0],[1,0],[0]]","15","0","","","","","","7","","","","",""
"","","","","","single-stim-button","338","1332398","0.0-3.0-56.3-1.3","61bb397040db417c1a138e4d","B2","batch2","tol_toboard","651","","","","","","","","","tol_peg_2","651","651","0","[[1,0,0],[3,0],[2]]","4","[[2,3,0],[1,0],[0]]","15","0","","","","","","7","","","","",""
"","","","","","single-stim-button","339","1333157","0.0-3.0-56.4-0.4","61bb397040db417c1a138e4d","B2","batch2","tol_tohand","757","","","","","","","","","tol_peg_1","757","757","0","[[0,0,0],[3,0],[2]]","5","[[2,3,0],[1,0],[0]]","15","0","","","","","","7","","","","",""
"","","","","","single-stim-button","340","1333832","0.0-3.0-56.4-1.4","61bb397040db417c1a138e4d","B2","batch2","tol_toboard","673","","","","","","","","","tol_peg_2","673","673","0","[[0,0,0],[3,1],[2]]","5","[[2,3,0],[1,0],[0]]","15","0","","","","","","7","","","","",""
"","","","","","single-stim-button","341","1334509","0.0-3.0-56.5-0.5","61bb397040db417c1a138e4d","B2","batch2","tol_tohand","673","","","","","","","","","tol_peg_3","673","673","0","[[0,0,0],[3,1],[0]]","6","[[2,3,0],[1,0],[0]]","15","0","","","","","","7","","","","",""
"","","","","","single-stim-button","342","1335283","0.0-3.0-56.5-1.5","61bb397040db417c1a138e4d","B2","batch2","tol_toboard","772","","","","","","","","","tol_peg_1","772","772","0","[[2,0,0],[3,1],[0]]","6","[[2,3,0],[1,0],[0]]","15","0","","","","","","7","","","","",""
"","","","","","single-stim-button","343","1337593","0.0-3.0-56.6-0.6","61bb397040db417c1a138e4d","B2","batch2","tol_tohand","2308","","","","","","","","","tol_peg_2","2308","2308","0","[[2,0,0],[3,0],[0]]","7","[[2,3,0],[1,0],[0]]","15","0","","","","","","7","","","","",""
"","","","","","single-stim-button","344","1338449","0.0-3.0-56.6-1.6","61bb397040db417c1a138e4d","B2","batch2","tol_toboard","852","","","","","","","","","tol_peg_3","852","852","0","[[2,0,0],[3,0],[1]]","7","[[2,3,0],[1,0],[0]]","15","0","","","","","","7","","","","",""
"","","","","","single-stim-button","345","1339097","0.0-3.0-56.7-0.7","61bb397040db417c1a138e4d","B2","batch2","tol_tohand","646","","","","","","","","","tol_peg_2","646","646","0","[[2,0,0],[0,0],[1]]","8","[[2,3,0],[1,0],[0]]","15","0","","","","","","7","","","","",""
"","","","","","single-stim-button","346","1339786","0.0-3.0-56.7-1.7","61bb397040db417c1a138e4d","B2","batch2","tol_toboard","687","","","","","","","","","tol_peg_1","687","687","0","[[2,3,0],[0,0],[1]]","8","[[2,3,0],[1,0],[0]]","15","0","","","","","","7","","","","",""
"","","","","","single-stim-button","347","1340610","0.0-3.0-56.8-0.8","61bb397040db417c1a138e4d","B2","batch2","tol_tohand","821","","","","","","","","","tol_peg_3","821","821","0","[[2,3,0],[0,0],[0]]","9","[[2,3,0],[1,0],[0]]","15","0","","","","","","7","","","","",""
"","","","","","single-stim-button","348","1341335","0.0-3.0-56.8-1.8","61bb397040db417c1a138e4d","B2","batch2","tol_toboard","724","","","","","","","","","tol_peg_2","724","724","0","[[2,3,0],[1,0],[0]]","9","[[2,3,0],[1,0],[0]]","15","0","","","","","","7","","","","",""
"","","","","","poldrack-single-stim","349","1342338","0.0-3.0-57.0","61bb397040db417c1a138e4d","B2","batch2","tol_feedback","-1","","","","","true","","","","","1000","1000","500","","","","","","-1","none","true","5140","13811","","","","","",""
"","","","","","html-button-response","350","1343387","0.0-3.0-58.0","61bb397040db417c1a138e4d","B2","batch2","tol_trial_num","1045.9000000357628","<div class = centerbox><p class = center-block-text>problem <strong>17</strong> out of 25 problems</p></div>","0","","","","","","","","","","","","","","","","","","","","","","","","","",""
"","","","","","single-stim-button","351","1347500","0.0-3.0-59.0-0.0","61bb397040db417c1a138e4d","B2","batch2","tol_tohand","4110","","","","","","","","","tol_peg_1","4110","4110","0","[[1,0,0],[3,0],[0]]","1","[[3,1,0],[2,0],[0]]","16","0","","","","","","5","","","","",""
"","","","","","single-stim-button","352","1348484","0.0-3.0-59.0-1.0","61bb397040db417c1a138e4d","B2","batch2","tol_toboard","982","","","","","","","","","tol_peg_2","982","982","0","[[1,0,0],[3,2],[0]]","1","[[3,1,0],[2,0],[0]]","16","0","","","","","","5","","","","",""
"","","","","","single-stim-button","353","1349211","0.0-3.0-59.1-0.1","61bb397040db417c1a138e4d","B2","batch2","tol_tohand","725","","","","","","","","","tol_peg_1","725","725","0","[[0,0,0],[3,2],[0]]","2","[[3,1,0],[2,0],[0]]","16","0","","","","","","5","","","","",""
"","","","","","single-stim-button","354","1350035","0.0-3.0-59.1-1.1","61bb397040db417c1a138e4d","B2","batch2","tol_toboard","821","","","","","","","","","tol_peg_3","821","821","0","[[0,0,0],[3,2],[1]]","2","[[3,1,0],[2,0],[0]]","16","0","","","","","","5","","","","",""
