"success","timeout","failed_images","failed_audio","failed_video","trial_type","trial_index","time_elapsed","internal_node_id","subject_id","study_id","session_id","view_history","rt","task","stimulus","response","correct","mouse_click","stim_duration","block_duration","timing_post_trial","current_position","tol_num_moves_made","tol_target","tol_problem_id","tol_rt","key_press","possible_responses","tol_correct","preplanning","tol_rt_per_trial","tol_min_moves","answer","item","fiar_detect_rt","fiar_detect_correct","total_correct_fiar_detect","post_trial_gap","choices","spm_correct","spm_rt"
"true","false","[]","[]","[]","preload","0","12659","0.0-0.0","61f2adfaa09e72f23cbaf9da","B2","batch2","","","","","","","","","","","","","","","","","","","","","","","","","","","","","",""
"true","","","","","fullscreen","1","18920","0.0-1.0-0.0","61f2adfaa09e72f23cbaf9da","B2","batch2","","","","","","","","","","","","","","","","","","","","","","","","","","","","","",""
"true","","","","","fullscreen","2","25180","0.0-2.0-0.0","61f2adfaa09e72f23cbaf9da","B2","batch2","","","","","","","","","","","","","","","","","","","","","","","","","","","","","",""
"","","","","","instructions","3","114773","0.0-2.0-1.0-0.0-0.0","61f2adfaa09e72f23cbaf9da","B2","batch2","[{""page_index"":0,""viewing_time"":16110.799999982119},{""page_index"":1,""viewing_time"":22743.09999999404},{""page_index"":2,""viewing_time"":13164.800000011921},{""page_index"":3,""viewing_time"":14122.09999999404},{""page_index"":4,""viewing_time"":10150.09999999404},{""page_index"":5,""viewing_time"":10289.5},{""page_index"":6,""viewing_time"":3010.5}]","89591.5","tol-instructions","","","","","","","","","","","","","","","","","","","","","","","","","","",""
"","","","","","html-button-response","4","118286","0.0-2.0-1.0-1.0-0.0","61f2adfaa09e72f23cbaf9da","B2","batch2","","3510.5","tol_enter_quiz","<p class=block-text> Let's answer a few questions <br>","0","","","","","","","","","","","","","","","","","","","","","","","","",""
"","","","","","html-button-response","5","127992","0.0-2.0-1.0-1.0-1.0","61f2adfaa09e72f23cbaf9da","B2","batch2","","9703.09999999404","tol_quiz","<p class = block-text>True or False: You can only move the ball on top of a peg. <br></p>","0","true","","","","","","","","","","","","","","","","","","","","","","","",""
"","","","","","html-button-response","6","129940","0.0-2.0-1.0-1.0-2.0","61f2adfaa09e72f23cbaf9da","B2","batch2","","1944.7999999821186","tol_quiz_feedback","<p class = block-text>Correct! You can only move the ball on top of a peg.</p>","0","","","","","","","","","","","","","","","","","","","","","","","","",""
"","","","","","html-button-response","7","135096","0.0-2.0-1.0-1.0-3.0","61f2adfaa09e72f23cbaf9da","B2","batch2","","5153.700000017881","tol_quiz","<p class = block-text>True or False: You should try to match your board with the target board with fewest moves possible. <br></p>","0","true","","","","","","","","","","","","","","","","","","","","","","","",""
"","","","","","html-button-response","8","136200","0.0-2.0-1.0-1.0-4.0","61f2adfaa09e72f23cbaf9da","B2","batch2","","1101.6000000238419","tol_quiz_feedback","<p class = block-text>Correct! </p>","0","","","","","","","","","","","","","","","","","","","","","","","","",""
"","","","","","html-button-response","9","138853","0.0-2.0-2.0","61f2adfaa09e72f23cbaf9da","B2","batch2","","2649.0999999940395","","<p class=block-text> Now that you've understood the game, let's practice a few easier examples before we start!<br> <br>","0","","","","","","","","","","","","","","","","","","","","","","","","",""
"","","","","","single-stim-button","10","142917","0.0-2.0-3.0-0.0","61f2adfaa09e72f23cbaf9da","B2","batch2","","4061","tol_practice","","","","tol_peg_2","4061","4061","0","[[1,2,0],[0,0],[0]]","1","[[1,2,0],[0,0],[3]]","practice","4061","","","","","","","","","","","","","","",""
"","","","","","single-stim-button","11","144939","0.0-2.0-3.0-1.0","61f2adfaa09e72f23cbaf9da","B2","batch2","","2020","tol_practice","","","","tol_peg_3","2020","2020","0","[[1,2,0],[0,0],[3]]","1","[[1,2,0],[0,0],[3]]","practice","2020","","","","","","","","","","","","","","",""
"","","","","","poldrack-single-stim","12","145945","0.0-2.0-4.0","61f2adfaa09e72f23cbaf9da","B2","batch2","","-1","tol_feedback","","","true","","1000","1000","500","","","","","","-1","none","true","","0","","","","","","","","","",""
"","","","","","single-stim-button","13","152389","0.0-2.0-5.0-0.0","61f2adfaa09e72f23cbaf9da","B2","batch2","","6443","tol_practice","","","","tol_peg_1","6443","6443","0","[[1,0,0],[3,0],[0]]","2","[[0,0,0],[3,1],[2]]","practice","6443","","","","","","","","","","","","","","",""
"","","","","","single-stim-button","14","153834","0.0-2.0-5.0-1.0","61f2adfaa09e72f23cbaf9da","B2","batch2","","1444","tol_practice","","","","tol_peg_3","1444","1444","0","[[1,0,0],[3,0],[2]]","2","[[0,0,0],[3,1],[2]]","practice","1444","","","","","","","","","","","","","","",""
"","","","","","single-stim-button","15","155559","0.0-2.0-5.1-0.1","61f2adfaa09e72f23cbaf9da","B2","batch2","","1722","tol_practice","","","","tol_peg_1","1722","1722","0","[[0,0,0],[3,0],[2]]","3","[[0,0,0],[3,1],[2]]","practice","1722","","","","","","","","","","","","","","",""
"","","","","","single-stim-button","16","156560","0.0-2.0-5.1-1.1","61f2adfaa09e72f23cbaf9da","B2","batch2","","999","tol_practice","","","","tol_peg_2","999","999","0","[[0,0,0],[3,1],[2]]","3","[[0,0,0],[3,1],[2]]","practice","999","","","","","","","","","","","","","","",""
"","","","","","poldrack-single-stim","17","157565","0.0-2.0-6.0","61f2adfaa09e72f23cbaf9da","B2","batch2","","-1","tol_feedback","","","true","","1000","1000","500","","","","","","-1","none","true","","0","","","","","","","","","",""
"","","","","","single-stim-button","18","162430","0.0-2.0-7.0-0.0","61f2adfaa09e72f23cbaf9da","B2","batch2","","4863","tol_practice","","","","tol_peg_2","4863","4863","0","[[1,2,0],[0,0],[0]]","4","[[1,0,0],[2,0],[3]]","practice","4863","","","","","","","","","","","","","","",""
"","","","","","single-stim-button","19","163613","0.0-2.0-7.0-1.0","61f2adfaa09e72f23cbaf9da","B2","batch2","","1183","tol_practice","","","","tol_peg_3","1183","1183","0","[[1,2,0],[0,0],[3]]","4","[[1,0,0],[2,0],[3]]","practice","1183","","","","","","","","","","","","","","",""
"","","","","","single-stim-button","20","164471","0.0-2.0-7.1-0.1","61f2adfaa09e72f23cbaf9da","B2","batch2","","857","tol_practice","","","","tol_peg_1","857","857","0","[[1,0,0],[0,0],[3]]","5","[[1,0,0],[2,0],[3]]","practice","857","","","","","","","","","","","","","","",""
"","","","","","single-stim-button","21","165369","0.0-2.0-7.1-1.1","61f2adfaa09e72f23cbaf9da","B2","batch2","","896","tol_practice","","","","tol_peg_2","896","896","0","[[1,0,0],[2,0],[3]]","5","[[1,0,0],[2,0],[3]]","practice","896","","","","","","","","","","","","","","",""
"","","","","","poldrack-single-stim","22","166375","0.0-2.0-8.0","61f2adfaa09e72f23cbaf9da","B2","batch2","","-1","tol_feedback","","","true","","1000","1000","500","","","","","","-1","none","true","","0","","","","","","","","","",""
"","","","","","html-button-response","23","170096","0.0-2.0-9.0","61f2adfaa09e72f23cbaf9da","B2","batch2","","3719.100000023842","tol_instruction","<div class = centerbox><p class = center-block-text>Great job! You are done with practice trials<br>You are about to start official trials.<br> <br> Problem <strong>1</strong> out of 25 problems</p></div>","0","","","","","","","","","","","","","","","","","","","","","","","","",""
"","","","","","single-stim-button","24","177606","0.0-2.0-10.0-0.0","61f2adfaa09e72f23cbaf9da","B2","batch2","","6501","tol_tohand","","","","tol_peg_1","6501","6501","0","[[1,0,0],[3,0],[0]]","1","[[1,3,0],[2,0],[0]]","0","0","","","","","","3","","","","","","","","",""
"","","","","","single-stim-button","25","179147","0.0-2.0-10.0-1.0","61f2adfaa09e72f23cbaf9da","B2","batch2","","1539","tol_toboard","","","","tol_peg_3","1539","1539","0","[[1,0,0],[3,0],[2]]","1","[[1,3,0],[2,0],[0]]","0","0","","","","","","3","","","","","","","","",""
"","","","","","single-stim-button","26","179925","0.0-2.0-10.1-0.1","61f2adfaa09e72f23cbaf9da","B2","batch2","","776","tol_tohand","","","","tol_peg_2","776","776","0","[[1,0,0],[0,0],[2]]","2","[[1,3,0],[2,0],[0]]","0","0","","","","","","3","","","","","","","","",""
"","","","","","single-stim-button","27","180879","0.0-2.0-10.1-1.1","61f2adfaa09e72f23cbaf9da","B2","batch2","","953","tol_toboard","","","","tol_peg_1","953","953","0","[[1,3,0],[0,0],[2]]","2","[[1,3,0],[2,0],[0]]","0","0","","","","","","3","","","","","","","","",""
"","","","","","single-stim-button","28","182085","0.0-2.0-10.2-0.2","61f2adfaa09e72f23cbaf9da","B2","batch2","","1205","tol_tohand","","","","tol_peg_3","1205","1205","0","[[1,3,0],[0,0],[0]]","3","[[1,3,0],[2,0],[0]]","0","0","","","","","","3","","","","","","","","",""
"","","","","","single-stim-button","29","183094","0.0-2.0-10.2-1.2","61f2adfaa09e72f23cbaf9da","B2","batch2","","1008","tol_toboard","","","","tol_peg_2","1008","1008","0","[[1,3,0],[2,0],[0]]","3","[[1,3,0],[2,0],[0]]","0","0","","","","","","3","","","","","","","","",""
"","","","","","poldrack-single-stim","30","184105","0.0-2.0-11.0","61f2adfaa09e72f23cbaf9da","B2","batch2","","-1","tol_feedback","","","true","","1000","1000","500","","","","","","-1","none","true","6501","8482","","","","","","","","","",""
"","","","","","html-button-response","31","185326","0.0-2.0-12.0","61f2adfaa09e72f23cbaf9da","B2","batch2","","1219.9000000059605","tol_trial_num","<div class = centerbox><p class = center-block-text>problem <strong>2</strong> out of 25 problems</p></div>","0","","","","","","","","","","","","","","","","","","","","","","","","",""
"","","","","","single-stim-button","32","189965","0.0-2.0-13.0-0.0","61f2adfaa09e72f23cbaf9da","B2","batch2","","4636","tol_tohand","","","","tol_peg_1","4636","4636","0","[[1,0,0],[3,0],[0]]","1","[[2,1,3],[0,0],[0]]","1","0","","","","","","5","","","","","","","","",""
"","","","","","single-stim-button","33","192634","0.0-2.0-13.0-1.0","61f2adfaa09e72f23cbaf9da","B2","batch2","","2667","tol_toboard","","","","tol_peg_2","2667","2667","0","[[1,0,0],[3,2],[0]]","1","[[2,1,3],[0,0],[0]]","1","0","","","","","","5","","","","","","","","",""
"","","","","","single-stim-button","34","193603","0.0-2.0-13.1-0.1","61f2adfaa09e72f23cbaf9da","B2","batch2","","967","tol_tohand","","","","tol_peg_1","967","967","0","[[0,0,0],[3,2],[0]]","2","[[2,1,3],[0,0],[0]]","1","0","","","","","","5","","","","","","","","",""
"","","","","","single-stim-button","35","194191","0.0-2.0-13.1-1.1","61f2adfaa09e72f23cbaf9da","B2","batch2","","587","tol_toboard","","","","tol_peg_1","587","587","0","[[1,0,0],[3,2],[0]]","2","[[2,1,3],[0,0],[0]]","1","0","","","","","","5","","","","","","","","",""
"","","","","","single-stim-button","36","196089","0.0-2.0-13.2-0.2","61f2adfaa09e72f23cbaf9da","B2","batch2","","1896","tol_tohand","","","","tol_peg_1","1896","1896","0","[[0,0,0],[3,2],[0]]","3","[[2,1,3],[0,0],[0]]","1","0","","","","","","5","","","","","","","","",""
"","","","","","single-stim-button","37","197487","0.0-2.0-13.2-1.2","61f2adfaa09e72f23cbaf9da","B2","batch2","","1398","tol_toboard","","","","tol_peg_3","1398","1398","0","[[0,0,0],[3,2],[1]]","3","[[2,1,3],[0,0],[0]]","1","0","","","","","","5","","","","","","","","",""
"","","","","","single-stim-button","38","198313","0.0-2.0-13.3-0.3","61f2adfaa09e72f23cbaf9da","B2","batch2","","825","tol_tohand","","","","tol_peg_2","825","825","0","[[0,0,0],[3,0],[1]]","4","[[2,1,3],[0,0],[0]]","1","0","","","","","","5","","","","","","","","",""
"","","","","","single-stim-button","39","199274","0.0-2.0-13.3-1.3","61f2adfaa09e72f23cbaf9da","B2","batch2","","960","tol_toboard","","","","tol_peg_1","960","960","0","[[2,0,0],[3,0],[1]]","4","[[2,1,3],[0,0],[0]]","1","0","","","","","","5","","","","","","","","",""
"","","","","","single-stim-button","40","200164","0.0-2.0-13.4-0.4","61f2adfaa09e72f23cbaf9da","B2","batch2","","889","tol_tohand","","","","tol_peg_3","889","889","0","[[2,0,0],[3,0],[0]]","5","[[2,1,3],[0,0],[0]]","1","0","","","","","","5","","","","","","","","",""
"","","","","","single-stim-button","41","201419","0.0-2.0-13.4-1.4","61f2adfaa09e72f23cbaf9da","B2","batch2","","1253","tol_toboard","","","","tol_peg_1","1253","1253","0","[[2,1,0],[3,0],[0]]","5","[[2,1,3],[0,0],[0]]","1","0","","","","","","5","","","","","","","","",""
"","","","","","single-stim-button","42","202253","0.0-2.0-13.5-0.5","61f2adfaa09e72f23cbaf9da","B2","batch2","","833","tol_tohand","","","","tol_peg_2","833","833","0","[[2,1,0],[0,0],[0]]","6","[[2,1,3],[0,0],[0]]","1","0","","","","","","5","","","","","","","","",""
"","","","","","single-stim-button","43","202904","0.0-2.0-13.5-1.5","61f2adfaa09e72f23cbaf9da","B2","batch2","","650","tol_toboard","","","","tol_peg_1","650","650","0","[[2,1,3],[0,0],[0]]","6","[[2,1,3],[0,0],[0]]","1","0","","","","","","5","","","","","","","","",""
"","","","","","poldrack-single-stim","44","203909","0.0-2.0-14.0","61f2adfaa09e72f23cbaf9da","B2","batch2","","-1","tol_feedback","","","true","","1000","1000","500","","","","","","-1","none","true","4636","10046","","","","","","","","","",""
"","","","","","html-button-response","45","205828","0.0-2.0-15.0","61f2adfaa09e72f23cbaf9da","B2","batch2","","1916.7999999821186","tol_trial_num","<div class = centerbox><p class = center-block-text>problem <strong>3</strong> out of 25 problems</p></div>","0","","","","","","","","","","","","","","","","","","","","","","","","",""
"","","","","","single-stim-button","46","208504","0.0-2.0-16.0-0.0","61f2adfaa09e72f23cbaf9da","B2","batch2","","2675","tol_tohand","","","","tol_peg_1","2675","2675","0","[[2,0,0],[0,0],[1]]","1","[[1,2,0],[3,0],[0]]","2","0","","","","","","4","","","","","","","","",""
"","","","","","single-stim-button","47","209544","0.0-2.0-16.0-1.0","61f2adfaa09e72f23cbaf9da","B2","batch2","","1039","tol_toboard","","","","tol_peg_2","1039","1039","0","[[2,0,0],[3,0],[1]]","1","[[1,2,0],[3,0],[0]]","2","0","","","","","","4","","","","","","","","",""
"","","","","","single-stim-button","48","212030","0.0-2.0-16.1-0.1","61f2adfaa09e72f23cbaf9da","B2","batch2","","2485","tol_tohand","","","","tol_peg_1","2485","2485","0","[[0,0,0],[3,0],[1]]","2","[[1,2,0],[3,0],[0]]","2","0","","","","","","4","","","","","","","","",""
"","","","","","single-stim-button","49","212833","0.0-2.0-16.1-1.1","61f2adfaa09e72f23cbaf9da","B2","batch2","","801","tol_toboard","","","","tol_peg_2","801","801","0","[[0,0,0],[3,2],[1]]","2","[[1,2,0],[3,0],[0]]","2","0","","","","","","4","","","","","","","","",""
"","","","","","single-stim-button","50","213713","0.0-2.0-16.2-0.2","61f2adfaa09e72f23cbaf9da","B2","batch2","","879","tol_tohand","","","","tol_peg_3","879","879","0","[[0,0,0],[3,2],[0]]","3","[[1,2,0],[3,0],[0]]","2","0","","","","","","4","","","","","","","","",""
"","","","","","single-stim-button","51","215114","0.0-2.0-16.2-1.2","61f2adfaa09e72f23cbaf9da","B2","batch2","","1400","tol_toboard","","","","tol_peg_1","1400","1400","0","[[1,0,0],[3,2],[0]]","3","[[1,2,0],[3,0],[0]]","2","0","","","","","","4","","","","","","","","",""
"","","","","","single-stim-button","52","217670","0.0-2.0-16.3-0.3","61f2adfaa09e72f23cbaf9da","B2","batch2","","2555","tol_tohand","","","","tol_peg_2","2555","2555","0","[[1,0,0],[3,0],[0]]","4","[[1,2,0],[3,0],[0]]","2","0","","","","","","4","","","","","","","","",""
"","","","","","single-stim-button","53","219162","0.0-2.0-16.3-1.3","61f2adfaa09e72f23cbaf9da","B2","batch2","","1492","tol_toboard","","","","tol_peg_1","1492","1492","0","[[1,2,0],[3,0],[0]]","4","[[1,2,0],[3,0],[0]]","2","0","","","","","","4","","","","","","","","",""
"","","","","","poldrack-single-stim","54","220166","0.0-2.0-17.0","61f2adfaa09e72f23cbaf9da","B2","batch2","","-1","tol_feedback","","","true","","1000","1000","500","","","","","","-1","none","true","2675","8594","","","","","","","","","",""
"","","","","","html-button-response","55","221371","0.0-2.0-18.0","61f2adfaa09e72f23cbaf9da","B2","batch2","","1203.5","tol_trial_num","<div class = centerbox><p class = center-block-text>problem <strong>4</strong> out of 25 problems</p></div>","0","","","","","","","","","","","","","","","","","","","","","","","","",""
"","","","","","single-stim-button","56","226018","0.0-2.0-19.0-0.0","61f2adfaa09e72f23cbaf9da","B2","batch2","","4645","tol_tohand","","","","tol_peg_2","4645","4645","0","[[3,0,0],[2,0],[0]]","1","[[3,0,0],[1,0],[2]]","3","0","","","","","","3","","","","","","","","",""
"","","","","","single-stim-button","57","227011","0.0-2.0-19.0-1.0","61f2adfaa09e72f23cbaf9da","B2","batch2","","991","tol_toboard","","","","tol_peg_3","991","991","0","[[3,0,0],[2,0],[1]]","1","[[3,0,0],[1,0],[2]]","3","0","","","","","","3","","","","","","","","",""
"","","","","","single-stim-button","58","228114","0.0-2.0-19.1-0.1","61f2adfaa09e72f23cbaf9da","B2","batch2","","1102","tol_tohand","","","","tol_peg_2","1102","1102","0","[[3,0,0],[0,0],[1]]","2","[[3,0,0],[1,0],[2]]","3","0","","","","","","3","","","","","","","","",""
"","","","","","single-stim-button","59","229084","0.0-2.0-19.1-1.1","61f2adfaa09e72f23cbaf9da","B2","batch2","","969","tol_toboard","","","","tol_peg_1","969","969","0","[[3,2,0],[0,0],[1]]","2","[[3,0,0],[1,0],[2]]","3","0","","","","","","3","","","","","","","","",""
"","","","","","single-stim-button","60","230148","0.0-2.0-19.2-0.2","61f2adfaa09e72f23cbaf9da","B2","batch2","","1062","tol_tohand","","","","tol_peg_3","1062","1062","0","[[3,2,0],[0,0],[0]]","3","[[3,0,0],[1,0],[2]]","3","0","","","","","","3","","","","","","","","",""
"","","","","","single-stim-button","61","230664","0.0-2.0-19.2-1.2","61f2adfaa09e72f23cbaf9da","B2","batch2","","515","tol_toboard","","","","tol_peg_2","515","515","0","[[3,2,0],[1,0],[0]]","3","[[3,0,0],[1,0],[2]]","3","0","","","","","","3","","","","","","","","",""
"","","","","","single-stim-button","62","231339","0.0-2.0-19.3-0.3","61f2adfaa09e72f23cbaf9da","B2","batch2","","674","tol_tohand","","","","tol_peg_1","674","674","0","[[3,0,0],[1,0],[0]]","4","[[3,0,0],[1,0],[2]]","3","0","","","","","","3","","","","","","","","",""
"","","","","","single-stim-button","63","232547","0.0-2.0-19.3-1.3","61f2adfaa09e72f23cbaf9da","B2","batch2","","1206","tol_toboard","","","","tol_peg_3","1206","1206","0","[[3,0,0],[1,0],[2]]","4","[[3,0,0],[1,0],[2]]","3","0","","","","","","3","","","","","","","","",""
"","","","","","poldrack-single-stim","64","233558","0.0-2.0-20.0","61f2adfaa09e72f23cbaf9da","B2","batch2","","-1","tol_feedback","","","true","","1000","1000","500","","","","","","-1","none","true","4645","7483","","","","","","","","","",""
"","","","","","html-button-response","65","234620","0.0-2.0-21.0","61f2adfaa09e72f23cbaf9da","B2","batch2","","1060.199999988079","tol_trial_num","<div class = centerbox><p class = center-block-text>problem <strong>5</strong> out of 25 problems</p></div>","0","","","","","","","","","","","","","","","","","","","","","","","","",""
"","","","","","single-stim-button","66","238439","0.0-2.0-22.0-0.0","61f2adfaa09e72f23cbaf9da","B2","batch2","","3818","tol_tohand","","","","tol_peg_2","3818","3818","0","[[1,0,0],[0,0],[3]]","1","[[0,0,0],[1,2],[3]]","4","0","","","","","","7","","","","","","","","",""
"","","","","","single-stim-button","67","240791","0.0-2.0-22.0-1.0","61f2adfaa09e72f23cbaf9da","B2","batch2","","2352","tol_toboard","","","","tol_peg_2","2352","2352","0","[[1,0,0],[2,0],[3]]","1","[[0,0,0],[1,2],[3]]","4","0","","","","","","7","","","","","","","","",""
"","","","","","single-stim-button","68","241569","0.0-2.0-22.1-0.1","61f2adfaa09e72f23cbaf9da","B2","batch2","","777","tol_tohand","","","","tol_peg_3","777","777","0","[[1,0,0],[2,0],[0]]","2","[[0,0,0],[1,2],[3]]","4","0","","","","","","7","","","","","","","","",""
"","","","","","single-stim-button","69","244040","0.0-2.0-22.1-1.1","61f2adfaa09e72f23cbaf9da","B2","batch2","","2469","tol_toboard","","","","tol_peg_1","2469","2469","0","[[1,3,0],[2,0],[0]]","2","[[0,0,0],[1,2],[3]]","4","0","","","","","","7","","","","","","","","",""
"","","","","","single-stim-button","70","250195","0.0-2.0-22.2-0.2","61f2adfaa09e72f23cbaf9da","B2","batch2","","6154","tol_tohand","","","","tol_peg_2","6154","6154","0","[[1,3,0],[0,0],[0]]","3","[[0,0,0],[1,2],[3]]","4","0","","","","","","7","","","","","","","","",""
"","","","","","single-stim-button","71","250902","0.0-2.0-22.2-1.2","61f2adfaa09e72f23cbaf9da","B2","batch2","","705","tol_toboard","","","","tol_peg_3","705","705","0","[[1,3,0],[0,0],[2]]","3","[[0,0,0],[1,2],[3]]","4","0","","","","","","7","","","","","","","","",""
"","","","","","single-stim-button","72","252078","0.0-2.0-22.3-0.3","61f2adfaa09e72f23cbaf9da","B2","batch2","","1174","tol_tohand","","","","tol_peg_1","1174","1174","0","[[1,0,0],[0,0],[2]]","4","[[0,0,0],[1,2],[3]]","4","0","","","","","","7","","","","","","","","",""
"","","","","","single-stim-button","73","257344","0.0-2.0-22.3-1.3","61f2adfaa09e72f23cbaf9da","B2","batch2","","5264","tol_toboard","","","","tol_peg_1","5264","5264","0","[[1,3,0],[0,0],[2]]","4","[[0,0,0],[1,2],[3]]","4","0","","","","","","7","","","","","","","","",""
"","","","","","single-stim-button","74","258750","0.0-2.0-22.4-0.4","61f2adfaa09e72f23cbaf9da","B2","batch2","","1404","tol_tohand","","","","tol_peg_1","1404","1404","0","[[1,0,0],[0,0],[2]]","5","[[0,0,0],[1,2],[3]]","4","0","","","","","","7","","","","","","","","",""
"","","","","","single-stim-button","75","260505","0.0-2.0-22.4-1.4","61f2adfaa09e72f23cbaf9da","B2","batch2","","1754","tol_toboard","","","","tol_peg_2","1754","1754","0","[[1,0,0],[3,0],[2]]","5","[[0,0,0],[1,2],[3]]","4","0","","","","","","7","","","","","","","","",""
"","","","","","single-stim-button","76","262475","0.0-2.0-22.5-0.5","61f2adfaa09e72f23cbaf9da","B2","batch2","","1968","tol_tohand","","","","tol_peg_1","1968","1968","0","[[0,0,0],[3,0],[2]]","6","[[0,0,0],[1,2],[3]]","4","0","","","","","","7","","","","","","","","",""
"","","","","","single-stim-button","77","270358","0.0-2.0-22.5-1.5","61f2adfaa09e72f23cbaf9da","B2","batch2","","7883","tol_toboard","","","","tol_peg_2","7883","7883","0","[[0,0,0],[3,1],[2]]","6","[[0,0,0],[1,2],[3]]","4","0","","","","","","7","","","","","","","","",""
"","","","","","single-stim-button","78","272821","0.0-2.0-22.6-0.6","61f2adfaa09e72f23cbaf9da","B2","batch2","","2460","tol_tohand","","","","tol_peg_2","2460","2460","0","[[0,0,0],[3,0],[2]]","7","[[0,0,0],[1,2],[3]]","4","0","","","","","","7","","","","","","","","",""
"","","","","","single-stim-button","79","274854","0.0-2.0-22.6-1.6","61f2adfaa09e72f23cbaf9da","B2","batch2","","2032","tol_toboard","","","","tol_peg_2","2032","2032","0","[[0,0,0],[3,1],[2]]","7","[[0,0,0],[1,2],[3]]","4","0","","","","","","7","","","","","","","","",""
"","","","","","single-stim-button","80","277276","0.0-2.0-22.7-0.7","61f2adfaa09e72f23cbaf9da","B2","batch2","","2420","tol_tohand","","","","tol_peg_3","2420","2420","0","[[0,0,0],[3,1],[0]]","8","[[0,0,0],[1,2],[3]]","4","0","","","","","","7","","","","","","","","",""
"","","","","","single-stim-button","81","278332","0.0-2.0-22.7-1.7","61f2adfaa09e72f23cbaf9da","B2","batch2","","1055","tol_toboard","","","","tol_peg_1","1055","1055","0","[[2,0,0],[3,1],[0]]","8","[[0,0,0],[1,2],[3]]","4","0","","","","","","7","","","","","","","","",""
"","","","","","single-stim-button","82","279182","0.0-2.0-22.8-0.8","61f2adfaa09e72f23cbaf9da","B2","batch2","","848","tol_tohand","","","","tol_peg_2","848","848","0","[[2,0,0],[3,0],[0]]","9","[[0,0,0],[1,2],[3]]","4","0","","","","","","7","","","","","","","","",""
"","","","","","single-stim-button","83","280072","0.0-2.0-22.8-1.8","61f2adfaa09e72f23cbaf9da","B2","batch2","","888","tol_toboard","","","","tol_peg_3","888","888","0","[[2,0,0],[3,0],[1]]","9","[[0,0,0],[1,2],[3]]","4","0","","","","","","7","","","","","","","","",""
"","","","","","single-stim-button","84","281358","0.0-2.0-22.9-0.9","61f2adfaa09e72f23cbaf9da","B2","batch2","","1285","tol_tohand","","","","tol_peg_2","1285","1285","0","[[2,0,0],[0,0],[1]]","10","[[0,0,0],[1,2],[3]]","4","0","","","","","","7","","","","","","","","",""
"","","","","","single-stim-button","85","282272","0.0-2.0-22.9-1.9","61f2adfaa09e72f23cbaf9da","B2","batch2","","913","tol_toboard","","","","tol_peg_1","913","913","0","[[2,3,0],[0,0],[1]]","10","[[0,0,0],[1,2],[3]]","4","0","","","","","","7","","","","","","","","",""
"","","","","","single-stim-button","86","285132","0.0-2.0-22.10-0.10","61f2adfaa09e72f23cbaf9da","B2","batch2","","2858","tol_tohand","","","","tol_peg_3","2858","2858","0","[[2,3,0],[0,0],[0]]","11","[[0,0,0],[1,2],[3]]","4","0","","","","","","7","","","","","","","","",""
"","","","","","single-stim-button","87","286403","0.0-2.0-22.10-1.10","61f2adfaa09e72f23cbaf9da","B2","batch2","","1269","tol_toboard","","","","tol_peg_2","1269","1269","0","[[2,3,0],[1,0],[0]]","11","[[0,0,0],[1,2],[3]]","4","0","","","","","","7","","","","","","","","",""
"","","","","","single-stim-button","88","288047","0.0-2.0-22.11-0.11","61f2adfaa09e72f23cbaf9da","B2","batch2","","1642","tol_tohand","","","","tol_peg_1","1642","1642","0","[[2,0,0],[1,0],[0]]","12","[[0,0,0],[1,2],[3]]","4","0","","","","","","7","","","","","","","","",""
"","","","","","single-stim-button","89","288825","0.0-2.0-22.11-1.11","61f2adfaa09e72f23cbaf9da","B2","batch2","","777","tol_toboard","","","","tol_peg_3","777","777","0","[[2,0,0],[1,0],[3]]","12","[[0,0,0],[1,2],[3]]","4","0","","","","","","7","","","","","","","","",""
"","","","","","single-stim-button","90","289453","0.0-2.0-22.12-0.12","61f2adfaa09e72f23cbaf9da","B2","batch2","","626","tol_tohand","","","","tol_peg_1","626","626","0","[[0,0,0],[1,0],[3]]","13","[[0,0,0],[1,2],[3]]","4","0","","","","","","7","","","","","","","","",""
"","","","","","single-stim-button","91","290286","0.0-2.0-22.12-1.12","61f2adfaa09e72f23cbaf9da","B2","batch2","","833","tol_toboard","","","","tol_peg_2","833","833","0","[[0,0,0],[1,2],[3]]","13","[[0,0,0],[1,2],[3]]","4","0","","","","","","7","","","","","","","","",""
"","","","","","poldrack-single-stim","92","291294","0.0-2.0-23.0","61f2adfaa09e72f23cbaf9da","B2","batch2","","-1","tol_feedback","","","true","","1000","1000","500","","","","","","-1","none","true","3818","27434","","","","","","","","","",""
"","","","","","html-button-response","93","292312","0.0-2.0-24.0","61f2adfaa09e72f23cbaf9da","B2","batch2","","1016.7999999821186","tol_trial_num","<div class = centerbox><p class = center-block-text>problem <strong>6</strong> out of 25 problems</p></div>","0","","","","","","","","","","","","","","","","","","","","","","","","",""
"","","","","","single-stim-button","94","303314","0.0-2.0-25.0-0.0","61f2adfaa09e72f23cbaf9da","B2","batch2","","11001","tol_tohand","","","","tol_peg_2","11001","11001","0","[[0,0,0],[1,0],[3]]","1","[[1,0,0],[2,3],[0]]","5","0","","","","","","6","","","","","","","","",""
"","","","","","single-stim-button","95","306570","0.0-2.0-25.0-1.0","61f2adfaa09e72f23cbaf9da","B2","batch2","","3255","tol_toboard","","","","tol_peg_1","3255","3255","0","[[2,0,0],[1,0],[3]]","1","[[1,0,0],[2,3],[0]]","5","0","","","","","","6","","","","","","","","",""
"","","","","","single-stim-button","96","307746","0.0-2.0-25.1-0.1","61f2adfaa09e72f23cbaf9da","B2","batch2","","1174","tol_tohand","","","","tol_peg_3","1174","1174","0","[[2,0,0],[1,0],[0]]","2","[[1,0,0],[2,3],[0]]","5","0","","","","","","6","","","","","","","","",""
"","","","","","single-stim-button","97","310010","0.0-2.0-25.1-1.1","61f2adfaa09e72f23cbaf9da","B2","batch2","","2263","tol_toboard","","","","tol_peg_2","2263","2263","0","[[2,0,0],[1,3],[0]]","2","[[1,0,0],[2,3],[0]]","5","0","","","","","","6","","","","","","","","",""
"","","","","","single-stim-button","98","313544","0.0-2.0-25.2-0.2","61f2adfaa09e72f23cbaf9da","B2","batch2","","3533","tol_tohand","","","","tol_peg_1","3533","3533","0","[[0,0,0],[1,3],[0]]","3","[[1,0,0],[2,3],[0]]","5","0","","","","","","6","","","","","","","","",""
"","","","","","single-stim-button","99","314346","0.0-2.0-25.2-1.2","61f2adfaa09e72f23cbaf9da","B2","batch2","","801","tol_toboard","","","","tol_peg_3","801","801","0","[[0,0,0],[1,3],[2]]","3","[[1,0,0],[2,3],[0]]","5","0","","","","","","6","","","","","","","","",""
"","","","","","single-stim-button","100","316538","0.0-2.0-25.3-0.3","61f2adfaa09e72f23cbaf9da","B2","batch2","","2191","tol_tohand","","","","tol_peg_2","2191","2191","0","[[0,0,0],[1,0],[2]]","4","[[1,0,0],[2,3],[0]]","5","0","","","","","","6","","","","","","","","",""
"","","","","","single-stim-button","101","317929","0.0-2.0-25.3-1.3","61f2adfaa09e72f23cbaf9da","B2","batch2","","1389","tol_toboard","","","","tol_peg_1","1389","1389","0","[[3,0,0],[1,0],[2]]","4","[[1,0,0],[2,3],[0]]","5","0","","","","","","6","","","","","","","","",""
"","","","","","single-stim-button","102","321177","0.0-2.0-25.4-0.4","61f2adfaa09e72f23cbaf9da","B2","batch2","","3247","tol_tohand","","","","tol_peg_3","3247","3247","0","[[3,0,0],[1,0],[0]]","5","[[1,0,0],[2,3],[0]]","5","0","","","","","","6","","","","","","","","",""
"","","","","","single-stim-button","103","322051","0.0-2.0-25.4-1.4","61f2adfaa09e72f23cbaf9da","B2","batch2","","872","tol_toboard","","","","tol_peg_1","872","872","0","[[3,2,0],[1,0],[0]]","5","[[1,0,0],[2,3],[0]]","5","0","","","","","","6","","","","","","","","",""
"","","","","","single-stim-button","104","322758","0.0-2.0-25.5-0.5","61f2adfaa09e72f23cbaf9da","B2","batch2","","706","tol_tohand","","","","tol_peg_2","706","706","0","[[3,2,0],[0,0],[0]]","6","[[1,0,0],[2,3],[0]]","5","0","","","","","","6","","","","","","","","",""
"","","","","","single-stim-button","105","323711","0.0-2.0-25.5-1.5","61f2adfaa09e72f23cbaf9da","B2","batch2","","952","tol_toboard","","","","tol_peg_3","952","952","0","[[3,2,0],[0,0],[1]]","6","[[1,0,0],[2,3],[0]]","5","0","","","","","","6","","","","","","","","",""
"","","","","","single-stim-button","106","325451","0.0-2.0-25.6-0.6","61f2adfaa09e72f23cbaf9da","B2","batch2","","1738","tol_tohand","","","","tol_peg_1","1738","1738","0","[[3,0,0],[0,0],[1]]","7","[[1,0,0],[2,3],[0]]","5","0","","","","","","6","","","","","","","","",""
"","","","","","single-stim-button","107","326444","0.0-2.0-25.6-1.6","61f2adfaa09e72f23cbaf9da","B2","batch2","","991","tol_toboard","","","","tol_peg_2","991","991","0","[[3,0,0],[2,0],[1]]","7","[[1,0,0],[2,3],[0]]","5","0","","","","","","6","","","","","","","","",""
"","","","","","single-stim-button","108","327079","0.0-2.0-25.7-0.7","61f2adfaa09e72f23cbaf9da","B2","batch2","","633","tol_tohand","","","","tol_peg_1","633","633","0","[[0,0,0],[2,0],[1]]","8","[[1,0,0],[2,3],[0]]","5","0","","","","","","6","","","","","","","","",""
"","","","","","single-stim-button","109","327818","0.0-2.0-25.7-1.7","61f2adfaa09e72f23cbaf9da","B2","batch2","","737","tol_toboard","","","","tol_peg_2","737","737","0","[[0,0,0],[2,3],[1]]","8","[[1,0,0],[2,3],[0]]","5","0","","","","","","6","","","","","","","","",""
"","","","","","single-stim-button","110","328565","0.0-2.0-25.8-0.8","61f2adfaa09e72f23cbaf9da","B2","batch2","","745","tol_tohand","","","","tol_peg_3","745","745","0","[[0,0,0],[2,3],[0]]","9","[[1,0,0],[2,3],[0]]","5","0","","","","","","6","","","","","","","","",""
"","","","","","single-stim-button","111","329756","0.0-2.0-25.8-1.8","61f2adfaa09e72f23cbaf9da","B2","batch2","","1191","tol_toboard","","","","tol_peg_1","1191","1191","0","[[1,0,0],[2,3],[0]]","9","[[1,0,0],[2,3],[0]]","5","0","","","","","","6","","","","","","","","",""
"","","","","","poldrack-single-stim","112","330767","0.0-2.0-26.0","61f2adfaa09e72f23cbaf9da","B2","batch2","","-1","tol_feedback","","","true","","1000","1000","500","","","","","","-1","none","true","11001","24968","","","","","","","","","",""
"","","","","","html-button-response","113","332068","0.0-2.0-27.0","61f2adfaa09e72f23cbaf9da","B2","batch2","","1298.5999999940395","tol_trial_num","<div class = centerbox><p class = center-block-text>problem <strong>7</strong> out of 25 problems</p></div>","0","","","","","","","","","","","","","","","","","","","","","","","","",""
"","","","","","single-stim-button","114","336048","0.0-2.0-28.0-0.0","61f2adfaa09e72f23cbaf9da","B2","batch2","","3978","tol_tohand","","","","tol_peg_3","3978","3978","0","[[2,1,0],[0,0],[0]]","1","[[1,2,0],[3,0],[0]]","6","0","","","","","","5","","","","","","","","",""
"","","","","","single-stim-button","115","336961","0.0-2.0-28.0-1.0","61f2adfaa09e72f23cbaf9da","B2","batch2","","911","tol_toboard","","","","tol_peg_2","911","911","0","[[2,1,0],[3,0],[0]]","1","[[1,2,0],[3,0],[0]]","6","0","","","","","","5","","","","","","","","",""
"","","","","","single-stim-button","116","339360","0.0-2.0-28.1-0.1","61f2adfaa09e72f23cbaf9da","B2","batch2","","2397","tol_tohand","","","","tol_peg_1","2397","2397","0","[[2,0,0],[3,0],[0]]","2","[[1,2,0],[3,0],[0]]","6","0","","","","","","5","","","","","","","","",""
"","","","","","single-stim-button","117","340400","0.0-2.0-28.1-1.1","61f2adfaa09e72f23cbaf9da","B2","batch2","","1039","tol_toboard","","","","tol_peg_2","1039","1039","0","[[2,0,0],[3,1],[0]]","2","[[1,2,0],[3,0],[0]]","6","0","","","","","","5","","","","","","","","",""
"","","","","","single-stim-button","118","341179","0.0-2.0-28.2-0.2","61f2adfaa09e72f23cbaf9da","B2","batch2","","777","tol_tohand","","","","tol_peg_1","777","777","0","[[0,0,0],[3,1],[0]]","3","[[1,2,0],[3,0],[0]]","6","0","","","","","","5","","","","","","","","",""
"","","","","","single-stim-button","119","342068","0.0-2.0-28.2-1.2","61f2adfaa09e72f23cbaf9da","B2","batch2","","888","tol_toboard","","","","tol_peg_3","888","888","0","[[0,0,0],[3,1],[2]]","3","[[1,2,0],[3,0],[0]]","6","0","","","","","","5","","","","","","","","",""
"","","","","","single-stim-button","120","342807","0.0-2.0-28.3-0.3","61f2adfaa09e72f23cbaf9da","B2","batch2","","737","tol_tohand","","","","tol_peg_2","737","737","0","[[0,0,0],[3,0],[2]]","4","[[1,2,0],[3,0],[0]]","6","0","","","","","","5","","","","","","","","",""
"","","","","","single-stim-button","121","343879","0.0-2.0-28.3-1.3","61f2adfaa09e72f23cbaf9da","B2","batch2","","1072","tol_toboard","","","","tol_peg_1","1072","1072","0","[[1,0,0],[3,0],[2]]","4","[[1,2,0],[3,0],[0]]","6","0","","","","","","5","","","","","","","","",""
"","","","","","single-stim-button","122","344491","0.0-2.0-28.4-0.4","61f2adfaa09e72f23cbaf9da","B2","batch2","","610","tol_tohand","","","","tol_peg_3","610","610","0","[[1,0,0],[3,0],[0]]","5","[[1,2,0],[3,0],[0]]","6","0","","","","","","5","","","","","","","","",""
"","","","","","single-stim-button","123","344626","0.0-2.0-28.4-1.4","61f2adfaa09e72f23cbaf9da","B2","batch2","","134","tol_toboard","","","","tol_peg_3","134","134","0","[[1,0,0],[3,0],[2]]","5","[[1,2,0],[3,0],[0]]","6","0","","","","","","5","","","","","","","","",""
"","","","","","single-stim-button","124","345778","0.0-2.0-28.5-0.5","61f2adfaa09e72f23cbaf9da","B2","batch2","","1150","tol_tohand","","","","tol_peg_3","1150","1150","0","[[1,0,0],[3,0],[0]]","6","[[1,2,0],[3,0],[0]]","6","0","","","","","","5","","","","","","","","",""
"","","","","","single-stim-button","125","346843","0.0-2.0-28.5-1.5","61f2adfaa09e72f23cbaf9da","B2","batch2","","1063","tol_toboard","","","","tol_peg_1","1063","1063","0","[[1,2,0],[3,0],[0]]","6","[[1,2,0],[3,0],[0]]","6","0","","","","","","5","","","","","","","","",""
"","","","","","poldrack-single-stim","126","347845","0.0-2.0-29.0","61f2adfaa09e72f23cbaf9da","B2","batch2","","-1","tol_feedback","","","true","","1000","1000","500","","","","","","-1","none","true","3978","9649","","","","","","","","","",""
"","","","","","html-button-response","127","349082","0.0-2.0-30.0","61f2adfaa09e72f23cbaf9da","B2","batch2","","1235.300000011921","tol_trial_num","<div class = centerbox><p class = center-block-text>problem <strong>8</strong> out of 25 problems</p></div>","0","","","","","","","","","","","","","","","","","","","","","","","","",""
"","","","","","single-stim-button","128","354483","0.0-2.0-31.0-0.0","61f2adfaa09e72f23cbaf9da","B2","batch2","","5400","tol_tohand","","","","tol_peg_3","5400","5400","0","[[0,0,0],[2,3],[0]]","1","[[1,2,0],[3,0],[0]]","7","0","","","","","","4","","","","","","","","",""
"","","","","","single-stim-button","129","355603","0.0-2.0-31.0-1.0","61f2adfaa09e72f23cbaf9da","B2","batch2","","1119","tol_toboard","","","","tol_peg_1","1119","1119","0","[[1,0,0],[2,3],[0]]","1","[[1,2,0],[3,0],[0]]","7","0","","","","","","4","","","","","","","","",""
"","","","","","single-stim-button","130","360639","0.0-2.0-31.1-0.1","61f2adfaa09e72f23cbaf9da","B2","batch2","","5034","tol_tohand","","","","tol_peg_2","5034","5034","0","[[1,0,0],[2,0],[0]]","2","[[1,2,0],[3,0],[0]]","7","0","","","","","","4","","","","","","","","",""
"","","","","","single-stim-button","131","361568","0.0-2.0-31.1-1.1","61f2adfaa09e72f23cbaf9da","B2","batch2","","928","tol_toboard","","","","tol_peg_3","928","928","0","[[1,0,0],[2,0],[3]]","2","[[1,2,0],[3,0],[0]]","7","0","","","","","","4","","","","","","","","",""
"","","","","","single-stim-button","132","362672","0.0-2.0-31.2-0.2","61f2adfaa09e72f23cbaf9da","B2","batch2","","1102","tol_tohand","","","","tol_peg_2","1102","1102","0","[[1,0,0],[0,0],[3]]","3","[[1,2,0],[3,0],[0]]","7","0","","","","","","4","","","","","","","","",""
"","","","","","single-stim-button","133","364133","0.0-2.0-31.2-1.2","61f2adfaa09e72f23cbaf9da","B2","batch2","","1460","tol_toboard","","","","tol_peg_1","1460","1460","0","[[1,2,0],[0,0],[3]]","3","[[1,2,0],[3,0],[0]]","7","0","","","","","","4","","","","","","","","",""
"","","","","","single-stim-button","134","364943","0.0-2.0-31.3-0.3","61f2adfaa09e72f23cbaf9da","B2","batch2","","809","tol_tohand","","","","tol_peg_3","809","809","0","[[1,2,0],[0,0],[0]]","4","[[1,2,0],[3,0],[0]]","7","0","","","","","","4","","","","","","","","",""
"","","","","","single-stim-button","135","365563","0.0-2.0-31.3-1.3","61f2adfaa09e72f23cbaf9da","B2","batch2","","619","tol_toboard","","","","tol_peg_2","619","619","0","[[1,2,0],[3,0],[0]]","4","[[1,2,0],[3,0],[0]]","7","0","","","","","","4","","","","","","","","",""
"","","","","","poldrack-single-stim","136","366568","0.0-2.0-32.0","61f2adfaa09e72f23cbaf9da","B2","batch2","","-1","tol_feedback","","","true","","1000","1000","500","","","","","","-1","none","true","5400","12345","","","","","","","","","",""
"","","","","","html-button-response","137","367834","0.0-2.0-33.0","61f2adfaa09e72f23cbaf9da","B2","batch2","","1264.699999988079","tol_trial_num","<div class = centerbox><p class = center-block-text>problem <strong>9</strong> out of 25 problems</p></div>","0","","","","","","","","","","","","","","","","","","","","","","","","",""
"","","","","","single-stim-button","138","377089","0.0-2.0-34.0-0.0","61f2adfaa09e72f23cbaf9da","B2","batch2","","9252","tol_tohand","","","","tol_peg_1","9252","9252","0","[[3,0,0],[0,0],[1]]","1","[[2,1,0],[3,0],[0]]","8","0","","","","","","6","","","","","","","","",""
"","","","","","single-stim-button","139","378646","0.0-2.0-34.0-1.0","61f2adfaa09e72f23cbaf9da","B2","batch2","","1555","tol_toboard","","","","tol_peg_2","1555","1555","0","[[3,0,0],[2,0],[1]]","1","[[2,1,0],[3,0],[0]]","8","0","","","","","","6","","","","","","","","",""
"","","","","","single-stim-button","140","379567","0.0-2.0-34.1-0.1","61f2adfaa09e72f23cbaf9da","B2","batch2","","920","tol_tohand","","","","tol_peg_1","920","920","0","[[0,0,0],[2,0],[1]]","2","[[2,1,0],[3,0],[0]]","8","0","","","","","","6","","","","","","","","",""
"","","","","","single-stim-button","141","381934","0.0-2.0-34.1-1.1","61f2adfaa09e72f23cbaf9da","B2","batch2","","2366","tol_toboard","","","","tol_peg_2","2366","2366","0","[[0,0,0],[2,3],[1]]","2","[[2,1,0],[3,0],[0]]","8","0","","","","","","6","","","","","","","","",""
"","","","","","single-stim-button","142","382545","0.0-2.0-34.2-0.2","61f2adfaa09e72f23cbaf9da","B2","batch2","","610","tol_tohand","","","","tol_peg_3","610","610","0","[[0,0,0],[2,3],[0]]","3","[[2,1,0],[3,0],[0]]","8","0","","","","","","6","","","","","","","","",""
"","","","","","single-stim-button","143","383570","0.0-2.0-34.2-1.2","61f2adfaa09e72f23cbaf9da","B2","batch2","","1024","tol_toboard","","","","tol_peg_1","1024","1024","0","[[1,0,0],[2,3],[0]]","3","[[2,1,0],[3,0],[0]]","8","0","","","","","","6","","","","","","","","",""
"","","","","","single-stim-button","144","384277","0.0-2.0-34.3-0.3","61f2adfaa09e72f23cbaf9da","B2","batch2","","706","tol_tohand","","","","tol_peg_2","706","706","0","[[1,0,0],[2,0],[0]]","4","[[2,1,0],[3,0],[0]]","8","0","","","","","","6","","","","","","","","",""
"","","","","","single-stim-button","145","385707","0.0-2.0-34.3-1.3","61f2adfaa09e72f23cbaf9da","B2","batch2","","1428","tol_toboard","","","","tol_peg_3","1428","1428","0","[[1,0,0],[2,0],[3]]","4","[[2,1,0],[3,0],[0]]","8","0","","","","","","6","","","","","","","","",""
"","","","","","single-stim-button","146","386493","0.0-2.0-34.4-0.4","61f2adfaa09e72f23cbaf9da","B2","batch2","","785","tol_tohand","","","","tol_peg_1","785","785","0","[[0,0,0],[2,0],[3]]","5","[[2,1,0],[3,0],[0]]","8","0","","","","","","6","","","","","","","","",""
"","","","","","single-stim-button","147","389393","0.0-2.0-34.4-1.4","61f2adfaa09e72f23cbaf9da","B2","batch2","","2898","tol_toboard","","","","tol_peg_2","2898","2898","0","[[0,0,0],[2,1],[3]]","5","[[2,1,0],[3,0],[0]]","8","0","","","","","","6","","","","","","","","",""
"","","","","","single-stim-button","148","390298","0.0-2.0-34.5-0.5","61f2adfaa09e72f23cbaf9da","B2","batch2","","903","tol_tohand","","","","tol_peg_2","903","903","0","[[0,0,0],[2,0],[3]]","6","[[2,1,0],[3,0],[0]]","8","0","","","","","","6","","","","","","","","",""
"","","","","","single-stim-button","149","392109","0.0-2.0-34.5-1.5","61f2adfaa09e72f23cbaf9da","B2","batch2","","1809","tol_toboard","","","","tol_peg_1","1809","1809","0","[[1,0,0],[2,0],[3]]","6","[[2,1,0],[3,0],[0]]","8","0","","","","","","6","","","","","","","","",""
"","","","","","single-stim-button","150","392832","0.0-2.0-34.6-0.6","61f2adfaa09e72f23cbaf9da","B2","batch2","","721","tol_tohand","","","","tol_peg_3","721","721","0","[[1,0,0],[2,0],[0]]","7","[[2,1,0],[3,0],[0]]","8","0","","","","","","6","","","","","","","","",""
"","","","","","single-stim-button","151","393626","0.0-2.0-34.6-1.6","61f2adfaa09e72f23cbaf9da","B2","batch2","","793","tol_toboard","","","","tol_peg_2","793","793","0","[[1,0,0],[2,3],[0]]","7","[[2,1,0],[3,0],[0]]","8","0","","","","","","6","","","","","","","","",""
"","","","","","single-stim-button","152","394301","0.0-2.0-34.7-0.7","61f2adfaa09e72f23cbaf9da","B2","batch2","","674","tol_tohand","","","","tol_peg_1","674","674","0","[[0,0,0],[2,3],[0]]","8","[[2,1,0],[3,0],[0]]","8","0","","","","","","6","","","","","","","","",""
"","","","","","single-stim-button","153","395492","0.0-2.0-34.7-1.7","61f2adfaa09e72f23cbaf9da","B2","batch2","","1190","tol_toboard","","","","tol_peg_3","1190","1190","0","[[0,0,0],[2,3],[1]]","8","[[2,1,0],[3,0],[0]]","8","0","","","","","","6","","","","","","","","",""
"","","","","","single-stim-button","154","399035","0.0-2.0-34.8-0.8","61f2adfaa09e72f23cbaf9da","B2","batch2","","3541","tol_tohand","","","","tol_peg_2","3541","3541","0","[[0,0,0],[2,0],[1]]","9","[[2,1,0],[3,0],[0]]","8","0","","","","","","6","","","","","","","","",""
"","","","","","single-stim-button","155","399718","0.0-2.0-34.8-1.8","61f2adfaa09e72f23cbaf9da","B2","batch2","","681","tol_toboard","","","","tol_peg_1","681","681","0","[[3,0,0],[2,0],[1]]","9","[[2,1,0],[3,0],[0]]","8","0","","","","","","6","","","","","","","","",""
"","","","","","single-stim-button","156","400456","0.0-2.0-34.9-0.9","61f2adfaa09e72f23cbaf9da","B2","batch2","","737","tol_tohand","","","","tol_peg_2","737","737","0","[[3,0,0],[0,0],[1]]","10","[[2,1,0],[3,0],[0]]","8","0","","","","","","6","","","","","","","","",""
"","","","","","single-stim-button","157","401402","0.0-2.0-34.9-1.9","61f2adfaa09e72f23cbaf9da","B2","batch2","","944","tol_toboard","","","","tol_peg_1","944","944","0","[[3,2,0],[0,0],[1]]","10","[[2,1,0],[3,0],[0]]","8","0","","","","","","6","","","","","","","","",""
"","","","","","single-stim-button","158","405587","0.0-2.0-34.10-0.10","61f2adfaa09e72f23cbaf9da","B2","batch2","","4184","tol_tohand","","","","tol_peg_3","4184","4184","0","[[3,2,0],[0,0],[0]]","11","[[2,1,0],[3,0],[0]]","8","0","","","","","","6","","","","","","","","",""
"","","","","","single-stim-button","159","406731","0.0-2.0-34.10-1.10","61f2adfaa09e72f23cbaf9da","B2","batch2","","1142","tol_toboard","","","","tol_peg_2","1142","1142","0","[[3,2,0],[1,0],[0]]","11","[[2,1,0],[3,0],[0]]","8","0","","","","","","6","","","","","","","","",""
"","","","","","single-stim-button","160","409733","0.0-2.0-34.11-0.11","61f2adfaa09e72f23cbaf9da","B2","batch2","","3000","tol_tohand","","","","tol_peg_1","3000","3000","0","[[3,0,0],[1,0],[0]]","12","[[2,1,0],[3,0],[0]]","8","0","","","","","","6","","","","","","","","",""
"","","","","","single-stim-button","161","410645","0.0-2.0-34.11-1.11","61f2adfaa09e72f23cbaf9da","B2","batch2","","910","tol_toboard","","","","tol_peg_3","910","910","0","[[3,0,0],[1,0],[2]]","12","[[2,1,0],[3,0],[0]]","8","0","","","","","","6","","","","","","","","",""
"","","","","","single-stim-button","162","411511","0.0-2.0-34.12-0.12","61f2adfaa09e72f23cbaf9da","B2","batch2","","866","tol_tohand","","","","tol_peg_1","866","866","0","[[0,0,0],[1,0],[2]]","13","[[2,1,0],[3,0],[0]]","8","0","","","","","","6","","","","","","","","",""
"","","","","","single-stim-button","163","416165","0.0-2.0-34.12-1.12","61f2adfaa09e72f23cbaf9da","B2","batch2","","4652","tol_toboard","","","","tol_peg_1","4652","4652","0","[[3,0,0],[1,0],[2]]","13","[[2,1,0],[3,0],[0]]","8","0","","","","","","6","","","","","","","","",""
"","","","","","single-stim-button","164","416872","0.0-2.0-34.13-0.13","61f2adfaa09e72f23cbaf9da","B2","batch2","","706","tol_tohand","","","","tol_peg_3","706","706","0","[[3,0,0],[1,0],[0]]","14","[[2,1,0],[3,0],[0]]","8","0","","","","","","6","","","","","","","","",""
"","","","","","single-stim-button","165","417087","0.0-2.0-34.13-1.13","61f2adfaa09e72f23cbaf9da","B2","batch2","","213","tol_toboard","","","","tol_peg_3","213","213","0","[[3,0,0],[1,0],[2]]","14","[[2,1,0],[3,0],[0]]","8","0","","","","","","6","","","","","","","","",""
"","","","","","single-stim-button","166","419699","0.0-2.0-34.14-0.14","61f2adfaa09e72f23cbaf9da","B2","batch2","","2611","tol_tohand","","","","tol_peg_3","2611","2611","0","[[3,0,0],[1,0],[0]]","15","[[2,1,0],[3,0],[0]]","8","0","","","","","","6","","","","","","","","",""
"","","","","","single-stim-button","167","420621","0.0-2.0-34.14-1.14","61f2adfaa09e72f23cbaf9da","B2","batch2","","920","tol_toboard","","","","tol_peg_1","920","920","0","[[3,2,0],[1,0],[0]]","15","[[2,1,0],[3,0],[0]]","8","0","","","","","","6","","","","","","","","",""
"","","","","","single-stim-button","168","421272","0.0-2.0-34.15-0.15","61f2adfaa09e72f23cbaf9da","B2","batch2","","650","tol_tohand","","","","tol_peg_2","650","650","0","[[3,2,0],[0,0],[0]]","16","[[2,1,0],[3,0],[0]]","8","0","","","","","","6","","","","","","","","",""
"","","","","","single-stim-button","169","422083","0.0-2.0-34.15-1.15","61f2adfaa09e72f23cbaf9da","B2","batch2","","809","tol_toboard","","","","tol_peg_3","809","809","0","[[3,2,0],[0,0],[1]]","16","[[2,1,0],[3,0],[0]]","8","0","","","","","","6","","","","","","","","",""
"","","","","","single-stim-button","170","424219","0.0-2.0-34.16-0.16","61f2adfaa09e72f23cbaf9da","B2","batch2","","2135","tol_tohand","","","","tol_peg_1","2135","2135","0","[[3,0,0],[0,0],[1]]","17","[[2,1,0],[3,0],[0]]","8","0","","","","","","6","","","","","","","","",""
"","","","","","single-stim-button","171","425061","0.0-2.0-34.16-1.16","61f2adfaa09e72f23cbaf9da","B2","batch2","","840","tol_toboard","","","","tol_peg_2","840","840","0","[[3,0,0],[2,0],[1]]","17","[[2,1,0],[3,0],[0]]","8","0","","","","","","6","","","","","","","","",""
"","","","","","single-stim-button","172","428197","0.0-2.0-34.17-0.17","61f2adfaa09e72f23cbaf9da","B2","batch2","","3136","tol_tohand","","","","tol_peg_1","3136","3136","0","[[0,0,0],[2,0],[1]]","18","[[2,1,0],[3,0],[0]]","8","0","","","","","","6","","","","","","","","",""
"","","","","","single-stim-button","173","429484","0.0-2.0-34.17-1.17","61f2adfaa09e72f23cbaf9da","B2","batch2","","1285","tol_toboard","","","","tol_peg_2","1285","1285","0","[[0,0,0],[2,3],[1]]","18","[[2,1,0],[3,0],[0]]","8","0","","","","","","6","","","","","","","","",""
"","","","","","single-stim-button","174","430310","0.0-2.0-34.18-0.18","61f2adfaa09e72f23cbaf9da","B2","batch2","","825","tol_tohand","","","","tol_peg_3","825","825","0","[[0,0,0],[2,3],[0]]","19","[[2,1,0],[3,0],[0]]","8","0","","","","","","6","","","","","","","","",""
"","","","","","single-stim-button","175","431208","0.0-2.0-34.18-1.18","61f2adfaa09e72f23cbaf9da","B2","batch2","","896","tol_toboard","","","","tol_peg_1","896","896","0","[[1,0,0],[2,3],[0]]","19","[[2,1,0],[3,0],[0]]","8","0","","","","","","6","","","","","","","","",""
"","","","","","single-stim-button","176","432399","0.0-2.0-34.19-0.19","61f2adfaa09e72f23cbaf9da","B2","batch2","","1189","tol_tohand","","","","tol_peg_2","1189","1189","0","[[1,0,0],[2,0],[0]]","20","[[2,1,0],[3,0],[0]]","8","0","","","","","","6","","","","","","","","",""
"","","","","","single-stim-button","177","435226","0.0-2.0-34.19-1.19","61f2adfaa09e72f23cbaf9da","B2","batch2","","2826","tol_toboard","","","","tol_peg_2","2826","2826","0","[[1,0,0],[2,3],[0]]","20","[[2,1,0],[3,0],[0]]","8","0","","","","","","6","","","","","","","","",""
"","","","","","single-stim-button","178","436727","0.0-2.0-34.20-0.20","61f2adfaa09e72f23cbaf9da","B2","batch2","","1499","tol_tohand","","","","tol_peg_2","1499","1499","0","[[1,0,0],[2,0],[0]]","21","[[2,1,0],[3,0],[0]]","8","0","","","","","","6","","","","","","","","",""
"","","","","","single-stim-button","179","437815","0.0-2.0-34.20-1.20","61f2adfaa09e72f23cbaf9da","B2","batch2","","1087","tol_toboard","","","","tol_peg_3","1087","1087","0","[[1,0,0],[2,0],[3]]","21","[[2,1,0],[3,0],[0]]","8","0","","","","","","6","","","","","","","","",""
"","","","","","single-stim-button","180","438458","0.0-2.0-34.21-0.21","61f2adfaa09e72f23cbaf9da","B2","batch2","","642","tol_tohand","","","","tol_peg_2","642","642","0","[[1,0,0],[0,0],[3]]","22","[[2,1,0],[3,0],[0]]","8","0","","","","","","6","","","","","","","","",""
"","","","","","single-stim-button","181","439372","0.0-2.0-34.21-1.21","61f2adfaa09e72f23cbaf9da","B2","batch2","","912","tol_toboard","","","","tol_peg_1","912","912","0","[[1,2,0],[0,0],[3]]","22","[[2,1,0],[3,0],[0]]","8","0","","","","","","6","","","","","","","","",""
"","","","","","single-stim-button","182","440571","0.0-2.0-34.22-0.22","61f2adfaa09e72f23cbaf9da","B2","batch2","","1197","tol_tohand","","","","tol_peg_3","1197","1197","0","[[1,2,0],[0,0],[0]]","23","[[2,1,0],[3,0],[0]]","8","0","","","","","","6","","","","","","","","",""
"","","","","","single-stim-button","183","441190","0.0-2.0-34.22-1.22","61f2adfaa09e72f23cbaf9da","B2","batch2","","618","tol_toboard","","","","tol_peg_2","618","618","0","[[1,2,0],[3,0],[0]]","23","[[2,1,0],[3,0],[0]]","8","0","","","","","","6","","","","","","","","",""
"","","","","","single-stim-button","184","441707","0.0-2.0-34.23-0.23","61f2adfaa09e72f23cbaf9da","B2","batch2","","514","tol_tohand","","","","tol_peg_2","514","514","0","[[1,2,0],[0,0],[0]]","24","[[2,1,0],[3,0],[0]]","8","0","","","","","","6","","","","","","","","",""
"","","","","","single-stim-button","185","442882","0.0-2.0-34.23-1.23","61f2adfaa09e72f23cbaf9da","B2","batch2","","1174","tol_toboard","","","","tol_peg_2","1174","1174","0","[[1,2,0],[3,0],[0]]","24","[[2,1,0],[3,0],[0]]","8","0","","","","","","6","","","","","","","","",""
"","","","","","single-stim-button","186","444224","0.0-2.0-34.24-0.24","61f2adfaa09e72f23cbaf9da","B2","batch2","","1341","tol_tohand","","","","tol_peg_1","1341","1341","0","[[1,0,0],[3,0],[0]]","25","[[2,1,0],[3,0],[0]]","8","0","","","","","","6","","","","","","","","",""
"","","","","","single-stim-button","187","445145","0.0-2.0-34.24-1.24","61f2adfaa09e72f23cbaf9da","B2","batch2","","920","tol_toboard","","","","tol_peg_3","920","920","0","[[1,0,0],[3,0],[2]]","25","[[2,1,0],[3,0],[0]]","8","0","","","","","","6","","","","","","","","",""
"","","","","","single-stim-button","188","445979","0.0-2.0-34.25-0.25","61f2adfaa09e72f23cbaf9da","B2","batch2","","831","tol_tohand","","","","tol_peg_1","831","831","0","[[0,0,0],[3,0],[2]]","26","[[2,1,0],[3,0],[0]]","8","0","","","","","","6","","","","","","","","",""
"","","","","","single-stim-button","189","446694","0.0-2.0-34.25-1.25","61f2adfaa09e72f23cbaf9da","B2","batch2","","713","tol_toboard","","","","tol_peg_2","713","713","0","[[0,0,0],[3,1],[2]]","26","[[2,1,0],[3,0],[0]]","8","0","","","","","","6","","","","","","","","",""
"","","","","","single-stim-button","190","447726","0.0-2.0-34.26-0.26","61f2adfaa09e72f23cbaf9da","B2","batch2","","1031","tol_tohand","","","","tol_peg_3","1031","1031","0","[[0,0,0],[3,1],[0]]","27","[[2,1,0],[3,0],[0]]","8","0","","","","","","6","","","","","","","","",""
"","","","","","single-stim-button","191","448846","0.0-2.0-34.26-1.26","61f2adfaa09e72f23cbaf9da","B2","batch2","","1118","tol_toboard","","","","tol_peg_1","1118","1118","0","[[2,0,0],[3,1],[0]]","27","[[2,1,0],[3,0],[0]]","8","0","","","","","","6","","","","","","","","",""
"","","","","","single-stim-button","192","449799","0.0-2.0-34.27-0.27","61f2adfaa09e72f23cbaf9da","B2","batch2","","951","tol_tohand","","","","tol_peg_2","951","951","0","[[2,0,0],[3,0],[0]]","28","[[2,1,0],[3,0],[0]]","8","0","","","","","","6","","","","","","","","",""
"","","","","","single-stim-button","193","450991","0.0-2.0-34.27-1.27","61f2adfaa09e72f23cbaf9da","B2","batch2","","1190","tol_toboard","","","","tol_peg_1","1190","1190","0","[[2,1,0],[3,0],[0]]","28","[[2,1,0],[3,0],[0]]","8","0","","","","","","6","","","","","","","","",""
"","","","","","poldrack-single-stim","194","452001","0.0-2.0-35.0","61f2adfaa09e72f23cbaf9da","B2","batch2","","-1","tol_feedback","","","true","","1000","1000","500","","","","","","-1","none","true","9252","46157","","","","","","","","","",""
"","","","","","html-button-response","195","453143","0.0-2.0-36.0","61f2adfaa09e72f23cbaf9da","B2","batch2","","1139.2999999821186","tol_trial_num","<div class = centerbox><p class = center-block-text>problem <strong>10</strong> out of 25 problems</p></div>","0","","","","","","","","","","","","","","","","","","","","","","","","",""
"","","","","","single-stim-button","196","466271","0.0-2.0-37.0-0.0","61f2adfaa09e72f23cbaf9da","B2","batch2","","13126","tol_tohand","","","","tol_peg_2","13126","13126","0","[[3,0,0],[0,0],[2]]","1","[[3,0,0],[2,1],[0]]","9","0","","","","","","3","","","","","","","","",""
"","","","","","single-stim-button","197","467263","0.0-2.0-37.0-1.0","61f2adfaa09e72f23cbaf9da","B2","batch2","","991","tol_toboard","","","","tol_peg_1","991","991","0","[[3,1,0],[0,0],[2]]","1","[[3,0,0],[2,1],[0]]","9","0","","","","","","3","","","","","","","","",""
"","","","","","single-stim-button","198","468184","0.0-2.0-37.1-0.1","61f2adfaa09e72f23cbaf9da","B2","batch2","","919","tol_tohand","","","","tol_peg_3","919","919","0","[[3,1,0],[0,0],[0]]","2","[[3,0,0],[2,1],[0]]","9","0","","","","","","3","","","","","","","","",""
"","","","","","single-stim-button","199","468915","0.0-2.0-37.1-1.1","61f2adfaa09e72f23cbaf9da","B2","batch2","","730","tol_toboard","","","","tol_peg_2","730","730","0","[[3,1,0],[2,0],[0]]","2","[[3,0,0],[2,1],[0]]","9","0","","","","","","3","","","","","","","","",""
"","","","","","single-stim-button","200","469844","0.0-2.0-37.2-0.2","61f2adfaa09e72f23cbaf9da","B2","batch2","","928","tol_tohand","","","","tol_peg_1","928","928","0","[[3,0,0],[2,0],[0]]","3","[[3,0,0],[2,1],[0]]","9","0","","","","","","3","","","","","","","","",""
"","","","","","single-stim-button","201","470717","0.0-2.0-37.2-1.2","61f2adfaa09e72f23cbaf9da","B2","batch2","","872","tol_toboard","","","","tol_peg_2","872","872","0","[[3,0,0],[2,1],[0]]","3","[[3,0,0],[2,1],[0]]","9","0","","","","","","3","","","","","","","","",""
"","","","","","poldrack-single-stim","202","471725","0.0-2.0-38.0","61f2adfaa09e72f23cbaf9da","B2","batch2","","-1","tol_feedback","","","true","","1000","1000","500","","","","","","-1","none","true","13126","14973","","","","","","","","","",""
"","","","","","html-button-response","203","472735","0.0-2.0-39.0","61f2adfaa09e72f23cbaf9da","B2","batch2","","1008.5","tol_trial_num","<div class = centerbox><p class = center-block-text>problem <strong>11</strong> out of 25 problems</p></div>","0","","","","","","","","","","","","","","","","","","","","","","","","",""
"","","","","","single-stim-button","204","475181","0.0-2.0-40.0-0.0","61f2adfaa09e72f23cbaf9da","B2","batch2","","2444","tol_tohand","","","","tol_peg_2","2444","2444","0","[[1,2,0],[0,0],[0]]","1","[[2,0,0],[1,3],[0]]","10","0","","","","","","6","","","","","","","","",""
"","","","","","single-stim-button","205","476055","0.0-2.0-40.0-1.0","61f2adfaa09e72f23cbaf9da","B2","batch2","","873","tol_toboard","","","","tol_peg_3","873","873","0","[[1,2,0],[0,0],[3]]","1","[[2,0,0],[1,3],[0]]","10","0","","","","","","6","","","","","","","","",""
"","","","","","single-stim-button","206","478080","0.0-2.0-40.1-0.1","61f2adfaa09e72f23cbaf9da","B2","batch2","","2024","tol_tohand","","","","tol_peg_1","2024","2024","0","[[1,0,0],[0,0],[3]]","2","[[2,0,0],[1,3],[0]]","10","0","","","","","","6","","","","","","","","",""
"","","","","","single-stim-button","207","478922","0.0-2.0-40.1-1.1","61f2adfaa09e72f23cbaf9da","B2","batch2","","840","tol_toboard","","","","tol_peg_2","840","840","0","[[1,0,0],[2,0],[3]]","2","[[2,0,0],[1,3],[0]]","10","0","","","","","","6","","","","","","","","",""
"","","","","","single-stim-button","208","479493","0.0-2.0-40.2-0.2","61f2adfaa09e72f23cbaf9da","B2","batch2","","570","tol_tohand","","","","tol_peg_1","570","570","0","[[0,0,0],[2,0],[3]]","3","[[2,0,0],[1,3],[0]]","10","0","","","","","","6","","","","","","","","",""
"","","","","","single-stim-button","209","480582","0.0-2.0-40.2-1.2","61f2adfaa09e72f23cbaf9da","B2","batch2","","1086","tol_toboard","","","","tol_peg_2","1086","1086","0","[[0,0,0],[2,1],[3]]","3","[[2,0,0],[1,3],[0]]","10","0","","","","","","6","","","","","","","","",""
"","","","","","single-stim-button","210","481717","0.0-2.0-40.3-0.3","61f2adfaa09e72f23cbaf9da","B2","batch2","","1134","tol_tohand","","","","tol_peg_3","1134","1134","0","[[0,0,0],[2,1],[0]]","4","[[2,0,0],[1,3],[0]]","10","0","","","","","","6","","","","","","","","",""
"","","","","","single-stim-button","211","482726","0.0-2.0-40.3-1.3","61f2adfaa09e72f23cbaf9da","B2","batch2","","1007","tol_toboard","","","","tol_peg_1","1007","1007","0","[[3,0,0],[2,1],[0]]","4","[[2,0,0],[1,3],[0]]","10","0","","","","","","6","","","","","","","","",""
"","","","","","single-stim-button","212","484521","0.0-2.0-40.4-0.4","61f2adfaa09e72f23cbaf9da","B2","batch2","","1793","tol_tohand","","","","tol_peg_2","1793","1793","0","[[3,0,0],[2,0],[0]]","5","[[2,0,0],[1,3],[0]]","10","0","","","","","","6","","","","","","","","",""
"","","","","","single-stim-button","213","485744","0.0-2.0-40.4-1.4","61f2adfaa09e72f23cbaf9da","B2","batch2","","1222","tol_toboard","","","","tol_peg_3","1222","1222","0","[[3,0,0],[2,0],[1]]","5","[[2,0,0],[1,3],[0]]","10","0","","","","","","6","","","","","","","","",""
"","","","","","single-stim-button","214","487292","0.0-2.0-40.5-0.5","61f2adfaa09e72f23cbaf9da","B2","batch2","","1547","tol_tohand","","","","tol_peg_2","1547","1547","0","[[3,0,0],[0,0],[1]]","6","[[2,0,0],[1,3],[0]]","10","0","","","","","","6","","","","","","","","",""
"","","","","","single-stim-button","215","489072","0.0-2.0-40.5-1.5","61f2adfaa09e72f23cbaf9da","B2","batch2","","1778","tol_toboard","","","","tol_peg_2","1778","1778","0","[[3,0,0],[2,0],[1]]","6","[[2,0,0],[1,3],[0]]","10","0","","","","","","6","","","","","","","","",""
"","","","","","single-stim-button","216","490841","0.0-2.0-40.6-0.6","61f2adfaa09e72f23cbaf9da","B2","batch2","","1768","tol_tohand","","","","tol_peg_2","1768","1768","0","[[3,0,0],[0,0],[1]]","7","[[2,0,0],[1,3],[0]]","10","0","","","","","","6","","","","","","","","",""
"","","","","","single-stim-button","217","491755","0.0-2.0-40.6-1.6","61f2adfaa09e72f23cbaf9da","B2","batch2","","912","tol_toboard","","","","tol_peg_1","912","912","0","[[3,2,0],[0,0],[1]]","7","[[2,0,0],[1,3],[0]]","10","0","","","","","","6","","","","","","","","",""
"","","","","","single-stim-button","218","493067","0.0-2.0-40.7-0.7","61f2adfaa09e72f23cbaf9da","B2","batch2","","1311","tol_tohand","","","","tol_peg_3","1311","1311","0","[[3,2,0],[0,0],[0]]","8","[[2,0,0],[1,3],[0]]","10","0","","","","","","6","","","","","","","","",""
"","","","","","single-stim-button","219","494036","0.0-2.0-40.7-1.7","61f2adfaa09e72f23cbaf9da","B2","batch2","","967","tol_toboard","","","","tol_peg_2","967","967","0","[[3,2,0],[1,0],[0]]","8","[[2,0,0],[1,3],[0]]","10","0","","","","","","6","","","","","","","","",""
"","","","","","single-stim-button","220","495219","0.0-2.0-40.8-0.8","61f2adfaa09e72f23cbaf9da","B2","batch2","","1182","tol_tohand","","","","tol_peg_1","1182","1182","0","[[3,0,0],[1,0],[0]]","9","[[2,0,0],[1,3],[0]]","10","0","","","","","","6","","","","","","","","",""
"","","","","","single-stim-button","221","496379","0.0-2.0-40.8-1.8","61f2adfaa09e72f23cbaf9da","B2","batch2","","1158","tol_toboard","","","","tol_peg_3","1158","1158","0","[[3,0,0],[1,0],[2]]","9","[[2,0,0],[1,3],[0]]","10","0","","","","","","6","","","","","","","","",""
"","","","","","single-stim-button","222","497124","0.0-2.0-40.9-0.9","61f2adfaa09e72f23cbaf9da","B2","batch2","","744","tol_tohand","","","","tol_peg_1","744","744","0","[[0,0,0],[1,0],[2]]","10","[[2,0,0],[1,3],[0]]","10","0","","","","","","6","","","","","","","","",""
"","","","","","single-stim-button","223","497864","0.0-2.0-40.9-1.9","61f2adfaa09e72f23cbaf9da","B2","batch2","","738","tol_toboard","","","","tol_peg_2","738","738","0","[[0,0,0],[1,3],[2]]","10","[[2,0,0],[1,3],[0]]","10","0","","","","","","6","","","","","","","","",""
"","","","","","single-stim-button","224","498643","0.0-2.0-40.10-0.10","61f2adfaa09e72f23cbaf9da","B2","batch2","","777","tol_tohand","","","","tol_peg_3","777","777","0","[[0,0,0],[1,3],[0]]","11","[[2,0,0],[1,3],[0]]","10","0","","","","","","6","","","","","","","","",""
"","","","","","single-stim-button","225","499690","0.0-2.0-40.10-1.10","61f2adfaa09e72f23cbaf9da","B2","batch2","","1046","tol_toboard","","","","tol_peg_1","1046","1046","0","[[2,0,0],[1,3],[0]]","11","[[2,0,0],[1,3],[0]]","10","0","","","","","","6","","","","","","","","",""
"","","","","","poldrack-single-stim","226","500696","0.0-2.0-41.0","61f2adfaa09e72f23cbaf9da","B2","batch2","","-1","tol_feedback","","","true","","1000","1000","500","","","","","","-1","none","true","2444","15294","","","","","","","","","",""
"","","","","","html-button-response","227","501605","0.0-2.0-42.0","61f2adfaa09e72f23cbaf9da","B2","batch2","","906.5999999940395","tol_trial_num","<div class = centerbox><p class = center-block-text>problem <strong>12</strong> out of 25 problems</p></div>","0","","","","","","","","","","","","","","","","","","","","","","","","",""
"","","","","","single-stim-button","228","506426","0.0-2.0-43.0-0.0","61f2adfaa09e72f23cbaf9da","B2","batch2","","4819","tol_tohand","","","","tol_peg_2","4819","4819","0","[[1,2,0],[0,0],[0]]","1","[[2,3,0],[0,0],[1]]","11","0","","","","","","4","","","","","","","","",""
"","","","","","single-stim-button","229","508141","0.0-2.0-43.0-1.0","61f2adfaa09e72f23cbaf9da","B2","batch2","","1713","tol_toboard","","","","tol_peg_3","1713","1713","0","[[1,2,0],[0,0],[3]]","1","[[2,3,0],[0,0],[1]]","11","0","","","","","","4","","","","","","","","",""
"","","","","","single-stim-button","230","509253","0.0-2.0-43.1-0.1","61f2adfaa09e72f23cbaf9da","B2","batch2","","1110","tol_tohand","","","","tol_peg_1","1110","1110","0","[[1,0,0],[0,0],[3]]","2","[[2,3,0],[0,0],[1]]","11","0","","","","","","4","","","","","","","","",""
"","","","","","single-stim-button","231","510174","0.0-2.0-43.1-1.1","61f2adfaa09e72f23cbaf9da","B2","batch2","","919","tol_toboard","","","","tol_peg_2","919","919","0","[[1,0,0],[2,0],[3]]","2","[[2,3,0],[0,0],[1]]","11","0","","","","","","4","","","","","","","","",""
"","","","","","single-stim-button","232","510802","0.0-2.0-43.2-0.2","61f2adfaa09e72f23cbaf9da","B2","batch2","","626","tol_tohand","","","","tol_peg_1","626","626","0","[[0,0,0],[2,0],[3]]","3","[[2,3,0],[0,0],[1]]","11","0","","","","","","4","","","","","","","","",""
"","","","","","single-stim-button","233","511770","0.0-2.0-43.2-1.2","61f2adfaa09e72f23cbaf9da","B2","batch2","","967","tol_toboard","","","","tol_peg_2","967","967","0","[[0,0,0],[2,1],[3]]","3","[[2,3,0],[0,0],[1]]","11","0","","","","","","4","","","","","","","","",""
"","","","","","single-stim-button","234","514502","0.0-2.0-43.3-0.3","61f2adfaa09e72f23cbaf9da","B2","batch2","","2730","tol_tohand","","","","tol_peg_3","2730","2730","0","[[0,0,0],[2,1],[0]]","4","[[2,3,0],[0,0],[1]]","11","0","","","","","","4","","","","","","","","",""
"","","","","","single-stim-button","235","515225","0.0-2.0-43.3-1.3","61f2adfaa09e72f23cbaf9da","B2","batch2","","721","tol_toboard","","","","tol_peg_1","721","721","0","[[3,0,0],[2,1],[0]]","4","[[2,3,0],[0,0],[1]]","11","0","","","","","","4","","","","","","","","",""
"","","","","","single-stim-button","236","515908","0.0-2.0-43.4-0.4","61f2adfaa09e72f23cbaf9da","B2","batch2","","681","tol_tohand","","","","tol_peg_2","681","681","0","[[3,0,0],[2,0],[0]]","5","[[2,3,0],[0,0],[1]]","11","0","","","","","","4","","","","","","","","",""
"","","","","","single-stim-button","237","516901","0.0-2.0-43.4-1.4","61f2adfaa09e72f23cbaf9da","B2","batch2","","991","tol_toboard","","","","tol_peg_3","991","991","0","[[3,0,0],[2,0],[1]]","5","[[2,3,0],[0,0],[1]]","11","0","","","","","","4","","","","","","","","",""
"","","","","","single-stim-button","238","517655","0.0-2.0-43.5-0.5","61f2adfaa09e72f23cbaf9da","B2","batch2","","752","tol_tohand","","","","tol_peg_1","752","752","0","[[0,0,0],[2,0],[1]]","6","[[2,3,0],[0,0],[1]]","11","0","","","","","","4","","","","","","","","",""
"","","","","","single-stim-button","239","520339","0.0-2.0-43.5-1.5","61f2adfaa09e72f23cbaf9da","B2","batch2","","2683","tol_toboard","","","","tol_peg_1","2683","2683","0","[[3,0,0],[2,0],[1]]","6","[[2,3,0],[0,0],[1]]","11","0","","","","","","4","","","","","","","","",""
"","","","","","single-stim-button","240","520895","0.0-2.0-43.6-0.6","61f2adfaa09e72f23cbaf9da","B2","batch2","","555","tol_tohand","","","","tol_peg_2","555","555","0","[[3,0,0],[0,0],[1]]","7","[[2,3,0],[0,0],[1]]","11","0","","","","","","4","","","","","","","","",""
"","","","","","single-stim-button","241","521714","0.0-2.0-43.6-1.6","61f2adfaa09e72f23cbaf9da","B2","batch2","","817","tol_toboard","","","","tol_peg_1","817","817","0","[[3,2,0],[0,0],[1]]","7","[[2,3,0],[0,0],[1]]","11","0","","","","","","4","","","","","","","","",""
"","","","","","single-stim-button","242","524634","0.0-2.0-43.7-0.7","61f2adfaa09e72f23cbaf9da","B2","batch2","","2919","tol_tohand","","","","tol_peg_3","2919","2919","0","[[3,2,0],[0,0],[0]]","8","[[2,3,0],[0,0],[1]]","11","0","","","","","","4","","","","","","","","",""
"","","","","","single-stim-button","243","525318","0.0-2.0-43.7-1.7","61f2adfaa09e72f23cbaf9da","B2","batch2","","683","tol_toboard","","","","tol_peg_2","683","683","0","[[3,2,0],[1,0],[0]]","8","[[2,3,0],[0,0],[1]]","11","0","","","","","","4","","","","","","","","",""
"","","","","","single-stim-button","244","526215","0.0-2.0-43.8-0.8","61f2adfaa09e72f23cbaf9da","B2","batch2","","896","tol_tohand","","","","tol_peg_1","896","896","0","[[3,0,0],[1,0],[0]]","9","[[2,3,0],[0,0],[1]]","11","0","","","","","","4","","","","","","","","",""
"","","","","","single-stim-button","245","526994","0.0-2.0-43.8-1.8","61f2adfaa09e72f23cbaf9da","B2","batch2","","777","tol_toboard","","","","tol_peg_3","777","777","0","[[3,0,0],[1,0],[2]]","9","[[2,3,0],[0,0],[1]]","11","0","","","","","","4","","","","","","","","",""
"","","","","","single-stim-button","246","528836","0.0-2.0-43.9-0.9","61f2adfaa09e72f23cbaf9da","B2","batch2","","1841","tol_tohand","","","","tol_peg_1","1841","1841","0","[[0,0,0],[1,0],[2]]","10","[[2,3,0],[0,0],[1]]","11","0","","","","","","4","","","","","","","","",""
"","","","","","single-stim-button","247","530893","0.0-2.0-43.9-1.9","61f2adfaa09e72f23cbaf9da","B2","batch2","","2054","tol_toboard","","","","tol_peg_2","2054","2054","0","[[0,0,0],[1,3],[2]]","10","[[2,3,0],[0,0],[1]]","11","0","","","","","","4","","","","","","","","",""
"","","","","","single-stim-button","248","531870","0.0-2.0-43.10-0.10","61f2adfaa09e72f23cbaf9da","B2","batch2","","975","tol_tohand","","","","tol_peg_2","975","975","0","[[0,0,0],[1,0],[2]]","11","[[2,3,0],[0,0],[1]]","11","0","","","","","","4","","","","","","","","",""
"","","","","","single-stim-button","249","532831","0.0-2.0-43.10-1.10","61f2adfaa09e72f23cbaf9da","B2","batch2","","959","tol_toboard","","","","tol_peg_2","959","959","0","[[0,0,0],[1,3],[2]]","11","[[2,3,0],[0,0],[1]]","11","0","","","","","","4","","","","","","","","",""
"","","","","","single-stim-button","250","533633","0.0-2.0-43.11-0.11","61f2adfaa09e72f23cbaf9da","B2","batch2","","800","tol_tohand","","","","tol_peg_3","800","800","0","[[0,0,0],[1,3],[0]]","12","[[2,3,0],[0,0],[1]]","11","0","","","","","","4","","","","","","","","",""
"","","","","","single-stim-button","251","534657","0.0-2.0-43.11-1.11","61f2adfaa09e72f23cbaf9da","B2","batch2","","1023","tol_toboard","","","","tol_peg_1","1023","1023","0","[[2,0,0],[1,3],[0]]","12","[[2,3,0],[0,0],[1]]","11","0","","","","","","4","","","","","","","","",""
"","","","","","single-stim-button","252","535618","0.0-2.0-43.12-0.12","61f2adfaa09e72f23cbaf9da","B2","batch2","","958","tol_tohand","","","","tol_peg_2","958","958","0","[[2,0,0],[1,0],[0]]","13","[[2,3,0],[0,0],[1]]","11","0","","","","","","4","","","","","","","","",""
"","","","","","single-stim-button","253","536507","0.0-2.0-43.12-1.12","61f2adfaa09e72f23cbaf9da","B2","batch2","","888","tol_toboard","","","","tol_peg_1","888","888","0","[[2,3,0],[1,0],[0]]","13","[[2,3,0],[0,0],[1]]","11","0","","","","","","4","","","","","","","","",""
"","","","","","single-stim-button","254","537262","0.0-2.0-43.13-0.13","61f2adfaa09e72f23cbaf9da","B2","batch2","","753","tol_tohand","","","","tol_peg_2","753","753","0","[[2,3,0],[0,0],[0]]","14","[[2,3,0],[0,0],[1]]","11","0","","","","","","4","","","","","","","","",""
"","","","","","single-stim-button","255","538095","0.0-2.0-43.13-1.13","61f2adfaa09e72f23cbaf9da","B2","batch2","","832","tol_toboard","","","","tol_peg_3","832","832","0","[[2,3,0],[0,0],[1]]","14","[[2,3,0],[0,0],[1]]","11","0","","","","","","4","","","","","","","","",""
"","","","","","poldrack-single-stim","256","539102","0.0-2.0-44.0","61f2adfaa09e72f23cbaf9da","B2","batch2","","-1","tol_feedback","","","true","","1000","1000","500","","","","","","-1","none","true","4819","20415","","","","","","","","","",""
"","","","","","html-button-response","257","540637","0.0-2.0-45.0","61f2adfaa09e72f23cbaf9da","B2","batch2","","1533.0999999940395","tol_trial_num","<div class = centerbox><p class = center-block-text>problem <strong>13</strong> out of 25 problems</p></div>","0","","","","","","","","","","","","","","","","","","","","","","","","",""
"","","","","","single-stim-button","258","543774","0.0-2.0-46.0-0.0","61f2adfaa09e72f23cbaf9da","B2","batch2","","3135","tol_tohand","","","","tol_peg_2","3135","3135","0","[[1,2,0],[0,0],[0]]","1","[[0,0,0],[2,3],[1]]","12","0","","","","","","4","","","","","","","","",""
"","","","","","single-stim-button","259","545226","0.0-2.0-46.0-1.0","61f2adfaa09e72f23cbaf9da","B2","batch2","","1451","tol_toboard","","","","tol_peg_3","1451","1451","0","[[1,2,0],[0,0],[3]]","1","[[0,0,0],[2,3],[1]]","12","0","","","","","","4","","","","","","","","",""
"","","","","","single-stim-button","260","546236","0.0-2.0-46.1-0.1","61f2adfaa09e72f23cbaf9da","B2","batch2","","1008","tol_tohand","","","","tol_peg_1","1008","1008","0","[[1,0,0],[0,0],[3]]","2","[[0,0,0],[2,3],[1]]","12","0","","","","","","4","","","","","","","","",""
"","","","","","single-stim-button","261","547062","0.0-2.0-46.1-1.1","61f2adfaa09e72f23cbaf9da","B2","batch2","","824","tol_toboard","","","","tol_peg_2","824","824","0","[[1,0,0],[2,0],[3]]","2","[[0,0,0],[2,3],[1]]","12","0","","","","","","4","","","","","","","","",""
"","","","","","single-stim-button","262","547872","0.0-2.0-46.2-0.2","61f2adfaa09e72f23cbaf9da","B2","batch2","","809","tol_tohand","","","","tol_peg_3","809","809","0","[[1,0,0],[2,0],[0]]","3","[[0,0,0],[2,3],[1]]","12","0","","","","","","4","","","","","","","","",""
"","","","","","single-stim-button","263","548991","0.0-2.0-46.2-1.2","61f2adfaa09e72f23cbaf9da","B2","batch2","","1117","tol_toboard","","","","tol_peg_2","1117","1117","0","[[1,0,0],[2,3],[0]]","3","[[0,0,0],[2,3],[1]]","12","0","","","","","","4","","","","","","","","",""
"","","","","","single-stim-button","264","549865","0.0-2.0-46.3-0.3","61f2adfaa09e72f23cbaf9da","B2","batch2","","872","tol_tohand","","","","tol_peg_1","872","872","0","[[0,0,0],[2,3],[0]]","4","[[0,0,0],[2,3],[1]]","12","0","","","","","","4","","","","","","","","",""
"","","","","","single-stim-button","265","551041","0.0-2.0-46.3-1.3","61f2adfaa09e72f23cbaf9da","B2","batch2","","1174","tol_toboard","","","","tol_peg_3","1174","1174","0","[[0,0,0],[2,3],[1]]","4","[[0,0,0],[2,3],[1]]","12","0","","","","","","4","","","","","","","","",""
"","","","","","poldrack-single-stim","266","552051","0.0-2.0-47.0","61f2adfaa09e72f23cbaf9da","B2","batch2","","-1","tol_feedback","","","true","","1000","1000","500","","","","","","-1","none","true","3135","5824","","","","","","","","","",""
"","","","","","html-button-response","267","555534","0.0-2.0-48.0","61f2adfaa09e72f23cbaf9da","B2","batch2","","3481.399999976158","attention_check","<p class = block-text>How many balls are in your board<br></p>","1","true","","","","","","","","","","","","","","","","","","","","","","","",""
"","","","","","html-button-response","268","556989","0.0-2.0-49.0","61f2adfaa09e72f23cbaf9da","B2","batch2","","1452.0999999940395","tol_trial_num","<div class = centerbox><p class = center-block-text>problem <strong>14</strong> out of 25 problems</p></div>","0","","","","","","","","","","","","","","","","","","","","","","","","",""
"","","","","","single-stim-button","269","561531","0.0-2.0-50.0-0.0","61f2adfaa09e72f23cbaf9da","B2","batch2","","4541","tol_tohand","","","","tol_peg_1","4541","4541","0","[[2,0,0],[3,0],[0]]","1","[[1,2,0],[3,0],[0]]","13","0","","","","","","4","","","","","","","","",""
"","","","","","single-stim-button","270","562451","0.0-2.0-50.0-1.0","61f2adfaa09e72f23cbaf9da","B2","batch2","","919","tol_toboard","","","","tol_peg_3","919","919","0","[[2,0,0],[3,0],[1]]","1","[[1,2,0],[3,0],[0]]","13","0","","","","","","4","","","","","","","","",""
"","","","","","single-stim-button","271","563333","0.0-2.0-50.1-0.1","61f2adfaa09e72f23cbaf9da","B2","batch2","","880","tol_tohand","","","","tol_peg_1","880","880","0","[[0,0,0],[3,0],[1]]","2","[[1,2,0],[3,0],[0]]","13","0","","","","","","4","","","","","","","","",""
"","","","","","single-stim-button","272","563946","0.0-2.0-50.1-1.1","61f2adfaa09e72f23cbaf9da","B2","batch2","","611","tol_toboard","","","","tol_peg_2","611","611","0","[[0,0,0],[3,2],[1]]","2","[[1,2,0],[3,0],[0]]","13","0","","","","","","4","","","","","","","","",""
"","","","","","single-stim-button","273","564739","0.0-2.0-50.2-0.2","61f2adfaa09e72f23cbaf9da","B2","batch2","","792","tol_tohand","","","","tol_peg_3","792","792","0","[[0,0,0],[3,2],[0]]","3","[[1,2,0],[3,0],[0]]","13","0","","","","","","4","","","","","","","","",""
"","","","","","single-stim-button","274","565446","0.0-2.0-50.2-1.2","61f2adfaa09e72f23cbaf9da","B2","batch2","","705","tol_toboard","","","","tol_peg_1","705","705","0","[[1,0,0],[3,2],[0]]","3","[[1,2,0],[3,0],[0]]","13","0","","","","","","4","","","","","","","","",""
"","","","","","single-stim-button","275","566216","0.0-2.0-50.3-0.3","61f2adfaa09e72f23cbaf9da","B2","batch2","","769","tol_tohand","","","","tol_peg_2","769","769","0","[[1,0,0],[3,0],[0]]","4","[[1,2,0],[3,0],[0]]","13","0","","","","","","4","","","","","","","","",""
"","","","","","single-stim-button","276","566732","0.0-2.0-50.3-1.3","61f2adfaa09e72f23cbaf9da","B2","batch2","","515","tol_toboard","","","","tol_peg_1","515","515","0","[[1,2,0],[3,0],[0]]","4","[[1,2,0],[3,0],[0]]","13","0","","","","","","4","","","","","","","","",""
"","","","","","poldrack-single-stim","277","567744","0.0-2.0-51.0","61f2adfaa09e72f23cbaf9da","B2","batch2","","-1","tol_feedback","","","true","","1000","1000","500","","","","","","-1","none","true","4541","6982","","","","","","","","","",""
"","","","","","html-button-response","278","568686","0.0-2.0-52.0","61f2adfaa09e72f23cbaf9da","B2","batch2","","940","tol_trial_num","<div class = centerbox><p class = center-block-text>problem <strong>15</strong> out of 25 problems</p></div>","0","","","","","","","","","","","","","","","","","","","","","","","","",""
"","","","","","single-stim-button","279","572967","0.0-2.0-53.0-0.0","61f2adfaa09e72f23cbaf9da","B2","batch2","","4280","tol_tohand","","","","tol_peg_1","4280","4280","0","[[1,0,0],[3,0],[0]]","1","[[2,0,0],[3,0],[1]]","14","0","","","","","","3","","","","","","","","",""
"","","","","","single-stim-button","280","573833","0.0-2.0-53.0-1.0","61f2adfaa09e72f23cbaf9da","B2","batch2","","864","tol_toboard","","","","tol_peg_3","864","864","0","[[1,0,0],[3,0],[2]]","1","[[2,0,0],[3,0],[1]]","14","0","","","","","","3","","","","","","","","",""
"","","","","","single-stim-button","281","574667","0.0-2.0-53.1-0.1","61f2adfaa09e72f23cbaf9da","B2","batch2","","832","tol_tohand","","","","tol_peg_1","832","832","0","[[0,0,0],[3,0],[2]]","2","[[2,0,0],[3,0],[1]]","14","0","","","","","","3","","","","","","","","",""
"","","","","","single-stim-button","282","575572","0.0-2.0-53.1-1.1","61f2adfaa09e72f23cbaf9da","B2","batch2","","903","tol_toboard","","","","tol_peg_2","903","903","0","[[0,0,0],[3,1],[2]]","2","[[2,0,0],[3,0],[1]]","14","0","","","","","","3","","","","","","","","",""
"","","","","","single-stim-button","283","576247","0.0-2.0-53.2-0.2","61f2adfaa09e72f23cbaf9da","B2","batch2","","673","tol_tohand","","","","tol_peg_3","673","673","0","[[0,0,0],[3,1],[0]]","3","[[2,0,0],[3,0],[1]]","14","0","","","","","","3","","","","","","","","",""
"","","","","","single-stim-button","284","577073","0.0-2.0-53.2-1.2","61f2adfaa09e72f23cbaf9da","B2","batch2","","824","tol_toboard","","","","tol_peg_1","824","824","0","[[2,0,0],[3,1],[0]]","3","[[2,0,0],[3,0],[1]]","14","0","","","","","","3","","","","","","","","",""
"","","","","","single-stim-button","285","578161","0.0-2.0-53.3-0.3","61f2adfaa09e72f23cbaf9da","B2","batch2","","1086","tol_tohand","","","","tol_peg_2","1086","1086","0","[[2,0,0],[3,0],[0]]","4","[[2,0,0],[3,0],[1]]","14","0","","","","","","3","","","","","","","","",""
"","","","","","single-stim-button","286","578955","0.0-2.0-53.3-1.3","61f2adfaa09e72f23cbaf9da","B2","batch2","","792","tol_toboard","","","","tol_peg_3","792","792","0","[[2,0,0],[3,0],[1]]","4","[[2,0,0],[3,0],[1]]","14","0","","","","","","3","","","","","","","","",""
"","","","","","poldrack-single-stim","287","579961","0.0-2.0-54.0","61f2adfaa09e72f23cbaf9da","B2","batch2","","-1","tol_feedback","","","true","","1000","1000","500","","","","","","-1","none","true","4280","6871","","","","","","","","","",""
"","","","","","html-button-response","288","580869","0.0-2.0-55.0","61f2adfaa09e72f23cbaf9da","B2","batch2","","906.5999999940395","tol_trial_num","<div class = centerbox><p class = center-block-text>problem <strong>16</strong> out of 25 problems</p></div>","0","","","","","","","","","","","","","","","","","","","","","","","","",""
"","","","","","single-stim-button","289","587104","0.0-2.0-56.0-0.0","61f2adfaa09e72f23cbaf9da","B2","batch2","","6234","tol_tohand","","","","tol_peg_2","6234","6234","0","[[0,0,0],[2,0],[1]]","1","[[2,3,0],[1,0],[0]]","15","0","","","","","","7","","","","","","","","",""
"","","","","","single-stim-button","290","588105","0.0-2.0-56.0-1.0","61f2adfaa09e72f23cbaf9da","B2","batch2","","999","tol_toboard","","","","tol_peg_2","999","999","0","[[0,0,0],[2,3],[1]]","1","[[2,3,0],[1,0],[0]]","15","0","","","","","","7","","","","","","","","",""
"","","","","","single-stim-button","291","595166","0.0-2.0-56.1-0.1","61f2adfaa09e72f23cbaf9da","B2","batch2","","7059","tol_tohand","","","","tol_peg_3","7059","7059","0","[[0,0,0],[2,3],[0]]","2","[[2,3,0],[1,0],[0]]","15","0","","","","","","7","","","","","","","","",""
"","","","","","single-stim-button","292","595793","0.0-2.0-56.1-1.1","61f2adfaa09e72f23cbaf9da","B2","batch2","","625","tol_toboard","","","","tol_peg_1","625","625","0","[[1,0,0],[2,3],[0]]","2","[[2,3,0],[1,0],[0]]","15","0","","","","","","7","","","","","","","","",""
"","","","","","single-stim-button","293","596929","0.0-2.0-56.2-0.2","61f2adfaa09e72f23cbaf9da","B2","batch2","","1134","tol_tohand","","","","tol_peg_2","1134","1134","0","[[1,0,0],[2,0],[0]]","3","[[2,3,0],[1,0],[0]]","15","0","","","","","","7","","","","","","","","",""
"","","","","","single-stim-button","294","597993","0.0-2.0-56.2-1.2","61f2adfaa09e72f23cbaf9da","B2","batch2","","1062","tol_toboard","","","","tol_peg_3","1062","1062","0","[[1,0,0],[2,0],[3]]","3","[[2,3,0],[1,0],[0]]","15","0","","","","","","7","","","","","","","","",""
"","","","","","single-stim-button","295","602552","0.0-2.0-56.3-0.3","61f2adfaa09e72f23cbaf9da","B2","batch2","","4557","tol_tohand","","","","tol_peg_2","4557","4557","0","[[1,0,0],[0,0],[3]]","4","[[2,3,0],[1,0],[0]]","15","0","","","","","","7","","","","","","","","",""
"","","","","","single-stim-button","296","603290","0.0-2.0-56.3-1.3","61f2adfaa09e72f23cbaf9da","B2","batch2","","736","tol_toboard","","","","tol_peg_1","736","736","0","[[1,2,0],[0,0],[3]]","4","[[2,3,0],[1,0],[0]]","15","0","","","","","","7","","","","","","","","",""
"","","","","","single-stim-button","297","604235","0.0-2.0-56.4-0.4","61f2adfaa09e72f23cbaf9da","B2","batch2","","944","tol_tohand","","","","tol_peg_3","944","944","0","[[1,2,0],[0,0],[0]]","5","[[2,3,0],[1,0],[0]]","15","0","","","","","","7","","","","","","","","",""
"","","","","","single-stim-button","298","604902","0.0-2.0-56.4-1.4","61f2adfaa09e72f23cbaf9da","B2","batch2","","666","tol_toboard","","","","tol_peg_2","666","666","0","[[1,2,0],[3,0],[0]]","5","[[2,3,0],[1,0],[0]]","15","0","","","","","","7","","","","","","","","",""
"","","","","","single-stim-button","299","608532","0.0-2.0-56.5-0.5","61f2adfaa09e72f23cbaf9da","B2","batch2","","3628","tol_tohand","","","","tol_peg_1","3628","3628","0","[[1,0,0],[3,0],[0]]","6","[[2,3,0],[1,0],[0]]","15","0","","","","","","7","","","","","","","","",""
"","","","","","single-stim-button","300","609342","0.0-2.0-56.5-1.5","61f2adfaa09e72f23cbaf9da","B2","batch2","","808","tol_toboard","","","","tol_peg_2","808","808","0","[[1,0,0],[3,2],[0]]","6","[[2,3,0],[1,0],[0]]","15","0","","","","","","7","","","","","","","","",""
"","","","","","single-stim-button","301","610088","0.0-2.0-56.6-0.6","61f2adfaa09e72f23cbaf9da","B2","batch2","","744","tol_tohand","","","","tol_peg_1","744","744","0","[[0,0,0],[3,2],[0]]","7","[[2,3,0],[1,0],[0]]","15","0","","","","","","7","","","","","","","","",""
"","","","","","single-stim-button","302","610993","0.0-2.0-56.6-1.6","61f2adfaa09e72f23cbaf9da","B2","batch2","","904","tol_toboard","","","","tol_peg_3","904","904","0","[[0,0,0],[3,2],[1]]","7","[[2,3,0],[1,0],[0]]","15","0","","","","","","7","","","","","","","","",""
"","","","","","single-stim-button","303","611835","0.0-2.0-56.7-0.7","61f2adfaa09e72f23cbaf9da","B2","batch2","","840","tol_tohand","","","","tol_peg_2","840","840","0","[[0,0,0],[3,0],[1]]","8","[[2,3,0],[1,0],[0]]","15","0","","","","","","7","","","","","","","","",""
"","","","","","single-stim-button","304","612844","0.0-2.0-56.7-1.7","61f2adfaa09e72f23cbaf9da","B2","batch2","","1007","tol_toboard","","","","tol_peg_1","1007","1007","0","[[2,0,0],[3,0],[1]]","8","[[2,3,0],[1,0],[0]]","15","0","","","","","","7","","","","","","","","",""
"","","","","","single-stim-button","305","613543","0.0-2.0-56.8-0.8","61f2adfaa09e72f23cbaf9da","B2","batch2","","697","tol_tohand","","","","tol_peg_2","697","697","0","[[2,0,0],[0,0],[1]]","9","[[2,3,0],[1,0],[0]]","15","0","","","","","","7","","","","","","","","",""
"","","","","","single-stim-button","306","614289","0.0-2.0-56.8-1.8","61f2adfaa09e72f23cbaf9da","B2","batch2","","745","tol_toboard","","","","tol_peg_1","745","745","0","[[2,3,0],[0,0],[1]]","9","[[2,3,0],[1,0],[0]]","15","0","","","","","","7","","","","","","","","",""
"","","","","","single-stim-button","307","615251","0.0-2.0-56.9-0.9","61f2adfaa09e72f23cbaf9da","B2","batch2","","959","tol_tohand","","","","tol_peg_3","959","959","0","[[2,3,0],[0,0],[0]]","10","[[2,3,0],[1,0],[0]]","15","0","","","","","","7","","","","","","","","",""
"","","","","","single-stim-button","308","615790","0.0-2.0-56.9-1.9","61f2adfaa09e72f23cbaf9da","B2","batch2","","538","tol_toboard","","","","tol_peg_2","538","538","0","[[2,3,0],[1,0],[0]]","10","[[2,3,0],[1,0],[0]]","15","0","","","","","","7","","","","","","","","",""
"","","","","","poldrack-single-stim","309","616803","0.0-2.0-57.0","61f2adfaa09e72f23cbaf9da","B2","batch2","","-1","tol_feedback","","","true","","1000","1000","500","","","","","","-1","none","true","6234","26796","","","","","","","","","",""
"","","","","","html-button-response","310","617704","0.0-2.0-58.0","61f2adfaa09e72f23cbaf9da","B2","batch2","","900","tol_trial_num","<div class = centerbox><p class = center-block-text>problem <strong>17</strong> out of 25 problems</p></div>","0","","","","","","","","","","","","","","","","","","","","","","","","",""
"","","","","","single-stim-button","311","623603","0.0-2.0-59.0-0.0","61f2adfaa09e72f23cbaf9da","B2","batch2","","5897","tol_tohand","","","","tol_peg_1","5897","5897","0","[[1,0,0],[3,0],[0]]","1","[[3,1,0],[2,0],[0]]","16","0","","","","","","5","","","","","","","","",""
"","","","","","single-stim-button","312","624755","0.0-2.0-59.0-1.0","61f2adfaa09e72f23cbaf9da","B2","batch2","","1149","tol_toboard","","","","tol_peg_3","1149","1149","0","[[1,0,0],[3,0],[2]]","1","[[3,1,0],[2,0],[0]]","16","0","","","","","","5","","","","","","","","",""
"","","","","","single-stim-button","313","625604","0.0-2.0-59.1-0.1","61f2adfaa09e72f23cbaf9da","B2","batch2","","847","tol_tohand","","","","tol_peg_1","847","847","0","[[0,0,0],[3,0],[2]]","2","[[3,1,0],[2,0],[0]]","16","0","","","","","","5","","","","","","","","",""
"","","","","","single-stim-button","314","626874","0.0-2.0-59.1-1.1","61f2adfaa09e72f23cbaf9da","B2","batch2","","1269","tol_toboard","","","","tol_peg_2","1269","1269","0","[[0,0,0],[3,1],[2]]","2","[[3,1,0],[2,0],[0]]","16","0","","","","","","5","","","","","","","","",""
"","","","","","single-stim-button","315","627812","0.0-2.0-59.2-0.2","61f2adfaa09e72f23cbaf9da","B2","batch2","","936","tol_tohand","","","","tol_peg_3","936","936","0","[[0,0,0],[3,1],[0]]","3","[[3,1,0],[2,0],[0]]","16","0","","","","","","5","","","","","","","","",""
"","","","","","single-stim-button","316","628819","0.0-2.0-59.2-1.2","61f2adfaa09e72f23cbaf9da","B2","batch2","","1006","tol_toboard","","","","tol_peg_1","1006","1006","0","[[2,0,0],[3,1],[0]]","3","[[3,1,0],[2,0],[0]]","16","0","","","","","","5","","","","","","","","",""
"","","","","","single-stim-button","317","633046","0.0-2.0-59.3-0.3","61f2adfaa09e72f23cbaf9da","B2","batch2","","4225","tol_tohand","","","","tol_peg_2","4225","4225","0","[[2,0,0],[3,0],[0]]","4","[[3,1,0],[2,0],[0]]","16","0","","","","","","5","","","","","","","","",""
"","","","","","single-stim-button","318","634269","0.0-2.0-59.3-1.3","61f2adfaa09e72f23cbaf9da","B2","batch2","","1221","tol_toboard","","","","tol_peg_3","1221","1221","0","[[2,0,0],[3,0],[1]]","4","[[3,1,0],[2,0],[0]]","16","0","","","","","","5","","","","","","","","",""
"","","","","","single-stim-button","319","635357","0.0-2.0-59.4-0.4","61f2adfaa09e72f23cbaf9da","B2","batch2","","1086","tol_tohand","","","","tol_peg_1","1086","1086","0","[[0,0,0],[3,0],[1]]","5","[[3,1,0],[2,0],[0]]","16","0","","","","","","5","","","","","","","","",""
"","","","","","single-stim-button","320","636445","0.0-2.0-59.4-1.4","61f2adfaa09e72f23cbaf9da","B2","batch2","","1086","tol_toboard","","","","tol_peg_2","1086","1086","0","[[0,0,0],[3,2],[1]]","5","[[3,1,0],[2,0],[0]]","16","0","","","","","","5","","","","","","","","",""
"","","","","","single-stim-button","321","637104","0.0-2.0-59.5-0.5","61f2adfaa09e72f23cbaf9da","B2","batch2","","658","tol_tohand","","","","tol_peg_3","658","658","0","[[0,0,0],[3,2],[0]]","6","[[3,1,0],[2,0],[0]]","16","0","","","","","","5","","","","","","","","",""
"","","","","","single-stim-button","322","637994","0.0-2.0-59.5-1.5","61f2adfaa09e72f23cbaf9da","B2","batch2","","888","tol_toboard","","","","tol_peg_1","888","888","0","[[1,0,0],[3,2],[0]]","6","[[3,1,0],[2,0],[0]]","16","0","","","","","","5","","","","","","","","",""
"","","","","","single-stim-button","323","638605","0.0-2.0-59.6-0.6","61f2adfaa09e72f23cbaf9da","B2","batch2","","610","tol_tohand","","","","tol_peg_2","610","610","0","[[1,0,0],[3,0],[0]]","7","[[3,1,0],[2,0],[0]]","16","0","","","","","","5","","","","","","","","",""
"","","","","","single-stim-button","324","639360","0.0-2.0-59.6-1.6","61f2adfaa09e72f23cbaf9da","B2","batch2","","754","tol_toboard","","","","tol_peg_3","754","754","0","[[1,0,0],[3,0],[2]]","7","[[3,1,0],[2,0],[0]]","16","0","","","","","","5","","","","","","","","",""
"","","","","","single-stim-button","325","640194","0.0-2.0-59.7-0.7","61f2adfaa09e72f23cbaf9da","B2","batch2","","832","tol_tohand","","","","tol_peg_2","832","832","0","[[1,0,0],[0,0],[2]]","8","[[3,1,0],[2,0],[0]]","16","0","","","","","","5","","","","","","","","",""
"","","","","","single-stim-button","326","641115","0.0-2.0-59.7-1.7","61f2adfaa09e72f23cbaf9da","B2","batch2","","919","tol_toboard","","","","tol_peg_1","919","919","0","[[1,3,0],[0,0],[2]]","8","[[3,1,0],[2,0],[0]]","16","0","","","","","","5","","","","","","","","",""
"","","","","","single-stim-button","327","643704","0.0-2.0-59.8-0.8","61f2adfaa09e72f23cbaf9da","B2","batch2","","2588","tol_tohand","","","","tol_peg_3","2588","2588","0","[[1,3,0],[0,0],[0]]","9","[[3,1,0],[2,0],[0]]","16","0","","","","","","5","","","","","","","","",""
"","","","","","single-stim-button","328","644530","0.0-2.0-59.8-1.8","61f2adfaa09e72f23cbaf9da","B2","batch2","","824","tol_toboard","","","","tol_peg_2","824","824","0","[[1,3,0],[2,0],[0]]","9","[[3,1,0],[2,0],[0]]","16","0","","","","","","5","","","","","","","","",""
"","","","","","single-stim-button","329","645738","0.0-2.0-59.9-0.9","61f2adfaa09e72f23cbaf9da","B2","batch2","","1206","tol_tohand","","","","tol_peg_1","1206","1206","0","[[1,0,0],[2,0],[0]]","10","[[3,1,0],[2,0],[0]]","16","0","","","","","","5","","","","","","","","",""
"","","","","","single-stim-button","330","648970","0.0-2.0-59.9-1.9","61f2adfaa09e72f23cbaf9da","B2","batch2","","3231","tol_toboard","","","","tol_peg_2","3231","3231","0","[[1,0,0],[2,3],[0]]","10","[[3,1,0],[2,0],[0]]","16","0","","","","","","5","","","","","","","","",""
"","","","","","single-stim-button","331","649724","0.0-2.0-59.10-0.10","61f2adfaa09e72f23cbaf9da","B2","batch2","","753","tol_tohand","","","","tol_peg_1","753","753","0","[[0,0,0],[2,3],[0]]","11","[[3,1,0],[2,0],[0]]","16","0","","","","","","5","","","","","","","","",""
"","","","","","single-stim-button","332","650701","0.0-2.0-59.10-1.10","61f2adfaa09e72f23cbaf9da","B2","batch2","","975","tol_toboard","","","","tol_peg_3","975","975","0","[[0,0,0],[2,3],[1]]","11","[[3,1,0],[2,0],[0]]","16","0","","","","","","5","","","","","","","","",""
"","","","","","single-stim-button","333","651599","0.0-2.0-59.11-0.11","61f2adfaa09e72f23cbaf9da","B2","batch2","","896","tol_tohand","","","","tol_peg_2","896","896","0","[[0,0,0],[2,0],[1]]","12","[[3,1,0],[2,0],[0]]","16","0","","","","","","5","","","","","","","","",""
"","","","","","single-stim-button","334","652527","0.0-2.0-59.11-1.11","61f2adfaa09e72f23cbaf9da","B2","batch2","","927","tol_toboard","","","","tol_peg_1","927","927","0","[[3,0,0],[2,0],[1]]","12","[[3,1,0],[2,0],[0]]","16","0","","","","","","5","","","","","","","","",""
"","","","","","single-stim-button","335","653385","0.0-2.0-59.12-0.12","61f2adfaa09e72f23cbaf9da","B2","batch2","","856","tol_tohand","","","","tol_peg_3","856","856","0","[[3,0,0],[2,0],[0]]","13","[[3,1,0],[2,0],[0]]","16","0","","","","","","5","","","","","","","","",""
"","","","","","single-stim-button","336","654299","0.0-2.0-59.12-1.12","61f2adfaa09e72f23cbaf9da","B2","batch2","","912","tol_toboard","","","","tol_peg_1","912","912","0","[[3,1,0],[2,0],[0]]","13","[[3,1,0],[2,0],[0]]","16","0","","","","","","5","","","","","","","","",""
"","","","","","poldrack-single-stim","337","655303","0.0-2.0-60.0","61f2adfaa09e72f23cbaf9da","B2","batch2","","-1","tol_feedback","","","true","","1000","1000","500","","","","","","-1","none","true","5897","21390","","","","","","","","","",""
"","","","","","html-button-response","338","656435","0.0-2.0-61.0","61f2adfaa09e72f23cbaf9da","B2","batch2","","1129.9000000059605","tol_trial_num","<div class = centerbox><p class = center-block-text>problem <strong>18</strong> out of 25 problems</p></div>","0","","","","","","","","","","","","","","","","","","","","","","","","",""
"","","","","","single-stim-button","339","659485","0.0-2.0-62.0-0.0","61f2adfaa09e72f23cbaf9da","B2","batch2","","3048","tol_tohand","","","","tol_peg_1","3048","3048","0","[[1,0,0],[3,0],[0]]","1","[[3,0,0],[2,0],[1]]","17","0","","","","","","5","","","","","","","","",""
"","","","","","single-stim-button","340","662025","0.0-2.0-62.0-1.0","61f2adfaa09e72f23cbaf9da","B2","batch2","","2538","tol_toboard","","","","tol_peg_3","2538","2538","0","[[1,0,0],[3,0],[2]]","1","[[3,0,0],[2,0],[1]]","17","0","","","","","","5","","","","","","","","",""
"","","","","","single-stim-button","341","663170","0.0-2.0-62.1-0.1","61f2adfaa09e72f23cbaf9da","B2","batch2","","1143","tol_tohand","","","","tol_peg_1","1143","1143","0","[[0,0,0],[3,0],[2]]","2","[[3,0,0],[2,0],[1]]","17","0","","","","","","5","","","","","","","","",""
"","","","","","single-stim-button","342","664805","0.0-2.0-62.1-1.1","61f2adfaa09e72f23cbaf9da","B2","batch2","","1634","tol_toboard","","","","tol_peg_2","1634","1634","0","[[0,0,0],[3,1],[2]]","2","[[3,0,0],[2,0],[1]]","17","0","","","","","","5","","","","","","","","",""
"","","","","","single-stim-button","343","667061","0.0-2.0-62.2-0.2","61f2adfaa09e72f23cbaf9da","B2","batch2","","2253","tol_tohand","","","","tol_peg_3","2253","2253","0","[[0,0,0],[3,1],[0]]","3","[[3,0,0],[2,0],[1]]","17","0","","","","","","5","","","","","","","","",""
"","","","","","single-stim-button","344","667791","0.0-2.0-62.2-1.2","61f2adfaa09e72f23cbaf9da","B2","batch2","","729","tol_toboard","","","","tol_peg_1","729","729","0","[[2,0,0],[3,1],[0]]","3","[[3,0,0],[2,0],[1]]","17","0","","","","","","5","","","","","","","","",""
"","","","","","single-stim-button","345","668427","0.0-2.0-62.3-0.3","61f2adfaa09e72f23cbaf9da","B2","batch2","","634","tol_tohand","","","","tol_peg_2","634","634","0","[[2,0,0],[3,0],[0]]","4","[[3,0,0],[2,0],[1]]","17","0","","","","","","5","","","","","","","","",""
"","","","","","single-stim-button","346","668981","0.0-2.0-62.3-1.3","61f2adfaa09e72f23cbaf9da","B2","batch2","","553","tol_toboard","","","","tol_peg_1","553","553","0","[[2,1,0],[3,0],[0]]","4","[[3,0,0],[2,0],[1]]","17","0","","","","","","5","","","","","","","","",""
"","","","","","single-stim-button","347","669601","0.0-2.0-62.4-0.4","61f2adfaa09e72f23cbaf9da","B2","batch2","","620","tol_tohand","","","","tol_peg_2","620","620","0","[[2,1,0],[0,0],[0]]","5","[[3,0,0],[2,0],[1]]","17","0","","","","","","5","","","","","","","","",""
"","","","","","single-stim-button","348","670618","0.0-2.0-62.4-1.4","61f2adfaa09e72f23cbaf9da","B2","batch2","","1015","tol_toboard","","","","tol_peg_3","1015","1015","0","[[2,1,0],[0,0],[3]]","5","[[3,0,0],[2,0],[1]]","17","0","","","","","","5","","","","","","","","",""
"","","","","","single-stim-button","349","671579","0.0-2.0-62.5-0.5","61f2adfaa09e72f23cbaf9da","B2","batch2","","959","tol_tohand","","","","tol_peg_1","959","959","0","[[2,0,0],[0,0],[3]]","6","[[3,0,0],[2,0],[1]]","17","0","","","","","","5","","","","","","","","",""
"","","","","","single-stim-button","350","673414","0.0-2.0-62.5-1.5","61f2adfaa09e72f23cbaf9da","B2","batch2","","1833","tol_toboard","","","","tol_peg_2","1833","1833","0","[[2,0,0],[1,0],[3]]","6","[[3,0,0],[2,0],[1]]","17","0","","","","","","5","","","","","","","","",""
"","","","","","single-stim-button","351","674033","0.0-2.0-62.6-0.6","61f2adfaa09e72f23cbaf9da","B2","batch2","","618","tol_tohand","","","","tol_peg_1","618","618","0","[[0,0,0],[1,0],[3]]","7","[[3,0,0],[2,0],[1]]","17","0","","","","","","5","","","","","","","","",""
"","","","","","single-stim-button","352","674883","0.0-2.0-62.6-1.6","61f2adfaa09e72f23cbaf9da","B2","batch2","","848","tol_toboard","","","","tol_peg_2","848","848","0","[[0,0,0],[1,2],[3]]","7","[[3,0,0],[2,0],[1]]","17","0","","","","","","5","","","","","","","","",""
"","","","","","single-stim-button","353","676606","0.0-2.0-62.7-0.7","61f2adfaa09e72f23cbaf9da","B2","batch2","","1722","tol_tohand","","","","tol_peg_3","1722","1722","0","[[0,0,0],[1,2],[0]]","8","[[3,0,0],[2,0],[1]]","17","0","","","","","","5","","","","","","","","",""
"","","","","","single-stim-button","354","677440","0.0-2.0-62.7-1.7","61f2adfaa09e72f23cbaf9da","B2","batch2","","833","tol_toboard","","","","tol_peg_1","833","833","0","[[3,0,0],[1,2],[0]]","8","[[3,0,0],[2,0],[1]]","17","0","","","","","","5","","","","","","","","",""
"","","","","","single-stim-button","355","679203","0.0-2.0-62.8-0.8","61f2adfaa09e72f23cbaf9da","B2","batch2","","1762","tol_tohand","","","","tol_peg_2","1762","1762","0","[[3,0,0],[1,0],[0]]","9","[[3,0,0],[2,0],[1]]","17","0","","","","","","5","","","","","","","","",""
