"success","timeout","failed_images","failed_audio","failed_video","trial_type","trial_index","time_elapsed","internal_node_id","subject_id","study_id","session_id","view_history","rt","task","stimulus","response","correct","mouse_click","stim_duration","block_duration","timing_post_trial","current_position","tol_num_moves_made","tol_target","tol_problem_id","tol_rt","key_press","possible_responses","tol_correct","preplanning","tol_rt_per_trial","tol_min_moves","item","answer","spm_correct","spm_rt","fiar_detect_rt","fiar_detect_correct","total_correct_fiar_detect","post_trial_gap","choices"
"true","false","[]","[]","[]","preload","0","2897","0.0-0.0","61fa904ed42cb19beec490d9","F1","batch6","","","","","","","","","","","","","","","","","","","","","","","","","","","","","",""
"true","","","","","fullscreen","1","10594","0.0-1.0-0.0","61fa904ed42cb19beec490d9","F1","batch6","","","","","","","","","","","","","","","","","","","","","","","","","","","","","",""
"true","","","","","fullscreen","2","13345","0.0-2.0-0.0","61fa904ed42cb19beec490d9","F1","batch6","","","","","","","","","","","","","","","","","","","","","","","","","","","","","",""
"","","","","","instructions","3","99597","0.0-2.0-1.0-0.0-0.0","61fa904ed42cb19beec490d9","F1","batch6","[{""page_index"":0,""viewing_time"":14535},{""page_index"":1,""viewing_time"":5296.199999928474},{""page_index"":2,""viewing_time"":28230},{""page_index"":3,""viewing_time"":13612.5},{""page_index"":4,""viewing_time"":5906.100000023842},{""page_index"":5,""viewing_time"":14286.300000071526},{""page_index"":6,""viewing_time"":4383.699999928474}]","86250","tol-instructions","","","","","","","","","","","","","","","","","","","","","","","","","","",""
"","","","","","html-button-response","4","101059","0.0-2.0-1.0-1.0-0.0","61fa904ed42cb19beec490d9","F1","batch6","","1461.5999999046326","tol_enter_quiz","<p class=block-text> Let's answer a few questions <br>","0","","","","","","","","","","","","","","","","","","","","","","","","",""
"","","","","","html-button-response","5","115393","0.0-2.0-1.0-1.0-1.0","61fa904ed42cb19beec490d9","F1","batch6","","14332.399999976158","tol_quiz","<p class = block-text>True or False: You can only move the ball on top of a peg. <br></p>","0","true","","","","","","","","","","","","","","","","","","","","","","","",""
"","","","","","html-button-response","6","117252","0.0-2.0-1.0-1.0-2.0","61fa904ed42cb19beec490d9","F1","batch6","","1857.4000000953674","tol_quiz_feedback","<p class = block-text>Correct! You can only move the ball on top of a peg.</p>","0","","","","","","","","","","","","","","","","","","","","","","","","",""
"","","","","","html-button-response","7","120726","0.0-2.0-1.0-1.0-3.0","61fa904ed42cb19beec490d9","F1","batch6","","3473.899999976158","tol_quiz","<p class = block-text>True or False: You should try to match your board with the target board with fewest moves possible. <br></p>","0","true","","","","","","","","","","","","","","","","","","","","","","","",""
"","","","","","html-button-response","8","121696","0.0-2.0-1.0-1.0-4.0","61fa904ed42cb19beec490d9","F1","batch6","","968.3000000715256","tol_quiz_feedback","<p class = block-text>Correct! </p>","0","","","","","","","","","","","","","","","","","","","","","","","","",""
"","","","","","html-button-response","9","124269","0.0-2.0-2.0","61fa904ed42cb19beec490d9","F1","batch6","","2572.100000023842","","<p class=block-text> Now that you've understood the game, let's practice a few easier examples before we start!<br> <br>","0","","","","","","","","","","","","","","","","","","","","","","","","",""
"","","","","","single-stim-button","10","127159","0.0-2.0-3.0-0.0","61fa904ed42cb19beec490d9","F1","batch6","","2889","tol_practice","","","","tol_peg_2","2889","2889","0","[[1,2,0],[0,0],[0]]","1","[[1,2,0],[0,0],[3]]","practice","2889","","","","","","","","","","","","","","",""
"","","","","","single-stim-button","11","128575","0.0-2.0-3.0-1.0","61fa904ed42cb19beec490d9","F1","batch6","","1415","tol_practice","","","","tol_peg_3","1415","1415","0","[[1,2,0],[0,0],[3]]","1","[[1,2,0],[0,0],[3]]","practice","1415","","","","","","","","","","","","","","",""
"","","","","","poldrack-single-stim","12","129577","0.0-2.0-4.0","61fa904ed42cb19beec490d9","F1","batch6","","-1","tol_feedback","","","true","","1000","1000","500","","","","","","-1","none","true","","0","","","","","","","","","",""
"","","","","","single-stim-button","13","132743","0.0-2.0-5.0-0.0","61fa904ed42cb19beec490d9","F1","batch6","","3165","tol_practice","","","","tol_peg_1","3165","3165","0","[[1,0,0],[3,0],[0]]","2","[[0,0,0],[3,1],[2]]","practice","3165","","","","","","","","","","","","","","",""
"","","","","","single-stim-button","14","133299","0.0-2.0-5.0-1.0","61fa904ed42cb19beec490d9","F1","batch6","","555","tol_practice","","","","tol_peg_3","555","555","0","[[1,0,0],[3,0],[2]]","2","[[0,0,0],[3,1],[2]]","practice","555","","","","","","","","","","","","","","",""
"","","","","","single-stim-button","15","133902","0.0-2.0-5.1-0.1","61fa904ed42cb19beec490d9","F1","batch6","","602","tol_practice","","","","tol_peg_1","602","602","0","[[0,0,0],[3,0],[2]]","3","[[0,0,0],[3,1],[2]]","practice","602","","","","","","","","","","","","","","",""
"","","","","","single-stim-button","16","134559","0.0-2.0-5.1-1.1","61fa904ed42cb19beec490d9","F1","batch6","","656","tol_practice","","","","tol_peg_2","656","656","0","[[0,0,0],[3,1],[2]]","3","[[0,0,0],[3,1],[2]]","practice","656","","","","","","","","","","","","","","",""
"","","","","","poldrack-single-stim","17","135561","0.0-2.0-6.0","61fa904ed42cb19beec490d9","F1","batch6","","-1","tol_feedback","","","true","","1000","1000","500","","","","","","-1","none","true","","0","","","","","","","","","",""
"","","","","","single-stim-button","18","137460","0.0-2.0-7.0-0.0","61fa904ed42cb19beec490d9","F1","batch6","","1899","tol_practice","","","","tol_peg_2","1899","1899","0","[[1,2,0],[0,0],[0]]","4","[[1,0,0],[2,0],[3]]","practice","1899","","","","","","","","","","","","","","",""
"","","","","","single-stim-button","19","137998","0.0-2.0-7.0-1.0","61fa904ed42cb19beec490d9","F1","batch6","","537","tol_practice","","","","tol_peg_3","537","537","0","[[1,2,0],[0,0],[3]]","4","[[1,0,0],[2,0],[3]]","practice","537","","","","","","","","","","","","","","",""
"","","","","","single-stim-button","20","138922","0.0-2.0-7.1-0.1","61fa904ed42cb19beec490d9","F1","batch6","","923","tol_practice","","","","tol_peg_1","923","923","0","[[1,0,0],[0,0],[3]]","5","[[1,0,0],[2,0],[3]]","practice","923","","","","","","","","","","","","","","",""
"","","","","","single-stim-button","21","139612","0.0-2.0-7.1-1.1","61fa904ed42cb19beec490d9","F1","batch6","","690","tol_practice","","","","tol_peg_2","690","690","0","[[1,0,0],[2,0],[3]]","5","[[1,0,0],[2,0],[3]]","practice","690","","","","","","","","","","","","","","",""
"","","","","","poldrack-single-stim","22","140614","0.0-2.0-8.0","61fa904ed42cb19beec490d9","F1","batch6","","-1","tol_feedback","","","true","","1000","1000","500","","","","","","-1","none","true","","0","","","","","","","","","",""
"","","","","","html-button-response","23","142676","0.0-2.0-9.0","61fa904ed42cb19beec490d9","F1","batch6","","2060.600000023842","tol_instruction","<div class = centerbox><p class = center-block-text>Great job! You are done with practice trials<br>You are about to start official trials.<br> <br> Problem <strong>1</strong> out of 25 problems</p></div>","0","","","","","","","","","","","","","","","","","","","","","","","","",""
"","","","","","single-stim-button","24","147690","0.0-2.0-10.0-0.0","61fa904ed42cb19beec490d9","F1","batch6","","4013","tol_tohand","","","","tol_peg_1","4013","4013","0","[[1,0,0],[3,0],[0]]","1","[[1,3,0],[2,0],[0]]","0","0","","","","","","3","","","","","","","","",""
"","","","","","single-stim-button","25","149041","0.0-2.0-10.0-1.0","61fa904ed42cb19beec490d9","F1","batch6","","1350","tol_toboard","","","","tol_peg_3","1350","1350","0","[[1,0,0],[3,0],[2]]","1","[[1,3,0],[2,0],[0]]","0","0","","","","","","3","","","","","","","","",""
"","","","","","single-stim-button","26","149773","0.0-2.0-10.1-0.1","61fa904ed42cb19beec490d9","F1","batch6","","731","tol_tohand","","","","tol_peg_2","731","731","0","[[1,0,0],[0,0],[2]]","2","[[1,3,0],[2,0],[0]]","0","0","","","","","","3","","","","","","","","",""
"","","","","","single-stim-button","27","150521","0.0-2.0-10.1-1.1","61fa904ed42cb19beec490d9","F1","batch6","","747","tol_toboard","","","","tol_peg_1","747","747","0","[[1,3,0],[0,0],[2]]","2","[[1,3,0],[2,0],[0]]","0","0","","","","","","3","","","","","","","","",""
"","","","","","single-stim-button","28","151226","0.0-2.0-10.2-0.2","61fa904ed42cb19beec490d9","F1","batch6","","705","tol_tohand","","","","tol_peg_3","705","705","0","[[1,3,0],[0,0],[0]]","3","[[1,3,0],[2,0],[0]]","0","0","","","","","","3","","","","","","","","",""
"","","","","","single-stim-button","29","151722","0.0-2.0-10.2-1.2","61fa904ed42cb19beec490d9","F1","batch6","","494","tol_toboard","","","","tol_peg_2","494","494","0","[[1,3,0],[2,0],[0]]","3","[[1,3,0],[2,0],[0]]","0","0","","","","","","3","","","","","","","","",""
"","","","","","poldrack-single-stim","30","152723","0.0-2.0-11.0","61fa904ed42cb19beec490d9","F1","batch6","","-1","tol_feedback","","","true","","1000","1000","500","","","","","","-1","none","true","4013","5449","","","","","","","","","",""
"","","","","","html-button-response","31","153823","0.0-2.0-12.0","61fa904ed42cb19beec490d9","F1","batch6","","1099.1999999284744","tol_trial_num","<div class = centerbox><p class = center-block-text>problem <strong>2</strong> out of 25 problems</p></div>","0","","","","","","","","","","","","","","","","","","","","","","","","",""
"","","","","","single-stim-button","32","156082","0.0-2.0-13.0-0.0","61fa904ed42cb19beec490d9","F1","batch6","","2258","tol_tohand","","","","tol_peg_2","2258","2258","0","[[1,2,0],[0,0],[0]]","1","[[2,1,3],[0,0],[0]]","1","0","","","","","","5","","","","","","","","",""
"","","","","","single-stim-button","33","156728","0.0-2.0-13.0-1.0","61fa904ed42cb19beec490d9","F1","batch6","","645","tol_toboard","","","","tol_peg_1","645","645","0","[[1,2,3],[0,0],[0]]","1","[[2,1,3],[0,0],[0]]","1","0","","","","","","5","","","","","","","","",""
"","","","","","single-stim-button","34","157818","0.0-2.0-13.1-0.1","61fa904ed42cb19beec490d9","F1","batch6","","1089","tol_tohand","","","","tol_peg_1","1089","1089","0","[[1,2,0],[0,0],[0]]","2","[[2,1,3],[0,0],[0]]","1","0","","","","","","5","","","","","","","","",""
"","","","","","single-stim-button","35","158367","0.0-2.0-13.1-1.1","61fa904ed42cb19beec490d9","F1","batch6","","548","tol_toboard","","","","tol_peg_3","548","548","0","[[1,2,0],[0,0],[3]]","2","[[2,1,3],[0,0],[0]]","1","0","","","","","","5","","","","","","","","",""
"","","","","","single-stim-button","36","159076","0.0-2.0-13.2-0.2","61fa904ed42cb19beec490d9","F1","batch6","","708","tol_tohand","","","","tol_peg_1","708","708","0","[[1,0,0],[0,0],[3]]","3","[[2,1,3],[0,0],[0]]","1","0","","","","","","5","","","","","","","","",""
"","","","","","single-stim-button","37","159549","0.0-2.0-13.2-1.2","61fa904ed42cb19beec490d9","F1","batch6","","473","tol_toboard","","","","tol_peg_2","473","473","0","[[1,0,0],[2,0],[3]]","3","[[2,1,3],[0,0],[0]]","1","0","","","","","","5","","","","","","","","",""
"","","","","","single-stim-button","38","160667","0.0-2.0-13.3-0.3","61fa904ed42cb19beec490d9","F1","batch6","","1117","tol_tohand","","","","tol_peg_1","1117","1117","0","[[0,0,0],[2,0],[3]]","4","[[2,1,3],[0,0],[0]]","1","0","","","","","","5","","","","","","","","",""
"","","","","","single-stim-button","39","162228","0.0-2.0-13.3-1.3","61fa904ed42cb19beec490d9","F1","batch6","","1561","tol_toboard","","","","tol_peg_2","1561","1561","0","[[0,0,0],[2,1],[3]]","4","[[2,1,3],[0,0],[0]]","1","0","","","","","","5","","","","","","","","",""
"","","","","","single-stim-button","40","167119","0.0-2.0-13.4-0.4","61fa904ed42cb19beec490d9","F1","batch6","","4890","tol_tohand","","","","tol_peg_2","4890","4890","0","[[0,0,0],[2,0],[3]]","5","[[2,1,3],[0,0],[0]]","1","0","","","","","","5","","","","","","","","",""
"","","","","","single-stim-button","41","169054","0.0-2.0-13.4-1.4","61fa904ed42cb19beec490d9","F1","batch6","","1934","tol_toboard","","","","tol_peg_1","1934","1934","0","[[1,0,0],[2,0],[3]]","5","[[2,1,3],[0,0],[0]]","1","0","","","","","","5","","","","","","","","",""
"","","","","","single-stim-button","42","170044","0.0-2.0-13.5-0.5","61fa904ed42cb19beec490d9","F1","batch6","","990","tol_tohand","","","","tol_peg_3","990","990","0","[[1,0,0],[2,0],[0]]","6","[[2,1,3],[0,0],[0]]","1","0","","","","","","5","","","","","","","","",""
"","","","","","single-stim-button","43","170651","0.0-2.0-13.5-1.5","61fa904ed42cb19beec490d9","F1","batch6","","606","tol_toboard","","","","tol_peg_2","606","606","0","[[1,0,0],[2,3],[0]]","6","[[2,1,3],[0,0],[0]]","1","0","","","","","","5","","","","","","","","",""
"","","","","","single-stim-button","44","171390","0.0-2.0-13.6-0.6","61fa904ed42cb19beec490d9","F1","batch6","","738","tol_tohand","","","","tol_peg_1","738","738","0","[[0,0,0],[2,3],[0]]","7","[[2,1,3],[0,0],[0]]","1","0","","","","","","5","","","","","","","","",""
"","","","","","single-stim-button","45","171975","0.0-2.0-13.6-1.6","61fa904ed42cb19beec490d9","F1","batch6","","584","tol_toboard","","","","tol_peg_3","584","584","0","[[0,0,0],[2,3],[1]]","7","[[2,1,3],[0,0],[0]]","1","0","","","","","","5","","","","","","","","",""
"","","","","","single-stim-button","46","173401","0.0-2.0-13.7-0.7","61fa904ed42cb19beec490d9","F1","batch6","","1426","tol_tohand","","","","tol_peg_2","1426","1426","0","[[0,0,0],[2,0],[1]]","8","[[2,1,3],[0,0],[0]]","1","0","","","","","","5","","","","","","","","",""
"","","","","","single-stim-button","47","175927","0.0-2.0-13.7-1.7","61fa904ed42cb19beec490d9","F1","batch6","","2524","tol_toboard","","","","tol_peg_1","2524","2524","0","[[3,0,0],[2,0],[1]]","8","[[2,1,3],[0,0],[0]]","1","0","","","","","","5","","","","","","","","",""
"","","","","","single-stim-button","48","176687","0.0-2.0-13.8-0.8","61fa904ed42cb19beec490d9","F1","batch6","","760","tol_tohand","","","","tol_peg_2","760","760","0","[[3,0,0],[0,0],[1]]","9","[[2,1,3],[0,0],[0]]","1","0","","","","","","5","","","","","","","","",""
"","","","","","single-stim-button","49","178864","0.0-2.0-13.8-1.8","61fa904ed42cb19beec490d9","F1","batch6","","2176","tol_toboard","","","","tol_peg_1","2176","2176","0","[[3,2,0],[0,0],[1]]","9","[[2,1,3],[0,0],[0]]","1","0","","","","","","5","","","","","","","","",""
"","","","","","single-stim-button","50","179536","0.0-2.0-13.9-0.9","61fa904ed42cb19beec490d9","F1","batch6","","672","tol_tohand","","","","tol_peg_3","672","672","0","[[3,2,0],[0,0],[0]]","10","[[2,1,3],[0,0],[0]]","1","0","","","","","","5","","","","","","","","",""
"","","","","","single-stim-button","51","180095","0.0-2.0-13.9-1.9","61fa904ed42cb19beec490d9","F1","batch6","","557","tol_toboard","","","","tol_peg_2","557","557","0","[[3,2,0],[1,0],[0]]","10","[[2,1,3],[0,0],[0]]","1","0","","","","","","5","","","","","","","","",""
"","","","","","single-stim-button","52","180731","0.0-2.0-13.10-0.10","61fa904ed42cb19beec490d9","F1","batch6","","636","tol_tohand","","","","tol_peg_1","636","636","0","[[3,0,0],[1,0],[0]]","11","[[2,1,3],[0,0],[0]]","1","0","","","","","","5","","","","","","","","",""
"","","","","","single-stim-button","53","181809","0.0-2.0-13.10-1.10","61fa904ed42cb19beec490d9","F1","batch6","","1077","tol_toboard","","","","tol_peg_3","1077","1077","0","[[3,0,0],[1,0],[2]]","11","[[2,1,3],[0,0],[0]]","1","0","","","","","","5","","","","","","","","",""
"","","","","","single-stim-button","54","183524","0.0-2.0-13.11-0.11","61fa904ed42cb19beec490d9","F1","batch6","","1714","tol_tohand","","","","tol_peg_1","1714","1714","0","[[0,0,0],[1,0],[2]]","12","[[2,1,3],[0,0],[0]]","1","0","","","","","","5","","","","","","","","",""
"","","","","","single-stim-button","55","186412","0.0-2.0-13.11-1.11","61fa904ed42cb19beec490d9","F1","batch6","","2888","tol_toboard","","","","tol_peg_1","2888","2888","0","[[3,0,0],[1,0],[2]]","12","[[2,1,3],[0,0],[0]]","1","0","","","","","","5","","","","","","","","",""
"","","","","","single-stim-button","56","187055","0.0-2.0-13.12-0.12","61fa904ed42cb19beec490d9","F1","batch6","","642","tol_tohand","","","","tol_peg_3","642","642","0","[[3,0,0],[1,0],[0]]","13","[[2,1,3],[0,0],[0]]","1","0","","","","","","5","","","","","","","","",""
"","","","","","single-stim-button","57","187496","0.0-2.0-13.12-1.12","61fa904ed42cb19beec490d9","F1","batch6","","440","tol_toboard","","","","tol_peg_1","440","440","0","[[3,2,0],[1,0],[0]]","13","[[2,1,3],[0,0],[0]]","1","0","","","","","","5","","","","","","","","",""
"","","","","","single-stim-button","58","188325","0.0-2.0-13.13-0.13","61fa904ed42cb19beec490d9","F1","batch6","","829","tol_tohand","","","","tol_peg_2","829","829","0","[[3,2,0],[0,0],[0]]","14","[[2,1,3],[0,0],[0]]","1","0","","","","","","5","","","","","","","","",""
"","","","","","single-stim-button","59","188761","0.0-2.0-13.13-1.13","61fa904ed42cb19beec490d9","F1","batch6","","435","tol_toboard","","","","tol_peg_3","435","435","0","[[3,2,0],[0,0],[1]]","14","[[2,1,3],[0,0],[0]]","1","0","","","","","","5","","","","","","","","",""
"","","","","","single-stim-button","60","189469","0.0-2.0-13.14-0.14","61fa904ed42cb19beec490d9","F1","batch6","","708","tol_tohand","","","","tol_peg_1","708","708","0","[[3,0,0],[0,0],[1]]","15","[[2,1,3],[0,0],[0]]","1","0","","","","","","5","","","","","","","","",""
"","","","","","single-stim-button","61","190559","0.0-2.0-13.14-1.14","61fa904ed42cb19beec490d9","F1","batch6","","1089","tol_toboard","","","","tol_peg_2","1089","1089","0","[[3,0,0],[2,0],[1]]","15","[[2,1,3],[0,0],[0]]","1","0","","","","","","5","","","","","","","","",""
"","","","","","single-stim-button","62","193862","0.0-2.0-13.15-0.15","61fa904ed42cb19beec490d9","F1","batch6","","3302","tol_tohand","","","","tol_peg_3","3302","3302","0","[[3,0,0],[2,0],[0]]","16","[[2,1,3],[0,0],[0]]","1","0","","","","","","5","","","","","","","","",""
"","","","","","single-stim-button","63","195430","0.0-2.0-13.15-1.15","61fa904ed42cb19beec490d9","F1","batch6","","1567","tol_toboard","","","","tol_peg_1","1567","1567","0","[[3,1,0],[2,0],[0]]","16","[[2,1,3],[0,0],[0]]","1","0","","","","","","5","","","","","","","","",""
"","","","","","single-stim-button","64","196244","0.0-2.0-13.16-0.16","61fa904ed42cb19beec490d9","F1","batch6","","814","tol_tohand","","","","tol_peg_2","814","814","0","[[3,1,0],[0,0],[0]]","17","[[2,1,3],[0,0],[0]]","1","0","","","","","","5","","","","","","","","",""
"","","","","","single-stim-button","65","197467","0.0-2.0-13.16-1.16","61fa904ed42cb19beec490d9","F1","batch6","","1222","tol_toboard","","","","tol_peg_3","1222","1222","0","[[3,1,0],[0,0],[2]]","17","[[2,1,3],[0,0],[0]]","1","0","","","","","","5","","","","","","","","",""
"","","","","","single-stim-button","66","198960","0.0-2.0-13.17-0.17","61fa904ed42cb19beec490d9","F1","batch6","","1493","tol_tohand","","","","tol_peg_1","1493","1493","0","[[3,0,0],[0,0],[2]]","18","[[2,1,3],[0,0],[0]]","1","0","","","","","","5","","","","","","","","",""
"","","","","","single-stim-button","67","199424","0.0-2.0-13.17-1.17","61fa904ed42cb19beec490d9","F1","batch6","","464","tol_toboard","","","","tol_peg_2","464","464","0","[[3,0,0],[1,0],[2]]","18","[[2,1,3],[0,0],[0]]","1","0","","","","","","5","","","","","","","","",""
"","","","","","single-stim-button","68","199959","0.0-2.0-13.18-0.18","61fa904ed42cb19beec490d9","F1","batch6","","535","tol_tohand","","","","tol_peg_1","535","535","0","[[0,0,0],[1,0],[2]]","19","[[2,1,3],[0,0],[0]]","1","0","","","","","","5","","","","","","","","",""
"","","","","","single-stim-button","69","200373","0.0-2.0-13.18-1.18","61fa904ed42cb19beec490d9","F1","batch6","","414","tol_toboard","","","","tol_peg_2","414","414","0","[[0,0,0],[1,3],[2]]","19","[[2,1,3],[0,0],[0]]","1","0","","","","","","5","","","","","","","","",""
"","","","","","single-stim-button","70","201685","0.0-2.0-13.19-0.19","61fa904ed42cb19beec490d9","F1","batch6","","1312","tol_tohand","","","","tol_peg_3","1312","1312","0","[[0,0,0],[1,3],[0]]","20","[[2,1,3],[0,0],[0]]","1","0","","","","","","5","","","","","","","","",""
"","","","","","single-stim-button","71","202087","0.0-2.0-13.19-1.19","61fa904ed42cb19beec490d9","F1","batch6","","402","tol_toboard","","","","tol_peg_1","402","402","0","[[2,0,0],[1,3],[0]]","20","[[2,1,3],[0,0],[0]]","1","0","","","","","","5","","","","","","","","",""
"","","","","","single-stim-button","72","203586","0.0-2.0-13.20-0.20","61fa904ed42cb19beec490d9","F1","batch6","","1498","tol_tohand","","","","tol_peg_2","1498","1498","0","[[2,0,0],[1,0],[0]]","21","[[2,1,3],[0,0],[0]]","1","0","","","","","","5","","","","","","","","",""
"","","","","","single-stim-button","73","203904","0.0-2.0-13.20-1.20","61fa904ed42cb19beec490d9","F1","batch6","","317","tol_toboard","","","","tol_peg_3","317","317","0","[[2,0,0],[1,0],[3]]","21","[[2,1,3],[0,0],[0]]","1","0","","","","","","5","","","","","","","","",""
"","","","","","single-stim-button","74","204337","0.0-2.0-13.21-0.21","61fa904ed42cb19beec490d9","F1","batch6","","432","tol_tohand","","","","tol_peg_2","432","432","0","[[2,0,0],[0,0],[3]]","22","[[2,1,3],[0,0],[0]]","1","0","","","","","","5","","","","","","","","",""
"","","","","","single-stim-button","75","204655","0.0-2.0-13.21-1.21","61fa904ed42cb19beec490d9","F1","batch6","","318","tol_toboard","","","","tol_peg_1","318","318","0","[[2,1,0],[0,0],[3]]","22","[[2,1,3],[0,0],[0]]","1","0","","","","","","5","","","","","","","","",""
"","","","","","single-stim-button","76","205667","0.0-2.0-13.22-0.22","61fa904ed42cb19beec490d9","F1","batch6","","1012","tol_tohand","","","","tol_peg_3","1012","1012","0","[[2,1,0],[0,0],[0]]","23","[[2,1,3],[0,0],[0]]","1","0","","","","","","5","","","","","","","","",""
"","","","","","single-stim-button","77","206670","0.0-2.0-13.22-1.22","61fa904ed42cb19beec490d9","F1","batch6","","1003","tol_toboard","","","","tol_peg_1","1003","1003","0","[[2,1,3],[0,0],[0]]","23","[[2,1,3],[0,0],[0]]","1","0","","","","","","5","","","","","","","","",""
"","","","","","poldrack-single-stim","78","207672","0.0-2.0-14.0","61fa904ed42cb19beec490d9","F1","batch6","","-1","tol_feedback","","","true","","1000","1000","500","","","","","","-1","none","true","2258","29575","","","","","","","","","",""
"","","","","","html-button-response","79","208745","0.0-2.0-15.0","61fa904ed42cb19beec490d9","F1","batch6","","1072.7000000476837","tol_trial_num","<div class = centerbox><p class = center-block-text>problem <strong>3</strong> out of 25 problems</p></div>","0","","","","","","","","","","","","","","","","","","","","","","","","",""
"","","","","","single-stim-button","80","211994","0.0-2.0-16.0-0.0","61fa904ed42cb19beec490d9","F1","batch6","","3248","tol_tohand","","","","tol_peg_1","3248","3248","0","[[2,0,0],[0,0],[1]]","1","[[1,2,0],[3,0],[0]]","2","0","","","","","","4","","","","","","","","",""
"","","","","","single-stim-button","81","212588","0.0-2.0-16.0-1.0","61fa904ed42cb19beec490d9","F1","batch6","","593","tol_toboard","","","","tol_peg_2","593","593","0","[[2,0,0],[3,0],[1]]","1","[[1,2,0],[3,0],[0]]","2","0","","","","","","4","","","","","","","","",""
"","","","","","single-stim-button","82","214138","0.0-2.0-16.1-0.1","61fa904ed42cb19beec490d9","F1","batch6","","1549","tol_tohand","","","","tol_peg_1","1549","1549","0","[[0,0,0],[3,0],[1]]","2","[[1,2,0],[3,0],[0]]","2","0","","","","","","4","","","","","","","","",""
"","","","","","single-stim-button","83","214734","0.0-2.0-16.1-1.1","61fa904ed42cb19beec490d9","F1","batch6","","594","tol_toboard","","","","tol_peg_2","594","594","0","[[0,0,0],[3,2],[1]]","2","[[1,2,0],[3,0],[0]]","2","0","","","","","","4","","","","","","","","",""
"","","","","","single-stim-button","84","215225","0.0-2.0-16.2-0.2","61fa904ed42cb19beec490d9","F1","batch6","","491","tol_tohand","","","","tol_peg_3","491","491","0","[[0,0,0],[3,2],[0]]","3","[[1,2,0],[3,0],[0]]","2","0","","","","","","4","","","","","","","","",""
"","","","","","single-stim-button","85","215594","0.0-2.0-16.2-1.2","61fa904ed42cb19beec490d9","F1","batch6","","368","tol_toboard","","","","tol_peg_1","368","368","0","[[1,0,0],[3,2],[0]]","3","[[1,2,0],[3,0],[0]]","2","0","","","","","","4","","","","","","","","",""
"","","","","","single-stim-button","86","216144","0.0-2.0-16.3-0.3","61fa904ed42cb19beec490d9","F1","batch6","","549","tol_tohand","","","","tol_peg_2","549","549","0","[[1,0,0],[3,0],[0]]","4","[[1,2,0],[3,0],[0]]","2","0","","","","","","4","","","","","","","","",""
"","","","","","single-stim-button","87","216453","0.0-2.0-16.3-1.3","61fa904ed42cb19beec490d9","F1","batch6","","308","tol_toboard","","","","tol_peg_1","308","308","0","[[1,2,0],[3,0],[0]]","4","[[1,2,0],[3,0],[0]]","2","0","","","","","","4","","","","","","","","",""
"","","","","","poldrack-single-stim","88","217455","0.0-2.0-17.0","61fa904ed42cb19beec490d9","F1","batch6","","-1","tol_feedback","","","true","","1000","1000","500","","","","","","-1","none","true","3248","5837","","","","","","","","","",""
"","","","","","html-button-response","89","218378","0.0-2.0-18.0","61fa904ed42cb19beec490d9","F1","batch6","","922.3999999761581","tol_trial_num","<div class = centerbox><p class = center-block-text>problem <strong>4</strong> out of 25 problems</p></div>","0","","","","","","","","","","","","","","","","","","","","","","","","",""
"","","","","","single-stim-button","90","221047","0.0-2.0-19.0-0.0","61fa904ed42cb19beec490d9","F1","batch6","","2669","tol_tohand","","","","tol_peg_2","2669","2669","0","[[3,0,0],[2,0],[0]]","1","[[3,0,0],[1,0],[2]]","3","0","","","","","","3","","","","","","","","",""
"","","","","","single-stim-button","91","223724","0.0-2.0-19.0-1.0","61fa904ed42cb19beec490d9","F1","batch6","","2675","tol_toboard","","","","tol_peg_1","2675","2675","0","[[3,1,0],[2,0],[0]]","1","[[3,0,0],[1,0],[2]]","3","0","","","","","","3","","","","","","","","",""
"","","","","","single-stim-button","92","224206","0.0-2.0-19.1-0.1","61fa904ed42cb19beec490d9","F1","batch6","","482","tol_tohand","","","","tol_peg_2","482","482","0","[[3,1,0],[0,0],[0]]","2","[[3,0,0],[1,0],[2]]","3","0","","","","","","3","","","","","","","","",""
"","","","","","single-stim-button","93","224744","0.0-2.0-19.1-1.1","61fa904ed42cb19beec490d9","F1","batch6","","538","tol_toboard","","","","tol_peg_3","538","538","0","[[3,1,0],[0,0],[2]]","2","[[3,0,0],[1,0],[2]]","3","0","","","","","","3","","","","","","","","",""
"","","","","","single-stim-button","94","225375","0.0-2.0-19.2-0.2","61fa904ed42cb19beec490d9","F1","batch6","","631","tol_tohand","","","","tol_peg_1","631","631","0","[[3,0,0],[0,0],[2]]","3","[[3,0,0],[1,0],[2]]","3","0","","","","","","3","","","","","","","","",""
"","","","","","single-stim-button","95","225666","0.0-2.0-19.2-1.2","61fa904ed42cb19beec490d9","F1","batch6","","290","tol_toboard","","","","tol_peg_2","290","290","0","[[3,0,0],[1,0],[2]]","3","[[3,0,0],[1,0],[2]]","3","0","","","","","","3","","","","","","","","",""
"","","","","","poldrack-single-stim","96","226668","0.0-2.0-20.0","61fa904ed42cb19beec490d9","F1","batch6","","-1","tol_feedback","","","true","","1000","1000","500","","","","","","-1","none","true","2669","3782","","","","","","","","","",""
"","","","","","html-button-response","97","227638","0.0-2.0-21.0","61fa904ed42cb19beec490d9","F1","batch6","","969.6000000238419","tol_trial_num","<div class = centerbox><p class = center-block-text>problem <strong>5</strong> out of 25 problems</p></div>","0","","","","","","","","","","","","","","","","","","","","","","","","",""
"","","","","","single-stim-button","98","231411","0.0-2.0-22.0-0.0","61fa904ed42cb19beec490d9","F1","batch6","","3771","tol_tohand","","","","tol_peg_3","3771","3771","0","[[1,0,0],[2,0],[0]]","1","[[0,0,0],[1,2],[3]]","4","0","","","","","","7","","","","","","","","",""
"","","","","","single-stim-button","99","233196","0.0-2.0-22.0-1.0","61fa904ed42cb19beec490d9","F1","batch6","","1785","tol_toboard","","","","tol_peg_2","1785","1785","0","[[1,0,0],[2,3],[0]]","1","[[0,0,0],[1,2],[3]]","4","0","","","","","","7","","","","","","","","",""
"","","","","","single-stim-button","100","233711","0.0-2.0-22.1-0.1","61fa904ed42cb19beec490d9","F1","batch6","","513","tol_tohand","","","","tol_peg_1","513","513","0","[[0,0,0],[2,3],[0]]","2","[[0,0,0],[1,2],[3]]","4","0","","","","","","7","","","","","","","","",""
"","","","","","single-stim-button","101","234115","0.0-2.0-22.1-1.1","61fa904ed42cb19beec490d9","F1","batch6","","404","tol_toboard","","","","tol_peg_3","404","404","0","[[0,0,0],[2,3],[1]]","2","[[0,0,0],[1,2],[3]]","4","0","","","","","","7","","","","","","","","",""
"","","","","","single-stim-button","102","234506","0.0-2.0-22.2-0.2","61fa904ed42cb19beec490d9","F1","batch6","","390","tol_tohand","","","","tol_peg_2","390","390","0","[[0,0,0],[2,0],[1]]","3","[[0,0,0],[1,2],[3]]","4","0","","","","","","7","","","","","","","","",""
"","","","","","single-stim-button","103","234869","0.0-2.0-22.2-1.2","61fa904ed42cb19beec490d9","F1","batch6","","362","tol_toboard","","","","tol_peg_1","362","362","0","[[3,0,0],[2,0],[1]]","3","[[0,0,0],[1,2],[3]]","4","0","","","","","","7","","","","","","","","",""
"","","","","","single-stim-button","104","237121","0.0-2.0-22.3-0.3","61fa904ed42cb19beec490d9","F1","batch6","","2251","tol_tohand","","","","tol_peg_3","2251","2251","0","[[3,0,0],[2,0],[0]]","4","[[0,0,0],[1,2],[3]]","4","0","","","","","","7","","","","","","","","",""
"","","","","","single-stim-button","105","238238","0.0-2.0-22.3-1.3","61fa904ed42cb19beec490d9","F1","batch6","","1116","tol_toboard","","","","tol_peg_3","1116","1116","0","[[3,0,0],[2,0],[1]]","4","[[0,0,0],[1,2],[3]]","4","0","","","","","","7","","","","","","","","",""
"","","","","","single-stim-button","106","238722","0.0-2.0-22.4-0.4","61fa904ed42cb19beec490d9","F1","batch6","","483","tol_tohand","","","","tol_peg_2","483","483","0","[[3,0,0],[0,0],[1]]","5","[[0,0,0],[1,2],[3]]","4","0","","","","","","7","","","","","","","","",""
"","","","","","single-stim-button","107","239315","0.0-2.0-22.4-1.4","61fa904ed42cb19beec490d9","F1","batch6","","591","tol_toboard","","","","tol_peg_1","591","591","0","[[3,2,0],[0,0],[1]]","5","[[0,0,0],[1,2],[3]]","4","0","","","","","","7","","","","","","","","",""
"","","","","","single-stim-button","108","239941","0.0-2.0-22.5-0.5","61fa904ed42cb19beec490d9","F1","batch6","","626","tol_tohand","","","","tol_peg_3","626","626","0","[[3,2,0],[0,0],[0]]","6","[[0,0,0],[1,2],[3]]","4","0","","","","","","7","","","","","","","","",""
"","","","","","single-stim-button","109","240906","0.0-2.0-22.5-1.5","61fa904ed42cb19beec490d9","F1","batch6","","964","tol_toboard","","","","tol_peg_2","964","964","0","[[3,2,0],[1,0],[0]]","6","[[0,0,0],[1,2],[3]]","4","0","","","","","","7","","","","","","","","",""
"","","","","","single-stim-button","110","241448","0.0-2.0-22.6-0.6","61fa904ed42cb19beec490d9","F1","batch6","","542","tol_tohand","","","","tol_peg_1","542","542","0","[[3,0,0],[1,0],[0]]","7","[[0,0,0],[1,2],[3]]","4","0","","","","","","7","","","","","","","","",""
"","","","","","single-stim-button","111","241843","0.0-2.0-22.6-1.6","61fa904ed42cb19beec490d9","F1","batch6","","393","tol_toboard","","","","tol_peg_2","393","393","0","[[3,0,0],[1,2],[0]]","7","[[0,0,0],[1,2],[3]]","4","0","","","","","","7","","","","","","","","",""
"","","","","","single-stim-button","112","242463","0.0-2.0-22.7-0.7","61fa904ed42cb19beec490d9","F1","batch6","","620","tol_tohand","","","","tol_peg_1","620","620","0","[[0,0,0],[1,2],[0]]","8","[[0,0,0],[1,2],[3]]","4","0","","","","","","7","","","","","","","","",""
"","","","","","single-stim-button","113","243110","0.0-2.0-22.7-1.7","61fa904ed42cb19beec490d9","F1","batch6","","645","tol_toboard","","","","tol_peg_3","645","645","0","[[0,0,0],[1,2],[3]]","8","[[0,0,0],[1,2],[3]]","4","0","","","","","","7","","","","","","","","",""
"","","","","","poldrack-single-stim","114","244111","0.0-2.0-23.0","61fa904ed42cb19beec490d9","F1","batch6","","-1","tol_feedback","","","true","","1000","1000","500","","","","","","-1","none","true","3771","9196","","","","","","","","","",""
"","","","","","html-button-response","115","244812","0.0-2.0-24.0","61fa904ed42cb19beec490d9","F1","batch6","","699.5","tol_trial_num","<div class = centerbox><p class = center-block-text>problem <strong>6</strong> out of 25 problems</p></div>","0","","","","","","","","","","","","","","","","","","","","","","","","",""
"","","","","","single-stim-button","116","248953","0.0-2.0-25.0-0.0","61fa904ed42cb19beec490d9","F1","batch6","","4140","tol_tohand","","","","tol_peg_3","4140","4140","0","[[0,0,0],[1,2],[0]]","1","[[1,0,0],[2,3],[0]]","5","0","","","","","","6","","","","","","","","",""
"","","","","","single-stim-button","117","250091","0.0-2.0-25.0-1.0","61fa904ed42cb19beec490d9","F1","batch6","","1137","tol_toboard","","","","tol_peg_1","1137","1137","0","[[3,0,0],[1,2],[0]]","1","[[1,0,0],[2,3],[0]]","5","0","","","","","","6","","","","","","","","",""
"","","","","","single-stim-button","118","251040","0.0-2.0-25.1-0.1","61fa904ed42cb19beec490d9","F1","batch6","","948","tol_tohand","","","","tol_peg_2","948","948","0","[[3,0,0],[1,0],[0]]","2","[[1,0,0],[2,3],[0]]","5","0","","","","","","6","","","","","","","","",""
"","","","","","single-stim-button","119","251566","0.0-2.0-25.1-1.1","61fa904ed42cb19beec490d9","F1","batch6","","526","tol_toboard","","","","tol_peg_3","526","526","0","[[3,0,0],[1,0],[2]]","2","[[1,0,0],[2,3],[0]]","5","0","","","","","","6","","","","","","","","",""
"","","","","","single-stim-button","120","252085","0.0-2.0-25.2-0.2","61fa904ed42cb19beec490d9","F1","batch6","","519","tol_tohand","","","","tol_peg_2","519","519","0","[[3,0,0],[0,0],[2]]","3","[[1,0,0],[2,3],[0]]","5","0","","","","","","6","","","","","","","","",""
"","","","","","single-stim-button","121","253125","0.0-2.0-25.2-1.2","61fa904ed42cb19beec490d9","F1","batch6","","1040","tol_toboard","","","","tol_peg_1","1040","1040","0","[[3,1,0],[0,0],[2]]","3","[[1,0,0],[2,3],[0]]","5","0","","","","","","6","","","","","","","","",""
"","","","","","single-stim-button","122","253740","0.0-2.0-25.3-0.3","61fa904ed42cb19beec490d9","F1","batch6","","615","tol_tohand","","","","tol_peg_3","615","615","0","[[3,1,0],[0,0],[0]]","4","[[1,0,0],[2,3],[0]]","5","0","","","","","","6","","","","","","","","",""
"","","","","","single-stim-button","123","254062","0.0-2.0-25.3-1.3","61fa904ed42cb19beec490d9","F1","batch6","","322","tol_toboard","","","","tol_peg_2","322","322","0","[[3,1,0],[2,0],[0]]","4","[[1,0,0],[2,3],[0]]","5","0","","","","","","6","","","","","","","","",""
"","","","","","single-stim-button","124","254620","0.0-2.0-25.4-0.4","61fa904ed42cb19beec490d9","F1","batch6","","558","tol_tohand","","","","tol_peg_1","558","558","0","[[3,0,0],[2,0],[0]]","5","[[1,0,0],[2,3],[0]]","5","0","","","","","","6","","","","","","","","",""
"","","","","","single-stim-button","125","255085","0.0-2.0-25.4-1.4","61fa904ed42cb19beec490d9","F1","batch6","","464","tol_toboard","","","","tol_peg_3","464","464","0","[[3,0,0],[2,0],[1]]","5","[[1,0,0],[2,3],[0]]","5","0","","","","","","6","","","","","","","","",""
"","","","","","single-stim-button","126","255557","0.0-2.0-25.5-0.5","61fa904ed42cb19beec490d9","F1","batch6","","471","tol_tohand","","","","tol_peg_1","471","471","0","[[0,0,0],[2,0],[1]]","6","[[1,0,0],[2,3],[0]]","5","0","","","","","","6","","","","","","","","",""
"","","","","","single-stim-button","127","256005","0.0-2.0-25.5-1.5","61fa904ed42cb19beec490d9","F1","batch6","","448","tol_toboard","","","","tol_peg_2","448","448","0","[[0,0,0],[2,3],[1]]","6","[[1,0,0],[2,3],[0]]","5","0","","","","","","6","","","","","","","","",""
"","","","","","single-stim-button","128","256479","0.0-2.0-25.6-0.6","61fa904ed42cb19beec490d9","F1","batch6","","473","tol_tohand","","","","tol_peg_3","473","473","0","[[0,0,0],[2,3],[0]]","7","[[1,0,0],[2,3],[0]]","5","0","","","","","","6","","","","","","","","",""
"","","","","","single-stim-button","129","256971","0.0-2.0-25.6-1.6","61fa904ed42cb19beec490d9","F1","batch6","","492","tol_toboard","","","","tol_peg_1","492","492","0","[[1,0,0],[2,3],[0]]","7","[[1,0,0],[2,3],[0]]","5","0","","","","","","6","","","","","","","","",""
"","","","","","poldrack-single-stim","130","257972","0.0-2.0-26.0","61fa904ed42cb19beec490d9","F1","batch6","","-1","tol_feedback","","","true","","1000","1000","500","","","","","","-1","none","true","4140","7724","","","","","","","","","",""
"","","","","","html-button-response","131","258923","0.0-2.0-27.0","61fa904ed42cb19beec490d9","F1","batch6","","949.7999999523163","tol_trial_num","<div class = centerbox><p class = center-block-text>problem <strong>7</strong> out of 25 problems</p></div>","0","","","","","","","","","","","","","","","","","","","","","","","","",""
"","","","","","single-stim-button","132","263629","0.0-2.0-28.0-0.0","61fa904ed42cb19beec490d9","F1","batch6","","4705","tol_tohand","","","","tol_peg_3","4705","4705","0","[[2,1,0],[0,0],[0]]","1","[[1,2,0],[3,0],[0]]","6","0","","","","","","5","","","","","","","","",""
"","","","","","single-stim-button","133","263938","0.0-2.0-28.0-1.0","61fa904ed42cb19beec490d9","F1","batch6","","309","tol_toboard","","","","tol_peg_2","309","309","0","[[2,1,0],[3,0],[0]]","1","[[1,2,0],[3,0],[0]]","6","0","","","","","","5","","","","","","","","",""
"","","","","","single-stim-button","134","264694","0.0-2.0-28.1-0.1","61fa904ed42cb19beec490d9","F1","batch6","","756","tol_tohand","","","","tol_peg_1","756","756","0","[[2,0,0],[3,0],[0]]","2","[[1,2,0],[3,0],[0]]","6","0","","","","","","5","","","","","","","","",""
"","","","","","single-stim-button","135","265128","0.0-2.0-28.1-1.1","61fa904ed42cb19beec490d9","F1","batch6","","432","tol_toboard","","","","tol_peg_3","432","432","0","[[2,0,0],[3,0],[1]]","2","[[1,2,0],[3,0],[0]]","6","0","","","","","","5","","","","","","","","",""
"","","","","","single-stim-button","136","265680","0.0-2.0-28.2-0.2","61fa904ed42cb19beec490d9","F1","batch6","","551","tol_tohand","","","","tol_peg_1","551","551","0","[[0,0,0],[3,0],[1]]","3","[[1,2,0],[3,0],[0]]","6","0","","","","","","5","","","","","","","","",""
"","","","","","single-stim-button","137","265983","0.0-2.0-28.2-1.2","61fa904ed42cb19beec490d9","F1","batch6","","302","tol_toboard","","","","tol_peg_2","302","302","0","[[0,0,0],[3,2],[1]]","3","[[1,2,0],[3,0],[0]]","6","0","","","","","","5","","","","","","","","",""
"","","","","","single-stim-button","138","266431","0.0-2.0-28.3-0.3","61fa904ed42cb19beec490d9","F1","batch6","","448","tol_tohand","","","","tol_peg_3","448","448","0","[[0,0,0],[3,2],[0]]","4","[[1,2,0],[3,0],[0]]","6","0","","","","","","5","","","","","","","","",""
"","","","","","single-stim-button","139","266839","0.0-2.0-28.3-1.3","61fa904ed42cb19beec490d9","F1","batch6","","408","tol_toboard","","","","tol_peg_1","408","408","0","[[1,0,0],[3,2],[0]]","4","[[1,2,0],[3,0],[0]]","6","0","","","","","","5","","","","","","","","",""
"","","","","","single-stim-button","140","267202","0.0-2.0-28.4-0.4","61fa904ed42cb19beec490d9","F1","batch6","","363","tol_tohand","","","","tol_peg_2","363","363","0","[[1,0,0],[3,0],[0]]","5","[[1,2,0],[3,0],[0]]","6","0","","","","","","5","","","","","","","","",""
"","","","","","single-stim-button","141","267506","0.0-2.0-28.4-1.4","61fa904ed42cb19beec490d9","F1","batch6","","303","tol_toboard","","","","tol_peg_1","303","303","0","[[1,2,0],[3,0],[0]]","5","[[1,2,0],[3,0],[0]]","6","0","","","","","","5","","","","","","","","",""
"","","","","","poldrack-single-stim","142","268507","0.0-2.0-29.0","61fa904ed42cb19beec490d9","F1","batch6","","-1","tol_feedback","","","true","","1000","1000","500","","","","","","-1","none","true","4705","6823","","","","","","","","","",""
"","","","","","html-button-response","143","269334","0.0-2.0-30.0","61fa904ed42cb19beec490d9","F1","batch6","","826","tol_trial_num","<div class = centerbox><p class = center-block-text>problem <strong>8</strong> out of 25 problems</p></div>","0","","","","","","","","","","","","","","","","","","","","","","","","",""
"","","","","","single-stim-button","144","272082","0.0-2.0-31.0-0.0","61fa904ed42cb19beec490d9","F1","batch6","","2748","tol_tohand","","","","tol_peg_3","2748","2748","0","[[0,0,0],[2,3],[0]]","1","[[1,2,0],[3,0],[0]]","7","0","","","","","","4","","","","","","","","",""
"","","","","","single-stim-button","145","272485","0.0-2.0-31.0-1.0","61fa904ed42cb19beec490d9","F1","batch6","","402","tol_toboard","","","","tol_peg_1","402","402","0","[[1,0,0],[2,3],[0]]","1","[[1,2,0],[3,0],[0]]","7","0","","","","","","4","","","","","","","","",""
"","","","","","single-stim-button","146","273346","0.0-2.0-31.1-0.1","61fa904ed42cb19beec490d9","F1","batch6","","861","tol_tohand","","","","tol_peg_2","861","861","0","[[1,0,0],[2,0],[0]]","2","[[1,2,0],[3,0],[0]]","7","0","","","","","","4","","","","","","","","",""
"","","","","","single-stim-button","147","273677","0.0-2.0-31.1-1.1","61fa904ed42cb19beec490d9","F1","batch6","","331","tol_toboard","","","","tol_peg_3","331","331","0","[[1,0,0],[2,0],[3]]","2","[[1,2,0],[3,0],[0]]","7","0","","","","","","4","","","","","","","","",""
"","","","","","single-stim-button","148","274190","0.0-2.0-31.2-0.2","61fa904ed42cb19beec490d9","F1","batch6","","512","tol_tohand","","","","tol_peg_2","512","512","0","[[1,0,0],[0,0],[3]]","3","[[1,2,0],[3,0],[0]]","7","0","","","","","","4","","","","","","","","",""
"","","","","","single-stim-button","149","274485","0.0-2.0-31.2-1.2","61fa904ed42cb19beec490d9","F1","batch6","","295","tol_toboard","","","","tol_peg_1","295","295","0","[[1,2,0],[0,0],[3]]","3","[[1,2,0],[3,0],[0]]","7","0","","","","","","4","","","","","","","","",""
"","","","","","single-stim-button","150","274886","0.0-2.0-31.3-0.3","61fa904ed42cb19beec490d9","F1","batch6","","401","tol_tohand","","","","tol_peg_3","401","401","0","[[1,2,0],[0,0],[0]]","4","[[1,2,0],[3,0],[0]]","7","0","","","","","","4","","","","","","","","",""
"","","","","","single-stim-button","151","275148","0.0-2.0-31.3-1.3","61fa904ed42cb19beec490d9","F1","batch6","","260","tol_toboard","","","","tol_peg_2","260","260","0","[[1,2,0],[3,0],[0]]","4","[[1,2,0],[3,0],[0]]","7","0","","","","","","4","","","","","","","","",""
"","","","","","poldrack-single-stim","152","276149","0.0-2.0-32.0","61fa904ed42cb19beec490d9","F1","batch6","","-1","tol_feedback","","","true","","1000","1000","500","","","","","","-1","none","true","2748","4522","","","","","","","","","",""
"","","","","","html-button-response","153","276932","0.0-2.0-33.0","61fa904ed42cb19beec490d9","F1","batch6","","782.3000000715256","tol_trial_num","<div class = centerbox><p class = center-block-text>problem <strong>9</strong> out of 25 problems</p></div>","0","","","","","","","","","","","","","","","","","","","","","","","","",""
"","","","","","single-stim-button","154","280998","0.0-2.0-34.0-0.0","61fa904ed42cb19beec490d9","F1","batch6","","4065","tol_tohand","","","","tol_peg_1","4065","4065","0","[[3,0,0],[0,0],[1]]","1","[[2,1,0],[3,0],[0]]","8","0","","","","","","6","","","","","","","","",""
"","","","","","single-stim-button","155","290466","0.0-2.0-34.0-1.0","61fa904ed42cb19beec490d9","F1","batch6","","9468","tol_toboard","","","","tol_peg_2","9468","9468","0","[[3,0,0],[2,0],[1]]","1","[[2,1,0],[3,0],[0]]","8","0","","","","","","6","","","","","","","","",""
"","","","","","single-stim-button","156","290952","0.0-2.0-34.1-0.1","61fa904ed42cb19beec490d9","F1","batch6","","485","tol_tohand","","","","tol_peg_3","485","485","0","[[3,0,0],[2,0],[0]]","2","[[2,1,0],[3,0],[0]]","8","0","","","","","","6","","","","","","","","",""
"","","","","","single-stim-button","157","291580","0.0-2.0-34.1-1.1","61fa904ed42cb19beec490d9","F1","batch6","","626","tol_toboard","","","","tol_peg_1","626","626","0","[[3,1,0],[2,0],[0]]","2","[[2,1,0],[3,0],[0]]","8","0","","","","","","6","","","","","","","","",""
"","","","","","single-stim-button","158","292307","0.0-2.0-34.2-0.2","61fa904ed42cb19beec490d9","F1","batch6","","726","tol_tohand","","","","tol_peg_2","726","726","0","[[3,1,0],[0,0],[0]]","3","[[2,1,0],[3,0],[0]]","8","0","","","","","","6","","","","","","","","",""
"","","","","","single-stim-button","159","292932","0.0-2.0-34.2-1.2","61fa904ed42cb19beec490d9","F1","batch6","","625","tol_toboard","","","","tol_peg_3","625","625","0","[[3,1,0],[0,0],[2]]","3","[[2,1,0],[3,0],[0]]","8","0","","","","","","6","","","","","","","","",""
"","","","","","single-stim-button","160","293598","0.0-2.0-34.3-0.3","61fa904ed42cb19beec490d9","F1","batch6","","666","tol_tohand","","","","tol_peg_1","666","666","0","[[3,0,0],[0,0],[2]]","4","[[2,1,0],[3,0],[0]]","8","0","","","","","","6","","","","","","","","",""
"","","","","","single-stim-button","161","295667","0.0-2.0-34.3-1.3","61fa904ed42cb19beec490d9","F1","batch6","","2069","tol_toboard","","","","tol_peg_2","2069","2069","0","[[3,0,0],[1,0],[2]]","4","[[2,1,0],[3,0],[0]]","8","0","","","","","","6","","","","","","","","",""
"","","","","","single-stim-button","162","297093","0.0-2.0-34.4-0.4","61fa904ed42cb19beec490d9","F1","batch6","","1426","tol_tohand","","","","tol_peg_3","1426","1426","0","[[3,0,0],[1,0],[0]]","5","[[2,1,0],[3,0],[0]]","8","0","","","","","","6","","","","","","","","",""
"","","","","","single-stim-button","163","303943","0.0-2.0-34.4-1.4","61fa904ed42cb19beec490d9","F1","batch6","","6849","tol_toboard","","","","tol_peg_3","6849","6849","0","[[3,0,0],[1,0],[2]]","5","[[2,1,0],[3,0],[0]]","8","0","","","","","","6","","","","","","","","",""
"","","","","","single-stim-button","164","304970","0.0-2.0-34.5-0.5","61fa904ed42cb19beec490d9","F1","batch6","","1027","tol_tohand","","","","tol_peg_1","1027","1027","0","[[0,0,0],[1,0],[2]]","6","[[2,1,0],[3,0],[0]]","8","0","","","","","","6","","","","","","","","",""
"","","","","","single-stim-button","165","306166","0.0-2.0-34.5-1.5","61fa904ed42cb19beec490d9","F1","batch6","","1195","tol_toboard","","","","tol_peg_2","1195","1195","0","[[0,0,0],[1,3],[2]]","6","[[2,1,0],[3,0],[0]]","8","0","","","","","","6","","","","","","","","",""
"","","","","","single-stim-button","166","306613","0.0-2.0-34.6-0.6","61fa904ed42cb19beec490d9","F1","batch6","","446","tol_tohand","","","","tol_peg_3","446","446","0","[[0,0,0],[1,3],[0]]","7","[[2,1,0],[3,0],[0]]","8","0","","","","","","6","","","","","","","","",""
"","","","","","single-stim-button","167","306991","0.0-2.0-34.6-1.6","61fa904ed42cb19beec490d9","F1","batch6","","378","tol_toboard","","","","tol_peg_1","378","378","0","[[2,0,0],[1,3],[0]]","7","[[2,1,0],[3,0],[0]]","8","0","","","","","","6","","","","","","","","",""
"","","","","","single-stim-button","168","308622","0.0-2.0-34.7-0.7","61fa904ed42cb19beec490d9","F1","batch6","","1631","tol_tohand","","","","tol_peg_2","1631","1631","0","[[2,0,0],[1,0],[0]]","8","[[2,1,0],[3,0],[0]]","8","0","","","","","","6","","","","","","","","",""
"","","","","","single-stim-button","169","309073","0.0-2.0-34.7-1.7","61fa904ed42cb19beec490d9","F1","batch6","","450","tol_toboard","","","","tol_peg_3","450","450","0","[[2,0,0],[1,0],[3]]","8","[[2,1,0],[3,0],[0]]","8","0","","","","","","6","","","","","","","","",""
"","","","","","single-stim-button","170","309394","0.0-2.0-34.8-0.8","61fa904ed42cb19beec490d9","F1","batch6","","321","tol_tohand","","","","tol_peg_2","321","321","0","[[2,0,0],[0,0],[3]]","9","[[2,1,0],[3,0],[0]]","8","0","","","","","","6","","","","","","","","",""
"","","","","","single-stim-button","171","309770","0.0-2.0-34.8-1.8","61fa904ed42cb19beec490d9","F1","batch6","","375","tol_toboard","","","","tol_peg_1","375","375","0","[[2,1,0],[0,0],[3]]","9","[[2,1,0],[3,0],[0]]","8","0","","","","","","6","","","","","","","","",""
"","","","","","single-stim-button","172","310361","0.0-2.0-34.9-0.9","61fa904ed42cb19beec490d9","F1","batch6","","590","tol_tohand","","","","tol_peg_3","590","590","0","[[2,1,0],[0,0],[0]]","10","[[2,1,0],[3,0],[0]]","8","0","","","","","","6","","","","","","","","",""
"","","","","","single-stim-button","173","310599","0.0-2.0-34.9-1.9","61fa904ed42cb19beec490d9","F1","batch6","","238","tol_toboard","","","","tol_peg_2","238","238","0","[[2,1,0],[3,0],[0]]","10","[[2,1,0],[3,0],[0]]","8","0","","","","","","6","","","","","","","","",""
"","","","","","poldrack-single-stim","174","311601","0.0-2.0-35.0","61fa904ed42cb19beec490d9","F1","batch6","","-1","tol_feedback","","","true","","1000","1000","500","","","","","","-1","none","true","4065","11383","","","","","","","","","",""
"","","","","","html-button-response","175","312319","0.0-2.0-36.0","61fa904ed42cb19beec490d9","F1","batch6","","717.1999999284744","tol_trial_num","<div class = centerbox><p class = center-block-text>problem <strong>10</strong> out of 25 problems</p></div>","0","","","","","","","","","","","","","","","","","","","","","","","","",""
"","","","","","single-stim-button","176","317187","0.0-2.0-37.0-0.0","61fa904ed42cb19beec490d9","F1","batch6","","4867","tol_tohand","","","","tol_peg_3","4867","4867","0","[[3,0,0],[1,0],[0]]","1","[[3,0,0],[2,1],[0]]","9","0","","","","","","3","","","","","","","","",""
"","","","","","single-stim-button","177","317641","0.0-2.0-37.0-1.0","61fa904ed42cb19beec490d9","F1","batch6","","454","tol_toboard","","","","tol_peg_1","454","454","0","[[3,2,0],[1,0],[0]]","1","[[3,0,0],[2,1],[0]]","9","0","","","","","","3","","","","","","","","",""
"","","","","","single-stim-button","178","318022","0.0-2.0-37.1-0.1","61fa904ed42cb19beec490d9","F1","batch6","","380","tol_tohand","","","","tol_peg_2","380","380","0","[[3,2,0],[0,0],[0]]","2","[[3,0,0],[2,1],[0]]","9","0","","","","","","3","","","","","","","","",""
"","","","","","single-stim-button","179","318379","0.0-2.0-37.1-1.1","61fa904ed42cb19beec490d9","F1","batch6","","357","tol_toboard","","","","tol_peg_3","357","357","0","[[3,2,0],[0,0],[1]]","2","[[3,0,0],[2,1],[0]]","9","0","","","","","","3","","","","","","","","",""
"","","","","","single-stim-button","180","318904","0.0-2.0-37.2-0.2","61fa904ed42cb19beec490d9","F1","batch6","","525","tol_tohand","","","","tol_peg_1","525","525","0","[[3,0,0],[0,0],[1]]","3","[[3,0,0],[2,1],[0]]","9","0","","","","","","3","","","","","","","","",""
"","","","","","single-stim-button","181","319223","0.0-2.0-37.2-1.2","61fa904ed42cb19beec490d9","F1","batch6","","318","tol_toboard","","","","tol_peg_2","318","318","0","[[3,0,0],[2,0],[1]]","3","[[3,0,0],[2,1],[0]]","9","0","","","","","","3","","","","","","","","",""
"","","","","","single-stim-button","182","319551","0.0-2.0-37.3-0.3","61fa904ed42cb19beec490d9","F1","batch6","","328","tol_tohand","","","","tol_peg_3","328","328","0","[[3,0,0],[2,0],[0]]","4","[[3,0,0],[2,1],[0]]","9","0","","","","","","3","","","","","","","","",""
"","","","","","single-stim-button","183","319899","0.0-2.0-37.3-1.3","61fa904ed42cb19beec490d9","F1","batch6","","348","tol_toboard","","","","tol_peg_2","348","348","0","[[3,0,0],[2,1],[0]]","4","[[3,0,0],[2,1],[0]]","9","0","","","","","","3","","","","","","","","",""
"","","","","","poldrack-single-stim","184","320901","0.0-2.0-38.0","61fa904ed42cb19beec490d9","F1","batch6","","-1","tol_feedback","","","true","","1000","1000","500","","","","","","-1","none","true","4867","6100","","","","","","","","","",""
"","","","","","html-button-response","185","321796","0.0-2.0-39.0","61fa904ed42cb19beec490d9","F1","batch6","","894.7000000476837","tol_trial_num","<div class = centerbox><p class = center-block-text>problem <strong>11</strong> out of 25 problems</p></div>","0","","","","","","","","","","","","","","","","","","","","","","","","",""
"","","","","","single-stim-button","186","324835","0.0-2.0-40.0-0.0","61fa904ed42cb19beec490d9","F1","batch6","","3038","tol_tohand","","","","tol_peg_2","3038","3038","0","[[1,2,0],[0,0],[0]]","1","[[2,0,0],[1,3],[0]]","10","0","","","","","","6","","","","","","","","",""
"","","","","","single-stim-button","187","325256","0.0-2.0-40.0-1.0","61fa904ed42cb19beec490d9","F1","batch6","","420","tol_toboard","","","","tol_peg_3","420","420","0","[[1,2,0],[0,0],[3]]","1","[[2,0,0],[1,3],[0]]","10","0","","","","","","6","","","","","","","","",""
"","","","","","single-stim-button","188","327044","0.0-2.0-40.1-0.1","61fa904ed42cb19beec490d9","F1","batch6","","1787","tol_tohand","","","","tol_peg_1","1787","1787","0","[[1,0,0],[0,0],[3]]","2","[[2,0,0],[1,3],[0]]","10","0","","","","","","6","","","","","","","","",""
"","","","","","single-stim-button","189","327593","0.0-2.0-40.1-1.1","61fa904ed42cb19beec490d9","F1","batch6","","549","tol_toboard","","","","tol_peg_2","549","549","0","[[1,0,0],[2,0],[3]]","2","[[2,0,0],[1,3],[0]]","10","0","","","","","","6","","","","","","","","",""
"","","","","","single-stim-button","190","328106","0.0-2.0-40.2-0.2","61fa904ed42cb19beec490d9","F1","batch6","","513","tol_tohand","","","","tol_peg_3","513","513","0","[[1,0,0],[2,0],[0]]","3","[[2,0,0],[1,3],[0]]","10","0","","","","","","6","","","","","","","","",""
"","","","","","single-stim-button","191","328695","0.0-2.0-40.2-1.2","61fa904ed42cb19beec490d9","F1","batch6","","589","tol_toboard","","","","tol_peg_1","589","589","0","[[1,3,0],[2,0],[0]]","3","[[2,0,0],[1,3],[0]]","10","0","","","","","","6","","","","","","","","",""
"","","","","","single-stim-button","192","329094","0.0-2.0-40.3-0.3","61fa904ed42cb19beec490d9","F1","batch6","","398","tol_tohand","","","","tol_peg_2","398","398","0","[[1,3,0],[0,0],[0]]","4","[[2,0,0],[1,3],[0]]","10","0","","","","","","6","","","","","","","","",""
"","","","","","single-stim-button","193","329374","0.0-2.0-40.3-1.3","61fa904ed42cb19beec490d9","F1","batch6","","280","tol_toboard","","","","tol_peg_3","280","280","0","[[1,3,0],[0,0],[2]]","4","[[2,0,0],[1,3],[0]]","10","0","","","","","","6","","","","","","","","",""
"","","","","","single-stim-button","194","329835","0.0-2.0-40.4-0.4","61fa904ed42cb19beec490d9","F1","batch6","","460","tol_tohand","","","","tol_peg_1","460","460","0","[[1,0,0],[0,0],[2]]","5","[[2,0,0],[1,3],[0]]","10","0","","","","","","6","","","","","","","","",""
"","","","","","single-stim-button","195","332107","0.0-2.0-40.4-1.4","61fa904ed42cb19beec490d9","F1","batch6","","2272","tol_toboard","","","","tol_peg_2","2272","2272","0","[[1,0,0],[3,0],[2]]","5","[[2,0,0],[1,3],[0]]","10","0","","","","","","6","","","","","","","","",""
"","","","","","single-stim-button","196","333170","0.0-2.0-40.5-0.5","61fa904ed42cb19beec490d9","F1","batch6","","1062","tol_tohand","","","","tol_peg_3","1062","1062","0","[[1,0,0],[3,0],[0]]","6","[[2,0,0],[1,3],[0]]","10","0","","","","","","6","","","","","","","","",""
"","","","","","single-stim-button","197","334163","0.0-2.0-40.5-1.5","61fa904ed42cb19beec490d9","F1","batch6","","993","tol_toboard","","","","tol_peg_2","993","993","0","[[1,0,0],[3,2],[0]]","6","[[2,0,0],[1,3],[0]]","10","0","","","","","","6","","","","","","","","",""
"","","","","","single-stim-button","198","334659","0.0-2.0-40.6-0.6","61fa904ed42cb19beec490d9","F1","batch6","","496","tol_tohand","","","","tol_peg_1","496","496","0","[[0,0,0],[3,2],[0]]","7","[[2,0,0],[1,3],[0]]","10","0","","","","","","6","","","","","","","","",""
"","","","","","single-stim-button","199","335079","0.0-2.0-40.6-1.6","61fa904ed42cb19beec490d9","F1","batch6","","419","tol_toboard","","","","tol_peg_3","419","419","0","[[0,0,0],[3,2],[1]]","7","[[2,0,0],[1,3],[0]]","10","0","","","","","","6","","","","","","","","",""
"","","","","","single-stim-button","200","335869","0.0-2.0-40.7-0.7","61fa904ed42cb19beec490d9","F1","batch6","","790","tol_tohand","","","","tol_peg_2","790","790","0","[[0,0,0],[3,0],[1]]","8","[[2,0,0],[1,3],[0]]","10","0","","","","","","6","","","","","","","","",""
"","","","","","single-stim-button","201","336245","0.0-2.0-40.7-1.7","61fa904ed42cb19beec490d9","F1","batch6","","376","tol_toboard","","","","tol_peg_1","376","376","0","[[2,0,0],[3,0],[1]]","8","[[2,0,0],[1,3],[0]]","10","0","","","","","","6","","","","","","","","",""
"","","","","","single-stim-button","202","337776","0.0-2.0-40.8-0.8","61fa904ed42cb19beec490d9","F1","batch6","","1530","tol_tohand","","","","tol_peg_2","1530","1530","0","[[2,0,0],[0,0],[1]]","9","[[2,0,0],[1,3],[0]]","10","0","","","","","","6","","","","","","","","",""
"","","","","","single-stim-button","203","338050","0.0-2.0-40.8-1.8","61fa904ed42cb19beec490d9","F1","batch6","","274","tol_toboard","","","","tol_peg_1","274","274","0","[[2,3,0],[0,0],[1]]","9","[[2,0,0],[1,3],[0]]","10","0","","","","","","6","","","","","","","","",""
"","","","","","single-stim-button","204","338416","0.0-2.0-40.9-0.9","61fa904ed42cb19beec490d9","F1","batch6","","366","tol_tohand","","","","tol_peg_3","366","366","0","[[2,3,0],[0,0],[0]]","10","[[2,0,0],[1,3],[0]]","10","0","","","","","","6","","","","","","","","",""
"","","","","","single-stim-button","205","338665","0.0-2.0-40.9-1.9","61fa904ed42cb19beec490d9","F1","batch6","","248","tol_toboard","","","","tol_peg_2","248","248","0","[[2,3,0],[1,0],[0]]","10","[[2,0,0],[1,3],[0]]","10","0","","","","","","6","","","","","","","","",""
"","","","","","single-stim-button","206","339011","0.0-2.0-40.10-0.10","61fa904ed42cb19beec490d9","F1","batch6","","345","tol_tohand","","","","tol_peg_1","345","345","0","[[2,0,0],[1,0],[0]]","11","[[2,0,0],[1,3],[0]]","10","0","","","","","","6","","","","","","","","",""
"","","","","","single-stim-button","207","339287","0.0-2.0-40.10-1.10","61fa904ed42cb19beec490d9","F1","batch6","","276","tol_toboard","","","","tol_peg_2","276","276","0","[[2,0,0],[1,3],[0]]","11","[[2,0,0],[1,3],[0]]","10","0","","","","","","6","","","","","","","","",""
"","","","","","poldrack-single-stim","208","340289","0.0-2.0-41.0","61fa904ed42cb19beec490d9","F1","batch6","","-1","tol_feedback","","","true","","1000","1000","500","","","","","","-1","none","true","3038","10785","","","","","","","","","",""
"","","","","","html-button-response","209","341188","0.0-2.0-42.0","61fa904ed42cb19beec490d9","F1","batch6","","898.2000000476837","tol_trial_num","<div class = centerbox><p class = center-block-text>problem <strong>12</strong> out of 25 problems</p></div>","0","","","","","","","","","","","","","","","","","","","","","","","","",""
"","","","","","single-stim-button","210","347203","0.0-2.0-43.0-0.0","61fa904ed42cb19beec490d9","F1","batch6","","6014","tol_tohand","","","","tol_peg_1","6014","6014","0","[[1,0,0],[3,0],[0]]","1","[[2,3,0],[0,0],[1]]","11","0","","","","","","4","","","","","","","","",""
"","","","","","single-stim-button","211","347809","0.0-2.0-43.0-1.0","61fa904ed42cb19beec490d9","F1","batch6","","606","tol_toboard","","","","tol_peg_2","606","606","0","[[1,0,0],[3,2],[0]]","1","[[2,3,0],[0,0],[1]]","11","0","","","","","","4","","","","","","","","",""
"","","","","","single-stim-button","212","348338","0.0-2.0-43.1-0.1","61fa904ed42cb19beec490d9","F1","batch6","","529","tol_tohand","","","","tol_peg_1","529","529","0","[[0,0,0],[3,2],[0]]","2","[[2,3,0],[0,0],[1]]","11","0","","","","","","4","","","","","","","","",""
"","","","","","single-stim-button","213","348659","0.0-2.0-43.1-1.1","61fa904ed42cb19beec490d9","F1","batch6","","321","tol_toboard","","","","tol_peg_3","321","321","0","[[0,0,0],[3,2],[1]]","2","[[2,3,0],[0,0],[1]]","11","0","","","","","","4","","","","","","","","",""
"","","","","","single-stim-button","214","349061","0.0-2.0-43.2-0.2","61fa904ed42cb19beec490d9","F1","batch6","","401","tol_tohand","","","","tol_peg_2","401","401","0","[[0,0,0],[3,0],[1]]","3","[[2,3,0],[0,0],[1]]","11","0","","","","","","4","","","","","","","","",""
"","","","","","single-stim-button","215","349361","0.0-2.0-43.2-1.2","61fa904ed42cb19beec490d9","F1","batch6","","299","tol_toboard","","","","tol_peg_1","299","299","0","[[2,0,0],[3,0],[1]]","3","[[2,3,0],[0,0],[1]]","11","0","","","","","","4","","","","","","","","",""
"","","","","","single-stim-button","216","349857","0.0-2.0-43.3-0.3","61fa904ed42cb19beec490d9","F1","batch6","","496","tol_tohand","","","","tol_peg_2","496","496","0","[[2,0,0],[0,0],[1]]","4","[[2,3,0],[0,0],[1]]","11","0","","","","","","4","","","","","","","","",""
"","","","","","single-stim-button","217","350652","0.0-2.0-43.3-1.3","61fa904ed42cb19beec490d9","F1","batch6","","794","tol_toboard","","","","tol_peg_1","794","794","0","[[2,3,0],[0,0],[1]]","4","[[2,3,0],[0,0],[1]]","11","0","","","","","","4","","","","","","","","",""
"","","","","","poldrack-single-stim","218","351654","0.0-2.0-44.0","61fa904ed42cb19beec490d9","F1","batch6","","-1","tol_feedback","","","true","","1000","1000","500","","","","","","-1","none","true","6014","7440","","","","","","","","","",""
"","","","","","html-button-response","219","352655","0.0-2.0-45.0","61fa904ed42cb19beec490d9","F1","batch6","","1000.3999999761581","tol_trial_num","<div class = centerbox><p class = center-block-text>problem <strong>13</strong> out of 25 problems</p></div>","0","","","","","","","","","","","","","","","","","","","","","","","","",""
"","","","","","single-stim-button","220","354595","0.0-2.0-46.0-0.0","61fa904ed42cb19beec490d9","F1","batch6","","1938","tol_tohand","","","","tol_peg_1","1938","1938","0","[[1,0,0],[3,0],[0]]","1","[[0,0,0],[2,3],[1]]","12","0","","","","","","4","","","","","","","","",""
"","","","","","single-stim-button","221","354898","0.0-2.0-46.0-1.0","61fa904ed42cb19beec490d9","F1","batch6","","302","tol_toboard","","","","tol_peg_2","302","302","0","[[1,0,0],[3,2],[0]]","1","[[0,0,0],[2,3],[1]]","12","0","","","","","","4","","","","","","","","",""
"","","","","","single-stim-button","222","355361","0.0-2.0-46.1-0.1","61fa904ed42cb19beec490d9","F1","batch6","","462","tol_tohand","","","","tol_peg_1","462","462","0","[[0,0,0],[3,2],[0]]","2","[[0,0,0],[2,3],[1]]","12","0","","","","","","4","","","","","","","","",""
"","","","","","single-stim-button","223","355841","0.0-2.0-46.1-1.1","61fa904ed42cb19beec490d9","F1","batch6","","480","tol_toboard","","","","tol_peg_3","480","480","0","[[0,0,0],[3,2],[1]]","2","[[0,0,0],[2,3],[1]]","12","0","","","","","","4","","","","","","","","",""
"","","","","","single-stim-button","224","357775","0.0-2.0-46.2-0.2","61fa904ed42cb19beec490d9","F1","batch6","","1933","tol_tohand","","","","tol_peg_2","1933","1933","0","[[0,0,0],[3,0],[1]]","3","[[0,0,0],[2,3],[1]]","12","0","","","","","","4","","","","","","","","",""
"","","","","","single-stim-button","225","358339","0.0-2.0-46.2-1.2","61fa904ed42cb19beec490d9","F1","batch6","","563","tol_toboard","","","","tol_peg_1","563","563","0","[[2,0,0],[3,0],[1]]","3","[[0,0,0],[2,3],[1]]","12","0","","","","","","4","","","","","","","","",""
"","","","","","single-stim-button","226","359100","0.0-2.0-46.3-0.3","61fa904ed42cb19beec490d9","F1","batch6","","760","tol_tohand","","","","tol_peg_3","760","760","0","[[2,0,0],[3,0],[0]]","4","[[0,0,0],[2,3],[1]]","12","0","","","","","","4","","","","","","","","",""
"","","","","","single-stim-button","227","360177","0.0-2.0-46.3-1.3","61fa904ed42cb19beec490d9","F1","batch6","","1076","tol_toboard","","","","tol_peg_2","1076","1076","0","[[2,0,0],[3,1],[0]]","4","[[0,0,0],[2,3],[1]]","12","0","","","","","","4","","","","","","","","",""
"","","","","","single-stim-button","228","360690","0.0-2.0-46.4-0.4","61fa904ed42cb19beec490d9","F1","batch6","","513","tol_tohand","","","","tol_peg_1","513","513","0","[[0,0,0],[3,1],[0]]","5","[[0,0,0],[2,3],[1]]","12","0","","","","","","4","","","","","","","","",""
"","","","","","single-stim-button","229","361101","0.0-2.0-46.4-1.4","61fa904ed42cb19beec490d9","F1","batch6","","411","tol_toboard","","","","tol_peg_3","411","411","0","[[0,0,0],[3,1],[2]]","5","[[0,0,0],[2,3],[1]]","12","0","","","","","","4","","","","","","","","",""
"","","","","","single-stim-button","230","361695","0.0-2.0-46.5-0.5","61fa904ed42cb19beec490d9","F1","batch6","","594","tol_tohand","","","","tol_peg_2","594","594","0","[[0,0,0],[3,0],[2]]","6","[[0,0,0],[2,3],[1]]","12","0","","","","","","4","","","","","","","","",""
"","","","","","single-stim-button","231","361977","0.0-2.0-46.5-1.5","61fa904ed42cb19beec490d9","F1","batch6","","281","tol_toboard","","","","tol_peg_1","281","281","0","[[1,0,0],[3,0],[2]]","6","[[0,0,0],[2,3],[1]]","12","0","","","","","","4","","","","","","","","",""
"","","","","","single-stim-button","232","363144","0.0-2.0-46.6-0.6","61fa904ed42cb19beec490d9","F1","batch6","","1165","tol_tohand","","","","tol_peg_2","1165","1165","0","[[1,0,0],[0,0],[2]]","7","[[0,0,0],[2,3],[1]]","12","0","","","","","","4","","","","","","","","",""
"","","","","","single-stim-button","233","363443","0.0-2.0-46.6-1.6","61fa904ed42cb19beec490d9","F1","batch6","","299","tol_toboard","","","","tol_peg_1","299","299","0","[[1,3,0],[0,0],[2]]","7","[[0,0,0],[2,3],[1]]","12","0","","","","","","4","","","","","","","","",""
"","","","","","single-stim-button","234","363890","0.0-2.0-46.7-0.7","61fa904ed42cb19beec490d9","F1","batch6","","446","tol_tohand","","","","tol_peg_3","446","446","0","[[1,3,0],[0,0],[0]]","8","[[0,0,0],[2,3],[1]]","12","0","","","","","","4","","","","","","","","",""
"","","","","","single-stim-button","235","364162","0.0-2.0-46.7-1.7","61fa904ed42cb19beec490d9","F1","batch6","","270","tol_toboard","","","","tol_peg_2","270","270","0","[[1,3,0],[2,0],[0]]","8","[[0,0,0],[2,3],[1]]","12","0","","","","","","4","","","","","","","","",""
"","","","","","single-stim-button","236","364531","0.0-2.0-46.8-0.8","61fa904ed42cb19beec490d9","F1","batch6","","369","tol_tohand","","","","tol_peg_1","369","369","0","[[1,0,0],[2,0],[0]]","9","[[0,0,0],[2,3],[1]]","12","0","","","","","","4","","","","","","","","",""
"","","","","","single-stim-button","237","364825","0.0-2.0-46.8-1.8","61fa904ed42cb19beec490d9","F1","batch6","","292","tol_toboard","","","","tol_peg_2","292","292","0","[[1,0,0],[2,3],[0]]","9","[[0,0,0],[2,3],[1]]","12","0","","","","","","4","","","","","","","","",""
"","","","","","single-stim-button","238","365576","0.0-2.0-46.9-0.9","61fa904ed42cb19beec490d9","F1","batch6","","750","tol_tohand","","","","tol_peg_1","750","750","0","[[0,0,0],[2,3],[0]]","10","[[0,0,0],[2,3],[1]]","12","0","","","","","","4","","","","","","","","",""
"","","","","","single-stim-button","239","365972","0.0-2.0-46.9-1.9","61fa904ed42cb19beec490d9","F1","batch6","","395","tol_toboard","","","","tol_peg_3","395","395","0","[[0,0,0],[2,3],[1]]","10","[[0,0,0],[2,3],[1]]","12","0","","","","","","4","","","","","","","","",""
"","","","","","poldrack-single-stim","240","366973","0.0-2.0-47.0","61fa904ed42cb19beec490d9","F1","batch6","","-1","tol_feedback","","","true","","1000","1000","500","","","","","","-1","none","true","1938","8930","","","","","","","","","",""
"","","","","","html-button-response","241","369210","0.0-2.0-48.0","61fa904ed42cb19beec490d9","F1","batch6","","2235.600000023842","attention_check","<p class = block-text>How many balls are in your board<br></p>","1","true","","","","","","","","","","","","","","","","","","","","","","","",""
"","","","","","html-button-response","242","370564","0.0-2.0-49.0","61fa904ed42cb19beec490d9","F1","batch6","","1353.3999999761581","tol_trial_num","<div class = centerbox><p class = center-block-text>problem <strong>14</strong> out of 25 problems</p></div>","0","","","","","","","","","","","","","","","","","","","","","","","","",""
"","","","","","single-stim-button","243","375513","0.0-2.0-50.0-0.0","61fa904ed42cb19beec490d9","F1","batch6","","4948","tol_tohand","","","","tol_peg_1","4948","4948","0","[[2,0,0],[3,0],[0]]","1","[[1,2,0],[3,0],[0]]","13","0","","","","","","4","","","","","","","","",""
"","","","","","single-stim-button","244","375841","0.0-2.0-50.0-1.0","61fa904ed42cb19beec490d9","F1","batch6","","327","tol_toboard","","","","tol_peg_2","327","327","0","[[2,0,0],[3,1],[0]]","1","[[1,2,0],[3,0],[0]]","13","0","","","","","","4","","","","","","","","",""
"","","","","","single-stim-button","245","376301","0.0-2.0-50.1-0.1","61fa904ed42cb19beec490d9","F1","batch6","","459","tol_tohand","","","","tol_peg_1","459","459","0","[[0,0,0],[3,1],[0]]","2","[[1,2,0],[3,0],[0]]","13","0","","","","","","4","","","","","","","","",""
"","","","","","single-stim-button","246","376725","0.0-2.0-50.1-1.1","61fa904ed42cb19beec490d9","F1","batch6","","423","tol_toboard","","","","tol_peg_3","423","423","0","[[0,0,0],[3,1],[2]]","2","[[1,2,0],[3,0],[0]]","13","0","","","","","","4","","","","","","","","",""
"","","","","","single-stim-button","247","377215","0.0-2.0-50.2-0.2","61fa904ed42cb19beec490d9","F1","batch6","","490","tol_tohand","","","","tol_peg_2","490","490","0","[[0,0,0],[3,0],[2]]","3","[[1,2,0],[3,0],[0]]","13","0","","","","","","4","","","","","","","","",""
"","","","","","single-stim-button","248","377527","0.0-2.0-50.2-1.2","61fa904ed42cb19beec490d9","F1","batch6","","311","tol_toboard","","","","tol_peg_1","311","311","0","[[1,0,0],[3,0],[2]]","3","[[1,2,0],[3,0],[0]]","13","0","","","","","","4","","","","","","","","",""
"","","","","","single-stim-button","249","377959","0.0-2.0-50.3-0.3","61fa904ed42cb19beec490d9","F1","batch6","","432","tol_tohand","","","","tol_peg_3","432","432","0","[[1,0,0],[3,0],[0]]","4","[[1,2,0],[3,0],[0]]","13","0","","","","","","4","","","","","","","","",""
"","","","","","single-stim-button","250","378344","0.0-2.0-50.3-1.3","61fa904ed42cb19beec490d9","F1","batch6","","385","tol_toboard","","","","tol_peg_1","385","385","0","[[1,2,0],[3,0],[0]]","4","[[1,2,0],[3,0],[0]]","13","0","","","","","","4","","","","","","","","",""
"","","","","","poldrack-single-stim","251","379345","0.0-2.0-51.0","61fa904ed42cb19beec490d9","F1","batch6","","-1","tol_feedback","","","true","","1000","1000","500","","","","","","-1","none","true","4948","6329","","","","","","","","","",""
"","","","","","html-button-response","252","380266","0.0-2.0-52.0","61fa904ed42cb19beec490d9","F1","batch6","","919.5999999046326","tol_trial_num","<div class = centerbox><p class = center-block-text>problem <strong>15</strong> out of 25 problems</p></div>","0","","","","","","","","","","","","","","","","","","","","","","","","",""
"","","","","","single-stim-button","253","382388","0.0-2.0-53.0-0.0","61fa904ed42cb19beec490d9","F1","batch6","","2122","tol_tohand","","","","tol_peg_1","2122","2122","0","[[1,0,0],[3,0],[0]]","1","[[2,0,0],[3,0],[1]]","14","0","","","","","","3","","","","","","","","",""
"","","","","","single-stim-button","254","384052","0.0-2.0-53.0-1.0","61fa904ed42cb19beec490d9","F1","batch6","","1664","tol_toboard","","","","tol_peg_2","1664","1664","0","[[1,0,0],[3,2],[0]]","1","[[2,0,0],[3,0],[1]]","14","0","","","","","","3","","","","","","","","",""
"","","","","","single-stim-button","255","384673","0.0-2.0-53.1-0.1","61fa904ed42cb19beec490d9","F1","batch6","","619","tol_tohand","","","","tol_peg_1","619","619","0","[[0,0,0],[3,2],[0]]","2","[[2,0,0],[3,0],[1]]","14","0","","","","","","3","","","","","","","","",""
"","","","","","single-stim-button","256","385154","0.0-2.0-53.1-1.1","61fa904ed42cb19beec490d9","F1","batch6","","481","tol_toboard","","","","tol_peg_3","481","481","0","[[0,0,0],[3,2],[1]]","2","[[2,0,0],[3,0],[1]]","14","0","","","","","","3","","","","","","","","",""
"","","","","","single-stim-button","257","385631","0.0-2.0-53.2-0.2","61fa904ed42cb19beec490d9","F1","batch6","","476","tol_tohand","","","","tol_peg_2","476","476","0","[[0,0,0],[3,0],[1]]","3","[[2,0,0],[3,0],[1]]","14","0","","","","","","3","","","","","","","","",""
"","","","","","single-stim-button","258","385892","0.0-2.0-53.2-1.2","61fa904ed42cb19beec490d9","F1","batch6","","260","tol_toboard","","","","tol_peg_1","260","260","0","[[2,0,0],[3,0],[1]]","3","[[2,0,0],[3,0],[1]]","14","0","","","","","","3","","","","","","","","",""
"","","","","","poldrack-single-stim","259","386893","0.0-2.0-54.0","61fa904ed42cb19beec490d9","F1","batch6","","-1","tol_feedback","","","true","","1000","1000","500","","","","","","-1","none","true","2122","3217","","","","","","","","","",""
"","","","","","html-button-response","260","387802","0.0-2.0-55.0","61fa904ed42cb19beec490d9","F1","batch6","","907.6999999284744","tol_trial_num","<div class = centerbox><p class = center-block-text>problem <strong>16</strong> out of 25 problems</p></div>","0","","","","","","","","","","","","","","","","","","","","","","","","",""
"","","","","","single-stim-button","261","391967","0.0-2.0-56.0-0.0","61fa904ed42cb19beec490d9","F1","batch6","","4165","tol_tohand","","","","tol_peg_3","4165","4165","0","[[0,0,0],[2,3],[0]]","1","[[2,3,0],[1,0],[0]]","15","0","","","","","","7","","","","","","","","",""
"","","","","","single-stim-button","262","392332","0.0-2.0-56.0-1.0","61fa904ed42cb19beec490d9","F1","batch6","","365","tol_toboard","","","","tol_peg_1","365","365","0","[[1,0,0],[2,3],[0]]","1","[[2,3,0],[1,0],[0]]","15","0","","","","","","7","","","","","","","","",""
"","","","","","single-stim-button","263","392654","0.0-2.0-56.1-0.1","61fa904ed42cb19beec490d9","F1","batch6","","321","tol_tohand","","","","tol_peg_2","321","321","0","[[1,0,0],[2,0],[0]]","2","[[2,3,0],[1,0],[0]]","15","0","","","","","","7","","","","","","","","",""
"","","","","","single-stim-button","264","393006","0.0-2.0-56.1-1.1","61fa904ed42cb19beec490d9","F1","batch6","","352","tol_toboard","","","","tol_peg_3","352","352","0","[[1,0,0],[2,0],[3]]","2","[[2,3,0],[1,0],[0]]","15","0","","","","","","7","","","","","","","","",""
"","","","","","single-stim-button","265","395231","0.0-2.0-56.2-0.2","61fa904ed42cb19beec490d9","F1","batch6","","2224","tol_tohand","","","","tol_peg_1","2224","2224","0","[[0,0,0],[2,0],[3]]","3","[[2,3,0],[1,0],[0]]","15","0","","","","","","7","","","","","","","","",""
"","","","","","single-stim-button","266","398290","0.0-2.0-56.2-1.2","61fa904ed42cb19beec490d9","F1","batch6","","3059","tol_toboard","","","","tol_peg_2","3059","3059","0","[[0,0,0],[2,1],[3]]","3","[[2,3,0],[1,0],[0]]","15","0","","","","","","7","","","","","","","","",""
"","","","","","single-stim-button","267","400563","0.0-2.0-56.3-0.3","61fa904ed42cb19beec490d9","F1","batch6","","2272","tol_tohand","","","","tol_peg_2","2272","2272","0","[[0,0,0],[2,0],[3]]","4","[[2,3,0],[1,0],[0]]","15","0","","","","","","7","","","","","","","","",""
"","","","","","single-stim-button","268","401083","0.0-2.0-56.3-1.3","61fa904ed42cb19beec490d9","F1","batch6","","519","tol_toboard","","","","tol_peg_1","519","519","0","[[1,0,0],[2,0],[3]]","4","[[2,3,0],[1,0],[0]]","15","0","","","","","","7","","","","","","","","",""
"","","","","","single-stim-button","269","402249","0.0-2.0-56.4-0.4","61fa904ed42cb19beec490d9","F1","batch6","","1166","tol_tohand","","","","tol_peg_3","1166","1166","0","[[1,0,0],[2,0],[0]]","5","[[2,3,0],[1,0],[0]]","15","0","","","","","","7","","","","","","","","",""
"","","","","","single-stim-button","270","402626","0.0-2.0-56.4-1.4","61fa904ed42cb19beec490d9","F1","batch6","","377","tol_toboard","","","","tol_peg_1","377","377","0","[[1,3,0],[2,0],[0]]","5","[[2,3,0],[1,0],[0]]","15","0","","","","","","7","","","","","","","","",""
"","","","","","single-stim-button","271","402959","0.0-2.0-56.5-0.5","61fa904ed42cb19beec490d9","F1","batch6","","333","tol_tohand","","","","tol_peg_2","333","333","0","[[1,3,0],[0,0],[0]]","6","[[2,3,0],[1,0],[0]]","15","0","","","","","","7","","","","","","","","",""
"","","","","","single-stim-button","272","403239","0.0-2.0-56.5-1.5","61fa904ed42cb19beec490d9","F1","batch6","","278","tol_toboard","","","","tol_peg_3","278","278","0","[[1,3,0],[0,0],[2]]","6","[[2,3,0],[1,0],[0]]","15","0","","","","","","7","","","","","","","","",""
"","","","","","single-stim-button","273","403892","0.0-2.0-56.6-0.6","61fa904ed42cb19beec490d9","F1","batch6","","653","tol_tohand","","","","tol_peg_1","653","653","0","[[1,0,0],[0,0],[2]]","7","[[2,3,0],[1,0],[0]]","15","0","","","","","","7","","","","","","","","",""
"","","","","","single-stim-button","274","404392","0.0-2.0-56.6-1.6","61fa904ed42cb19beec490d9","F1","batch6","","499","tol_toboard","","","","tol_peg_2","499","499","0","[[1,0,0],[3,0],[2]]","7","[[2,3,0],[1,0],[0]]","15","0","","","","","","7","","","","","","","","",""
"","","","","","single-stim-button","275","405347","0.0-2.0-56.7-0.7","61fa904ed42cb19beec490d9","F1","batch6","","953","tol_tohand","","","","tol_peg_1","953","953","0","[[0,0,0],[3,0],[2]]","8","[[2,3,0],[1,0],[0]]","15","0","","","","","","7","","","","","","","","",""
"","","","","","single-stim-button","276","405824","0.0-2.0-56.7-1.7","61fa904ed42cb19beec490d9","F1","batch6","","476","tol_toboard","","","","tol_peg_2","476","476","0","[[0,0,0],[3,1],[2]]","8","[[2,3,0],[1,0],[0]]","15","0","","","","","","7","","","","","","","","",""
"","","","","","single-stim-button","277","407293","0.0-2.0-56.8-0.8","61fa904ed42cb19beec490d9","F1","batch6","","1468","tol_tohand","","","","tol_peg_3","1468","1468","0","[[0,0,0],[3,1],[0]]","9","[[2,3,0],[1,0],[0]]","15","0","","","","","","7","","","","","","","","",""
"","","","","","single-stim-button","278","407737","0.0-2.0-56.8-1.8","61fa904ed42cb19beec490d9","F1","batch6","","443","tol_toboard","","","","tol_peg_1","443","443","0","[[2,0,0],[3,1],[0]]","9","[[2,3,0],[1,0],[0]]","15","0","","","","","","7","","","","","","","","",""
"","","","","","single-stim-button","279","408619","0.0-2.0-56.9-0.9","61fa904ed42cb19beec490d9","F1","batch6","","882","tol_tohand","","","","tol_peg_2","882","882","0","[[2,0,0],[3,0],[0]]","10","[[2,3,0],[1,0],[0]]","15","0","","","","","","7","","","","","","","","",""
"","","","","","single-stim-button","280","408907","0.0-2.0-56.9-1.9","61fa904ed42cb19beec490d9","F1","batch6","","287","tol_toboard","","","","tol_peg_3","287","287","0","[[2,0,0],[3,0],[1]]","10","[[2,3,0],[1,0],[0]]","15","0","","","","","","7","","","","","","","","",""
"","","","","","single-stim-button","281","409281","0.0-2.0-56.10-0.10","61fa904ed42cb19beec490d9","F1","batch6","","372","tol_tohand","","","","tol_peg_2","372","372","0","[[2,0,0],[0,0],[1]]","11","[[2,3,0],[1,0],[0]]","15","0","","","","","","7","","","","","","","","",""
"","","","","","single-stim-button","282","409584","0.0-2.0-56.10-1.10","61fa904ed42cb19beec490d9","F1","batch6","","303","tol_toboard","","","","tol_peg_1","303","303","0","[[2,3,0],[0,0],[1]]","11","[[2,3,0],[1,0],[0]]","15","0","","","","","","7","","","","","","","","",""
"","","","","","single-stim-button","283","409932","0.0-2.0-56.11-0.11","61fa904ed42cb19beec490d9","F1","batch6","","347","tol_tohand","","","","tol_peg_3","347","347","0","[[2,3,0],[0,0],[0]]","12","[[2,3,0],[1,0],[0]]","15","0","","","","","","7","","","","","","","","",""
"","","","","","single-stim-button","284","410196","0.0-2.0-56.11-1.11","61fa904ed42cb19beec490d9","F1","batch6","","264","tol_toboard","","","","tol_peg_2","264","264","0","[[2,3,0],[1,0],[0]]","12","[[2,3,0],[1,0],[0]]","15","0","","","","","","7","","","","","","","","",""
"","","","","","poldrack-single-stim","285","411198","0.0-2.0-57.0","61fa904ed42cb19beec490d9","F1","batch6","","-1","tol_feedback","","","true","","1000","1000","500","","","","","","-1","none","true","4165","15156","","","","","","","","","",""
"","","","","","html-button-response","286","412085","0.0-2.0-58.0","61fa904ed42cb19beec490d9","F1","batch6","","886.2999999523163","tol_trial_num","<div class = centerbox><p class = center-block-text>problem <strong>17</strong> out of 25 problems</p></div>","0","","","","","","","","","","","","","","","","","","","","","","","","",""
"","","","","","single-stim-button","287","416854","0.0-2.0-59.0-0.0","61fa904ed42cb19beec490d9","F1","batch6","","4769","tol_tohand","","","","tol_peg_1","4769","4769","0","[[1,0,0],[3,0],[0]]","1","[[3,1,0],[2,0],[0]]","16","0","","","","","","5","","","","","","","","",""
"","","","","","single-stim-button","288","417288","0.0-2.0-59.0-1.0","61fa904ed42cb19beec490d9","F1","batch6","","432","tol_toboard","","","","tol_peg_3","432","432","0","[[1,0,0],[3,0],[2]]","1","[[3,1,0],[2,0],[0]]","16","0","","","","","","5","","","","","","","","",""
"","","","","","single-stim-button","289","419559","0.0-2.0-59.1-0.1","61fa904ed42cb19beec490d9","F1","batch6","","2271","tol_tohand","","","","tol_peg_2","2271","2271","0","[[1,0,0],[0,0],[2]]","2","[[3,1,0],[2,0],[0]]","16","0","","","","","","5","","","","","","","","",""
"","","","","","single-stim-button","290","419964","0.0-2.0-59.1-1.1","61fa904ed42cb19beec490d9","F1","batch6","","403","tol_toboard","","","","tol_peg_1","403","403","0","[[1,3,0],[0,0],[2]]","2","[[3,1,0],[2,0],[0]]","16","0","","","","","","5","","","","","","","","",""
"","","","","","single-stim-button","291","420469","0.0-2.0-59.2-0.2","61fa904ed42cb19beec490d9","F1","batch6","","504","tol_tohand","","","","tol_peg_3","504","504","0","[[1,3,0],[0,0],[0]]","3","[[3,1,0],[2,0],[0]]","16","0","","","","","","5","","","","","","","","",""
"","","","","","single-stim-button","292","420751","0.0-2.0-59.2-1.2","61fa904ed42cb19beec490d9","F1","batch6","","282","tol_toboard","","","","tol_peg_2","282","282","0","[[1,3,0],[2,0],[0]]","3","[[3,1,0],[2,0],[0]]","16","0","","","","","","5","","","","","","","","",""
"","","","","","single-stim-button","293","421430","0.0-2.0-59.3-0.3","61fa904ed42cb19beec490d9","F1","batch6","","678","tol_tohand","","","","tol_peg_1","678","678","0","[[1,0,0],[2,0],[0]]","4","[[3,1,0],[2,0],[0]]","16","0","","","","","","5","","","","","","","","",""
"","","","","","single-stim-button","294","421871","0.0-2.0-59.3-1.3","61fa904ed42cb19beec490d9","F1","batch6","","441","tol_toboard","","","","tol_peg_3","441","441","0","[[1,0,0],[2,0],[3]]","4","[[3,1,0],[2,0],[0]]","16","0","","","","","","5","","","","","","","","",""
"","","","","","single-stim-button","295","422418","0.0-2.0-59.4-0.4","61fa904ed42cb19beec490d9","F1","batch6","","546","tol_tohand","","","","tol_peg_1","546","546","0","[[0,0,0],[2,0],[3]]","5","[[3,1,0],[2,0],[0]]","16","0","","","","","","5","","","","","","","","",""
"","","","","","single-stim-button","296","422897","0.0-2.0-59.4-1.4","61fa904ed42cb19beec490d9","F1","batch6","","479","tol_toboard","","","","tol_peg_2","479","479","0","[[0,0,0],[2,1],[3]]","5","[[3,1,0],[2,0],[0]]","16","0","","","","","","5","","","","","","","","",""
"","","","","","single-stim-button","297","423246","0.0-2.0-59.5-0.5","61fa904ed42cb19beec490d9","F1","batch6","","349","tol_tohand","","","","tol_peg_3","349","349","0","[[0,0,0],[2,1],[0]]","6","[[3,1,0],[2,0],[0]]","16","0","","","","","","5","","","","","","","","",""
"","","","","","single-stim-button","298","423597","0.0-2.0-59.5-1.5","61fa904ed42cb19beec490d9","F1","batch6","","350","tol_toboard","","","","tol_peg_1","350","350","0","[[3,0,0],[2,1],[0]]","6","[[3,1,0],[2,0],[0]]","16","0","","","","","","5","","","","","","","","",""
"","","","","","single-stim-button","299","424180","0.0-2.0-59.6-0.6","61fa904ed42cb19beec490d9","F1","batch6","","582","tol_tohand","","","","tol_peg_2","582","582","0","[[3,0,0],[2,0],[0]]","7","[[3,1,0],[2,0],[0]]","16","0","","","","","","5","","","","","","","","",""
"","","","","","single-stim-button","300","424585","0.0-2.0-59.6-1.6","61fa904ed42cb19beec490d9","F1","batch6","","405","tol_toboard","","","","tol_peg_1","405","405","0","[[3,1,0],[2,0],[0]]","7","[[3,1,0],[2,0],[0]]","16","0","","","","","","5","","","","","","","","",""
"","","","","","poldrack-single-stim","301","425587","0.0-2.0-60.0","61fa904ed42cb19beec490d9","F1","batch6","","-1","tol_feedback","","","true","","1000","1000","500","","","","","","-1","none","true","4769","9699","","","","","","","","","",""
"","","","","","html-button-response","302","426420","0.0-2.0-61.0","61fa904ed42cb19beec490d9","F1","batch6","","831.7999999523163","tol_trial_num","<div class = centerbox><p class = center-block-text>problem <strong>18</strong> out of 25 problems</p></div>","0","","","","","","","","","","","","","","","","","","","","","","","","",""
"","","","","","single-stim-button","303","429137","0.0-2.0-62.0-0.0","61fa904ed42cb19beec490d9","F1","batch6","","2716","tol_tohand","","","","tol_peg_1","2716","2716","0","[[1,0,0],[3,0],[0]]","1","[[3,0,0],[2,0],[1]]","17","0","","","","","","5","","","","","","","","",""
"","","","","","single-stim-button","304","429389","0.0-2.0-62.0-1.0","61fa904ed42cb19beec490d9","F1","batch6","","251","tol_toboard","","","","tol_peg_2","251","251","0","[[1,0,0],[3,2],[0]]","1","[[3,0,0],[2,0],[1]]","17","0","","","","","","5","","","","","","","","",""
"","","","","","single-stim-button","305","429734","0.0-2.0-62.1-0.1","61fa904ed42cb19beec490d9","F1","batch6","","344","tol_tohand","","","","tol_peg_1","344","344","0","[[0,0,0],[3,2],[0]]","2","[[3,0,0],[2,0],[1]]","17","0","","","","","","5","","","","","","","","",""
"","","","","","single-stim-button","306","430194","0.0-2.0-62.1-1.1","61fa904ed42cb19beec490d9","F1","batch6","","459","tol_toboard","","","","tol_peg_3","459","459","0","[[0,0,0],[3,2],[1]]","2","[[3,0,0],[2,0],[1]]","17","0","","","","","","5","","","","","","","","",""
"","","","","","single-stim-button","307","431001","0.0-2.0-62.2-0.2","61fa904ed42cb19beec490d9","F1","batch6","","806","tol_tohand","","","","tol_peg_2","806","806","0","[[0,0,0],[3,0],[1]]","3","[[3,0,0],[2,0],[1]]","17","0","","","","","","5","","","","","","","","",""
"","","","","","single-stim-button","308","433554","0.0-2.0-62.2-1.2","61fa904ed42cb19beec490d9","F1","batch6","","2552","tol_toboard","","","","tol_peg_2","2552","2552","0","[[0,0,0],[3,2],[1]]","3","[[3,0,0],[2,0],[1]]","17","0","","","","","","5","","","","","","","","",""
"","","","","","single-stim-button","309","434269","0.0-2.0-62.3-0.3","61fa904ed42cb19beec490d9","F1","batch6","","714","tol_tohand","","","","tol_peg_3","714","714","0","[[0,0,0],[3,2],[0]]","4","[[3,0,0],[2,0],[1]]","17","0","","","","","","5","","","","","","","","",""
"","","","","","single-stim-button","310","434704","0.0-2.0-62.3-1.3","61fa904ed42cb19beec490d9","F1","batch6","","434","tol_toboard","","","","tol_peg_1","434","434","0","[[1,0,0],[3,2],[0]]","4","[[3,0,0],[2,0],[1]]","17","0","","","","","","5","","","","","","","","",""
"","","","","","single-stim-button","311","435091","0.0-2.0-62.4-0.4","61fa904ed42cb19beec490d9","F1","batch6","","386","tol_tohand","","","","tol_peg_2","386","386","0","[[1,0,0],[3,0],[0]]","5","[[3,0,0],[2,0],[1]]","17","0","","","","","","5","","","","","","","","",""
"","","","","","single-stim-button","312","435491","0.0-2.0-62.4-1.4","61fa904ed42cb19beec490d9","F1","batch6","","400","tol_toboard","","","","tol_peg_3","400","400","0","[[1,0,0],[3,0],[2]]","5","[[3,0,0],[2,0],[1]]","17","0","","","","","","5","","","","","","","","",""
"","","","","","single-stim-button","313","436007","0.0-2.0-62.5-0.5","61fa904ed42cb19beec490d9","F1","batch6","","515","tol_tohand","","","","tol_peg_2","515","515","0","[[1,0,0],[0,0],[2]]","6","[[3,0,0],[2,0],[1]]","17","0","","","","","","5","","","","","","","","",""
"","","","","","single-stim-button","314","436394","0.0-2.0-62.5-1.5","61fa904ed42cb19beec490d9","F1","batch6","","386","tol_toboard","","","","tol_peg_1","386","386","0","[[1,3,0],[0,0],[2]]","6","[[3,0,0],[2,0],[1]]","17","0","","","","","","5","","","","","","","","",""
"","","","","","single-stim-button","315","436783","0.0-2.0-62.6-0.6","61fa904ed42cb19beec490d9","F1","batch6","","388","tol_tohand","","","","tol_peg_3","388","388","0","[[1,3,0],[0,0],[0]]","7","[[3,0,0],[2,0],[1]]","17","0","","","","","","5","","","","","","","","",""
"","","","","","single-stim-button","316","437097","0.0-2.0-62.6-1.6","61fa904ed42cb19beec490d9","F1","batch6","","314","tol_toboard","","","","tol_peg_2","314","314","0","[[1,3,0],[2,0],[0]]","7","[[3,0,0],[2,0],[1]]","17","0","","","","","","5","","","","","","","","",""
"","","","","","single-stim-button","317","439333","0.0-2.0-62.7-0.7","61fa904ed42cb19beec490d9","F1","batch6","","2235","tol_tohand","","","","tol_peg_1","2235","2235","0","[[1,0,0],[2,0],[0]]","8","[[3,0,0],[2,0],[1]]","17","0","","","","","","5","","","","","","","","",""
"","","","","","single-stim-button","318","439625","0.0-2.0-62.7-1.7","61fa904ed42cb19beec490d9","F1","batch6","","292","tol_toboard","","","","tol_peg_2","292","292","0","[[1,0,0],[2,3],[0]]","8","[[3,0,0],[2,0],[1]]","17","0","","","","","","5","","","","","","","","",""
"","","","","","single-stim-button","319","440093","0.0-2.0-62.8-0.8","61fa904ed42cb19beec490d9","F1","batch6","","467","tol_tohand","","","","tol_peg_1","467","467","0","[[0,0,0],[2,3],[0]]","9","[[3,0,0],[2,0],[1]]","17","0","","","","","","5","","","","","","","","",""
"","","","","","single-stim-button","320","440537","0.0-2.0-62.8-1.8","61fa904ed42cb19beec490d9","F1","batch6","","443","tol_toboard","","","","tol_peg_3","443","443","0","[[0,0,0],[2,3],[1]]","9","[[3,0,0],[2,0],[1]]","17","0","","","","","","5","","","","","","","","",""
"","","","","","single-stim-button","321","440859","0.0-2.0-62.9-0.9","61fa904ed42cb19beec490d9","F1","batch6","","322","tol_tohand","","","","tol_peg_2","322","322","0","[[0,0,0],[2,0],[1]]","10","[[3,0,0],[2,0],[1]]","17","0","","","","","","5","","","","","","","","",""
"","","","","","single-stim-button","322","441654","0.0-2.0-62.9-1.9","61fa904ed42cb19beec490d9","F1","batch6","","795","tol_toboard","","","","tol_peg_1","795","795","0","[[3,0,0],[2,0],[1]]","10","[[3,0,0],[2,0],[1]]","17","0","","","","","","5","","","","","","","","",""
"","","","","","poldrack-single-stim","323","442656","0.0-2.0-63.0","61fa904ed42cb19beec490d9","F1","batch6","","-1","tol_feedback","","","true","","1000","1000","500","","","","","","-1","none","true","2716","8893","","","","","","","","","",""
"","","","","","html-button-response","324","448423","0.0-2.0-64.0","61fa904ed42cb19beec490d9","F1","batch6","","5766.200000047684","tol_trial_num","<div class = centerbox><p class = center-block-text>problem <strong>19</strong> out of 25 problems</p></div>","0","","","","","","","","","","","","","","","","","","","","","","","","",""
"","","","","","single-stim-button","325","450155","0.0-2.0-65.0-0.0","61fa904ed42cb19beec490d9","F1","batch6","","1731","tol_tohand","","","","tol_peg_2","1731","1731","0","[[1,2,0],[0,0],[0]]","1","[[0,0,0],[1,2],[3]]","18","0","","","","","","7","","","","","","","","",""
"","","","","","single-stim-button","326","450846","0.0-2.0-65.0-1.0","61fa904ed42cb19beec490d9","F1","batch6","","690","tol_toboard","","","","tol_peg_3","690","690","0","[[1,2,0],[0,0],[3]]","1","[[0,0,0],[1,2],[3]]","18","0","","","","","","7","","","","","","","","",""
"","","","","","single-stim-button","327","452761","0.0-2.0-65.1-0.1","61fa904ed42cb19beec490d9","F1","batch6","","1914","tol_tohand","","","","tol_peg_1","1914","1914","0","[[1,0,0],[0,0],[3]]","2","[[0,0,0],[1,2],[3]]","18","0","","","","","","7","","","","","","","","",""
"","","","","","single-stim-button","328","453581","0.0-2.0-65.1-1.1","61fa904ed42cb19beec490d9","F1","batch6","","819","tol_toboard","","","","tol_peg_2","819","819","0","[[1,0,0],[2,0],[3]]","2","[[0,0,0],[1,2],[3]]","18","0","","","","","","7","","","","","","","","",""
"","","","","","single-stim-button","329","454992","0.0-2.0-65.2-0.2","61fa904ed42cb19beec490d9","F1","batch6","","1410","tol_tohand","","","","tol_peg_3","1410","1410","0","[[1,0,0],[2,0],[0]]","3","[[0,0,0],[1,2],[3]]","18","0","","","","","","7","","","","","","","","",""
"","","","","","single-stim-button","330","455431","0.0-2.0-65.2-1.2","61fa904ed42cb19beec490d9","F1","batch6","","438","tol_toboard","","","","tol_peg_2","438","438","0","[[1,0,0],[2,3],[0]]","3","[[0,0,0],[1,2],[3]]","18","0","","","","","","7","","","","","","","","",""
"","","","","","single-stim-button","331","456221","0.0-2.0-65.3-0.3","61fa904ed42cb19beec490d9","F1","batch6","","790","tol_tohand","","","","tol_peg_1","790","790","0","[[0,0,0],[2,3],[0]]","4","[[0,0,0],[1,2],[3]]","18","0","","","","","","7","","","","","","","","",""
"","","","","","single-stim-button","332","456684","0.0-2.0-65.3-1.3","61fa904ed42cb19beec490d9","F1","batch6","","463","tol_toboard","","","","tol_peg_3","463","463","0","[[0,0,0],[2,3],[1]]","4","[[0,0,0],[1,2],[3]]","18","0","","","","","","7","","","","","","","","",""
"","","","","","single-stim-button","333","457260","0.0-2.0-65.4-0.4","61fa904ed42cb19beec490d9","F1","batch6","","575","tol_tohand","","","","tol_peg_2","575","575","0","[[0,0,0],[2,0],[1]]","5","[[0,0,0],[1,2],[3]]","18","0","","","","","","7","","","","","","","","",""
"","","","","","single-stim-button","334","457602","0.0-2.0-65.4-1.4","61fa904ed42cb19beec490d9","F1","batch6","","341","tol_toboard","","","","tol_peg_1","341","341","0","[[3,0,0],[2,0],[1]]","5","[[0,0,0],[1,2],[3]]","18","0","","","","","","7","","","","","","","","",""
"","","","","","single-stim-button","335","457902","0.0-2.0-65.5-0.5","61fa904ed42cb19beec490d9","F1","batch6","","299","tol_tohand","","","","tol_peg_2","299","299","0","[[3,0,0],[0,0],[1]]","6","[[0,0,0],[1,2],[3]]","18","0","","","","","","7","","","","","","","","",""
"","","","","","single-stim-button","336","458406","0.0-2.0-65.5-1.5","61fa904ed42cb19beec490d9","F1","batch6","","503","tol_toboard","","","","tol_peg_1","503","503","0","[[3,2,0],[0,0],[1]]","6","[[0,0,0],[1,2],[3]]","18","0","","","","","","7","","","","","","","","",""
"","","","","","single-stim-button","337","458963","0.0-2.0-65.6-0.6","61fa904ed42cb19beec490d9","F1","batch6","","555","tol_tohand","","","","tol_peg_3","555","555","0","[[3,2,0],[0,0],[0]]","7","[[0,0,0],[1,2],[3]]","18","0","","","","","","7","","","","","","","","",""
"","","","","","single-stim-button","338","459253","0.0-2.0-65.6-1.6","61fa904ed42cb19beec490d9","F1","batch6","","290","tol_toboard","","","","tol_peg_2","290","290","0","[[3,2,0],[1,0],[0]]","7","[[0,0,0],[1,2],[3]]","18","0","","","","","","7","","","","","","","","",""
"","","","","","single-stim-button","339","460193","0.0-2.0-65.7-0.7","61fa904ed42cb19beec490d9","F1","batch6","","939","tol_tohand","","","","tol_peg_1","939","939","0","[[3,0,0],[1,0],[0]]","8","[[0,0,0],[1,2],[3]]","18","0","","","","","","7","","","","","","","","",""
"","","","","","single-stim-button","340","460473","0.0-2.0-65.7-1.7","61fa904ed42cb19beec490d9","F1","batch6","","280","tol_toboard","","","","tol_peg_2","280","280","0","[[3,0,0],[1,2],[0]]","8","[[0,0,0],[1,2],[3]]","18","0","","","","","","7","","","","","","","","",""
"","","","","","single-stim-button","341","460905","0.0-2.0-65.8-0.8","61fa904ed42cb19beec490d9","F1","batch6","","431","tol_tohand","","","","tol_peg_1","431","431","0","[[0,0,0],[1,2],[0]]","9","[[0,0,0],[1,2],[3]]","18","0","","","","","","7","","","","","","","","",""
"","","","","","single-stim-button","342","461346","0.0-2.0-65.8-1.8","61fa904ed42cb19beec490d9","F1","batch6","","441","tol_toboard","","","","tol_peg_3","441","441","0","[[0,0,0],[1,2],[3]]","9","[[0,0,0],[1,2],[3]]","18","0","","","","","","7","","","","","","","","",""
"","","","","","poldrack-single-stim","343","462348","0.0-2.0-66.0","61fa904ed42cb19beec490d9","F1","batch6","","-1","tol_feedback","","","true","","1000","1000","500","","","","","","-1","none","true","1731","8644","","","","","","","","","",""
"","","","","","html-button-response","344","463184","0.0-2.0-67.0","61fa904ed42cb19beec490d9","F1","batch6","","835.6000000238419","tol_trial_num","<div class = centerbox><p class = center-block-text>problem <strong>20</strong> out of 25 problems</p></div>","0","","","","","","","","","","","","","","","","","","","","","","","","",""
"","","","","","single-stim-button","345","464413","0.0-2.0-68.0-0.0","61fa904ed42cb19beec490d9","F1","batch6","","1228","tol_tohand","","","","tol_peg_2","1228","1228","0","[[1,2,0],[0,0],[0]]","1","[[2,1,0],[0,0],[3]]","19","0","","","","","","5","","","","","","","","",""
"","","","","","single-stim-button","346","464712","0.0-2.0-68.0-1.0","61fa904ed42cb19beec490d9","F1","batch6","","299","tol_toboard","","","","tol_peg_3","299","299","0","[[1,2,0],[0,0],[3]]","1","[[2,1,0],[0,0],[3]]","19","0","","","","","","5","","","","","","","","",""
"","","","","","single-stim-button","347","466004","0.0-2.0-68.1-0.1","61fa904ed42cb19beec490d9","F1","batch6","","1291","tol_tohand","","","","tol_peg_1","1291","1291","0","[[1,0,0],[0,0],[3]]","2","[[2,1,0],[0,0],[3]]","19","0","","","","","","5","","","","","","","","",""
"","","","","","single-stim-button","348","466493","0.0-2.0-68.1-1.1","61fa904ed42cb19beec490d9","F1","batch6","","489","tol_toboard","","","","tol_peg_2","489","489","0","[[1,0,0],[2,0],[3]]","2","[[2,1,0],[0,0],[3]]","19","0","","","","","","5","","","","","","","","",""
"","","","","","single-stim-button","349","468457","0.0-2.0-68.2-0.2","61fa904ed42cb19beec490d9","F1","batch6","","1963","tol_tohand","","","","tol_peg_3","1963","1963","0","[[1,0,0],[2,0],[0]]","3","[[2,1,0],[0,0],[3]]","19","0","","","","","","5","","","","","","","","",""
"","","","","","single-stim-button","350","468916","0.0-2.0-68.2-1.2","61fa904ed42cb19beec490d9","F1","batch6","","458","tol_toboard","","","","tol_peg_2","458","458","0","[[1,0,0],[2,3],[0]]","3","[[2,1,0],[0,0],[3]]","19","0","","","","","","5","","","","","","","","",""
"","","","","","single-stim-button","351","469514","0.0-2.0-68.3-0.3","61fa904ed42cb19beec490d9","F1","batch6","","597","tol_tohand","","","","tol_peg_1","597","597","0","[[0,0,0],[2,3],[0]]","4","[[2,1,0],[0,0],[3]]","19","0","","","","","","5","","","","","","","","",""
"","","","","","single-stim-button","352","469989","0.0-2.0-68.3-1.3","61fa904ed42cb19beec490d9","F1","batch6","","474","tol_toboard","","","","tol_peg_3","474","474","0","[[0,0,0],[2,3],[1]]","4","[[2,1,0],[0,0],[3]]","19","0","","","","","","5","","","","","","","","",""
"","","","","","single-stim-button","353","471559","0.0-2.0-68.4-0.4","61fa904ed42cb19beec490d9","F1","batch6","","1569","tol_tohand","","","","tol_peg_2","1569","1569","0","[[0,0,0],[2,0],[1]]","5","[[2,1,0],[0,0],[3]]","19","0","","","","","","5","","","","","","","","",""
"","","","","","single-stim-button","354","472120","0.0-2.0-68.4-1.4","61fa904ed42cb19beec490d9","F1","batch6","","560","tol_toboard","","","","tol_peg_1","560","560","0","[[3,0,0],[2,0],[1]]","5","[[2,1,0],[0,0],[3]]","19","0","","","","","","5","","","","","","","","",""
"","","","","","single-stim-button","355","472859","0.0-2.0-68.5-0.5","61fa904ed42cb19beec490d9","F1","batch6","","738","tol_tohand","","","","tol_peg_3","738","738","0","[[3,0,0],[2,0],[0]]","6","[[2,1,0],[0,0],[3]]","19","0","","","","","","5","","","","","","","","",""
"","","","","","single-stim-button","356","474159","0.0-2.0-68.5-1.5","61fa904ed42cb19beec490d9","F1","batch6","","1299","tol_toboard","","","","tol_peg_2","1299","1299","0","[[3,0,0],[2,1],[0]]","6","[[2,1,0],[0,0],[3]]","19","0","","","","","","5","","","","","","","","",""
