"success","timeout","failed_images","failed_audio","failed_video","trial_type","trial_index","time_elapsed","internal_node_id","subject_id","study_id","session_id","view_history","rt","stimulus","response","task","correct","answer","item","fiar_detect_rt","fiar_detect_correct","total_correct_fiar_detect","post_trial_gap","choices","spm_correct","spm_rt","mouse_click","stim_duration","block_duration","timing_post_trial","current_position","tol_num_moves_made","tol_target","tol_problem_id","tol_rt","key_press","possible_responses","tol_correct","preplanning","tol_rt_per_trial","tol_min_moves"
"true","false","[]","[]","[]","preload","0","1108","0.0-0.0","6234864ec4a6e1aa0229fbd7","B2","batch2","","","","","","","","","","","","","","","","","","","","","","","","","","","","","",""
"true","","","","","fullscreen","1","14424","0.0-1.0-0.0","6234864ec4a6e1aa0229fbd7","B2","batch2","","","","","","","","","","","","","","","","","","","","","","","","","","","","","",""
"true","","","","","fullscreen","2","75559","0.0-2.0-0.0","6234864ec4a6e1aa0229fbd7","B2","batch2","","","","","","","","","","","","","","","","","","","","","","","","","","","","","",""
"","","","","","instructions","3","134260","0.0-2.0-1.0-0.0","6234864ec4a6e1aa0229fbd7","B2","batch2","[{""page_index"":0,""viewing_time"":45912.79999998212},{""page_index"":1,""viewing_time"":12786.200000017881}]","58699.29999998212","","","","","","","","","","","","","","","","","","","","","","","","","","","",""
"","","","","","html-button-response","4","136414","0.0-2.0-1.0-1.0-0.0","6234864ec4a6e1aa0229fbd7","B2","batch2","","2153.7999999821186","<p class=block-text> Let's answer a few questions <br>","0","pattern_enter_quiz","","","","","","","","","","","","","","","","","","","","","","","","",""
"","","","","","html-button-response","5","138505","0.0-2.0-1.0-1.0-1.0","6234864ec4a6e1aa0229fbd7","B2","batch2","","2088.199999988079","<p class = block-text>True or False: You will have as much time as you want to make each choice. <br></p>","1","pattern_quiz","true","","","","","","","","","","","","","","","","","","","","","","","",""
"","","","","","html-button-response","6","139597","0.0-2.0-1.0-1.0-2.0","6234864ec4a6e1aa0229fbd7","B2","batch2","","1091.2999999821186","<p class = block-text>Correct! You should make your choice <strong> as fast as you can</strong>.</p>","0","pattern_quiz_feedback","","","","","","","","","","","","","","","","","","","","","","","","",""
"","","","","","html-button-response","7","141947","0.0-2.0-1.0-1.0-3.0","6234864ec4a6e1aa0229fbd7","B2","batch2","","2348.7999999821186","<p class = block-text>True or False: You will look for 4 pieces in black or white color connected in a row either horizontally, vertically or diagonally. <br></p>","0","pattern_quiz","true","","","","","","","","","","","","","","","","","","","","","","","",""
"","","","","","html-button-response","8","142611","0.0-2.0-1.0-1.0-4.0","6234864ec4a6e1aa0229fbd7","B2","batch2","","662.9000000059605","<p class = block-text>Correct! </p>","0","pattern_quiz_feedback","","","","","","","","","","","","","","","","","","","","","","","","",""
"","","","","","html-button-response","9","143704","0.0-2.0-2.0","6234864ec4a6e1aa0229fbd7","B2","batch2","","1091.699999988079","<p class=block-text> Now that you've understood the game, let's do a few practice trials before we start!<br> <br>","0","pattern_enter_practice","","","","","","","","","","","","","","","","","","","","","","","","",""
"","","","","","image-keyboard-response","10","146519","0.0-2.0-3.0-0.0","6234864ec4a6e1aa0229fbd7","B2","batch2","","2808.9000000059605","stim/prac_yes_20_dia_b1.png","f","pattern_practice","true","f","","","","","","","","","","","","","","","","","","","","","","",""
"","","","","","html-keyboard-response","11","147533","0.0-2.0-3.0-1.0","6234864ec4a6e1aa0229fbd7","B2","batch2","","null","<p style=""font-size:30px;color:green;"">Correct!</p>","null","pattern_feedback","","","","","","","","","","","","","","","","","","","","","","","","",""
"","","","","","image-keyboard-response","12","148332","0.0-2.0-3.0-0.1","6234864ec4a6e1aa0229fbd7","B2","batch2","","796.3000000119209","stim/prac_yes_16_ver_w1.png","f","pattern_practice","true","f","","","","","","","","","","","","","","","","","","","","","","",""
"","","","","","html-keyboard-response","13","149356","0.0-2.0-3.0-1.1","6234864ec4a6e1aa0229fbd7","B2","batch2","","null","<p style=""font-size:30px;color:green;"">Correct!</p>","null","pattern_feedback","","","","","","","","","","","","","","","","","","","","","","","","",""
"","","","","","image-keyboard-response","14","150071","0.0-2.0-3.0-0.2","6234864ec4a6e1aa0229fbd7","B2","batch2","","712","stim/prac_yes_18_hor_w1.png","f","pattern_practice","true","f","","","","","","","","","","","","","","","","","","","","","","",""
"","","","","","html-keyboard-response","15","151081","0.0-2.0-3.0-1.2","6234864ec4a6e1aa0229fbd7","B2","batch2","","null","<p style=""font-size:30px;color:green;"">Correct!</p>","null","pattern_feedback","","","","","","","","","","","","","","","","","","","","","","","","",""
"","","","","","image-keyboard-response","16","152309","0.0-2.0-3.0-0.3","6234864ec4a6e1aa0229fbd7","B2","batch2","","1225.4000000059605","stim/prac_no_16_1.png","j","pattern_practice","true","j","","","","","","","","","","","","","","","","","","","","","","",""
"","","","","","html-keyboard-response","17","153324","0.0-2.0-3.0-1.3","6234864ec4a6e1aa0229fbd7","B2","batch2","","null","<p style=""font-size:30px;color:green;"">Correct!</p>","null","pattern_feedback","","","","","","","","","","","","","","","","","","","","","","","","",""
"","","","","","image-keyboard-response","18","154484","0.0-2.0-3.0-0.4","6234864ec4a6e1aa0229fbd7","B2","batch2","","1158.0999999940395","stim/prac_no_18_1.png","j","pattern_practice","true","j","","","","","","","","","","","","","","","","","","","","","","",""
"","","","","","html-keyboard-response","19","155499","0.0-2.0-3.0-1.4","6234864ec4a6e1aa0229fbd7","B2","batch2","","null","<p style=""font-size:30px;color:green;"">Correct!</p>","null","pattern_feedback","","","","","","","","","","","","","","","","","","","","","","","","",""
"","","","","","html-button-response","20","159799","0.0-2.0-4.0","6234864ec4a6e1aa0229fbd7","B2","batch2","","4297.5999999940395","<p class=block-text> Good job! You are done with practice trials!<br>
        You responded correctly on 100% of the trials.<br>
        Press the button below to start official trials. Now you won't see any feedback about your response</p>","0","pattern_enter_official_trials","","","","","","","","","","","","","","","","","","","","","","","","",""
"","","","","","html-keyboard-response","21","160606","0.0-2.0-5.0-0.0","6234864ec4a6e1aa0229fbd7","B2","batch2","","null","<p class=block-text>Trial 1 out of 78</p>","null","pattern_show_trial_num","","","","","","","","","","","","","","","","","","","","","","","","",""
"","","","","","image-keyboard-response","22","162248","0.0-2.0-5.0-1.0","6234864ec4a6e1aa0229fbd7","B2","batch2","","1637.4000000059605","stim/no_22_1_b.png","j","pattern_response","true","j","pattern_07","1637.4000000059605","true","1","","","","","","","","","","","","","","","","","","",""
"","","","","","html-keyboard-response","23","163563","0.0-2.0-5.0-0.1","6234864ec4a6e1aa0229fbd7","B2","batch2","","null","<p class=block-text>Trial 2 out of 78</p>","null","pattern_show_trial_num","","","","","","","","","","","","","","","","","","","","","","","","",""
"","","","","","image-keyboard-response","24","166524","0.0-2.0-5.0-1.1","6234864ec4a6e1aa0229fbd7","B2","batch2","","2959","stim/no_43_2_b.png","j","pattern_response","true","j","pattern_23","2959","true","2","","","","","","","","","","","","","","","","","","",""
"","","","","","html-keyboard-response","25","167843","0.0-2.0-5.0-0.2","6234864ec4a6e1aa0229fbd7","B2","batch2","","null","<p class=block-text>Trial 3 out of 78</p>","null","pattern_show_trial_num","","","","","","","","","","","","","","","","","","","","","","","","",""
"","","","","","image-keyboard-response","26","172278","0.0-2.0-5.0-1.2","6234864ec4a6e1aa0229fbd7","B2","batch2","","4431.700000017881","stim/no_37_2_w.png","j","pattern_response","true","j","pattern_19","4431.700000017881","true","3","","","","","","","","","","","","","","","","","","",""
"","","","","","html-keyboard-response","27","173588","0.0-2.0-5.0-0.3","6234864ec4a6e1aa0229fbd7","B2","batch2","","null","<p class=block-text>Trial 4 out of 78</p>","null","pattern_show_trial_num","","","","","","","","","","","","","","","","","","","","","","","","",""
"","","","","","image-keyboard-response","28","179214","0.0-2.0-5.0-1.3","6234864ec4a6e1aa0229fbd7","B2","batch2","","5623.0999999940395","stim/yes_63_dia_b1.png","f","pattern_response","true","f","pattern_78","5623.0999999940395","true","4","","","","","","","","","","","","","","","","","","",""
"","","","","","html-keyboard-response","29","180536","0.0-2.0-5.0-0.4","6234864ec4a6e1aa0229fbd7","B2","batch2","","null","<p class=block-text>Trial 5 out of 78</p>","null","pattern_show_trial_num","","","","","","","","","","","","","","","","","","","","","","","","",""
"","","","","","image-keyboard-response","30","188839","0.0-2.0-5.0-1.4","6234864ec4a6e1aa0229fbd7","B2","batch2","","8300.40000000596","stim/no_45_1_w.png","j","pattern_response","true","j","pattern_25","8300.40000000596","true","5","","","","","","","","","","","","","","","","","","",""
"","","","","","html-keyboard-response","31","190143","0.0-2.0-5.0-0.5","6234864ec4a6e1aa0229fbd7","B2","batch2","","null","<p class=block-text>Trial 6 out of 78</p>","null","pattern_show_trial_num","","","","","","","","","","","","","","","","","","","","","","","","",""
"","","","","","image-keyboard-response","32","195203","0.0-2.0-5.0-1.5","6234864ec4a6e1aa0229fbd7","B2","batch2","","5057","stim/no_47_1_b.png","j","pattern_response","true","j","pattern_27","5057","true","6","","","","","","","","","","","","","","","","","","",""
"","","","","","html-keyboard-response","33","196510","0.0-2.0-5.0-0.6","6234864ec4a6e1aa0229fbd7","B2","batch2","","null","<p class=block-text>Trial 7 out of 78</p>","null","pattern_show_trial_num","","","","","","","","","","","","","","","","","","","","","","","","",""
"","","","","","image-keyboard-response","34","202770","0.0-2.0-5.0-1.6","6234864ec4a6e1aa0229fbd7","B2","batch2","","6257.199999988079","stim/yes_44_ver_w1_w.png","j","pattern_response","false","f","pattern_66","6257.199999988079","false","6","","","","","","","","","","","","","","","","","","",""
"","","","","","html-keyboard-response","35","204085","0.0-2.0-5.0-0.7","6234864ec4a6e1aa0229fbd7","B2","batch2","","null","<p class=block-text>Trial 8 out of 78</p>","null","pattern_show_trial_num","","","","","","","","","","","","","","","","","","","","","","","","",""
"","","","","","image-keyboard-response","36","205204","0.0-2.0-5.0-1.7","6234864ec4a6e1aa0229fbd7","B2","batch2","","1115.800000011921","stim/yes_53_ver_b1_b.png","f","pattern_response","true","f","pattern_74","1115.800000011921","true","7","","","","","","","","","","","","","","","","","","",""
"","","","","","html-keyboard-response","37","206509","0.0-2.0-5.0-0.8","6234864ec4a6e1aa0229fbd7","B2","batch2","","null","<p class=block-text>Trial 9 out of 78</p>","null","pattern_show_trial_num","","","","","","","","","","","","","","","","","","","","","","","","",""
"","","","","","image-keyboard-response","38","207653","0.0-2.0-5.0-1.8","6234864ec4a6e1aa0229fbd7","B2","batch2","","1141.8999999761581","stim/yes_70_ver_b1.png","f","pattern_response","true","f","pattern_80","1141.8999999761581","true","8","","","","","","","","","","","","","","","","","","",""
"","","","","","html-keyboard-response","39","208968","0.0-2.0-5.0-0.9","6234864ec4a6e1aa0229fbd7","B2","batch2","","null","<p class=block-text>Trial 10 out of 78</p>","null","pattern_show_trial_num","","","","","","","","","","","","","","","","","","","","","","","","",""
"","","","","","image-keyboard-response","40","214051","0.0-2.0-5.0-1.9","6234864ec4a6e1aa0229fbd7","B2","batch2","","5081","stim/no_39_1_w.png","j","pattern_response","true","j","pattern_21","5081","true","9","","","","","","","","","","","","","","","","","","",""
"","","","","","html-keyboard-response","41","215369","0.0-2.0-5.0-0.10","6234864ec4a6e1aa0229fbd7","B2","batch2","","null","<p class=block-text>Trial 11 out of 78</p>","null","pattern_show_trial_num","","","","","","","","","","","","","","","","","","","","","","","","",""
"","","","","","image-keyboard-response","42","217415","0.0-2.0-5.0-1.10","6234864ec4a6e1aa0229fbd7","B2","batch2","","2043.0999999940395","stim/yes_51_dia_b1.png","f","pattern_response","true","f","pattern_72","2043.0999999940395","true","10","","","","","","","","","","","","","","","","","","",""
"","","","","","html-keyboard-response","43","218738","0.0-2.0-5.0-0.11","6234864ec4a6e1aa0229fbd7","B2","batch2","","null","<p class=block-text>Trial 12 out of 78</p>","null","pattern_show_trial_num","","","","","","","","","","","","","","","","","","","","","","","","",""
"","","","","","image-keyboard-response","44","219731","0.0-2.0-5.0-1.11","6234864ec4a6e1aa0229fbd7","B2","batch2","","989","stim/yes_46_ver_b1_b.png","f","pattern_response","true","f","pattern_68","989","true","11","","","","","","","","","","","","","","","","","","",""
"","","","","","html-keyboard-response","45","221037","0.0-2.0-5.0-0.12","6234864ec4a6e1aa0229fbd7","B2","batch2","","null","<p class=block-text>Trial 13 out of 78</p>","null","pattern_show_trial_num","","","","","","","","","","","","","","","","","","","","","","","","",""
"","","","","","image-keyboard-response","46","221940","0.0-2.0-5.0-1.12","6234864ec4a6e1aa0229fbd7","B2","batch2","","901.0999999940395","stim/yes_23_ver_b1.png","f","pattern_response","true","f","pattern_48","901.0999999940395","true","12","","","","","","","","","","","","","","","","","","",""
"","","","","","html-keyboard-response","47","223252","0.0-2.0-5.0-0.13","6234864ec4a6e1aa0229fbd7","B2","batch2","","null","<p class=block-text>Trial 14 out of 78</p>","null","pattern_show_trial_num","","","","","","","","","","","","","","","","","","","","","","","","",""
"","","","","","image-keyboard-response","48","224784","0.0-2.0-5.0-1.13","6234864ec4a6e1aa0229fbd7","B2","batch2","","1529.699999988079","stim/no_18_1_b.png","j","pattern_response","true","j","pattern_05","1529.699999988079","true","13","","","","","","","","","","","","","","","","","","",""
"","","","","","html-keyboard-response","49","226107","0.0-2.0-5.0-0.14","6234864ec4a6e1aa0229fbd7","B2","batch2","","null","<p class=block-text>Trial 15 out of 78</p>","null","pattern_show_trial_num","","","","","","","","","","","","","","","","","","","","","","","","",""
"","","","","","image-keyboard-response","50","226759","0.0-2.0-5.0-1.14","6234864ec4a6e1aa0229fbd7","B2","batch2","","648.8000000119209","stim/yes_17_ver_b1_b.png","f","pattern_response","true","f","pattern_46","648.8000000119209","true","14","","","","","","","","","","","","","","","","","","",""
"","","","","","html-keyboard-response","51","228074","0.0-2.0-5.0-0.15","6234864ec4a6e1aa0229fbd7","B2","batch2","","null","<p class=block-text>Trial 16 out of 78</p>","null","pattern_show_trial_num","","","","","","","","","","","","","","","","","","","","","","","","",""
"","","","","","image-keyboard-response","52","237173","0.0-2.0-5.0-1.15","6234864ec4a6e1aa0229fbd7","B2","batch2","","9097","stim/no_67_1.png","j","pattern_response","true","j","pattern_39","9097","true","15","","","","","","","","","","","","","","","","","","",""
"","","","","","html-keyboard-response","53","238485","0.0-2.0-5.0-0.16","6234864ec4a6e1aa0229fbd7","B2","batch2","","null","<p class=block-text>Trial 17 out of 78</p>","null","pattern_show_trial_num","","","","","","","","","","","","","","","","","","","","","","","","",""
"","","","","","image-keyboard-response","54","239700","0.0-2.0-5.0-1.16","6234864ec4a6e1aa0229fbd7","B2","batch2","","1211.2999999821186","stim/yes_49_hor_w1_b.png","f","pattern_response","true","f","pattern_70","1211.2999999821186","true","16","","","","","","","","","","","","","","","","","","",""
"","","","","","html-keyboard-response","55","241011","0.0-2.0-5.0-0.17","6234864ec4a6e1aa0229fbd7","B2","batch2","","null","<p class=block-text>Trial 18 out of 78</p>","null","pattern_show_trial_num","","","","","","","","","","","","","","","","","","","","","","","","",""
"","","","","","image-keyboard-response","56","241658","0.0-2.0-5.0-1.17","6234864ec4a6e1aa0229fbd7","B2","batch2","","642.8000000119209","stim/yes_29_hor_b1_b.png","f","pattern_response","true","f","pattern_52","642.8000000119209","true","17","","","","","","","","","","","","","","","","","","",""
"","","","","","html-keyboard-response","57","242977","0.0-2.0-5.0-0.18","6234864ec4a6e1aa0229fbd7","B2","batch2","","null","<p class=block-text>Trial 19 out of 78</p>","null","pattern_show_trial_num","","","","","","","","","","","","","","","","","","","","","","","","",""
"","","","","","image-keyboard-response","58","244158","0.0-2.0-5.0-1.18","6234864ec4a6e1aa0229fbd7","B2","batch2","","1178.800000011921","stim/no_15_1_w.png","j","pattern_response","true","j","pattern_03","1178.800000011921","true","18","","","","","","","","","","","","","","","","","","",""
"","","","","","html-keyboard-response","59","245467","0.0-2.0-5.0-0.19","6234864ec4a6e1aa0229fbd7","B2","batch2","","null","<p class=block-text>Trial 20 out of 78</p>","null","pattern_show_trial_num","","","","","","","","","","","","","","","","","","","","","","","","",""
"","","","","","image-keyboard-response","60","251361","0.0-2.0-5.0-1.19","6234864ec4a6e1aa0229fbd7","B2","batch2","","5891.699999988079","stim/no_51_1.png","j","pattern_response","true","j","pattern_31","5891.699999988079","true","19","","","","","","","","","","","","","","","","","","",""
"","","","","","html-keyboard-response","61","252668","0.0-2.0-5.0-0.20","6234864ec4a6e1aa0229fbd7","B2","batch2","","null","<p class=block-text>Trial 21 out of 78</p>","null","pattern_show_trial_num","","","","","","","","","","","","","","","","","","","","","","","","",""
"","","","","","image-keyboard-response","62","254602","0.0-2.0-5.0-1.20","6234864ec4a6e1aa0229fbd7","B2","batch2","","1930.8999999761581","stim/no_36_1_b.png","j","pattern_response","true","j","pattern_17","1930.8999999761581","true","20","","","","","","","","","","","","","","","","","","",""
"","","","","","html-keyboard-response","63","255917","0.0-2.0-5.0-0.21","6234864ec4a6e1aa0229fbd7","B2","batch2","","null","<p class=block-text>Trial 22 out of 78</p>","null","pattern_show_trial_num","","","","","","","","","","","","","","","","","","","","","","","","",""
"","","","","","image-keyboard-response","64","258025","0.0-2.0-5.0-1.21","6234864ec4a6e1aa0229fbd7","B2","batch2","","2104.699999988079","stim/no_53_1_b.png","f","pattern_response","false","j","pattern_33","2104.699999988079","false","20","","","","","","","","","","","","","","","","","","",""
"","","","","","html-keyboard-response","65","259347","0.0-2.0-5.0-0.22","6234864ec4a6e1aa0229fbd7","B2","batch2","","null","<p class=block-text>Trial 23 out of 78</p>","null","pattern_show_trial_num","","","","","","","","","","","","","","","","","","","","","","","","",""
"","","","","","image-keyboard-response","66","260301","0.0-2.0-5.0-1.22","6234864ec4a6e1aa0229fbd7","B2","batch2","","951.4000000059605","stim/yes_15_dia_b1u_b.png","f","pattern_response","true","f","pattern_44","951.4000000059605","true","21","","","","","","","","","","","","","","","","","","",""
"","","","","","html-keyboard-response","67","261619","0.0-2.0-5.0-0.23","6234864ec4a6e1aa0229fbd7","B2","batch2","","null","<p class=block-text>Trial 24 out of 78</p>","null","pattern_show_trial_num","","","","","","","","","","","","","","","","","","","","","","","","",""
"","","","","","image-keyboard-response","68","264279","0.0-2.0-5.0-1.23","6234864ec4a6e1aa0229fbd7","B2","batch2","","2657.5","stim/no_30_1_b.png","j","pattern_response","true","j","pattern_13","2657.5","true","22","","","","","","","","","","","","","","","","","","",""
"","","","","","html-keyboard-response","69","265594","0.0-2.0-5.0-0.24","6234864ec4a6e1aa0229fbd7","B2","batch2","","null","<p class=block-text>Trial 25 out of 78</p>","null","pattern_show_trial_num","","","","","","","","","","","","","","","","","","","","","","","","",""
"","","","","","image-keyboard-response","70","267000","0.0-2.0-5.0-1.24","6234864ec4a6e1aa0229fbd7","B2","batch2","","1402.4000000059605","stim/yes_26_dia_w2_w.png","j","pattern_response","false","f","pattern_50","1402.4000000059605","false","22","","","","","","","","","","","","","","","","","","",""
"","","","","","html-keyboard-response","71","268317","0.0-2.0-5.0-0.25","6234864ec4a6e1aa0229fbd7","B2","batch2","","null","<p class=block-text>Trial 26 out of 78</p>","null","pattern_show_trial_num","","","","","","","","","","","","","","","","","","","","","","","","",""
"","","","","","image-keyboard-response","72","270928","0.0-2.0-5.0-1.25","6234864ec4a6e1aa0229fbd7","B2","batch2","","2608.0999999940395","stim/no_25_1_b.png","j","pattern_response","true","j","pattern_09","2608.0999999940395","true","23","","","","","","","","","","","","","","","","","","",""
"","","","","","html-keyboard-response","73","272248","0.0-2.0-5.0-0.26","6234864ec4a6e1aa0229fbd7","B2","batch2","","null","<p class=block-text>Trial 27 out of 78</p>","null","pattern_show_trial_num","","","","","","","","","","","","","","","","","","","","","","","","",""
"","","","","","image-keyboard-response","74","273322","0.0-2.0-5.0-1.26","6234864ec4a6e1aa0229fbd7","B2","batch2","","1070.5999999940395","stim/no_12_1.png","j","pattern_response","true","j","pattern_01","1070.5999999940395","true","24","","","","","","","","","","","","","","","","","","",""
"","","","","","html-keyboard-response","75","274648","0.0-2.0-5.0-0.27","6234864ec4a6e1aa0229fbd7","B2","batch2","","null","<p class=block-text>Trial 28 out of 78</p>","null","pattern_show_trial_num","","","","","","","","","","","","","","","","","","","","","","","","",""
"","","","","","image-keyboard-response","76","277213","0.0-2.0-5.0-1.27","6234864ec4a6e1aa0229fbd7","B2","batch2","","2562.9000000059605","stim/yes_36_ver_w1_w.png","f","pattern_response","true","f","pattern_58","2562.9000000059605","true","25","","","","","","","","","","","","","","","","","","",""
"","","","","","html-keyboard-response","77","278532","0.0-2.0-5.0-0.28","6234864ec4a6e1aa0229fbd7","B2","batch2","","null","<p class=block-text>Trial 29 out of 78</p>","null","pattern_show_trial_num","","","","","","","","","","","","","","","","","","","","","","","","",""
"","","","","","image-keyboard-response","78","285186","0.0-2.0-5.0-1.28","6234864ec4a6e1aa0229fbd7","B2","batch2","","6650.399999976158","stim/no_49_2_b.png","j","pattern_response","true","j","pattern_29","6650.399999976158","true","26","","","","","","","","","","","","","","","","","","",""
"","","","","","html-keyboard-response","79","286513","0.0-2.0-5.0-0.29","6234864ec4a6e1aa0229fbd7","B2","batch2","","null","<p class=block-text>Trial 30 out of 78</p>","null","pattern_show_trial_num","","","","","","","","","","","","","","","","","","","","","","","","",""
"","","","","","image-keyboard-response","80","290386","0.0-2.0-5.0-1.29","6234864ec4a6e1aa0229fbd7","B2","batch2","","3869.5999999940395","stim/no_33_1_b.png","j","pattern_response","true","j","pattern_15","3869.5999999940395","true","27","","","","","","","","","","","","","","","","","","",""
"","","","","","html-keyboard-response","81","291691","0.0-2.0-5.0-0.30","6234864ec4a6e1aa0229fbd7","B2","batch2","","null","<p class=block-text>Trial 31 out of 78</p>","null","pattern_show_trial_num","","","","","","","","","","","","","","","","","","","","","","","","",""
"","","","","","image-keyboard-response","82","292558","0.0-2.0-5.0-1.30","6234864ec4a6e1aa0229fbd7","B2","batch2","","863.1999999880791","stim/yes_33_dia_w1_w.png","f","pattern_response","true","f","pattern_56","863.1999999880791","true","28","","","","","","","","","","","","","","","","","","",""
"","","","","","html-keyboard-response","83","293873","0.0-2.0-5.0-0.31","6234864ec4a6e1aa0229fbd7","B2","batch2","","null","<p class=block-text>Trial 32 out of 78</p>","null","pattern_show_trial_num","","","","","","","","","","","","","","","","","","","","","","","","",""
"","","","","","image-keyboard-response","84","296114","0.0-2.0-5.0-1.31","6234864ec4a6e1aa0229fbd7","B2","batch2","","2238.5999999940395","stim/yes_42_dia_w1_w.png","f","pattern_response","true","f","pattern_64","2238.5999999940395","true","29","","","","","","","","","","","","","","","","","","",""
"","","","","","html-keyboard-response","85","297422","0.0-2.0-5.0-0.32","6234864ec4a6e1aa0229fbd7","B2","batch2","","null","<p class=block-text>Trial 33 out of 78</p>","null","pattern_show_trial_num","","","","","","","","","","","","","","","","","","","","","","","","",""
"","","","","","image-keyboard-response","86","300142","0.0-2.0-5.0-1.32","6234864ec4a6e1aa0229fbd7","B2","batch2","","2717.800000011921","stim/yes_37_hor_w1_w.png","f","pattern_response","true","f","pattern_60","2717.800000011921","true","30","","","","","","","","","","","","","","","","","","",""
"","","","","","html-keyboard-response","87","301466","0.0-2.0-5.0-0.33","6234864ec4a6e1aa0229fbd7","B2","batch2","","null","<p class=block-text>Trial 34 out of 78</p>","null","pattern_show_trial_num","","","","","","","","","","","","","","","","","","","","","","","","",""
"","","","","","image-keyboard-response","88","306218","0.0-2.0-5.0-1.33","6234864ec4a6e1aa0229fbd7","B2","batch2","","4749.299999982119","stim/yes_58_dia_w1_w.png","f","pattern_response","true","f","pattern_76","4749.299999982119","true","31","","","","","","","","","","","","","","","","","","",""
"","","","","","html-keyboard-response","89","307530","0.0-2.0-5.0-0.34","6234864ec4a6e1aa0229fbd7","B2","batch2","","null","<p class=block-text>Trial 35 out of 78</p>","null","pattern_show_trial_num","","","","","","","","","","","","","","","","","","","","","","","","",""
"","","","","","image-keyboard-response","90","308268","0.0-2.0-5.0-1.34","6234864ec4a6e1aa0229fbd7","B2","batch2","","734.3000000119209","stim/yes_12_hor_w1_w.png","f","pattern_response","true","f","pattern_42","734.3000000119209","true","32","","","","","","","","","","","","","","","","","","",""
"","","","","","html-keyboard-response","91","309590","0.0-2.0-5.0-0.35","6234864ec4a6e1aa0229fbd7","B2","batch2","","null","<p class=block-text>Trial 36 out of 78</p>","null","pattern_show_trial_num","","","","","","","","","","","","","","","","","","","","","","","","",""
"","","","","","image-keyboard-response","92","313713","0.0-2.0-5.0-1.35","6234864ec4a6e1aa0229fbd7","B2","batch2","","4121.4000000059605","stim/no_28_2.png","j","pattern_response","true","j","pattern_11","4121.4000000059605","true","33","","","","","","","","","","","","","","","","","","",""
"","","","","","html-keyboard-response","93","315028","0.0-2.0-5.0-0.36","6234864ec4a6e1aa0229fbd7","B2","batch2","","null","<p class=block-text>Trial 37 out of 78</p>","null","pattern_show_trial_num","","","","","","","","","","","","","","","","","","","","","","","","",""
"","","","","","image-keyboard-response","94","321585","0.0-2.0-5.0-1.36","6234864ec4a6e1aa0229fbd7","B2","batch2","","6553.9000000059605","stim/no_58_1_w.png","f","pattern_response","false","j","pattern_35","6553.9000000059605","false","33","","","","","","","","","","","","","","","","","","",""
"","","","","","html-keyboard-response","95","322902","0.0-2.0-5.0-0.37","6234864ec4a6e1aa0229fbd7","B2","batch2","","null","<p class=block-text>Trial 38 out of 78</p>","null","pattern_show_trial_num","","","","","","","","","","","","","","","","","","","","","","","","",""
"","","","","","image-keyboard-response","96","323708","0.0-2.0-5.0-1.37","6234864ec4a6e1aa0229fbd7","B2","batch2","","803.3000000119209","stim/yes_39_hor_w1_w.png","f","pattern_response","true","f","pattern_62","803.3000000119209","true","34","","","","","","","","","","","","","","","","","","",""
"","","","","","html-keyboard-response","97","325022","0.0-2.0-5.0-0.38","6234864ec4a6e1aa0229fbd7","B2","batch2","","null","<p class=block-text>Trial 39 out of 78</p>","null","pattern_show_trial_num","","","","","","","","","","","","","","","","","","","","","","","","",""
"","","","","","image-keyboard-response","98","325751","0.0-2.0-5.0-1.38","6234864ec4a6e1aa0229fbd7","B2","batch2","","726.7000000178814","stim/yes_30_ver_b1_b.png","f","pattern_response","true","f","pattern_54","726.7000000178814","true","35","","","","","","","","","","","","","","","","","","",""
"","","","","","image-keyboard-response","99","327655","0.0-2.0-6.0","6234864ec4a6e1aa0229fbd7","B2","batch2","","1399.6000000238419","stim/empty_board.png","j","attention_check","true","j","","","","","500","[""f"",""j""]","","","","","","","","","","","","","","","","",""
"","","","","","html-keyboard-response","100","328471","0.0-2.0-7.0-0.0","6234864ec4a6e1aa0229fbd7","B2","batch2","","null","<p class=block-text>Trial 40 out of 78</p>","null","pattern_show_trial_num","","","","","","","","","","","","","","","","","","","","","","","","",""
"","","","","","image-keyboard-response","101","333263","0.0-2.0-7.0-1.0","6234864ec4a6e1aa0229fbd7","B2","batch2","","4789.200000017881","stim/no_26_1_w.png","j","pattern_response","true","j","pattern_10","4789.200000017881","true","36","","","","","","","","","","","","","","","","","","",""
"","","","","","html-keyboard-response","102","334577","0.0-2.0-7.0-0.1","6234864ec4a6e1aa0229fbd7","B2","batch2","","null","<p class=block-text>Trial 41 out of 78</p>","null","pattern_show_trial_num","","","","","","","","","","","","","","","","","","","","","","","","",""
"","","","","","image-keyboard-response","103","337113","0.0-2.0-7.0-1.1","6234864ec4a6e1aa0229fbd7","B2","batch2","","2532.9000000059605","stim/yes_50_dia_w1.png","f","pattern_response","true","f","pattern_71","2532.9000000059605","true","37","","","","","","","","","","","","","","","","","","",""
"","","","","","html-keyboard-response","104","338426","0.0-2.0-7.0-0.2","6234864ec4a6e1aa0229fbd7","B2","batch2","","null","<p class=block-text>Trial 42 out of 78</p>","null","pattern_show_trial_num","","","","","","","","","","","","","","","","","","","","","","","","",""
"","","","","","image-keyboard-response","105","339225","0.0-2.0-7.0-1.2","6234864ec4a6e1aa0229fbd7","B2","batch2","","795.7000000178814","stim/yes_67_hor_b1.png","f","pattern_response","true","f","pattern_79","795.7000000178814","true","38","","","","","","","","","","","","","","","","","","",""
"","","","","","html-keyboard-response","106","340532","0.0-2.0-7.0-0.3","6234864ec4a6e1aa0229fbd7","B2","batch2","","null","<p class=block-text>Trial 43 out of 78</p>","null","pattern_show_trial_num","","","","","","","","","","","","","","","","","","","","","","","","",""
"","","","","","image-keyboard-response","107","347081","0.0-2.0-7.0-1.3","6234864ec4a6e1aa0229fbd7","B2","batch2","","6545.9000000059605","stim/no_48_1_w.png","f","pattern_response","false","j","pattern_28","6545.9000000059605","false","38","","","","","","","","","","","","","","","","","","",""
"","","","","","html-keyboard-response","108","348397","0.0-2.0-7.0-0.4","6234864ec4a6e1aa0229fbd7","B2","batch2","","null","<p class=block-text>Trial 44 out of 78</p>","null","pattern_show_trial_num","","","","","","","","","","","","","","","","","","","","","","","","",""
"","","","","","image-keyboard-response","109","352692","0.0-2.0-7.0-1.4","6234864ec4a6e1aa0229fbd7","B2","batch2","","4291","stim/no_34_1_b.png","f","pattern_response","false","j","pattern_16","4291","false","38","","","","","","","","","","","","","","","","","","",""
"","","","","","html-keyboard-response","110","354005","0.0-2.0-7.0-0.5","6234864ec4a6e1aa0229fbd7","B2","batch2","","null","<p class=block-text>Trial 45 out of 78</p>","null","pattern_show_trial_num","","","","","","","","","","","","","","","","","","","","","","","","",""
"","","","","","image-keyboard-response","111","354966","0.0-2.0-7.0-1.5","6234864ec4a6e1aa0229fbd7","B2","batch2","","958.5","stim/yes_45_hor_b2_b.png","f","pattern_response","true","f","pattern_67","958.5","true","39","","","","","","","","","","","","","","","","","","",""
"","","","","","html-keyboard-response","112","356273","0.0-2.0-7.0-0.6","6234864ec4a6e1aa0229fbd7","B2","batch2","","null","<p class=block-text>Trial 46 out of 78</p>","null","pattern_show_trial_num","","","","","","","","","","","","","","","","","","","","","","","","",""
"","","","","","image-keyboard-response","113","360831","0.0-2.0-7.0-1.6","6234864ec4a6e1aa0229fbd7","B2","batch2","","4555.800000011921","stim/no_50_1.png","j","pattern_response","true","j","pattern_30","4555.800000011921","true","40","","","","","","","","","","","","","","","","","","",""
"","","","","","html-keyboard-response","114","362163","0.0-2.0-7.0-0.7","6234864ec4a6e1aa0229fbd7","B2","batch2","","null","<p class=block-text>Trial 47 out of 78</p>","null","pattern_show_trial_num","","","","","","","","","","","","","","","","","","","","","","","","",""
"","","","","","image-keyboard-response","115","373567","0.0-2.0-7.0-1.7","6234864ec4a6e1aa0229fbd7","B2","batch2","","11400.299999982119","stim/no_70_2.png","j","pattern_response","true","j","pattern_40","11400.299999982119","true","41","","","","","","","","","","","","","","","","","","",""
"","","","","","html-keyboard-response","116","374877","0.0-2.0-7.0-0.8","6234864ec4a6e1aa0229fbd7","B2","batch2","","null","<p class=block-text>Trial 48 out of 78</p>","null","pattern_show_trial_num","","","","","","","","","","","","","","","","","","","","","","","","",""
"","","","","","image-keyboard-response","117","376388","0.0-2.0-7.0-1.8","6234864ec4a6e1aa0229fbd7","B2","batch2","","1508.300000011921","stim/yes_60_ver_b1_b.png","f","pattern_response","true","f","pattern_77","1508.300000011921","true","42","","","","","","","","","","","","","","","","","","",""
"","","","","","html-keyboard-response","118","377698","0.0-2.0-7.0-0.9","6234864ec4a6e1aa0229fbd7","B2","batch2","","null","<p class=block-text>Trial 49 out of 78</p>","null","pattern_show_trial_num","","","","","","","","","","","","","","","","","","","","","","","","",""
"","","","","","image-keyboard-response","119","384262","0.0-2.0-7.0-1.9","6234864ec4a6e1aa0229fbd7","B2","batch2","","6563","stim/no_62_1_w.png","j","pattern_response","true","j","pattern_36","6563","true","43","","","","","","","","","","","","","","","","","","",""
"","","","","","html-keyboard-response","120","385571","0.0-2.0-7.0-0.10","6234864ec4a6e1aa0229fbd7","B2","batch2","","null","<p class=block-text>Trial 50 out of 78</p>","null","pattern_show_trial_num","","","","","","","","","","","","","","","","","","","","","","","","",""
"","","","","","image-keyboard-response","121","391069","0.0-2.0-7.0-1.10","6234864ec4a6e1aa0229fbd7","B2","batch2","","5493.5999999940395","stim/no_55_1_w.png","j","pattern_response","true","j","pattern_34","5493.5999999940395","true","44","","","","","","","","","","","","","","","","","","",""
"","","","","","html-keyboard-response","122","392375","0.0-2.0-7.0-0.11","6234864ec4a6e1aa0229fbd7","B2","batch2","","null","<p class=block-text>Trial 51 out of 78</p>","null","pattern_show_trial_num","","","","","","","","","","","","","","","","","","","","","","","","",""
"","","","","","image-keyboard-response","123","395302","0.0-2.0-7.0-1.11","6234864ec4a6e1aa0229fbd7","B2","batch2","","2923.699999988079","stim/yes_37_dia_w1.png","j","pattern_response","false","f","pattern_59","2923.699999988079","false","44","","","","","","","","","","","","","","","","","","",""
"","","","","","html-keyboard-response","124","396620","0.0-2.0-7.0-0.12","6234864ec4a6e1aa0229fbd7","B2","batch2","","null","<p class=block-text>Trial 52 out of 78</p>","null","pattern_show_trial_num","","","","","","","","","","","","","","","","","","","","","","","","",""
"","","","","","image-keyboard-response","125","400585","0.0-2.0-7.0-1.12","6234864ec4a6e1aa0229fbd7","B2","batch2","","3962","stim/no_29_1_b.png","j","pattern_response","true","j","pattern_12","3962","true","45","","","","","","","","","","","","","","","","","","",""
"","","","","","html-keyboard-response","126","401902","0.0-2.0-7.0-0.13","6234864ec4a6e1aa0229fbd7","B2","batch2","","null","<p class=block-text>Trial 53 out of 78</p>","null","pattern_show_trial_num","","","","","","","","","","","","","","","","","","","","","","","","",""
"","","","","","image-keyboard-response","127","406440","0.0-2.0-7.0-1.13","6234864ec4a6e1aa0229fbd7","B2","batch2","","4535.0999999940395","stim/no_46_1_b.png","j","pattern_response","true","j","pattern_26","4535.0999999940395","true","46","","","","","","","","","","","","","","","","","","",""
"","","","","","html-keyboard-response","128","407748","0.0-2.0-7.0-0.14","6234864ec4a6e1aa0229fbd7","B2","batch2","","null","<p class=block-text>Trial 54 out of 78</p>","null","pattern_show_trial_num","","","","","","","","","","","","","","","","","","","","","","","","",""
"","","","","","image-keyboard-response","129","410959","0.0-2.0-7.0-1.14","6234864ec4a6e1aa0229fbd7","B2","batch2","","3206.9000000059605","stim/no_42_1_w.png","j","pattern_response","true","j","pattern_22","3206.9000000059605","true","47","","","","","","","","","","","","","","","","","","",""
"","","","","","html-keyboard-response","130","412271","0.0-2.0-7.0-0.15","6234864ec4a6e1aa0229fbd7","B2","batch2","","null","<p class=block-text>Trial 55 out of 78</p>","null","pattern_show_trial_num","","","","","","","","","","","","","","","","","","","","","","","","",""
"","","","","","image-keyboard-response","131","413045","0.0-2.0-7.0-1.15","6234864ec4a6e1aa0229fbd7","B2","batch2","","770.9000000059605","stim/yes_22_ver_w1.png","f","pattern_response","true","f","pattern_47","770.9000000059605","true","48","","","","","","","","","","","","","","","","","","",""
"","","","","","html-keyboard-response","132","414358","0.0-2.0-7.0-0.16","6234864ec4a6e1aa0229fbd7","B2","batch2","","null","<p class=block-text>Trial 56 out of 78</p>","null","pattern_show_trial_num","","","","","","","","","","","","","","","","","","","","","","","","",""
"","","","","","image-keyboard-response","133","415820","0.0-2.0-7.0-1.16","6234864ec4a6e1aa0229fbd7","B2","batch2","","1459.7000000178814","stim/no_20_1_w.png","j","pattern_response","true","j","pattern_06","1459.7000000178814","true","49","","","","","","","","","","","","","","","","","","",""
"","","","","","html-keyboard-response","134","417135","0.0-2.0-7.0-0.17","6234864ec4a6e1aa0229fbd7","B2","batch2","","null","<p class=block-text>Trial 57 out of 78</p>","null","pattern_show_trial_num","","","","","","","","","","","","","","","","","","","","","","","","",""
"","","","","","image-keyboard-response","135","417807","0.0-2.0-7.0-1.17","6234864ec4a6e1aa0229fbd7","B2","batch2","","670.5999999940395","stim/yes_28_ver_b1.png","f","pattern_response","true","f","pattern_51","670.5999999940395","true","50","","","","","","","","","","","","","","","","","","",""
"","","","","","html-keyboard-response","136","419125","0.0-2.0-7.0-0.18","6234864ec4a6e1aa0229fbd7","B2","batch2","","null","<p class=block-text>Trial 58 out of 78</p>","null","pattern_show_trial_num","","","","","","","","","","","","","","","","","","","","","","","","",""
"","","","","","image-keyboard-response","137","421923","0.0-2.0-7.0-1.18","6234864ec4a6e1aa0229fbd7","B2","batch2","","2795.5","stim/yes_40_dia_b1_b.png","f","pattern_response","true","f","pattern_63","2795.5","true","51","","","","","","","","","","","","","","","","","","",""
"","","","","","html-keyboard-response","138","423233","0.0-2.0-7.0-0.19","6234864ec4a6e1aa0229fbd7","B2","batch2","","null","<p class=block-text>Trial 59 out of 78</p>","null","pattern_show_trial_num","","","","","","","","","","","","","","","","","","","","","","","","",""
"","","","","","image-keyboard-response","139","424242","0.0-2.0-7.0-1.19","6234864ec4a6e1aa0229fbd7","B2","batch2","","1005.8999999761581","stim/no_13_2_b.png","j","pattern_response","true","j","pattern_02","1005.8999999761581","true","52","","","","","","","","","","","","","","","","","","",""
"","","","","","html-keyboard-response","140","425557","0.0-2.0-7.0-0.20","6234864ec4a6e1aa0229fbd7","B2","batch2","","null","<p class=block-text>Trial 60 out of 78</p>","null","pattern_show_trial_num","","","","","","","","","","","","","","","","","","","","","","","","",""
"","","","","","image-keyboard-response","141","432762","0.0-2.0-7.0-1.20","6234864ec4a6e1aa0229fbd7","B2","batch2","","7201.800000011921","stim/yes_55_hor_w1_w.png","j","pattern_response","false","f","pattern_75","7201.800000011921","false","52","","","","","","","","","","","","","","","","","","",""
"","","","","","html-keyboard-response","142","434077","0.0-2.0-7.0-0.21","6234864ec4a6e1aa0229fbd7","B2","batch2","","null","<p class=block-text>Trial 61 out of 78</p>","null","pattern_show_trial_num","","","","","","","","","","","","","","","","","","","","","","","","",""
"","","","","","image-keyboard-response","143","434811","0.0-2.0-7.0-1.21","6234864ec4a6e1aa0229fbd7","B2","batch2","","731.3000000119209","stim/yes_14_hor_b1_w.png","f","pattern_response","true","f","pattern_43","731.3000000119209","true","53","","","","","","","","","","","","","","","","","","",""
"","","","","","html-keyboard-response","144","436128","0.0-2.0-7.0-0.22","6234864ec4a6e1aa0229fbd7","B2","batch2","","null","<p class=block-text>Trial 62 out of 78</p>","null","pattern_show_trial_num","","","","","","","","","","","","","","","","","","","","","","","","",""
"","","","","","image-keyboard-response","145","442273","0.0-2.0-7.0-1.22","6234864ec4a6e1aa0229fbd7","B2","batch2","","6143.0999999940395","stim/no_52_1.png","j","pattern_response","true","j","pattern_32","6143.0999999940395","true","54","","","","","","","","","","","","","","","","","","",""
"","","","","","html-keyboard-response","146","443580","0.0-2.0-7.0-0.23","6234864ec4a6e1aa0229fbd7","B2","batch2","","null","<p class=block-text>Trial 63 out of 78</p>","null","pattern_show_trial_num","","","","","","","","","","","","","","","","","","","","","","","","",""
"","","","","","image-keyboard-response","147","452813","0.0-2.0-7.0-1.23","6234864ec4a6e1aa0229fbd7","B2","batch2","","9229.59999999404","stim/no_65_1_b.png","j","pattern_response","true","j","pattern_38","9229.59999999404","true","55","","","","","","","","","","","","","","","","","","",""
"","","","","","html-keyboard-response","148","454138","0.0-2.0-7.0-0.24","6234864ec4a6e1aa0229fbd7","B2","batch2","","null","<p class=block-text>Trial 64 out of 78</p>","null","pattern_show_trial_num","","","","","","","","","","","","","","","","","","","","","","","","",""
"","","","","","image-keyboard-response","149","455028","0.0-2.0-7.0-1.24","6234864ec4a6e1aa0229fbd7","B2","batch2","","887.4000000059605","stim/yes_48_dia_w1_w.png","f","pattern_response","true","f","pattern_69","887.4000000059605","true","56","","","","","","","","","","","","","","","","","","",""
"","","","","","html-keyboard-response","150","456349","0.0-2.0-7.0-0.25","6234864ec4a6e1aa0229fbd7","B2","batch2","","null","<p class=block-text>Trial 65 out of 78</p>","null","pattern_show_trial_num","","","","","","","","","","","","","","","","","","","","","","","","",""
"","","","","","image-keyboard-response","151","458891","0.0-2.0-7.0-1.25","6234864ec4a6e1aa0229fbd7","B2","batch2","","2539.9000000059605","stim/no_38_1_b.png","j","pattern_response","true","j","pattern_20","2539.9000000059605","true","57","","","","","","","","","","","","","","","","","","",""
"","","","","","html-keyboard-response","152","460203","0.0-2.0-7.0-0.26","6234864ec4a6e1aa0229fbd7","B2","batch2","","null","<p class=block-text>Trial 66 out of 78</p>","null","pattern_show_trial_num","","","","","","","","","","","","","","","","","","","","","","","","",""
"","","","","","image-keyboard-response","153","463745","0.0-2.0-7.0-1.26","6234864ec4a6e1aa0229fbd7","B2","batch2","","3513.2999999821186","stim/no_36_2_w.png","j","pattern_response","true","j","pattern_18","3513.2999999821186","true","58","","","","","","","","","","","","","","","","","","",""
"","","","","","html-keyboard-response","154","465063","0.0-2.0-7.0-0.27","6234864ec4a6e1aa0229fbd7","B2","batch2","","null","<p class=block-text>Trial 67 out of 78</p>","null","pattern_show_trial_num","","","","","","","","","","","","","","","","","","","","","","","","",""
"","","","","","image-keyboard-response","155","466488","0.0-2.0-7.0-1.27","6234864ec4a6e1aa0229fbd7","B2","batch2","","1422","stim/yes_52_ver_w1.png","f","pattern_response","true","f","pattern_73","1422","true","59","","","","","","","","","","","","","","","","","","",""
"","","","","","html-keyboard-response","156","467805","0.0-2.0-7.0-0.28","6234864ec4a6e1aa0229fbd7","B2","batch2","","null","<p class=block-text>Trial 68 out of 78</p>","null","pattern_show_trial_num","","","","","","","","","","","","","","","","","","","","","","","","",""
"","","","","","image-keyboard-response","157","469025","0.0-2.0-7.0-1.28","6234864ec4a6e1aa0229fbd7","B2","batch2","","1217.0999999940395","stim/no_23_1.png","j","pattern_response","true","j","pattern_08","1217.0999999940395","true","60","","","","","","","","","","","","","","","","","","",""
"","","","","","html-keyboard-response","158","470345","0.0-2.0-7.0-0.29","6234864ec4a6e1aa0229fbd7","B2","batch2","","null","<p class=block-text>Trial 69 out of 78</p>","null","pattern_show_trial_num","","","","","","","","","","","","","","","","","","","","","","","","",""
"","","","","","image-keyboard-response","159","476406","0.0-2.0-7.0-1.29","6234864ec4a6e1aa0229fbd7","B2","batch2","","6058.0999999940395","stim/no_44_1.png","j","pattern_response","true","j","pattern_24","6058.0999999940395","true","61","","","","","","","","","","","","","","","","","","",""
"","","","","","html-keyboard-response","160","477722","0.0-2.0-7.0-0.30","6234864ec4a6e1aa0229fbd7","B2","batch2","","null","<p class=block-text>Trial 70 out of 78</p>","null","pattern_show_trial_num","","","","","","","","","","","","","","","","","","","","","","","","",""
"","","","","","image-keyboard-response","161","479265","0.0-2.0-7.0-1.30","6234864ec4a6e1aa0229fbd7","B2","batch2","","1539.699999988079","stim/yes_31_hor_b1.png","f","pattern_response","true","f","pattern_55","1539.699999988079","true","62","","","","","","","","","","","","","","","","","","",""
"","","","","","html-keyboard-response","162","480592","0.0-2.0-7.0-0.31","6234864ec4a6e1aa0229fbd7","B2","batch2","","null","<p class=block-text>Trial 71 out of 78</p>","null","pattern_show_trial_num","","","","","","","","","","","","","","","","","","","","","","","","",""
"","","","","","image-keyboard-response","163","481846","0.0-2.0-7.0-1.31","6234864ec4a6e1aa0229fbd7","B2","batch2","","1252.6000000238419","stim/yes_43_ver_w1_w.png","f","pattern_response","true","f","pattern_65","1252.6000000238419","true","63","","","","","","","","","","","","","","","","","","",""
"","","","","","html-keyboard-response","164","483172","0.0-2.0-7.0-0.32","6234864ec4a6e1aa0229fbd7","B2","batch2","","null","<p class=block-text>Trial 72 out of 78</p>","null","pattern_show_trial_num","","","","","","","","","","","","","","","","","","","","","","","","",""
"","","","","","image-keyboard-response","165","485056","0.0-2.0-7.0-1.32","6234864ec4a6e1aa0229fbd7","B2","batch2","","1881.5999999940395","stim/yes_38_hor_b1_b.png","f","pattern_response","true","f","pattern_61","1881.5999999940395","true","64","","","","","","","","","","","","","","","","","","",""
"","","","","","html-keyboard-response","166","486362","0.0-2.0-7.0-0.33","6234864ec4a6e1aa0229fbd7","B2","batch2","","null","<p class=block-text>Trial 73 out of 78</p>","null","pattern_show_trial_num","","","","","","","","","","","","","","","","","","","","","","","","",""
"","","","","","image-keyboard-response","167","487819","0.0-2.0-7.0-1.33","6234864ec4a6e1aa0229fbd7","B2","batch2","","1454","stim/yes_35_dia_b1.png","j","pattern_response","false","f","pattern_57","1454","false","64","","","","","","","","","","","","","","","","","","",""
"","","","","","html-keyboard-response","168","489132","0.0-2.0-7.0-0.34","6234864ec4a6e1aa0229fbd7","B2","batch2","","null","<p class=block-text>Trial 74 out of 78</p>","null","pattern_show_trial_num","","","","","","","","","","","","","","","","","","","","","","","","",""
"","","","","","image-keyboard-response","169","489791","0.0-2.0-7.0-1.34","6234864ec4a6e1aa0229fbd7","B2","batch2","","656.8000000119209","stim/yes_25_hor_b1_b.png","f","pattern_response","true","f","pattern_49","656.8000000119209","true","65","","","","","","","","","","","","","","","","","","",""
"","","","","","html-keyboard-response","170","491108","0.0-2.0-7.0-0.35","6234864ec4a6e1aa0229fbd7","B2","batch2","","null","<p class=block-text>Trial 75 out of 78</p>","null","pattern_show_trial_num","","","","","","","","","","","","","","","","","","","","","","","","",""
"","","","","","image-keyboard-response","171","491935","0.0-2.0-7.0-1.35","6234864ec4a6e1aa0229fbd7","B2","batch2","","824.6000000238419","stim/no_17_1_w.png","j","pattern_response","true","j","pattern_04","824.6000000238419","true","66","","","","","","","","","","","","","","","","","","",""
"","","","","","html-keyboard-response","172","493253","0.0-2.0-7.0-0.36","6234864ec4a6e1aa0229fbd7","B2","batch2","","null","<p class=block-text>Trial 76 out of 78</p>","null","pattern_show_trial_num","","","","","","","","","","","","","","","","","","","","","","","","",""
"","","","","","image-keyboard-response","173","494711","0.0-2.0-7.0-1.36","6234864ec4a6e1aa0229fbd7","B2","batch2","","1455.699999988079","stim/yes_29_ver_w1.png","f","pattern_response","true","f","pattern_53","1455.699999988079","true","67","","","","","","","","","","","","","","","","","","",""
"","","","","","html-keyboard-response","174","496021","0.0-2.0-7.0-0.37","6234864ec4a6e1aa0229fbd7","B2","batch2","","null","<p class=block-text>Trial 77 out of 78</p>","null","pattern_show_trial_num","","","","","","","","","","","","","","","","","","","","","","","","",""
"","","","","","image-keyboard-response","175","496859","0.0-2.0-7.0-1.37","6234864ec4a6e1aa0229fbd7","B2","batch2","","835.4000000059605","stim/yes_17_dia_w1.png","f","pattern_response","true","f","pattern_45","835.4000000059605","true","68","","","","","","","","","","","","","","","","","","",""
"","","","","","html-keyboard-response","176","498174","0.0-2.0-7.0-0.38","6234864ec4a6e1aa0229fbd7","B2","batch2","","null","<p class=block-text>Trial 78 out of 78</p>","null","pattern_show_trial_num","","","","","","","","","","","","","","","","","","","","","","","","",""
"","","","","","image-keyboard-response","177","501151","0.0-2.0-7.0-1.38","6234864ec4a6e1aa0229fbd7","B2","batch2","","2974.4000000059605","stim/no_32_1_w.png","j","pattern_response","true","j","pattern_14","2974.4000000059605","true","69","","","","","","","","","","","","","","","","","","",""
"","","","","","html-button-response","178","514416","0.0-2.0-8.0","6234864ec4a6e1aa0229fbd7","B2","batch2","","12757.200000017881","<p class = block-text>This concludes the 4-in-a-row detection game.Thank you for your responses!<br>
            You responded correctly on 88% of the trials.<br>
            When you are ready, press ""Continue"" button to continue </p>","0","","","","","","","","","","","","","","","","","","","","","","","","","",""
"true","","","","","fullscreen","179","517720","0.0-3.0-0.0","6234864ec4a6e1aa0229fbd7","B2","batch2","","","","","spm_fullscreen","","","","","","","","","","","","","","","","","","","","","","","","",""
"","","","","","html-button-response","180","567641","0.0-3.0-1.0","6234864ec4a6e1aa0229fbd7","B2","batch2","","49918.89999997616","<p class = block-text><b>Instructions</b> <br>This is a widely used intelligence test in research. <br>In this test, a figure with a missing piece will be presented.<br>Below the figure are alternative pieces to complete the figure, only one of which is correct.<br> Different figures might involve different principles for obtaining the missing piece<br>Your job is to select the most logical piece to complete the figure.</p>","0","","","","","","","","","","","","","","","","","","","","","","","","","",""
"","","","","","html-keyboard-response","181","568448","0.0-3.0-2.0-0.0","6234864ec4a6e1aa0229fbd7","B2","batch2","","null","<p class=block-text>Trial 1 out of 60</p>","null","spm_show_trial_num","","","","","","","","","","","","","","","","","","","","","","","","",""
"","","","","","image-button-response","182","576601","0.0-3.0-2.0-1.0","6234864ec4a6e1aa0229fbd7","B2","batch2","","8148.700000017881","img/question_1_1.jpeg","3","spm_respsonse","1","4","mat_01","","","","","","1","8148.700000017881","","","","","","","","","","","","","","",""
"","","","","","html-keyboard-response","183","577676","0.0-3.0-2.0-0.1","6234864ec4a6e1aa0229fbd7","B2","batch2","","null","<p class=block-text>Trial 2 out of 60</p>","null","spm_show_trial_num","","","","","","","","","","","","","","","","","","","","","","","","",""
"","","","","","image-button-response","184","579860","0.0-3.0-2.0-1.1","6234864ec4a6e1aa0229fbd7","B2","batch2","","2180.899999976158","img/question_1_2.jpeg","4","spm_respsonse","1","5","mat_02","","","","","","1","2180.899999976158","","","","","","","","","","","","","","",""
"","","","","","html-keyboard-response","185","580920","0.0-3.0-2.0-0.2","6234864ec4a6e1aa0229fbd7","B2","batch2","","null","<p class=block-text>Trial 3 out of 60</p>","null","spm_show_trial_num","","","","","","","","","","","","","","","","","","","","","","","","",""
"","","","","","image-button-response","186","583425","0.0-3.0-2.0-1.2","6234864ec4a6e1aa0229fbd7","B2","batch2","","2501.5999999940395","img/question_1_3.jpeg","0","spm_respsonse","1","1","mat_03","","","","","","1","2501.5999999940395","","","","","","","","","","","","","","",""
"","","","","","html-keyboard-response","187","584495","0.0-3.0-2.0-0.3","6234864ec4a6e1aa0229fbd7","B2","batch2","","null","<p class=block-text>Trial 4 out of 60</p>","null","spm_show_trial_num","","","","","","","","","","","","","","","","","","","","","","","","",""
"","","","","","image-button-response","188","587296","0.0-3.0-2.0-1.3","6234864ec4a6e1aa0229fbd7","B2","batch2","","2798","img/question_1_4.jpeg","1","spm_respsonse","1","2","mat_04","","","","","","1","2798","","","","","","","","","","","","","","",""
"","","","","","html-keyboard-response","189","588354","0.0-3.0-2.0-0.4","6234864ec4a6e1aa0229fbd7","B2","batch2","","null","<p class=block-text>Trial 5 out of 60</p>","null","spm_show_trial_num","","","","","","","","","","","","","","","","","","","","","","","","",""
"","","","","","image-button-response","190","591853","0.0-3.0-2.0-1.4","6234864ec4a6e1aa0229fbd7","B2","batch2","","3496","img/question_1_5.jpeg","5","spm_respsonse","1","6","mat_05","","","","","","1","3496","","","","","","","","","","","","","","",""
"","","","","","html-keyboard-response","191","592933","0.0-3.0-2.0-0.5","6234864ec4a6e1aa0229fbd7","B2","batch2","","null","<p class=block-text>Trial 6 out of 60</p>","null","spm_show_trial_num","","","","","","","","","","","","","","","","","","","","","","","","",""
"","","","","","image-button-response","192","597512","0.0-3.0-2.0-1.5","6234864ec4a6e1aa0229fbd7","B2","batch2","","4576.0999999940395","img/question_1_6.jpeg","2","spm_respsonse","1","3","mat_06","","","","","","1","4576.0999999940395","","","","","","","","","","","","","","",""
"","","","","","html-keyboard-response","193","598575","0.0-3.0-2.0-0.6","6234864ec4a6e1aa0229fbd7","B2","batch2","","null","<p class=block-text>Trial 7 out of 60</p>","null","spm_show_trial_num","","","","","","","","","","","","","","","","","","","","","","","","",""
"","","","","","image-button-response","194","601888","0.0-3.0-2.0-1.6","6234864ec4a6e1aa0229fbd7","B2","batch2","","3308.9000000059605","img/question_1_7.jpeg","5","spm_respsonse","1","6","mat_07","","","","","","1","3308.9000000059605","","","","","","","","","","","","","","",""
"","","","","","html-keyboard-response","195","602957","0.0-3.0-2.0-0.7","6234864ec4a6e1aa0229fbd7","B2","batch2","","null","<p class=block-text>Trial 8 out of 60</p>","null","spm_show_trial_num","","","","","","","","","","","","","","","","","","","","","","","","",""
"","","","","","image-button-response","196","607552","0.0-3.0-2.0-1.7","6234864ec4a6e1aa0229fbd7","B2","batch2","","4591.699999988079","img/question_1_8.jpeg","1","spm_respsonse","1","2","mat_08","","","","","","1","4591.699999988079","","","","","","","","","","","","","","",""
"","","","","","html-keyboard-response","197","608618","0.0-3.0-2.0-0.8","6234864ec4a6e1aa0229fbd7","B2","batch2","","null","<p class=block-text>Trial 9 out of 60</p>","null","spm_show_trial_num","","","","","","","","","","","","","","","","","","","","","","","","",""
"","","","","","image-button-response","198","611412","0.0-3.0-2.0-1.8","6234864ec4a6e1aa0229fbd7","B2","batch2","","2790.5999999940395","img/question_1_9.jpeg","0","spm_respsonse","1","1","mat_09","","","","","","1","2790.5999999940395","","","","","","","","","","","","","","",""
"","","","","","html-keyboard-response","199","612481","0.0-3.0-2.0-0.9","6234864ec4a6e1aa0229fbd7","B2","batch2","","null","<p class=block-text>Trial 10 out of 60</p>","null","spm_show_trial_num","","","","","","","","","","","","","","","","","","","","","","","","",""
"","","","","","image-button-response","200","617028","0.0-3.0-2.0-1.9","6234864ec4a6e1aa0229fbd7","B2","batch2","","4544.4000000059605","img/question_1_10.jpeg","2","spm_respsonse","1","3","mat_10","","","","","","1","4544.4000000059605","","","","","","","","","","","","","","",""
"","","","","","html-keyboard-response","201","618097","0.0-3.0-2.0-0.10","6234864ec4a6e1aa0229fbd7","B2","batch2","","null","<p class=block-text>Trial 11 out of 60</p>","null","spm_show_trial_num","","","","","","","","","","","","","","","","","","","","","","","","",""
"","","","","","image-button-response","202","623149","0.0-3.0-2.0-1.10","6234864ec4a6e1aa0229fbd7","B2","batch2","","5048.4000000059605","img/question_1_11.jpeg","3","spm_respsonse","1","4","mat_11","","","","","","1","5048.4000000059605","","","","","","","","","","","","","","",""
"","","","","","html-keyboard-response","203","624223","0.0-3.0-2.0-0.11","6234864ec4a6e1aa0229fbd7","B2","batch2","","null","<p class=block-text>Trial 12 out of 60</p>","null","spm_show_trial_num","","","","","","","","","","","","","","","","","","","","","","","","",""
"","","","","","image-button-response","204","630154","0.0-3.0-2.0-1.11","6234864ec4a6e1aa0229fbd7","B2","batch2","","5915.4000000059605","img/question_1_12.jpeg","4","spm_respsonse","1","5","mat_12","","","","","","1","5915.4000000059605","","","","","","","","","","","","","","",""
"","","","","","html-keyboard-response","205","631231","0.0-3.0-2.0-0.12","6234864ec4a6e1aa0229fbd7","B2","batch2","","null","<p class=block-text>Trial 13 out of 60</p>","null","spm_show_trial_num","","","","","","","","","","","","","","","","","","","","","","","","",""
"","","","","","image-button-response","206","633504","0.0-3.0-2.0-1.12","6234864ec4a6e1aa0229fbd7","B2","batch2","","2269.5999999940395","img/question_2_1.jpeg","1","spm_respsonse","1","2","mat_13","","","","","","1","2269.5999999940395","","","","","","","","","","","","","","",""
"","","","","","html-keyboard-response","207","634575","0.0-3.0-2.0-0.13","6234864ec4a6e1aa0229fbd7","B2","batch2","","null","<p class=block-text>Trial 14 out of 60</p>","null","spm_show_trial_num","","","","","","","","","","","","","","","","","","","","","","","","",""
"","","","","","image-button-response","208","638406","0.0-3.0-2.0-1.13","6234864ec4a6e1aa0229fbd7","B2","batch2","","3828.5","img/question_2_2.jpeg","5","spm_respsonse","1","6","mat_14","","","","","","1","3828.5","","","","","","","","","","","","","","",""
"","","","","","html-keyboard-response","209","639477","0.0-3.0-2.0-0.14","6234864ec4a6e1aa0229fbd7","B2","batch2","","null","<p class=block-text>Trial 15 out of 60</p>","null","spm_show_trial_num","","","","","","","","","","","","","","","","","","","","","","","","",""
"","","","","","image-button-response","210","641515","0.0-3.0-2.0-1.14","6234864ec4a6e1aa0229fbd7","B2","batch2","","2034.699999988079","img/question_2_3.jpeg","0","spm_respsonse","1","1","mat_15","","","","","","1","2034.699999988079","","","","","","","","","","","","","","",""
"","","","","","html-keyboard-response","211","642585","0.0-3.0-2.0-0.15","6234864ec4a6e1aa0229fbd7","B2","batch2","","null","<p class=block-text>Trial 16 out of 60</p>","null","spm_show_trial_num","","","","","","","","","","","","","","","","","","","","","","","","",""
"","","","","","image-button-response","212","644725","0.0-3.0-2.0-1.15","6234864ec4a6e1aa0229fbd7","B2","batch2","","2137.5999999940395","img/question_2_4.jpeg","1","spm_respsonse","1","2","mat_16","","","","","","1","2137.5999999940395","","","","","","","","","","","","","","",""
"","","","","","html-keyboard-response","213","645794","0.0-3.0-2.0-0.16","6234864ec4a6e1aa0229fbd7","B2","batch2","","null","<p class=block-text>Trial 17 out of 60</p>","null","spm_show_trial_num","","","","","","","","","","","","","","","","","","","","","","","","",""
"","","","","","image-button-response","214","649165","0.0-3.0-2.0-1.16","6234864ec4a6e1aa0229fbd7","B2","batch2","","3368.300000011921","img/question_2_5.jpeg","0","spm_respsonse","1","1","mat_17","","","","","","1","3368.300000011921","","","","","","","","","","","","","","",""
"","","","","","html-keyboard-response","215","650232","0.0-3.0-2.0-0.17","6234864ec4a6e1aa0229fbd7","B2","batch2","","null","<p class=block-text>Trial 18 out of 60</p>","null","spm_show_trial_num","","","","","","","","","","","","","","","","","","","","","","","","",""
"","","","","","image-button-response","216","653987","0.0-3.0-2.0-1.17","6234864ec4a6e1aa0229fbd7","B2","batch2","","3751.4000000059605","img/question_2_6.jpeg","2","spm_respsonse","1","3","mat_18","","","","","","1","3751.4000000059605","","","","","","","","","","","","","","",""
"","","","","","html-keyboard-response","217","655062","0.0-3.0-2.0-0.18","6234864ec4a6e1aa0229fbd7","B2","batch2","","null","<p class=block-text>Trial 19 out of 60</p>","null","spm_show_trial_num","","","","","","","","","","","","","","","","","","","","","","","","",""
"","","","","","image-button-response","218","659604","0.0-3.0-2.0-1.18","6234864ec4a6e1aa0229fbd7","B2","batch2","","4538.300000011921","img/question_2_7.jpeg","4","spm_respsonse","1","5","mat_19","","","","","","1","4538.300000011921","","","","","","","","","","","","","","",""
"","","","","","html-keyboard-response","219","660680","0.0-3.0-2.0-0.19","6234864ec4a6e1aa0229fbd7","B2","batch2","","null","<p class=block-text>Trial 20 out of 60</p>","null","spm_show_trial_num","","","","","","","","","","","","","","","","","","","","","","","","",""
"","","","","","image-button-response","220","670578","0.0-3.0-2.0-1.19","6234864ec4a6e1aa0229fbd7","B2","batch2","","9894.399999976158","img/question_2_8.jpeg","5","spm_respsonse","1","6","mat_20","","","","","","1","9894.399999976158","","","","","","","","","","","","","","",""
"","","","","","html-keyboard-response","221","671637","0.0-3.0-2.0-0.20","6234864ec4a6e1aa0229fbd7","B2","batch2","","null","<p class=block-text>Trial 21 out of 60</p>","null","spm_show_trial_num","","","","","","","","","","","","","","","","","","","","","","","","",""
"","","","","","image-button-response","222","674827","0.0-3.0-2.0-1.20","6234864ec4a6e1aa0229fbd7","B2","batch2","","3186.2000000178814","img/question_2_9.jpeg","3","spm_respsonse","1","4","mat_21","","","","","","1","3186.2000000178814","","","","","","","","","","","","","","",""
"","","","","","html-keyboard-response","223","675891","0.0-3.0-2.0-0.21","6234864ec4a6e1aa0229fbd7","B2","batch2","","null","<p class=block-text>Trial 22 out of 60</p>","null","spm_show_trial_num","","","","","","","","","","","","","","","","","","","","","","","","",""
"","","","","","image-button-response","224","687752","0.0-3.0-2.0-1.21","6234864ec4a6e1aa0229fbd7","B2","batch2","","11857.5","img/question_2_10.jpeg","2","spm_respsonse","1","3","mat_22","","","","","","1","11857.5","","","","","","","","","","","","","","",""
"","","","","","html-keyboard-response","225","688821","0.0-3.0-2.0-0.22","6234864ec4a6e1aa0229fbd7","B2","batch2","","null","<p class=block-text>Trial 23 out of 60</p>","null","spm_show_trial_num","","","","","","","","","","","","","","","","","","","","","","","","",""
"","","","","","image-button-response","226","692331","0.0-3.0-2.0-1.22","6234864ec4a6e1aa0229fbd7","B2","batch2","","3506.5999999940395","img/question_2_11.jpeg","3","spm_respsonse","1","4","mat_23","","","","","","1","3506.5999999940395","","","","","","","","","","","","","","",""
"","","","","","html-keyboard-response","227","693398","0.0-3.0-2.0-0.23","6234864ec4a6e1aa0229fbd7","B2","batch2","","null","<p class=block-text>Trial 24 out of 60</p>","null","spm_show_trial_num","","","","","","","","","","","","","","","","","","","","","","","","",""
"","","","","","image-button-response","228","703866","0.0-3.0-2.0-1.23","6234864ec4a6e1aa0229fbd7","B2","batch2","","10465","img/question_2_12.jpeg","1","spm_respsonse","0","5","mat_24","","","","","","0","10465","","","","","","","","","","","","","","",""
"","","","","","html-button-response","229","705266","0.0-3.0-3.0","6234864ec4a6e1aa0229fbd7","B2","batch2","","1134.0999999940395","<p class = block-text>Attention check: Please choose 1<br></p>","0","attention_check","true","","","","","","","","","","","","","","","","","","","","","","","",""
"","","","","","html-keyboard-response","230","706071","0.0-3.0-4.0-0.0","6234864ec4a6e1aa0229fbd7","B2","batch2","","null","<p class=block-text>Trial 25 out of 60</p>","null","spm_show_trial_num","","","","","","","","","","","","","","","","","","","","","","","","",""
"","","","","","image-button-response","231","710341","0.0-3.0-4.0-1.0","6234864ec4a6e1aa0229fbd7","B2","batch2","","4266.5","img/question_3_1.jpeg","7","spm_respsonse","1","8","mat_25","","","","","","1","4266.5","","","","","","","","","","","","","","",""
"","","","","","html-keyboard-response","232","711403","0.0-3.0-4.0-0.1","6234864ec4a6e1aa0229fbd7","B2","batch2","","null","<p class=block-text>Trial 26 out of 60</p>","null","spm_show_trial_num","","","","","","","","","","","","","","","","","","","","","","","","",""
"","","","","","image-button-response","233","718447","0.0-3.0-4.0-1.1","6234864ec4a6e1aa0229fbd7","B2","batch2","","7041.300000011921","img/question_3_2.jpeg","1","spm_respsonse","1","2","mat_26","","","","","","1","7041.300000011921","","","","","","","","","","","","","","",""
"","","","","","html-keyboard-response","234","719527","0.0-3.0-4.0-0.2","6234864ec4a6e1aa0229fbd7","B2","batch2","","null","<p class=block-text>Trial 27 out of 60</p>","null","spm_show_trial_num","","","","","","","","","","","","","","","","","","","","","","","","",""
"","","","","","image-button-response","235","736572","0.0-3.0-4.0-1.2","6234864ec4a6e1aa0229fbd7","B2","batch2","","17040.90000000596","img/question_3_3.jpeg","2","spm_respsonse","1","3","mat_27","","","","","","1","17040.90000000596","","","","","","","","","","","","","","",""
"","","","","","html-keyboard-response","236","737641","0.0-3.0-4.0-0.3","6234864ec4a6e1aa0229fbd7","B2","batch2","","null","<p class=block-text>Trial 28 out of 60</p>","null","spm_show_trial_num","","","","","","","","","","","","","","","","","","","","","","","","",""
"","","","","","image-button-response","237","746141","0.0-3.0-4.0-1.3","6234864ec4a6e1aa0229fbd7","B2","batch2","","8495.5","img/question_3_4.jpeg","7","spm_respsonse","1","8","mat_28","","","","","","1","8495.5","","","","","","","","","","","","","","",""
"","","","","","html-keyboard-response","238","747216","0.0-3.0-4.0-0.4","6234864ec4a6e1aa0229fbd7","B2","batch2","","null","<p class=block-text>Trial 29 out of 60</p>","null","spm_show_trial_num","","","","","","","","","","","","","","","","","","","","","","","","",""
"","","","","","image-button-response","239","754267","0.0-3.0-4.0-1.4","6234864ec4a6e1aa0229fbd7","B2","batch2","","7047.699999988079","img/question_3_5.jpeg","6","spm_respsonse","1","7","mat_29","","","","","","1","7047.699999988079","","","","","","","","","","","","","","",""
"","","","","","html-keyboard-response","240","755341","0.0-3.0-4.0-0.5","6234864ec4a6e1aa0229fbd7","B2","batch2","","null","<p class=block-text>Trial 30 out of 60</p>","null","spm_show_trial_num","","","","","","","","","","","","","","","","","","","","","","","","",""
"","","","","","image-button-response","241","763108","0.0-3.0-4.0-1.5","6234864ec4a6e1aa0229fbd7","B2","batch2","","7763.0999999940395","img/question_3_6.jpeg","3","spm_respsonse","1","4","mat_30","","","","","","1","7763.0999999940395","","","","","","","","","","","","","","",""
"","","","","","html-keyboard-response","242","764179","0.0-3.0-4.0-0.6","6234864ec4a6e1aa0229fbd7","B2","batch2","","null","<p class=block-text>Trial 31 out of 60</p>","null","spm_show_trial_num","","","","","","","","","","","","","","","","","","","","","","","","",""
"","","","","","image-button-response","243","771171","0.0-3.0-4.0-1.6","6234864ec4a6e1aa0229fbd7","B2","batch2","","6989.0999999940395","img/question_3_7.jpeg","4","spm_respsonse","1","5","mat_31","","","","","","1","6989.0999999940395","","","","","","","","","","","","","","",""
"","","","","","html-keyboard-response","244","772231","0.0-3.0-4.0-0.7","6234864ec4a6e1aa0229fbd7","B2","batch2","","null","<p class=block-text>Trial 32 out of 60</p>","null","spm_show_trial_num","","","","","","","","","","","","","","","","","","","","","","","","",""
"","","","","","image-button-response","245","782980","0.0-3.0-4.0-1.7","6234864ec4a6e1aa0229fbd7","B2","batch2","","10745.40000000596","img/question_3_8.jpeg","0","spm_respsonse","1","1","mat_32","","","","","","1","10745.40000000596","","","","","","","","","","","","","","",""
"","","","","","html-keyboard-response","246","784061","0.0-3.0-4.0-0.8","6234864ec4a6e1aa0229fbd7","B2","batch2","","null","<p class=block-text>Trial 33 out of 60</p>","null","spm_show_trial_num","","","","","","","","","","","","","","","","","","","","","","","","",""
"","","","","","image-button-response","247","791116","0.0-3.0-4.0-1.8","6234864ec4a6e1aa0229fbd7","B2","batch2","","7051","img/question_3_9.jpeg","0","spm_respsonse","0","7","mat_33","","","","","","0","7051","","","","","","","","","","","","","","",""
"","","","","","html-keyboard-response","248","792186","0.0-3.0-4.0-0.9","6234864ec4a6e1aa0229fbd7","B2","batch2","","null","<p class=block-text>Trial 34 out of 60</p>","null","spm_show_trial_num","","","","","","","","","","","","","","","","","","","","","","","","",""
"","","","","","image-button-response","249","803504","0.0-3.0-4.0-1.9","6234864ec4a6e1aa0229fbd7","B2","batch2","","11314.5","img/question_3_10.jpeg","3","spm_respsonse","0","6","mat_34","","","","","","0","11314.5","","","","","","","","","","","","","","",""
"","","","","","html-keyboard-response","250","804570","0.0-3.0-4.0-0.10","6234864ec4a6e1aa0229fbd7","B2","batch2","","null","<p class=block-text>Trial 35 out of 60</p>","null","spm_show_trial_num","","","","","","","","","","","","","","","","","","","","","","","","",""
"","","","","","image-button-response","251","826064","0.0-3.0-4.0-1.10","6234864ec4a6e1aa0229fbd7","B2","batch2","","21489.69999998808","img/question_3_11.jpeg","4","spm_respsonse","0","1","mat_35","","","","","","0","21489.69999998808","","","","","","","","","","","","","","",""
"","","","","","html-keyboard-response","252","827137","0.0-3.0-4.0-0.11","6234864ec4a6e1aa0229fbd7","B2","batch2","","null","<p class=block-text>Trial 36 out of 60</p>","null","spm_show_trial_num","","","","","","","","","","","","","","","","","","","","","","","","",""
"","","","","","image-button-response","253","839862","0.0-3.0-4.0-1.11","6234864ec4a6e1aa0229fbd7","B2","batch2","","12721.700000017881","img/question_3_12.jpeg","1","spm_respsonse","1","2","mat_36","","","","","","1","12721.700000017881","","","","","","","","","","","","","","",""
"","","","","","html-keyboard-response","254","840938","0.0-3.0-4.0-0.12","6234864ec4a6e1aa0229fbd7","B2","batch2","","null","<p class=block-text>Trial 37 out of 60</p>","null","spm_show_trial_num","","","","","","","","","","","","","","","","","","","","","","","","",""
"","","","","","image-button-response","255","843210","0.0-3.0-4.0-1.12","6234864ec4a6e1aa0229fbd7","B2","batch2","","2267.7999999821186","img/question_4_1.jpeg","2","spm_respsonse","1","3","mat_37","","","","","","1","2267.7999999821186","","","","","","","","","","","","","","",""
"","","","","","html-keyboard-response","256","844281","0.0-3.0-4.0-0.13","6234864ec4a6e1aa0229fbd7","B2","batch2","","null","<p class=block-text>Trial 38 out of 60</p>","null","spm_show_trial_num","","","","","","","","","","","","","","","","","","","","","","","","",""
"","","","","","image-button-response","257","853822","0.0-3.0-4.0-1.13","6234864ec4a6e1aa0229fbd7","B2","batch2","","9538.59999999404","img/question_4_2.jpeg","3","spm_respsonse","1","4","mat_38","","","","","","1","9538.59999999404","","","","","","","","","","","","","","",""
"","","","","","html-keyboard-response","258","854895","0.0-3.0-4.0-0.14","6234864ec4a6e1aa0229fbd7","B2","batch2","","null","<p class=block-text>Trial 39 out of 60</p>","null","spm_show_trial_num","","","","","","","","","","","","","","","","","","","","","","","","",""
"","","","","","image-button-response","259","859280","0.0-3.0-4.0-1.14","6234864ec4a6e1aa0229fbd7","B2","batch2","","4381.9000000059605","img/question_4_3.jpeg","2","spm_respsonse","1","3","mat_39","","","","","","1","4381.9000000059605","","","","","","","","","","","","","","",""
"","","","","","html-keyboard-response","260","860353","0.0-3.0-4.0-0.15","6234864ec4a6e1aa0229fbd7","B2","batch2","","null","<p class=block-text>Trial 40 out of 60</p>","null","spm_show_trial_num","","","","","","","","","","","","","","","","","","","","","","","","",""
"","","","","","image-button-response","261","874664","0.0-3.0-4.0-1.15","6234864ec4a6e1aa0229fbd7","B2","batch2","","14307.800000011921","img/question_4_4.jpeg","6","spm_respsonse","1","7","mat_40","","","","","","1","14307.800000011921","","","","","","","","","","","","","","",""
"","","","","","html-keyboard-response","262","875731","0.0-3.0-4.0-0.16","6234864ec4a6e1aa0229fbd7","B2","batch2","","null","<p class=block-text>Trial 41 out of 60</p>","null","spm_show_trial_num","","","","","","","","","","","","","","","","","","","","","","","","",""
"","","","","","image-button-response","263","883017","0.0-3.0-4.0-1.16","6234864ec4a6e1aa0229fbd7","B2","batch2","","7282.5999999940395","img/question_4_5.jpeg","7","spm_respsonse","1","8","mat_41","","","","","","1","7282.5999999940395","","","","","","","","","","","","","","",""
"","","","","","html-keyboard-response","264","884101","0.0-3.0-4.0-0.17","6234864ec4a6e1aa0229fbd7","B2","batch2","","null","<p class=block-text>Trial 42 out of 60</p>","null","spm_show_trial_num","","","","","","","","","","","","","","","","","","","","","","","","",""
"","","","","","image-button-response","265","898703","0.0-3.0-4.0-1.17","6234864ec4a6e1aa0229fbd7","B2","batch2","","14598.699999988079","img/question_4_6.jpeg","4","spm_respsonse","0","6","mat_42","","","","","","0","14598.699999988079","","","","","","","","","","","","","","",""
"","","","","","html-keyboard-response","266","899776","0.0-3.0-4.0-0.18","6234864ec4a6e1aa0229fbd7","B2","batch2","","null","<p class=block-text>Trial 43 out of 60</p>","null","spm_show_trial_num","","","","","","","","","","","","","","","","","","","","","","","","",""
"","","","","","image-button-response","267","910215","0.0-3.0-4.0-1.18","6234864ec4a6e1aa0229fbd7","B2","batch2","","10435.699999988079","img/question_4_7.jpeg","4","spm_respsonse","1","5","mat_43","","","","","","1","10435.699999988079","","","","","","","","","","","","","","",""
"","","","","","html-keyboard-response","268","911278","0.0-3.0-4.0-0.19","6234864ec4a6e1aa0229fbd7","B2","batch2","","null","<p class=block-text>Trial 44 out of 60</p>","null","spm_show_trial_num","","","","","","","","","","","","","","","","","","","","","","","","",""
"","","","","","image-button-response","269","920406","0.0-3.0-4.0-1.19","6234864ec4a6e1aa0229fbd7","B2","batch2","","9125.300000011921","img/question_4_8.jpeg","3","spm_respsonse","1","4","mat_44","","","","","","1","9125.300000011921","","","","","","","","","","","","","","",""
"","","","","","html-keyboard-response","270","921467","0.0-3.0-4.0-0.20","6234864ec4a6e1aa0229fbd7","B2","batch2","","null","<p class=block-text>Trial 45 out of 60</p>","null","spm_show_trial_num","","","","","","","","","","","","","","","","","","","","","","","","",""
"","","","","","image-button-response","271","924996","0.0-3.0-4.0-1.20","6234864ec4a6e1aa0229fbd7","B2","batch2","","3525.600000023842","img/question_4_9.jpeg","3","spm_respsonse","0","1","mat_45","","","","","","0","3525.600000023842","","","","","","","","","","","","","","",""
"","","","","","html-keyboard-response","272","926070","0.0-3.0-4.0-0.21","6234864ec4a6e1aa0229fbd7","B2","batch2","","null","<p class=block-text>Trial 46 out of 60</p>","null","spm_show_trial_num","","","","","","","","","","","","","","","","","","","","","","","","",""
"","","","","","image-button-response","273","942000","0.0-3.0-4.0-1.21","6234864ec4a6e1aa0229fbd7","B2","batch2","","15926.90000000596","img/question_4_10.jpeg","4","spm_respsonse","0","2","mat_46","","","","","","0","15926.90000000596","","","","","","","","","","","","","","",""
"","","","","","html-keyboard-response","274","943060","0.0-3.0-4.0-0.22","6234864ec4a6e1aa0229fbd7","B2","batch2","","null","<p class=block-text>Trial 47 out of 60</p>","null","spm_show_trial_num","","","","","","","","","","","","","","","","","","","","","","","","",""
"","","","","","image-button-response","275","963791","0.0-3.0-4.0-1.22","6234864ec4a6e1aa0229fbd7","B2","batch2","","20726.80000001192","img/question_4_11.jpeg","5","spm_respsonse","0","5","mat_47","","","","","","0","20726.80000001192","","","","","","","","","","","","","","",""
"","","","","","html-keyboard-response","276","964864","0.0-3.0-4.0-0.23","6234864ec4a6e1aa0229fbd7","B2","batch2","","null","<p class=block-text>Trial 48 out of 60</p>","null","spm_show_trial_num","","","","","","","","","","","","","","","","","","","","","","","","",""
"","","","","","image-button-response","277","988343","0.0-3.0-4.0-1.23","6234864ec4a6e1aa0229fbd7","B2","batch2","","23476.09999999404","img/question_4_12.jpeg","0","spm_respsonse","0","6","mat_48","","","","","","0","23476.09999999404","","","","","","","","","","","","","","",""
"","","","","","html-keyboard-response","278","989414","0.0-3.0-4.0-0.24","6234864ec4a6e1aa0229fbd7","B2","batch2","","null","<p class=block-text>Trial 49 out of 60</p>","null","spm_show_trial_num","","","","","","","","","","","","","","","","","","","","","","","","",""
"","","","","","image-button-response","279","1000365","0.0-3.0-4.0-1.24","6234864ec4a6e1aa0229fbd7","B2","batch2","","10947.40000000596","img/question_5_1.jpeg","6","spm_respsonse","1","7","mat_49","","","","","","1","10947.40000000596","","","","","","","","","","","","","","",""
"","","","","","html-keyboard-response","280","1001425","0.0-3.0-4.0-0.25","6234864ec4a6e1aa0229fbd7","B2","batch2","","null","<p class=block-text>Trial 50 out of 60</p>","null","spm_show_trial_num","","","","","","","","","","","","","","","","","","","","","","","","",""
"","","","","","image-button-response","281","1009543","0.0-3.0-4.0-1.25","6234864ec4a6e1aa0229fbd7","B2","batch2","","8114.9000000059605","img/question_5_2.jpeg","5","spm_respsonse","1","6","mat_50","","","","","","1","8114.9000000059605","","","","","","","","","","","","","","",""
"","","","","","html-keyboard-response","282","1010610","0.0-3.0-4.0-0.26","6234864ec4a6e1aa0229fbd7","B2","batch2","","null","<p class=block-text>Trial 51 out of 60</p>","null","spm_show_trial_num","","","","","","","","","","","","","","","","","","","","","","","","",""
"","","","","","image-button-response","283","1016866","0.0-3.0-4.0-1.26","6234864ec4a6e1aa0229fbd7","B2","batch2","","6252.200000017881","img/question_5_3.jpeg","4","spm_respsonse","0","8","mat_51","","","","","","0","6252.200000017881","","","","","","","","","","","","","","",""
"","","","","","html-keyboard-response","284","1017938","0.0-3.0-4.0-0.27","6234864ec4a6e1aa0229fbd7","B2","batch2","","null","<p class=block-text>Trial 52 out of 60</p>","null","spm_show_trial_num","","","","","","","","","","","","","","","","","","","","","","","","",""
"","","","","","image-button-response","285","1039288","0.0-3.0-4.0-1.27","6234864ec4a6e1aa0229fbd7","B2","batch2","","21346.30000001192","img/question_5_4.jpeg","3","spm_respsonse","0","2","mat_52","","","","","","0","21346.30000001192","","","","","","","","","","","","","","",""
"","","","","","html-keyboard-response","286","1040356","0.0-3.0-4.0-0.28","6234864ec4a6e1aa0229fbd7","B2","batch2","","null","<p class=block-text>Trial 53 out of 60</p>","null","spm_show_trial_num","","","","","","","","","","","","","","","","","","","","","","","","",""
"","","","","","image-button-response","287","1050337","0.0-3.0-4.0-1.28","6234864ec4a6e1aa0229fbd7","B2","batch2","","9977.59999999404","img/question_5_5.jpeg","6","spm_respsonse","0","1","mat_53","","","","","","0","9977.59999999404","","","","","","","","","","","","","","",""
"","","","","","html-keyboard-response","288","1051397","0.0-3.0-4.0-0.29","6234864ec4a6e1aa0229fbd7","B2","batch2","","null","<p class=block-text>Trial 54 out of 60</p>","null","spm_show_trial_num","","","","","","","","","","","","","","","","","","","","","","","","",""
"","","","","","image-button-response","289","1066089","0.0-3.0-4.0-1.29","6234864ec4a6e1aa0229fbd7","B2","batch2","","14688.5","img/question_5_6.jpeg","3","spm_respsonse","0","5","mat_54","","","","","","0","14688.5","","","","","","","","","","","","","","",""
"","","","","","html-keyboard-response","290","1067166","0.0-3.0-4.0-0.30","6234864ec4a6e1aa0229fbd7","B2","batch2","","null","<p class=block-text>Trial 55 out of 60</p>","null","spm_show_trial_num","","","","","","","","","","","","","","","","","","","","","","","","",""
"","","","","","image-button-response","291","1083206","0.0-3.0-4.0-1.30","6234864ec4a6e1aa0229fbd7","B2","batch2","","16036.200000017881","img/question_5_7.jpeg","3","spm_respsonse","0","1","mat_55","","","","","","0","16036.200000017881","","","","","","","","","","","","","","",""
"","","","","","html-keyboard-response","292","1084276","0.0-3.0-4.0-0.31","6234864ec4a6e1aa0229fbd7","B2","batch2","","null","<p class=block-text>Trial 56 out of 60</p>","null","spm_show_trial_num","","","","","","","","","","","","","","","","","","","","","","","","",""
"","","","","","image-button-response","293","1097789","0.0-3.0-4.0-1.31","6234864ec4a6e1aa0229fbd7","B2","batch2","","13509.899999976158","img/question_5_8.jpeg","4","spm_respsonse","0","6","mat_56","","","","","","0","13509.899999976158","","","","","","","","","","","","","","",""
"","","","","","html-keyboard-response","294","1098859","0.0-3.0-4.0-0.32","6234864ec4a6e1aa0229fbd7","B2","batch2","","null","<p class=block-text>Trial 57 out of 60</p>","null","spm_show_trial_num","","","","","","","","","","","","","","","","","","","","","","","","",""
"","","","","","image-button-response","295","1108386","0.0-3.0-4.0-1.32","6234864ec4a6e1aa0229fbd7","B2","batch2","","9523.800000011921","img/question_5_9.jpeg","3","spm_respsonse","0","3","mat_57","","","","","","0","9523.800000011921","","","","","","","","","","","","","","",""
"","","","","","html-keyboard-response","296","1109446","0.0-3.0-4.0-0.33","6234864ec4a6e1aa0229fbd7","B2","batch2","","null","<p class=block-text>Trial 58 out of 60</p>","null","spm_show_trial_num","","","","","","","","","","","","","","","","","","","","","","","","",""
"","","","","","image-button-response","297","1136422","0.0-3.0-4.0-1.33","6234864ec4a6e1aa0229fbd7","B2","batch2","","26972.59999999404","img/question_5_10.jpeg","4","spm_respsonse","0","2","mat_58","","","","","","0","26972.59999999404","","","","","","","","","","","","","","",""
"","","","","","html-keyboard-response","298","1137504","0.0-3.0-4.0-0.34","6234864ec4a6e1aa0229fbd7","B2","batch2","","null","<p class=block-text>Trial 59 out of 60</p>","null","spm_show_trial_num","","","","","","","","","","","","","","","","","","","","","","","","",""
"","","","","","image-button-response","299","1146401","0.0-3.0-4.0-1.34","6234864ec4a6e1aa0229fbd7","B2","batch2","","8892.699999988079","img/question_5_11.jpeg","2","spm_respsonse","0","4","mat_59","","","","","","0","8892.699999988079","","","","","","","","","","","","","","",""
"","","","","","html-keyboard-response","300","1147475","0.0-3.0-4.0-0.35","6234864ec4a6e1aa0229fbd7","B2","batch2","","null","<p class=block-text>Trial 60 out of 60</p>","null","spm_show_trial_num","","","","","","","","","","","","","","","","","","","","","","","","",""
"","","","","","image-button-response","301","1156732","0.0-3.0-4.0-1.35","6234864ec4a6e1aa0229fbd7","B2","batch2","","9253.300000011921","img/question_5_12.jpeg","2","spm_respsonse","0","5","mat_60","","","","","","0","9253.300000011921","","","","","","","","","","","","","","",""
"","","","","","html-button-response","302","1158253","0.0-3.0-5.0","6234864ec4a6e1aa0229fbd7","B2","batch2","","1263.1000000238419","<p class= block-text>This concludes the Standard Progressive Matrix game. Thank you for your responses!<br> When you are ready, click the button continue</p>","0","spm_goodbye","","","","","","","","","","","","","","","","","","","","","","","","",""
"true","","","","","fullscreen","303","1160240","0.0-4.0-0.0","6234864ec4a6e1aa0229fbd7","B2","batch2","","","","","","","","","","","","","","","","","","","","","","","","","","","","","",""
"","","","","","instructions","304","2569299","0.0-4.0-1.0-0.0-0.0","6234864ec4a6e1aa0229fbd7","B2","batch2","[{""page_index"":0,""viewing_time"":1369596.400000006},{""page_index"":1,""viewing_time"":16540.19999998808},{""page_index"":2,""viewing_time"":3227.5},{""page_index"":3,""viewing_time"":11094.5},{""page_index"":4,""viewing_time"":3548.100000023842},{""page_index"":5,""viewing_time"":3397.7999999821186},{""page_index"":6,""viewing_time"":1659.0999999940395}]","1409064.099999994","","","tol-instructions","","","","","","","","","","","","","","","","","","","","","","","","",""
"","","","","","html-button-response","305","2570226","0.0-4.0-1.0-1.0-0.0","6234864ec4a6e1aa0229fbd7","B2","batch2","","926.0999999940395","<p class=block-text> Let's answer a few questions <br>","0","tol_enter_quiz","","","","","","","","","","","","","","","","","","","","","","","","",""
"","","","","","html-button-response","306","2575293","0.0-4.0-1.0-1.0-1.0","6234864ec4a6e1aa0229fbd7","B2","batch2","","5066.199999988079","<p class = block-text>True or False: You can only move the ball on top of a peg. <br></p>","0","tol_quiz","true","","","","","","","","","","","","","","","","","","","","","","","",""
"","","","","","html-button-response","307","2576224","0.0-4.0-1.0-1.0-2.0","6234864ec4a6e1aa0229fbd7","B2","batch2","","929.4000000059605","<p class = block-text>Correct! You can only move the ball on top of a peg.</p>","0","tol_quiz_feedback","","","","","","","","","","","","","","","","","","","","","","","","",""
"","","","","","html-button-response","308","2578797","0.0-4.0-1.0-1.0-3.0","6234864ec4a6e1aa0229fbd7","B2","batch2","","2572.0999999940395","<p class = block-text>True or False: You should try to match your board with the target board with fewest moves possible. <br></p>","0","tol_quiz","true","","","","","","","","","","","","","","","","","","","","","","","",""
"","","","","","html-button-response","309","2579440","0.0-4.0-1.0-1.0-4.0","6234864ec4a6e1aa0229fbd7","B2","batch2","","641.5","<p class = block-text>Correct! </p>","0","tol_quiz_feedback","","","","","","","","","","","","","","","","","","","","","","","","",""
"","","","","","html-button-response","310","2580475","0.0-4.0-2.0","6234864ec4a6e1aa0229fbd7","B2","batch2","","1033.8999999761581","<p class=block-text> Now that you've understood the game, let's practice a few easier examples before we start!<br> <br>","0","","","","","","","","","","","","","","","","","","","","","","","","","",""
"","","","","","single-stim-button","311","2582232","0.0-4.0-3.0-0.0","6234864ec4a6e1aa0229fbd7","B2","batch2","","1755","","","tol_practice","","","","","","","","","","","tol_peg_2","1755","1755","0","[[1,2,0],[0,0],[0]]","1","[[1,2,0],[0,0],[3]]","practice","1755","","","","","",""
"","","","","","single-stim-button","312","2582898","0.0-4.0-3.0-1.0","6234864ec4a6e1aa0229fbd7","B2","batch2","","665","","","tol_practice","","","","","","","","","","","tol_peg_3","665","665","0","[[1,2,0],[0,0],[3]]","1","[[1,2,0],[0,0],[3]]","practice","665","","","","","",""
"","","","","","poldrack-single-stim","313","2583911","0.0-4.0-4.0","6234864ec4a6e1aa0229fbd7","B2","batch2","","-1","","","tol_feedback","true","","","","","","","","","","","1000","1000","500","","","","","","-1","none","true","","0",""
"","","","","","single-stim-button","314","2586256","0.0-4.0-5.0-0.0","6234864ec4a6e1aa0229fbd7","B2","batch2","","2344","","","tol_practice","","","","","","","","","","","tol_peg_1","2344","2344","0","[[1,0,0],[3,0],[0]]","2","[[0,0,0],[3,1],[2]]","practice","2344","","","","","",""
"","","","","","single-stim-button","315","2587177","0.0-4.0-5.0-1.0","6234864ec4a6e1aa0229fbd7","B2","batch2","","921","","","tol_practice","","","","","","","","","","","tol_peg_3","921","921","0","[[1,0,0],[3,0],[2]]","2","[[0,0,0],[3,1],[2]]","practice","921","","","","","",""
"","","","","","single-stim-button","316","2588296","0.0-4.0-5.1-0.1","6234864ec4a6e1aa0229fbd7","B2","batch2","","1118","","","tol_practice","","","","","","","","","","","tol_peg_1","1118","1118","0","[[0,0,0],[3,0],[2]]","3","[[0,0,0],[3,1],[2]]","practice","1118","","","","","",""
"","","","","","single-stim-button","317","2588673","0.0-4.0-5.1-1.1","6234864ec4a6e1aa0229fbd7","B2","batch2","","376","","","tol_practice","","","","","","","","","","","tol_peg_2","376","376","0","[[0,0,0],[3,1],[2]]","3","[[0,0,0],[3,1],[2]]","practice","376","","","","","",""
"","","","","","poldrack-single-stim","318","2589690","0.0-4.0-6.0","6234864ec4a6e1aa0229fbd7","B2","batch2","","-1","","","tol_feedback","true","","","","","","","","","","","1000","1000","500","","","","","","-1","none","true","","0",""
"","","","","","single-stim-button","319","2591375","0.0-4.0-7.0-0.0","6234864ec4a6e1aa0229fbd7","B2","batch2","","1685","","","tol_practice","","","","","","","","","","","tol_peg_1","1685","1685","0","[[1,0,0],[3,0],[0]]","4","[[1,0,0],[2,0],[3]]","practice","1685","","","","","",""
"","","","","","single-stim-button","320","2592939","0.0-4.0-7.0-1.0","6234864ec4a6e1aa0229fbd7","B2","batch2","","1563","","","tol_practice","","","","","","","","","","","tol_peg_1","1563","1563","0","[[1,2,0],[3,0],[0]]","4","[[1,0,0],[2,0],[3]]","practice","1563","","","","","",""
"","","","","","single-stim-button","321","2593472","0.0-4.0-7.1-0.1","6234864ec4a6e1aa0229fbd7","B2","batch2","","533","","","tol_practice","","","","","","","","","","","tol_peg_2","533","533","0","[[1,2,0],[0,0],[0]]","5","[[1,0,0],[2,0],[3]]","practice","533","","","","","",""
"","","","","","single-stim-button","322","2594315","0.0-4.0-7.1-1.1","6234864ec4a6e1aa0229fbd7","B2","batch2","","842","","","tol_practice","","","","","","","","","","","tol_peg_3","842","842","0","[[1,2,0],[0,0],[3]]","5","[[1,0,0],[2,0],[3]]","practice","842","","","","","",""
"","","","","","single-stim-button","323","2594939","0.0-4.0-7.2-0.2","6234864ec4a6e1aa0229fbd7","B2","batch2","","623","","","tol_practice","","","","","","","","","","","tol_peg_1","623","623","0","[[1,0,0],[0,0],[3]]","6","[[1,0,0],[2,0],[3]]","practice","623","","","","","",""
"","","","","","single-stim-button","324","2595293","0.0-4.0-7.2-1.2","6234864ec4a6e1aa0229fbd7","B2","batch2","","354","","","tol_practice","","","","","","","","","","","tol_peg_2","354","354","0","[[1,0,0],[2,0],[3]]","6","[[1,0,0],[2,0],[3]]","practice","354","","","","","",""
"","","","","","poldrack-single-stim","325","2596307","0.0-4.0-8.0","6234864ec4a6e1aa0229fbd7","B2","batch2","","-1","","","tol_feedback","true","","","","","","","","","","","1000","1000","500","","","","","","-1","none","true","","0",""
"","","","","","html-button-response","326","2597888","0.0-4.0-9.0","6234864ec4a6e1aa0229fbd7","B2","batch2","","1580.5999999940395","<div class = centerbox><p class = center-block-text>Great job! You are done with practice trials<br>You are about to start official trials.<br> <br> Problem <strong>1</strong> out of 25 problems</p></div>","0","tol_instruction","","","","","","","","","","","","","","","","","","","","","","","","",""
"","","","","","single-stim-button","327","2602614","0.0-4.0-10.0-0.0","6234864ec4a6e1aa0229fbd7","B2","batch2","","3714","","","tol_tohand","","","","","","","","","","","tol_peg_2","3714","3714","0","[[1,2,0],[0,0],[0]]","1","[[1,3,0],[2,0],[0]]","0","0","","","","","","3"
"","","","","","single-stim-button","328","2603598","0.0-4.0-10.0-1.0","6234864ec4a6e1aa0229fbd7","B2","batch2","","984","","","tol_toboard","","","","","","","","","","","tol_peg_3","984","984","0","[[1,2,0],[0,0],[3]]","1","[[1,3,0],[2,0],[0]]","0","0","","","","","","3"
"","","","","","single-stim-button","329","2604010","0.0-4.0-10.1-0.1","6234864ec4a6e1aa0229fbd7","B2","batch2","","411","","","tol_tohand","","","","","","","","","","","tol_peg_1","411","411","0","[[1,0,0],[0,0],[3]]","2","[[1,3,0],[2,0],[0]]","0","0","","","","","","3"
"","","","","","single-stim-button","330","2604487","0.0-4.0-10.1-1.1","6234864ec4a6e1aa0229fbd7","B2","batch2","","477","","","tol_toboard","","","","","","","","","","","tol_peg_2","477","477","0","[[1,0,0],[2,0],[3]]","2","[[1,3,0],[2,0],[0]]","0","0","","","","","","3"
"","","","","","single-stim-button","331","2606947","0.0-4.0-10.2-0.2","6234864ec4a6e1aa0229fbd7","B2","batch2","","2460","","","tol_tohand","","","","","","","","","","","tol_peg_3","2460","2460","0","[[1,0,0],[2,0],[0]]","3","[[1,3,0],[2,0],[0]]","0","0","","","","","","3"
"","","","","","single-stim-button","332","2607243","0.0-4.0-10.2-1.2","6234864ec4a6e1aa0229fbd7","B2","batch2","","296","","","tol_toboard","","","","","","","","","","","tol_peg_1","296","296","0","[[1,3,0],[2,0],[0]]","3","[[1,3,0],[2,0],[0]]","0","0","","","","","","3"
"","","","","","poldrack-single-stim","333","2608247","0.0-4.0-11.0","6234864ec4a6e1aa0229fbd7","B2","batch2","","-1","","","tol_feedback","true","","","","","","","","","","","1000","1000","500","","","","","","-1","none","true","3714","6585",""
"","","","","","html-button-response","334","2609002","0.0-4.0-12.0","6234864ec4a6e1aa0229fbd7","B2","batch2","","754.4000000059605","<div class = centerbox><p class = center-block-text>problem <strong>2</strong> out of 25 problems</p></div>","0","tol_trial_num","","","","","","","","","","","","","","","","","","","","","","","","",""
"","","","","","single-stim-button","335","2612967","0.0-4.0-13.0-0.0","6234864ec4a6e1aa0229fbd7","B2","batch2","","3964","","","tol_tohand","","","","","","","","","","","tol_peg_1","3964","3964","0","[[1,0,0],[3,0],[0]]","1","[[2,1,3],[0,0],[0]]","1","0","","","","","","5"
"","","","","","single-stim-button","336","2613533","0.0-4.0-13.0-1.0","6234864ec4a6e1aa0229fbd7","B2","batch2","","566","","","tol_toboard","","","","","","","","","","","tol_peg_3","566","566","0","[[1,0,0],[3,0],[2]]","1","[[2,1,3],[0,0],[0]]","1","0","","","","","","5"
"","","","","","single-stim-button","337","2614298","0.0-4.0-13.1-0.1","6234864ec4a6e1aa0229fbd7","B2","batch2","","765","","","tol_tohand","","","","","","","","","","","tol_peg_1","765","765","0","[[0,0,0],[3,0],[2]]","2","[[2,1,3],[0,0],[0]]","1","0","","","","","","5"
"","","","","","single-stim-button","338","2614834","0.0-4.0-13.1-1.1","6234864ec4a6e1aa0229fbd7","B2","batch2","","535","","","tol_toboard","","","","","","","","","","","tol_peg_2","535","535","0","[[0,0,0],[3,1],[2]]","2","[[2,1,3],[0,0],[0]]","1","0","","","","","","5"
"","","","","","single-stim-button","339","2615793","0.0-4.0-13.2-0.2","6234864ec4a6e1aa0229fbd7","B2","batch2","","958","","","tol_tohand","","","","","","","","","","","tol_peg_3","958","958","0","[[0,0,0],[3,1],[0]]","3","[[2,1,3],[0,0],[0]]","1","0","","","","","","5"
"","","","","","single-stim-button","340","2616241","0.0-4.0-13.2-1.2","6234864ec4a6e1aa0229fbd7","B2","batch2","","447","","","tol_toboard","","","","","","","","","","","tol_peg_1","447","447","0","[[2,0,0],[3,1],[0]]","3","[[2,1,3],[0,0],[0]]","1","0","","","","","","5"
"","","","","","single-stim-button","341","2616989","0.0-4.0-13.3-0.3","6234864ec4a6e1aa0229fbd7","B2","batch2","","747","","","tol_tohand","","","","","","","","","","","tol_peg_2","747","747","0","[[2,0,0],[3,0],[0]]","4","[[2,1,3],[0,0],[0]]","1","0","","","","","","5"
"","","","","","single-stim-button","342","2617349","0.0-4.0-13.3-1.3","6234864ec4a6e1aa0229fbd7","B2","batch2","","360","","","tol_toboard","","","","","","","","","","","tol_peg_1","360","360","0","[[2,1,0],[3,0],[0]]","4","[[2,1,3],[0,0],[0]]","1","0","","","","","","5"
"","","","","","single-stim-button","343","2617707","0.0-4.0-13.4-0.4","6234864ec4a6e1aa0229fbd7","B2","batch2","","357","","","tol_tohand","","","","","","","","","","","tol_peg_2","357","357","0","[[2,1,0],[0,0],[0]]","5","[[2,1,3],[0,0],[0]]","1","0","","","","","","5"
"","","","","","single-stim-button","344","2618131","0.0-4.0-13.4-1.4","6234864ec4a6e1aa0229fbd7","B2","batch2","","423","","","tol_toboard","","","","","","","","","","","tol_peg_1","423","423","0","[[2,1,3],[0,0],[0]]","5","[[2,1,3],[0,0],[0]]","1","0","","","","","","5"
"","","","","","poldrack-single-stim","345","2619140","0.0-4.0-14.0","6234864ec4a6e1aa0229fbd7","B2","batch2","","-1","","","tol_feedback","true","","","","","","","","","","","1000","1000","500","","","","","","-1","none","true","3964","6791",""
"","","","","","html-button-response","346","2619846","0.0-4.0-15.0","6234864ec4a6e1aa0229fbd7","B2","batch2","","704.5","<div class = centerbox><p class = center-block-text>problem <strong>3</strong> out of 25 problems</p></div>","0","tol_trial_num","","","","","","","","","","","","","","","","","","","","","","","","",""
"","","","","","single-stim-button","347","2622130","0.0-4.0-16.0-0.0","6234864ec4a6e1aa0229fbd7","B2","batch2","","2284","","","tol_tohand","","","","","","","","","","","tol_peg_1","2284","2284","0","[[2,0,0],[0,0],[1]]","1","[[1,2,0],[3,0],[0]]","2","0","","","","","","4"
