"success","timeout","failed_images","failed_audio","failed_video","trial_type","trial_index","time_elapsed","internal_node_id","subject_id","study_id","session_id","task","rt","stimulus","response","item","answer","correct","spm_correct","spm_rt","view_history","fiar_detect_rt","fiar_detect_correct","total_correct_fiar_detect","post_trial_gap","choices","mouse_click","stim_duration","block_duration","timing_post_trial","current_position","tol_num_moves_made","tol_target","tol_problem_id","tol_rt","key_press","possible_responses","tol_correct","preplanning","tol_rt_per_trial","tol_min_moves"
"true","false","[]","[]","[]","preload","0","1085","0.0-0.0","6234a93224a61094ce06a76f","D2","batch4","","","","","","","","","","","","","","","","","","","","","","","","","","","","","",""
"true","","","","","fullscreen","1","7968","0.0-1.0-0.0","6234a93224a61094ce06a76f","D2","batch4","","","","","","","","","","","","","","","","","","","","","","","","","","","","","",""
"true","","","","","fullscreen","2","10995","0.0-2.0-0.0","6234a93224a61094ce06a76f","D2","batch4","spm_fullscreen","","","","","","","","","","","","","","","","","","","","","","","","","","","","",""
"","","","","","html-button-response","3","21817","0.0-2.0-1.0","6234a93224a61094ce06a76f","D2","batch4","","10820.59999999404","<p class = block-text><b>Instructions</b> <br>This is a widely used intelligence test in research. <br>In this test, a figure with a missing piece will be presented.<br>Below the figure are alternative pieces to complete the figure, only one of which is correct.<br> Different figures might involve different principles for obtaining the missing piece<br>Your job is to select the most logical piece to complete the figure.</p>","0","","","","","","","","","","","","","","","","","","","","","","","","","",""
"","","","","","html-keyboard-response","4","22622","0.0-2.0-2.0-0.0","6234a93224a61094ce06a76f","D2","batch4","spm_show_trial_num","null","<p class=block-text>Trial 1 out of 60</p>","null","","","","","","","","","","","","","","","","","","","","","","","","","",""
"","","","","","image-button-response","5","27071","0.0-2.0-2.0-1.0","6234a93224a61094ce06a76f","D2","batch4","spm_respsonse","4438.800000011921","img/question_1_1.jpeg","3","mat_01","4","1","1","4438.800000011921","","","","","","","","","","","","","","","","","","","","",""
"","","","","","html-keyboard-response","6","28135","0.0-2.0-2.0-0.1","6234a93224a61094ce06a76f","D2","batch4","spm_show_trial_num","null","<p class=block-text>Trial 2 out of 60</p>","null","","","","","","","","","","","","","","","","","","","","","","","","","",""
"","","","","","image-button-response","7","30752","0.0-2.0-2.0-1.1","6234a93224a61094ce06a76f","D2","batch4","spm_respsonse","2615.300000011921","img/question_1_2.jpeg","4","mat_02","5","1","1","2615.300000011921","","","","","","","","","","","","","","","","","","","","",""
"","","","","","html-keyboard-response","8","31815","0.0-2.0-2.0-0.2","6234a93224a61094ce06a76f","D2","batch4","spm_show_trial_num","null","<p class=block-text>Trial 3 out of 60</p>","null","","","","","","","","","","","","","","","","","","","","","","","","","",""
"","","","","","image-button-response","9","35969","0.0-2.0-2.0-1.2","6234a93224a61094ce06a76f","D2","batch4","spm_respsonse","4152.4000000059605","img/question_1_3.jpeg","0","mat_03","1","1","1","4152.4000000059605","","","","","","","","","","","","","","","","","","","","",""
"","","","","","html-keyboard-response","10","37031","0.0-2.0-2.0-0.3","6234a93224a61094ce06a76f","D2","batch4","spm_show_trial_num","null","<p class=block-text>Trial 4 out of 60</p>","null","","","","","","","","","","","","","","","","","","","","","","","","","",""
"","","","","","image-button-response","11","39050","0.0-2.0-2.0-1.3","6234a93224a61094ce06a76f","D2","batch4","spm_respsonse","2016.5","img/question_1_4.jpeg","1","mat_04","2","1","1","2016.5","","","","","","","","","","","","","","","","","","","","",""
"","","","","","html-keyboard-response","12","40111","0.0-2.0-2.0-0.4","6234a93224a61094ce06a76f","D2","batch4","spm_show_trial_num","null","<p class=block-text>Trial 5 out of 60</p>","null","","","","","","","","","","","","","","","","","","","","","","","","","",""
"","","","","","image-button-response","13","43561","0.0-2.0-2.0-1.4","6234a93224a61094ce06a76f","D2","batch4","spm_respsonse","3447.800000011921","img/question_1_5.jpeg","5","mat_05","6","1","1","3447.800000011921","","","","","","","","","","","","","","","","","","","","",""
"","","","","","html-keyboard-response","14","44623","0.0-2.0-2.0-0.5","6234a93224a61094ce06a76f","D2","batch4","spm_show_trial_num","null","<p class=block-text>Trial 6 out of 60</p>","null","","","","","","","","","","","","","","","","","","","","","","","","","",""
"","","","","","image-button-response","15","48393","0.0-2.0-2.0-1.5","6234a93224a61094ce06a76f","D2","batch4","spm_respsonse","3767.5","img/question_1_6.jpeg","2","mat_06","3","1","1","3767.5","","","","","","","","","","","","","","","","","","","","",""
"","","","","","html-keyboard-response","16","49455","0.0-2.0-2.0-0.6","6234a93224a61094ce06a76f","D2","batch4","spm_show_trial_num","null","<p class=block-text>Trial 7 out of 60</p>","null","","","","","","","","","","","","","","","","","","","","","","","","","",""
"","","","","","image-button-response","17","55338","0.0-2.0-2.0-1.6","6234a93224a61094ce06a76f","D2","batch4","spm_respsonse","5881.700000017881","img/question_1_7.jpeg","5","mat_07","6","1","1","5881.700000017881","","","","","","","","","","","","","","","","","","","","",""
"","","","","","html-keyboard-response","18","56399","0.0-2.0-2.0-0.7","6234a93224a61094ce06a76f","D2","batch4","spm_show_trial_num","null","<p class=block-text>Trial 8 out of 60</p>","null","","","","","","","","","","","","","","","","","","","","","","","","","",""
"","","","","","image-button-response","19","61815","0.0-2.0-2.0-1.7","6234a93224a61094ce06a76f","D2","batch4","spm_respsonse","5414.4000000059605","img/question_1_8.jpeg","1","mat_08","2","1","1","5414.4000000059605","","","","","","","","","","","","","","","","","","","","",""
"","","","","","html-keyboard-response","20","62879","0.0-2.0-2.0-0.8","6234a93224a61094ce06a76f","D2","batch4","spm_show_trial_num","null","<p class=block-text>Trial 9 out of 60</p>","null","","","","","","","","","","","","","","","","","","","","","","","","","",""
"","","","","","image-button-response","21","66616","0.0-2.0-2.0-1.8","6234a93224a61094ce06a76f","D2","batch4","spm_respsonse","3734.9000000059605","img/question_1_9.jpeg","0","mat_09","1","1","1","3734.9000000059605","","","","","","","","","","","","","","","","","","","","",""
"","","","","","html-keyboard-response","22","67679","0.0-2.0-2.0-0.9","6234a93224a61094ce06a76f","D2","batch4","spm_show_trial_num","null","<p class=block-text>Trial 10 out of 60</p>","null","","","","","","","","","","","","","","","","","","","","","","","","","",""
"","","","","","image-button-response","23","73975","0.0-2.0-2.0-1.9","6234a93224a61094ce06a76f","D2","batch4","spm_respsonse","6293.4000000059605","img/question_1_10.jpeg","2","mat_10","3","1","1","6293.4000000059605","","","","","","","","","","","","","","","","","","","","",""
"","","","","","html-keyboard-response","24","75039","0.0-2.0-2.0-0.10","6234a93224a61094ce06a76f","D2","batch4","spm_show_trial_num","null","<p class=block-text>Trial 11 out of 60</p>","null","","","","","","","","","","","","","","","","","","","","","","","","","",""
"","","","","","image-button-response","25","85749","0.0-2.0-2.0-1.10","6234a93224a61094ce06a76f","D2","batch4","spm_respsonse","10707.399999976158","img/question_1_11.jpeg","3","mat_11","4","1","1","10707.399999976158","","","","","","","","","","","","","","","","","","","","",""
"","","","","","html-keyboard-response","26","86814","0.0-2.0-2.0-0.11","6234a93224a61094ce06a76f","D2","batch4","spm_show_trial_num","null","<p class=block-text>Trial 12 out of 60</p>","null","","","","","","","","","","","","","","","","","","","","","","","","","",""
"","","","","","image-button-response","27","108225","0.0-2.0-2.0-1.11","6234a93224a61094ce06a76f","D2","batch4","spm_respsonse","21409","img/question_1_12.jpeg","4","mat_12","5","1","1","21409","","","","","","","","","","","","","","","","","","","","",""
"","","","","","html-keyboard-response","28","109285","0.0-2.0-2.0-0.12","6234a93224a61094ce06a76f","D2","batch4","spm_show_trial_num","null","<p class=block-text>Trial 13 out of 60</p>","null","","","","","","","","","","","","","","","","","","","","","","","","","",""
"","","","","","image-button-response","29","111923","0.0-2.0-2.0-1.12","6234a93224a61094ce06a76f","D2","batch4","spm_respsonse","2633.9000000059605","img/question_2_1.jpeg","1","mat_13","2","1","1","2633.9000000059605","","","","","","","","","","","","","","","","","","","","",""
"","","","","","html-keyboard-response","30","112992","0.0-2.0-2.0-0.13","6234a93224a61094ce06a76f","D2","batch4","spm_show_trial_num","null","<p class=block-text>Trial 14 out of 60</p>","null","","","","","","","","","","","","","","","","","","","","","","","","","",""
"","","","","","image-button-response","31","117551","0.0-2.0-2.0-1.13","6234a93224a61094ce06a76f","D2","batch4","spm_respsonse","4557.199999988079","img/question_2_2.jpeg","5","mat_14","6","1","1","4557.199999988079","","","","","","","","","","","","","","","","","","","","",""
"","","","","","html-keyboard-response","32","118613","0.0-2.0-2.0-0.14","6234a93224a61094ce06a76f","D2","batch4","spm_show_trial_num","null","<p class=block-text>Trial 15 out of 60</p>","null","","","","","","","","","","","","","","","","","","","","","","","","","",""
"","","","","","image-button-response","33","121577","0.0-2.0-2.0-1.14","6234a93224a61094ce06a76f","D2","batch4","spm_respsonse","2961.9000000059605","img/question_2_3.jpeg","0","mat_15","1","1","1","2961.9000000059605","","","","","","","","","","","","","","","","","","","","",""
"","","","","","html-keyboard-response","34","122638","0.0-2.0-2.0-0.15","6234a93224a61094ce06a76f","D2","batch4","spm_show_trial_num","null","<p class=block-text>Trial 16 out of 60</p>","null","","","","","","","","","","","","","","","","","","","","","","","","","",""
"","","","","","image-button-response","35","125628","0.0-2.0-2.0-1.15","6234a93224a61094ce06a76f","D2","batch4","spm_respsonse","2987.800000011921","img/question_2_4.jpeg","1","mat_16","2","1","1","2987.800000011921","","","","","","","","","","","","","","","","","","","","",""
"","","","","","html-keyboard-response","36","126693","0.0-2.0-2.0-0.16","6234a93224a61094ce06a76f","D2","batch4","spm_show_trial_num","null","<p class=block-text>Trial 17 out of 60</p>","null","","","","","","","","","","","","","","","","","","","","","","","","","",""
"","","","","","image-button-response","37","132574","0.0-2.0-2.0-1.16","6234a93224a61094ce06a76f","D2","batch4","spm_respsonse","5878.9000000059605","img/question_2_5.jpeg","0","mat_17","1","1","1","5878.9000000059605","","","","","","","","","","","","","","","","","","","","",""
"","","","","","html-keyboard-response","38","133638","0.0-2.0-2.0-0.17","6234a93224a61094ce06a76f","D2","batch4","spm_show_trial_num","null","<p class=block-text>Trial 18 out of 60</p>","null","","","","","","","","","","","","","","","","","","","","","","","","","",""
"","","","","","image-button-response","39","138814","0.0-2.0-2.0-1.17","6234a93224a61094ce06a76f","D2","batch4","spm_respsonse","5173.799999982119","img/question_2_6.jpeg","2","mat_18","3","1","1","5173.799999982119","","","","","","","","","","","","","","","","","","","","",""
"","","","","","html-keyboard-response","40","139879","0.0-2.0-2.0-0.18","6234a93224a61094ce06a76f","D2","batch4","spm_show_trial_num","null","<p class=block-text>Trial 19 out of 60</p>","null","","","","","","","","","","","","","","","","","","","","","","","","","",""
"","","","","","image-button-response","41","144993","0.0-2.0-2.0-1.18","6234a93224a61094ce06a76f","D2","batch4","spm_respsonse","5112.5","img/question_2_7.jpeg","4","mat_19","5","1","1","5112.5","","","","","","","","","","","","","","","","","","","","",""
"","","","","","html-keyboard-response","42","146053","0.0-2.0-2.0-0.19","6234a93224a61094ce06a76f","D2","batch4","spm_show_trial_num","null","<p class=block-text>Trial 20 out of 60</p>","null","","","","","","","","","","","","","","","","","","","","","","","","","",""
"","","","","","image-button-response","43","152260","0.0-2.0-2.0-1.19","6234a93224a61094ce06a76f","D2","batch4","spm_respsonse","6205.399999976158","img/question_2_8.jpeg","5","mat_20","6","1","1","6205.399999976158","","","","","","","","","","","","","","","","","","","","",""
"","","","","","html-keyboard-response","44","153325","0.0-2.0-2.0-0.20","6234a93224a61094ce06a76f","D2","batch4","spm_show_trial_num","null","<p class=block-text>Trial 21 out of 60</p>","null","","","","","","","","","","","","","","","","","","","","","","","","","",""
"","","","","","image-button-response","45","162230","0.0-2.0-2.0-1.20","6234a93224a61094ce06a76f","D2","batch4","spm_respsonse","8902.800000011921","img/question_2_9.jpeg","3","mat_21","4","1","1","8902.800000011921","","","","","","","","","","","","","","","","","","","","",""
"","","","","","html-keyboard-response","46","163287","0.0-2.0-2.0-0.21","6234a93224a61094ce06a76f","D2","batch4","spm_show_trial_num","null","<p class=block-text>Trial 22 out of 60</p>","null","","","","","","","","","","","","","","","","","","","","","","","","","",""
"","","","","","image-button-response","47","167234","0.0-2.0-2.0-1.21","6234a93224a61094ce06a76f","D2","batch4","spm_respsonse","3943.199999988079","img/question_2_10.jpeg","2","mat_22","3","1","1","3943.199999988079","","","","","","","","","","","","","","","","","","","","",""
"","","","","","html-keyboard-response","48","168301","0.0-2.0-2.0-0.22","6234a93224a61094ce06a76f","D2","batch4","spm_show_trial_num","null","<p class=block-text>Trial 23 out of 60</p>","null","","","","","","","","","","","","","","","","","","","","","","","","","",""
"","","","","","image-button-response","49","175795","0.0-2.0-2.0-1.22","6234a93224a61094ce06a76f","D2","batch4","spm_respsonse","7492.0999999940395","img/question_2_11.jpeg","3","mat_23","4","1","1","7492.0999999940395","","","","","","","","","","","","","","","","","","","","",""
"","","","","","html-keyboard-response","50","176861","0.0-2.0-2.0-0.23","6234a93224a61094ce06a76f","D2","batch4","spm_show_trial_num","null","<p class=block-text>Trial 24 out of 60</p>","null","","","","","","","","","","","","","","","","","","","","","","","","","",""
"","","","","","image-button-response","51","200236","0.0-2.0-2.0-1.23","6234a93224a61094ce06a76f","D2","batch4","spm_respsonse","23373.90000000596","img/question_2_12.jpeg","4","mat_24","5","1","1","23373.90000000596","","","","","","","","","","","","","","","","","","","","",""
"","","","","","html-button-response","52","202424","0.0-2.0-3.0","6234a93224a61094ce06a76f","D2","batch4","attention_check","1931.199999988079","<p class = block-text>Attention check: Please choose 1<br></p>","0","","","true","","","","","","","","","","","","","","","","","","","","","","",""
"","","","","","html-keyboard-response","53","203228","0.0-2.0-4.0-0.0","6234a93224a61094ce06a76f","D2","batch4","spm_show_trial_num","null","<p class=block-text>Trial 25 out of 60</p>","null","","","","","","","","","","","","","","","","","","","","","","","","","",""
"","","","","","image-button-response","54","210291","0.0-2.0-4.0-1.0","6234a93224a61094ce06a76f","D2","batch4","spm_respsonse","7060.5","img/question_3_1.jpeg","7","mat_25","8","1","1","7060.5","","","","","","","","","","","","","","","","","","","","",""
"","","","","","html-keyboard-response","55","211356","0.0-2.0-4.0-0.1","6234a93224a61094ce06a76f","D2","batch4","spm_show_trial_num","null","<p class=block-text>Trial 26 out of 60</p>","null","","","","","","","","","","","","","","","","","","","","","","","","","",""
"","","","","","image-button-response","56","217560","0.0-2.0-4.0-1.1","6234a93224a61094ce06a76f","D2","batch4","spm_respsonse","6200.5999999940395","img/question_3_2.jpeg","1","mat_26","2","1","1","6200.5999999940395","","","","","","","","","","","","","","","","","","","","",""
"","","","","","html-keyboard-response","57","218620","0.0-2.0-4.0-0.2","6234a93224a61094ce06a76f","D2","batch4","spm_show_trial_num","null","<p class=block-text>Trial 27 out of 60</p>","null","","","","","","","","","","","","","","","","","","","","","","","","","",""
"","","","","","image-button-response","58","223643","0.0-2.0-4.0-1.2","6234a93224a61094ce06a76f","D2","batch4","spm_respsonse","5020","img/question_3_3.jpeg","2","mat_27","3","1","1","5020","","","","","","","","","","","","","","","","","","","","",""
"","","","","","html-keyboard-response","59","224708","0.0-2.0-4.0-0.3","6234a93224a61094ce06a76f","D2","batch4","spm_show_trial_num","null","<p class=block-text>Trial 28 out of 60</p>","null","","","","","","","","","","","","","","","","","","","","","","","","","",""
"","","","","","image-button-response","60","237009","0.0-2.0-4.0-1.3","6234a93224a61094ce06a76f","D2","batch4","spm_respsonse","12299.199999988079","img/question_3_4.jpeg","7","mat_28","8","1","1","12299.199999988079","","","","","","","","","","","","","","","","","","","","",""
"","","","","","html-keyboard-response","61","238075","0.0-2.0-4.0-0.4","6234a93224a61094ce06a76f","D2","batch4","spm_show_trial_num","null","<p class=block-text>Trial 29 out of 60</p>","null","","","","","","","","","","","","","","","","","","","","","","","","","",""
"","","","","","image-button-response","62","246001","0.0-2.0-4.0-1.4","6234a93224a61094ce06a76f","D2","batch4","spm_respsonse","7924.199999988079","img/question_3_5.jpeg","6","mat_29","7","1","1","7924.199999988079","","","","","","","","","","","","","","","","","","","","",""
"","","","","","html-keyboard-response","63","247068","0.0-2.0-4.0-0.5","6234a93224a61094ce06a76f","D2","batch4","spm_show_trial_num","null","<p class=block-text>Trial 30 out of 60</p>","null","","","","","","","","","","","","","","","","","","","","","","","","","",""
"","","","","","image-button-response","64","255094","0.0-2.0-4.0-1.5","6234a93224a61094ce06a76f","D2","batch4","spm_respsonse","8024.5","img/question_3_6.jpeg","3","mat_30","4","1","1","8024.5","","","","","","","","","","","","","","","","","","","","",""
"","","","","","html-keyboard-response","65","256159","0.0-2.0-4.0-0.6","6234a93224a61094ce06a76f","D2","batch4","spm_show_trial_num","null","<p class=block-text>Trial 31 out of 60</p>","null","","","","","","","","","","","","","","","","","","","","","","","","","",""
"","","","","","image-button-response","66","263397","0.0-2.0-4.0-1.6","6234a93224a61094ce06a76f","D2","batch4","spm_respsonse","7234.5","img/question_3_7.jpeg","4","mat_31","5","1","1","7234.5","","","","","","","","","","","","","","","","","","","","",""
"","","","","","html-keyboard-response","67","264460","0.0-2.0-4.0-0.7","6234a93224a61094ce06a76f","D2","batch4","spm_show_trial_num","null","<p class=block-text>Trial 32 out of 60</p>","null","","","","","","","","","","","","","","","","","","","","","","","","","",""
"","","","","","image-button-response","68","270875","0.0-2.0-4.0-1.7","6234a93224a61094ce06a76f","D2","batch4","spm_respsonse","6413.799999982119","img/question_3_8.jpeg","0","mat_32","1","1","1","6413.799999982119","","","","","","","","","","","","","","","","","","","","",""
"","","","","","html-keyboard-response","69","271939","0.0-2.0-4.0-0.8","6234a93224a61094ce06a76f","D2","batch4","spm_show_trial_num","null","<p class=block-text>Trial 33 out of 60</p>","null","","","","","","","","","","","","","","","","","","","","","","","","","",""
"","","","","","image-button-response","70","278383","0.0-2.0-4.0-1.8","6234a93224a61094ce06a76f","D2","batch4","spm_respsonse","6442.199999988079","img/question_3_9.jpeg","6","mat_33","7","1","1","6442.199999988079","","","","","","","","","","","","","","","","","","","","",""
"","","","","","html-keyboard-response","71","279443","0.0-2.0-4.0-0.9","6234a93224a61094ce06a76f","D2","batch4","spm_show_trial_num","null","<p class=block-text>Trial 34 out of 60</p>","null","","","","","","","","","","","","","","","","","","","","","","","","","",""
"","","","","","image-button-response","72","292829","0.0-2.0-4.0-1.9","6234a93224a61094ce06a76f","D2","batch4","spm_respsonse","13385.09999999404","img/question_3_10.jpeg","5","mat_34","6","1","1","13385.09999999404","","","","","","","","","","","","","","","","","","","","",""
"","","","","","html-keyboard-response","73","293890","0.0-2.0-4.0-0.10","6234a93224a61094ce06a76f","D2","batch4","spm_show_trial_num","null","<p class=block-text>Trial 35 out of 60</p>","null","","","","","","","","","","","","","","","","","","","","","","","","","",""
"","","","","","image-button-response","74","308335","0.0-2.0-4.0-1.10","6234a93224a61094ce06a76f","D2","batch4","spm_respsonse","14443.90000000596","img/question_3_11.jpeg","0","mat_35","1","1","1","14443.90000000596","","","","","","","","","","","","","","","","","","","","",""
"","","","","","html-keyboard-response","75","309402","0.0-2.0-4.0-0.11","6234a93224a61094ce06a76f","D2","batch4","spm_show_trial_num","null","<p class=block-text>Trial 36 out of 60</p>","null","","","","","","","","","","","","","","","","","","","","","","","","","",""
"","","","","","image-button-response","76","351544","0.0-2.0-4.0-1.11","6234a93224a61094ce06a76f","D2","batch4","spm_respsonse","42139.59999999404","img/question_3_12.jpeg","1","mat_36","2","1","1","42139.59999999404","","","","","","","","","","","","","","","","","","","","",""
"","","","","","html-keyboard-response","77","352609","0.0-2.0-4.0-0.12","6234a93224a61094ce06a76f","D2","batch4","spm_show_trial_num","null","<p class=block-text>Trial 37 out of 60</p>","null","","","","","","","","","","","","","","","","","","","","","","","","","",""
"","","","","","image-button-response","78","356172","0.0-2.0-4.0-1.12","6234a93224a61094ce06a76f","D2","batch4","spm_respsonse","3560.5","img/question_4_1.jpeg","2","mat_37","3","1","1","3560.5","","","","","","","","","","","","","","","","","","","","",""
"","","","","","html-keyboard-response","79","357233","0.0-2.0-4.0-0.13","6234a93224a61094ce06a76f","D2","batch4","spm_show_trial_num","null","<p class=block-text>Trial 38 out of 60</p>","null","","","","","","","","","","","","","","","","","","","","","","","","","",""
"","","","","","image-button-response","80","365464","0.0-2.0-4.0-1.13","6234a93224a61094ce06a76f","D2","batch4","spm_respsonse","8229.700000017881","img/question_4_2.jpeg","3","mat_38","4","1","1","8229.700000017881","","","","","","","","","","","","","","","","","","","","",""
"","","","","","html-keyboard-response","81","366529","0.0-2.0-4.0-0.14","6234a93224a61094ce06a76f","D2","batch4","spm_show_trial_num","null","<p class=block-text>Trial 39 out of 60</p>","null","","","","","","","","","","","","","","","","","","","","","","","","","",""
"","","","","","image-button-response","82","371561","0.0-2.0-4.0-1.14","6234a93224a61094ce06a76f","D2","batch4","spm_respsonse","5030.300000011921","img/question_4_3.jpeg","2","mat_39","3","1","1","5030.300000011921","","","","","","","","","","","","","","","","","","","","",""
"","","","","","html-keyboard-response","83","372625","0.0-2.0-4.0-0.15","6234a93224a61094ce06a76f","D2","batch4","spm_show_trial_num","null","<p class=block-text>Trial 40 out of 60</p>","null","","","","","","","","","","","","","","","","","","","","","","","","","",""
"","","","","","image-button-response","84","380050","0.0-2.0-4.0-1.15","6234a93224a61094ce06a76f","D2","batch4","spm_respsonse","7422.200000017881","img/question_4_4.jpeg","6","mat_40","7","1","1","7422.200000017881","","","","","","","","","","","","","","","","","","","","",""
"","","","","","html-keyboard-response","85","381115","0.0-2.0-4.0-0.16","6234a93224a61094ce06a76f","D2","batch4","spm_show_trial_num","null","<p class=block-text>Trial 41 out of 60</p>","null","","","","","","","","","","","","","","","","","","","","","","","","","",""
"","","","","","image-button-response","86","387506","0.0-2.0-4.0-1.16","6234a93224a61094ce06a76f","D2","batch4","spm_respsonse","6388.300000011921","img/question_4_5.jpeg","7","mat_41","8","1","1","6388.300000011921","","","","","","","","","","","","","","","","","","","","",""
"","","","","","html-keyboard-response","87","388568","0.0-2.0-4.0-0.17","6234a93224a61094ce06a76f","D2","batch4","spm_show_trial_num","null","<p class=block-text>Trial 42 out of 60</p>","null","","","","","","","","","","","","","","","","","","","","","","","","","",""
"","","","","","image-button-response","88","399123","0.0-2.0-4.0-1.17","6234a93224a61094ce06a76f","D2","batch4","spm_respsonse","10552.40000000596","img/question_4_6.jpeg","5","mat_42","6","1","1","10552.40000000596","","","","","","","","","","","","","","","","","","","","",""
"","","","","","html-keyboard-response","89","400188","0.0-2.0-4.0-0.18","6234a93224a61094ce06a76f","D2","batch4","spm_show_trial_num","null","<p class=block-text>Trial 43 out of 60</p>","null","","","","","","","","","","","","","","","","","","","","","","","","","",""
"","","","","","image-button-response","90","412996","0.0-2.0-4.0-1.18","6234a93224a61094ce06a76f","D2","batch4","spm_respsonse","12805.799999982119","img/question_4_7.jpeg","4","mat_43","5","1","1","12805.799999982119","","","","","","","","","","","","","","","","","","","","",""
"","","","","","html-keyboard-response","91","414057","0.0-2.0-4.0-0.19","6234a93224a61094ce06a76f","D2","batch4","spm_show_trial_num","null","<p class=block-text>Trial 44 out of 60</p>","null","","","","","","","","","","","","","","","","","","","","","","","","","",""
"","","","","","image-button-response","92","423772","0.0-2.0-4.0-1.19","6234a93224a61094ce06a76f","D2","batch4","spm_respsonse","9713.09999999404","img/question_4_8.jpeg","3","mat_44","4","1","1","9713.09999999404","","","","","","","","","","","","","","","","","","","","",""
"","","","","","html-keyboard-response","93","424833","0.0-2.0-4.0-0.20","6234a93224a61094ce06a76f","D2","batch4","spm_show_trial_num","null","<p class=block-text>Trial 45 out of 60</p>","null","","","","","","","","","","","","","","","","","","","","","","","","","",""
"","","","","","image-button-response","94","456764","0.0-2.0-4.0-1.20","6234a93224a61094ce06a76f","D2","batch4","spm_respsonse","31928.90000000596","img/question_4_9.jpeg","0","mat_45","1","1","1","31928.90000000596","","","","","","","","","","","","","","","","","","","","",""
"","","","","","html-keyboard-response","95","457820","0.0-2.0-4.0-0.21","6234a93224a61094ce06a76f","D2","batch4","spm_show_trial_num","null","<p class=block-text>Trial 46 out of 60</p>","null","","","","","","","","","","","","","","","","","","","","","","","","","",""
"","","","","","image-button-response","96","474536","0.0-2.0-4.0-1.21","6234a93224a61094ce06a76f","D2","batch4","spm_respsonse","16715.19999998808","img/question_4_10.jpeg","1","mat_46","2","1","1","16715.19999998808","","","","","","","","","","","","","","","","","","","","",""
"","","","","","html-keyboard-response","97","475600","0.0-2.0-4.0-0.22","6234a93224a61094ce06a76f","D2","batch4","spm_show_trial_num","null","<p class=block-text>Trial 47 out of 60</p>","null","","","","","","","","","","","","","","","","","","","","","","","","","",""
"","","","","","image-button-response","98","627371","0.0-2.0-4.0-1.22","6234a93224a61094ce06a76f","D2","batch4","spm_respsonse","151654.69999998808","img/question_4_11.jpeg","4","mat_47","5","1","1","151654.69999998808","","","","","","","","","","","","","","","","","","","","",""
"","","","","","html-keyboard-response","99","628434","0.0-2.0-4.0-0.23","6234a93224a61094ce06a76f","D2","batch4","spm_show_trial_num","null","<p class=block-text>Trial 48 out of 60</p>","null","","","","","","","","","","","","","","","","","","","","","","","","","",""
"","","","","","image-button-response","100","656033","0.0-2.0-4.0-1.23","6234a93224a61094ce06a76f","D2","batch4","spm_respsonse","27597.69999998808","img/question_4_12.jpeg","4","mat_48","6","0","0","27597.69999998808","","","","","","","","","","","","","","","","","","","","",""
"","","","","","html-keyboard-response","101","657101","0.0-2.0-4.0-0.24","6234a93224a61094ce06a76f","D2","batch4","spm_show_trial_num","null","<p class=block-text>Trial 49 out of 60</p>","null","","","","","","","","","","","","","","","","","","","","","","","","","",""
"","","","","","image-button-response","102","664326","0.0-2.0-4.0-1.24","6234a93224a61094ce06a76f","D2","batch4","spm_respsonse","7222.800000011921","img/question_5_1.jpeg","6","mat_49","7","1","1","7222.800000011921","","","","","","","","","","","","","","","","","","","","",""
"","","","","","html-keyboard-response","103","665392","0.0-2.0-4.0-0.25","6234a93224a61094ce06a76f","D2","batch4","spm_show_trial_num","null","<p class=block-text>Trial 50 out of 60</p>","null","","","","","","","","","","","","","","","","","","","","","","","","","",""
"","","","","","image-button-response","104","678327","0.0-2.0-4.0-1.25","6234a93224a61094ce06a76f","D2","batch4","spm_respsonse","12931.800000011921","img/question_5_2.jpeg","5","mat_50","6","1","1","12931.800000011921","","","","","","","","","","","","","","","","","","","","",""
"","","","","","html-keyboard-response","105","679393","0.0-2.0-4.0-0.26","6234a93224a61094ce06a76f","D2","batch4","spm_show_trial_num","null","<p class=block-text>Trial 51 out of 60</p>","null","","","","","","","","","","","","","","","","","","","","","","","","","",""
"","","","","","image-button-response","106","707980","0.0-2.0-4.0-1.26","6234a93224a61094ce06a76f","D2","batch4","spm_respsonse","28585.09999999404","img/question_5_3.jpeg","7","mat_51","8","1","1","28585.09999999404","","","","","","","","","","","","","","","","","","","","",""
"","","","","","html-keyboard-response","107","709040","0.0-2.0-4.0-0.27","6234a93224a61094ce06a76f","D2","batch4","spm_show_trial_num","null","<p class=block-text>Trial 52 out of 60</p>","null","","","","","","","","","","","","","","","","","","","","","","","","","",""
"","","","","","image-button-response","108","740902","0.0-2.0-4.0-1.27","6234a93224a61094ce06a76f","D2","batch4","spm_respsonse","31860.59999999404","img/question_5_4.jpeg","1","mat_52","2","1","1","31860.59999999404","","","","","","","","","","","","","","","","","","","","",""
"","","","","","html-keyboard-response","109","741968","0.0-2.0-4.0-0.28","6234a93224a61094ce06a76f","D2","batch4","spm_show_trial_num","null","<p class=block-text>Trial 53 out of 60</p>","null","","","","","","","","","","","","","","","","","","","","","","","","","",""
"","","","","","image-button-response","110","749631","0.0-2.0-4.0-1.28","6234a93224a61094ce06a76f","D2","batch4","spm_respsonse","7660","img/question_5_5.jpeg","0","mat_53","1","1","1","7660","","","","","","","","","","","","","","","","","","","","",""
"","","","","","html-keyboard-response","111","750688","0.0-2.0-4.0-0.29","6234a93224a61094ce06a76f","D2","batch4","spm_show_trial_num","null","<p class=block-text>Trial 54 out of 60</p>","null","","","","","","","","","","","","","","","","","","","","","","","","","",""
"","","","","","image-button-response","112","778463","0.0-2.0-4.0-1.29","6234a93224a61094ce06a76f","D2","batch4","spm_respsonse","27772.30000001192","img/question_5_6.jpeg","4","mat_54","5","1","1","27772.30000001192","","","","","","","","","","","","","","","","","","","","",""
"","","","","","html-keyboard-response","113","779527","0.0-2.0-4.0-0.30","6234a93224a61094ce06a76f","D2","batch4","spm_show_trial_num","null","<p class=block-text>Trial 55 out of 60</p>","null","","","","","","","","","","","","","","","","","","","","","","","","","",""
"","","","","","image-button-response","114","810029","0.0-2.0-4.0-1.30","6234a93224a61094ce06a76f","D2","batch4","spm_respsonse","30500.29999998212","img/question_5_7.jpeg","0","mat_55","1","1","1","30500.29999998212","","","","","","","","","","","","","","","","","","","","",""
"","","","","","html-keyboard-response","115","811098","0.0-2.0-4.0-0.31","6234a93224a61094ce06a76f","D2","batch4","spm_show_trial_num","null","<p class=block-text>Trial 56 out of 60</p>","null","","","","","","","","","","","","","","","","","","","","","","","","","",""
"","","","","","image-button-response","116","842491","0.0-2.0-4.0-1.31","6234a93224a61094ce06a76f","D2","batch4","spm_respsonse","31391.399999976158","img/question_5_8.jpeg","5","mat_56","6","1","1","31391.399999976158","","","","","","","","","","","","","","","","","","","","",""
"","","","","","html-keyboard-response","117","843558","0.0-2.0-4.0-0.32","6234a93224a61094ce06a76f","D2","batch4","spm_show_trial_num","null","<p class=block-text>Trial 57 out of 60</p>","null","","","","","","","","","","","","","","","","","","","","","","","","","",""
"","","","","","image-button-response","118","900524","0.0-2.0-4.0-1.32","6234a93224a61094ce06a76f","D2","batch4","spm_respsonse","56965.5","img/question_5_9.jpeg","4","mat_57","3","0","0","56965.5","","","","","","","","","","","","","","","","","","","","",""
"","","","","","html-keyboard-response","119","901587","0.0-2.0-4.0-0.33","6234a93224a61094ce06a76f","D2","batch4","spm_show_trial_num","null","<p class=block-text>Trial 58 out of 60</p>","null","","","","","","","","","","","","","","","","","","","","","","","","","",""
"","","","","","image-button-response","120","947313","0.0-2.0-4.0-1.33","6234a93224a61094ce06a76f","D2","batch4","spm_respsonse","45725.80000001192","img/question_5_10.jpeg","1","mat_58","2","1","1","45725.80000001192","","","","","","","","","","","","","","","","","","","","",""
"","","","","","html-keyboard-response","121","948381","0.0-2.0-4.0-0.34","6234a93224a61094ce06a76f","D2","batch4","spm_show_trial_num","null","<p class=block-text>Trial 59 out of 60</p>","null","","","","","","","","","","","","","","","","","","","","","","","","","",""
"","","","","","image-button-response","122","1007770","0.0-2.0-4.0-1.34","6234a93224a61094ce06a76f","D2","batch4","spm_respsonse","59387.90000000596","img/question_5_11.jpeg","3","mat_59","4","1","1","59387.90000000596","","","","","","","","","","","","","","","","","","","","",""
"","","","","","html-keyboard-response","123","1008835","0.0-2.0-4.0-0.35","6234a93224a61094ce06a76f","D2","batch4","spm_show_trial_num","null","<p class=block-text>Trial 60 out of 60</p>","null","","","","","","","","","","","","","","","","","","","","","","","","","",""
"","","","","","image-button-response","124","1027816","0.0-2.0-4.0-1.35","6234a93224a61094ce06a76f","D2","batch4","spm_respsonse","18978.59999999404","img/question_5_12.jpeg","4","mat_60","5","1","1","18978.59999999404","","","","","","","","","","","","","","","","","","","","",""
"","","","","","html-button-response","125","1030037","0.0-2.0-5.0","6234a93224a61094ce06a76f","D2","batch4","spm_goodbye","1969.199999988079","<p class= block-text>This concludes the Standard Progressive Matrix game. Thank you for your responses!<br> When you are ready, click the button continue</p>","0","","","","","","","","","","","","","","","","","","","","","","","","","",""
"true","","","","","fullscreen","126","1033051","0.0-3.0-0.0","6234a93224a61094ce06a76f","D2","batch4","","","","","","","","","","","","","","","","","","","","","","","","","","","","","",""
"","","","","","instructions","127","1044556","0.0-3.0-1.0-0.0","6234a93224a61094ce06a76f","D2","batch4","","11504.200000017881","","","","","","","","[{""page_index"":0,""viewing_time"":7890.100000023842},{""page_index"":1,""viewing_time"":3613.899999976158}]","","","","","","","","","","","","","","","","","","","",""
"","","","","","html-button-response","128","1046225","0.0-3.0-1.0-1.0-0.0","6234a93224a61094ce06a76f","D2","batch4","pattern_enter_quiz","1667.5999999940395","<p class=block-text> Let's answer a few questions <br>","0","","","","","","","","","","","","","","","","","","","","","","","","","",""
"","","","","","html-button-response","129","1048043","0.0-3.0-1.0-1.0-1.0","6234a93224a61094ce06a76f","D2","batch4","pattern_quiz","1817.199999988079","<p class = block-text>True or False: You will have as much time as you want to make each choice. <br></p>","1","","","true","","","","","","","","","","","","","","","","","","","","","","",""
"","","","","","html-button-response","130","1049056","0.0-3.0-1.0-1.0-2.0","6234a93224a61094ce06a76f","D2","batch4","pattern_quiz_feedback","1011.8000000119209","<p class = block-text>Correct! You should make your choice <strong> as fast as you can</strong>.</p>","0","","","","","","","","","","","","","","","","","","","","","","","","","",""
"","","","","","html-button-response","131","1051765","0.0-3.0-1.0-1.0-3.0","6234a93224a61094ce06a76f","D2","batch4","pattern_quiz","2708.2000000178814","<p class = block-text>True or False: You will look for 4 pieces in black or white color connected in a row either horizontally, vertically or diagonally. <br></p>","0","","","true","","","","","","","","","","","","","","","","","","","","","","",""
"","","","","","html-button-response","132","1052646","0.0-3.0-1.0-1.0-4.0","6234a93224a61094ce06a76f","D2","batch4","pattern_quiz_feedback","879.5999999940395","<p class = block-text>Correct! </p>","0","","","","","","","","","","","","","","","","","","","","","","","","","",""
"","","","","","html-button-response","133","1054141","0.0-3.0-2.0","6234a93224a61094ce06a76f","D2","batch4","pattern_enter_practice","1493.5","<p class=block-text> Now that you've understood the game, let's do a few practice trials before we start!<br> <br>","0","","","","","","","","","","","","","","","","","","","","","","","","","",""
"","","","","","image-keyboard-response","134","1055422","0.0-3.0-3.0-0.0","6234a93224a61094ce06a76f","D2","batch4","pattern_practice","1279.800000011921","stim/prac_yes_16_ver_w1.png","f","","f","true","","","","","","","","","","","","","","","","","","","","","","",""
"","","","","","html-keyboard-response","135","1056427","0.0-3.0-3.0-1.0","6234a93224a61094ce06a76f","D2","batch4","pattern_feedback","null","<p style=""font-size:30px;color:green;"">Correct!</p>","null","","","","","","","","","","","","","","","","","","","","","","","","","",""
"","","","","","image-keyboard-response","136","1057824","0.0-3.0-3.0-0.1","6234a93224a61094ce06a76f","D2","batch4","pattern_practice","1396.2000000178814","stim/prac_yes_20_dia_b1.png","f","","f","true","","","","","","","","","","","","","","","","","","","","","","",""
"","","","","","html-keyboard-response","137","1058834","0.0-3.0-3.0-1.1","6234a93224a61094ce06a76f","D2","batch4","pattern_feedback","null","<p style=""font-size:30px;color:green;"">Correct!</p>","null","","","","","","","","","","","","","","","","","","","","","","","","","",""
"","","","","","image-keyboard-response","138","1059891","0.0-3.0-3.0-0.2","6234a93224a61094ce06a76f","D2","batch4","pattern_practice","1055.3999999761581","stim/prac_no_18_1.png","j","","j","true","","","","","","","","","","","","","","","","","","","","","","",""
"","","","","","html-keyboard-response","139","1060899","0.0-3.0-3.0-1.2","6234a93224a61094ce06a76f","D2","batch4","pattern_feedback","null","<p style=""font-size:30px;color:green;"">Correct!</p>","null","","","","","","","","","","","","","","","","","","","","","","","","","",""
"","","","","","image-keyboard-response","140","1061665","0.0-3.0-3.0-0.3","6234a93224a61094ce06a76f","D2","batch4","pattern_practice","764.4000000059605","stim/prac_yes_18_hor_w1.png","f","","f","true","","","","","","","","","","","","","","","","","","","","","","",""
"","","","","","html-keyboard-response","141","1062674","0.0-3.0-3.0-1.3","6234a93224a61094ce06a76f","D2","batch4","pattern_feedback","null","<p style=""font-size:30px;color:green;"">Correct!</p>","null","","","","","","","","","","","","","","","","","","","","","","","","","",""
"","","","","","image-keyboard-response","142","1064021","0.0-3.0-3.0-0.4","6234a93224a61094ce06a76f","D2","batch4","pattern_practice","1345.800000011921","stim/prac_no_16_1.png","j","","j","true","","","","","","","","","","","","","","","","","","","","","","",""
"","","","","","html-keyboard-response","143","1065027","0.0-3.0-3.0-1.4","6234a93224a61094ce06a76f","D2","batch4","pattern_feedback","null","<p style=""font-size:30px;color:green;"">Correct!</p>","null","","","","","","","","","","","","","","","","","","","","","","","","","",""
"","","","","","html-button-response","144","1067156","0.0-3.0-4.0","6234a93224a61094ce06a76f","D2","batch4","pattern_enter_official_trials","2128","<p class=block-text> Good job! You are done with practice trials!<br>
        You responded correctly on 100% of the trials.<br>
        Press the button below to start official trials. Now you won't see any feedback about your response</p>","0","","","","","","","","","","","","","","","","","","","","","","","","","",""
"","","","","","html-keyboard-response","145","1067963","0.0-3.0-5.0-0.0","6234a93224a61094ce06a76f","D2","batch4","pattern_show_trial_num","null","<p class=block-text>Trial 1 out of 78</p>","null","","","","","","","","","","","","","","","","","","","","","","","","","",""
"","","","","","image-keyboard-response","146","1068835","0.0-3.0-5.0-1.0","6234a93224a61094ce06a76f","D2","batch4","pattern_response","870.3000000119209","stim/yes_26_dia_w2_w.png","f","pattern_50","f","true","","","","870.3000000119209","true","1","","","","","","","","","","","","","","","","",""
"","","","","","html-keyboard-response","147","1070147","0.0-3.0-5.0-0.1","6234a93224a61094ce06a76f","D2","batch4","pattern_show_trial_num","null","<p class=block-text>Trial 2 out of 78</p>","null","","","","","","","","","","","","","","","","","","","","","","","","","",""
"","","","","","image-keyboard-response","148","1073381","0.0-3.0-5.0-1.1","6234a93224a61094ce06a76f","D2","batch4","pattern_response","3232.9000000059605","stim/no_36_1_b.png","j","pattern_17","j","true","","","","3232.9000000059605","true","2","","","","","","","","","","","","","","","","",""
"","","","","","html-keyboard-response","149","1074694","0.0-3.0-5.0-0.2","6234a93224a61094ce06a76f","D2","batch4","pattern_show_trial_num","null","<p class=block-text>Trial 3 out of 78</p>","null","","","","","","","","","","","","","","","","","","","","","","","","","",""
"","","","","","image-keyboard-response","150","1077288","0.0-3.0-5.0-1.2","6234a93224a61094ce06a76f","D2","batch4","pattern_response","2592.5999999940395","stim/no_28_2.png","j","pattern_11","j","true","","","","2592.5999999940395","true","3","","","","","","","","","","","","","","","","",""
"","","","","","html-keyboard-response","151","1078603","0.0-3.0-5.0-0.3","6234a93224a61094ce06a76f","D2","batch4","pattern_show_trial_num","null","<p class=block-text>Trial 4 out of 78</p>","null","","","","","","","","","","","","","","","","","","","","","","","","","",""
"","","","","","image-keyboard-response","152","1080377","0.0-3.0-5.0-1.3","6234a93224a61094ce06a76f","D2","batch4","pattern_response","1772.699999988079","stim/no_15_1_w.png","j","pattern_03","j","true","","","","1772.699999988079","true","4","","","","","","","","","","","","","","","","",""
"","","","","","html-keyboard-response","153","1081694","0.0-3.0-5.0-0.4","6234a93224a61094ce06a76f","D2","batch4","pattern_show_trial_num","null","<p class=block-text>Trial 5 out of 78</p>","null","","","","","","","","","","","","","","","","","","","","","","","","","",""
"","","","","","image-keyboard-response","154","1087261","0.0-3.0-5.0-1.4","6234a93224a61094ce06a76f","D2","batch4","pattern_response","5566.4000000059605","stim/no_51_1.png","j","pattern_31","j","true","","","","5566.4000000059605","true","5","","","","","","","","","","","","","","","","",""
"","","","","","html-keyboard-response","155","1088570","0.0-3.0-5.0-0.5","6234a93224a61094ce06a76f","D2","batch4","pattern_show_trial_num","null","<p class=block-text>Trial 6 out of 78</p>","null","","","","","","","","","","","","","","","","","","","","","","","","","",""
"","","","","","image-keyboard-response","156","1092775","0.0-3.0-5.0-1.5","6234a93224a61094ce06a76f","D2","batch4","pattern_response","4202.5","stim/no_33_1_b.png","j","pattern_15","j","true","","","","4202.5","true","6","","","","","","","","","","","","","","","","",""
"","","","","","html-keyboard-response","157","1094094","0.0-3.0-5.0-0.6","6234a93224a61094ce06a76f","D2","batch4","pattern_show_trial_num","null","<p class=block-text>Trial 7 out of 78</p>","null","","","","","","","","","","","","","","","","","","","","","","","","","",""
"","","","","","image-keyboard-response","158","1097587","0.0-3.0-5.0-1.6","6234a93224a61094ce06a76f","D2","batch4","pattern_response","3491.699999988079","stim/no_30_1_b.png","j","pattern_13","j","true","","","","3491.699999988079","true","7","","","","","","","","","","","","","","","","",""
"","","","","","html-keyboard-response","159","1098898","0.0-3.0-5.0-0.7","6234a93224a61094ce06a76f","D2","batch4","pattern_show_trial_num","null","<p class=block-text>Trial 8 out of 78</p>","null","","","","","","","","","","","","","","","","","","","","","","","","","",""
"","","","","","image-keyboard-response","160","1104821","0.0-3.0-5.0-1.7","6234a93224a61094ce06a76f","D2","batch4","pattern_response","5920.4000000059605","stim/yes_44_ver_w1_w.png","j","pattern_66","f","false","","","","5920.4000000059605","false","7","","","","","","","","","","","","","","","","",""
"","","","","","html-keyboard-response","161","1106130","0.0-3.0-5.0-0.8","6234a93224a61094ce06a76f","D2","batch4","pattern_show_trial_num","null","<p class=block-text>Trial 9 out of 78</p>","null","","","","","","","","","","","","","","","","","","","","","","","","","",""
"","","","","","image-keyboard-response","162","1107215","0.0-3.0-5.0-1.8","6234a93224a61094ce06a76f","D2","batch4","pattern_response","1083.0999999940395","stim/yes_33_dia_w1_w.png","f","pattern_56","f","true","","","","1083.0999999940395","true","8","","","","","","","","","","","","","","","","",""
"","","","","","html-keyboard-response","163","1108530","0.0-3.0-5.0-0.9","6234a93224a61094ce06a76f","D2","batch4","pattern_show_trial_num","null","<p class=block-text>Trial 10 out of 78</p>","null","","","","","","","","","","","","","","","","","","","","","","","","","",""
"","","","","","image-keyboard-response","164","1111963","0.0-3.0-5.0-1.9","6234a93224a61094ce06a76f","D2","batch4","pattern_response","3431.0999999940395","stim/yes_63_dia_b1.png","f","pattern_78","f","true","","","","3431.0999999940395","true","9","","","","","","","","","","","","","","","","",""
"","","","","","html-keyboard-response","165","1113273","0.0-3.0-5.0-0.10","6234a93224a61094ce06a76f","D2","batch4","pattern_show_trial_num","null","<p class=block-text>Trial 11 out of 78</p>","null","","","","","","","","","","","","","","","","","","","","","","","","","",""
"","","","","","image-keyboard-response","166","1120007","0.0-3.0-5.0-1.10","6234a93224a61094ce06a76f","D2","batch4","pattern_response","6731.5","stim/no_67_1.png","j","pattern_39","j","true","","","","6731.5","true","10","","","","","","","","","","","","","","","","",""
"","","","","","html-keyboard-response","167","1121323","0.0-3.0-5.0-0.11","6234a93224a61094ce06a76f","D2","batch4","pattern_show_trial_num","null","<p class=block-text>Trial 12 out of 78</p>","null","","","","","","","","","","","","","","","","","","","","","","","","","",""
"","","","","","image-keyboard-response","168","1124990","0.0-3.0-5.0-1.11","6234a93224a61094ce06a76f","D2","batch4","pattern_response","3663.5","stim/no_47_1_b.png","j","pattern_27","j","true","","","","3663.5","true","11","","","","","","","","","","","","","","","","",""
"","","","","","html-keyboard-response","169","1126309","0.0-3.0-5.0-0.12","6234a93224a61094ce06a76f","D2","batch4","pattern_show_trial_num","null","<p class=block-text>Trial 13 out of 78</p>","null","","","","","","","","","","","","","","","","","","","","","","","","","",""
"","","","","","image-keyboard-response","170","1127390","0.0-3.0-5.0-1.12","6234a93224a61094ce06a76f","D2","batch4","pattern_response","1079.0999999940395","stim/yes_36_ver_w1_w.png","f","pattern_58","f","true","","","","1079.0999999940395","true","12","","","","","","","","","","","","","","","","",""
"","","","","","html-keyboard-response","171","1128706","0.0-3.0-5.0-0.13","6234a93224a61094ce06a76f","D2","batch4","pattern_show_trial_num","null","<p class=block-text>Trial 14 out of 78</p>","null","","","","","","","","","","","","","","","","","","","","","","","","","",""
"","","","","","image-keyboard-response","172","1129783","0.0-3.0-5.0-1.13","6234a93224a61094ce06a76f","D2","batch4","pattern_response","1075.4000000059605","stim/yes_30_ver_b1_b.png","f","pattern_54","f","true","","","","1075.4000000059605","true","13","","","","","","","","","","","","","","","","",""
"","","","","","html-keyboard-response","173","1131098","0.0-3.0-5.0-0.14","6234a93224a61094ce06a76f","D2","batch4","pattern_show_trial_num","null","<p class=block-text>Trial 15 out of 78</p>","null","","","","","","","","","","","","","","","","","","","","","","","","","",""
"","","","","","image-keyboard-response","174","1132036","0.0-3.0-5.0-1.14","6234a93224a61094ce06a76f","D2","batch4","pattern_response","936.2000000178814","stim/yes_23_ver_b1.png","f","pattern_48","f","true","","","","936.2000000178814","true","14","","","","","","","","","","","","","","","","",""
"","","","","","html-keyboard-response","175","1133346","0.0-3.0-5.0-0.15","6234a93224a61094ce06a76f","D2","batch4","pattern_show_trial_num","null","<p class=block-text>Trial 16 out of 78</p>","null","","","","","","","","","","","","","","","","","","","","","","","","","",""
"","","","","","image-keyboard-response","176","1134358","0.0-3.0-5.0-1.15","6234a93224a61094ce06a76f","D2","batch4","pattern_response","1011.3000000119209","stim/no_12_1.png","j","pattern_01","j","true","","","","1011.3000000119209","true","15","","","","","","","","","","","","","","","","",""
"","","","","","html-keyboard-response","177","1135673","0.0-3.0-5.0-0.16","6234a93224a61094ce06a76f","D2","batch4","pattern_show_trial_num","null","<p class=block-text>Trial 17 out of 78</p>","null","","","","","","","","","","","","","","","","","","","","","","","","","",""
"","","","","","image-keyboard-response","178","1137384","0.0-3.0-5.0-1.16","6234a93224a61094ce06a76f","D2","batch4","pattern_response","1709.699999988079","stim/yes_42_dia_w1_w.png","f","pattern_64","f","true","","","","1709.699999988079","true","16","","","","","","","","","","","","","","","","",""
"","","","","","html-keyboard-response","179","1138697","0.0-3.0-5.0-0.17","6234a93224a61094ce06a76f","D2","batch4","pattern_show_trial_num","null","<p class=block-text>Trial 18 out of 78</p>","null","","","","","","","","","","","","","","","","","","","","","","","","","",""
"","","","","","image-keyboard-response","180","1139361","0.0-3.0-5.0-1.17","6234a93224a61094ce06a76f","D2","batch4","pattern_response","661.3000000119209","stim/yes_12_hor_w1_w.png","f","pattern_42","f","true","","","","661.3000000119209","true","17","","","","","","","","","","","","","","","","",""
"","","","","","html-keyboard-response","181","1140673","0.0-3.0-5.0-0.18","6234a93224a61094ce06a76f","D2","batch4","pattern_show_trial_num","null","<p class=block-text>Trial 19 out of 78</p>","null","","","","","","","","","","","","","","","","","","","","","","","","","",""
"","","","","","image-keyboard-response","182","1142676","0.0-3.0-5.0-1.18","6234a93224a61094ce06a76f","D2","batch4","pattern_response","2001.699999988079","stim/yes_70_ver_b1.png","f","pattern_80","f","true","","","","2001.699999988079","true","18","","","","","","","","","","","","","","","","",""
"","","","","","html-keyboard-response","183","1143986","0.0-3.0-5.0-0.19","6234a93224a61094ce06a76f","D2","batch4","pattern_show_trial_num","null","<p class=block-text>Trial 20 out of 78</p>","null","","","","","","","","","","","","","","","","","","","","","","","","","",""
"","","","","","image-keyboard-response","184","1150506","0.0-3.0-5.0-1.19","6234a93224a61094ce06a76f","D2","batch4","pattern_response","6519.5","stim/yes_58_dia_w1_w.png","j","pattern_76","f","false","","","","6519.5","false","18","","","","","","","","","","","","","","","","",""
"","","","","","html-keyboard-response","185","1151818","0.0-3.0-5.0-0.20","6234a93224a61094ce06a76f","D2","batch4","pattern_show_trial_num","null","<p class=block-text>Trial 21 out of 78</p>","null","","","","","","","","","","","","","","","","","","","","","","","","","",""
"","","","","","image-keyboard-response","186","1152774","0.0-3.0-5.0-1.20","6234a93224a61094ce06a76f","D2","batch4","pattern_response","953.5999999940395","stim/yes_15_dia_b1u_b.png","f","pattern_44","f","true","","","","953.5999999940395","true","19","","","","","","","","","","","","","","","","",""
"","","","","","html-keyboard-response","187","1154092","0.0-3.0-5.0-0.21","6234a93224a61094ce06a76f","D2","batch4","pattern_show_trial_num","null","<p class=block-text>Trial 22 out of 78</p>","null","","","","","","","","","","","","","","","","","","","","","","","","","",""
"","","","","","image-keyboard-response","188","1155028","0.0-3.0-5.0-1.21","6234a93224a61094ce06a76f","D2","batch4","pattern_response","935.4000000059605","stim/yes_37_hor_w1_w.png","f","pattern_60","f","true","","","","935.4000000059605","true","20","","","","","","","","","","","","","","","","",""
"","","","","","html-keyboard-response","189","1156337","0.0-3.0-5.0-0.22","6234a93224a61094ce06a76f","D2","batch4","pattern_show_trial_num","null","<p class=block-text>Trial 23 out of 78</p>","null","","","","","","","","","","","","","","","","","","","","","","","","","",""
"","","","","","image-keyboard-response","190","1158010","0.0-3.0-5.0-1.22","6234a93224a61094ce06a76f","D2","batch4","pattern_response","1671.199999988079","stim/no_22_1_b.png","j","pattern_07","j","true","","","","1671.199999988079","true","21","","","","","","","","","","","","","","","","",""
"","","","","","html-keyboard-response","191","1159321","0.0-3.0-5.0-0.23","6234a93224a61094ce06a76f","D2","batch4","pattern_show_trial_num","null","<p class=block-text>Trial 24 out of 78</p>","null","","","","","","","","","","","","","","","","","","","","","","","","","",""
"","","","","","image-keyboard-response","192","1160078","0.0-3.0-5.0-1.23","6234a93224a61094ce06a76f","D2","batch4","pattern_response","755","stim/yes_29_hor_b1_b.png","f","pattern_52","f","true","","","","755","true","22","","","","","","","","","","","","","","","","",""
"","","","","","html-keyboard-response","193","1161392","0.0-3.0-5.0-0.24","6234a93224a61094ce06a76f","D2","batch4","pattern_show_trial_num","null","<p class=block-text>Trial 25 out of 78</p>","null","","","","","","","","","","","","","","","","","","","","","","","","","",""
"","","","","","image-keyboard-response","194","1162989","0.0-3.0-5.0-1.24","6234a93224a61094ce06a76f","D2","batch4","pattern_response","1596.1000000238419","stim/yes_46_ver_b1_b.png","f","pattern_68","f","true","","","","1596.1000000238419","true","23","","","","","","","","","","","","","","","","",""
"","","","","","html-keyboard-response","195","1164304","0.0-3.0-5.0-0.25","6234a93224a61094ce06a76f","D2","batch4","pattern_show_trial_num","null","<p class=block-text>Trial 26 out of 78</p>","null","","","","","","","","","","","","","","","","","","","","","","","","","",""
"","","","","","image-keyboard-response","196","1167216","0.0-3.0-5.0-1.25","6234a93224a61094ce06a76f","D2","batch4","pattern_response","2909.7999999821186","stim/no_39_1_w.png","j","pattern_21","j","true","","","","2909.7999999821186","true","24","","","","","","","","","","","","","","","","",""
"","","","","","html-keyboard-response","197","1168529","0.0-3.0-5.0-0.26","6234a93224a61094ce06a76f","D2","batch4","pattern_show_trial_num","null","<p class=block-text>Trial 27 out of 78</p>","null","","","","","","","","","","","","","","","","","","","","","","","","","",""
"","","","","","image-keyboard-response","198","1170500","0.0-3.0-5.0-1.26","6234a93224a61094ce06a76f","D2","batch4","pattern_response","1969.300000011921","stim/no_43_2_b.png","j","pattern_23","j","true","","","","1969.300000011921","true","25","","","","","","","","","","","","","","","","",""
"","","","","","html-keyboard-response","199","1171817","0.0-3.0-5.0-0.27","6234a93224a61094ce06a76f","D2","batch4","pattern_show_trial_num","null","<p class=block-text>Trial 28 out of 78</p>","null","","","","","","","","","","","","","","","","","","","","","","","","","",""
"","","","","","image-keyboard-response","200","1174815","0.0-3.0-5.0-1.27","6234a93224a61094ce06a76f","D2","batch4","pattern_response","2995.5999999940395","stim/no_58_1_w.png","j","pattern_35","j","true","","","","2995.5999999940395","true","26","","","","","","","","","","","","","","","","",""
"","","","","","html-keyboard-response","201","1176129","0.0-3.0-5.0-0.28","6234a93224a61094ce06a76f","D2","batch4","pattern_show_trial_num","null","<p class=block-text>Trial 29 out of 78</p>","null","","","","","","","","","","","","","","","","","","","","","","","","","",""
"","","","","","image-keyboard-response","202","1178790","0.0-3.0-5.0-1.28","6234a93224a61094ce06a76f","D2","batch4","pattern_response","2658.7000000178814","stim/yes_53_ver_b1_b.png","f","pattern_74","f","true","","","","2658.7000000178814","true","27","","","","","","","","","","","","","","","","",""
"","","","","","html-keyboard-response","203","1180105","0.0-3.0-5.0-0.29","6234a93224a61094ce06a76f","D2","batch4","pattern_show_trial_num","null","<p class=block-text>Trial 30 out of 78</p>","null","","","","","","","","","","","","","","","","","","","","","","","","","",""
"","","","","","image-keyboard-response","204","1180866","0.0-3.0-5.0-1.29","6234a93224a61094ce06a76f","D2","batch4","pattern_response","759","stim/yes_39_hor_w1_w.png","f","pattern_62","f","true","","","","759","true","28","","","","","","","","","","","","","","","","",""
"","","","","","html-keyboard-response","205","1182177","0.0-3.0-5.0-0.30","6234a93224a61094ce06a76f","D2","batch4","pattern_show_trial_num","null","<p class=block-text>Trial 31 out of 78</p>","null","","","","","","","","","","","","","","","","","","","","","","","","","",""
"","","","","","image-keyboard-response","206","1185364","0.0-3.0-5.0-1.30","6234a93224a61094ce06a76f","D2","batch4","pattern_response","3185.5","stim/no_37_2_w.png","j","pattern_19","j","true","","","","3185.5","true","29","","","","","","","","","","","","","","","","",""
"","","","","","html-keyboard-response","207","1186681","0.0-3.0-5.0-0.31","6234a93224a61094ce06a76f","D2","batch4","pattern_show_trial_num","null","<p class=block-text>Trial 32 out of 78</p>","null","","","","","","","","","","","","","","","","","","","","","","","","","",""
"","","","","","image-keyboard-response","208","1187463","0.0-3.0-5.0-1.31","6234a93224a61094ce06a76f","D2","batch4","pattern_response","779.6999999880791","stim/yes_17_ver_b1_b.png","f","pattern_46","f","true","","","","779.6999999880791","true","30","","","","","","","","","","","","","","","","",""
"","","","","","html-keyboard-response","209","1188777","0.0-3.0-5.0-0.32","6234a93224a61094ce06a76f","D2","batch4","pattern_show_trial_num","null","<p class=block-text>Trial 33 out of 78</p>","null","","","","","","","","","","","","","","","","","","","","","","","","","",""
"","","","","","image-keyboard-response","210","1192794","0.0-3.0-5.0-1.32","6234a93224a61094ce06a76f","D2","batch4","pattern_response","4014.4000000059605","stim/no_45_1_w.png","j","pattern_25","j","true","","","","4014.4000000059605","true","31","","","","","","","","","","","","","","","","",""
"","","","","","html-keyboard-response","211","1194105","0.0-3.0-5.0-0.33","6234a93224a61094ce06a76f","D2","batch4","pattern_show_trial_num","null","<p class=block-text>Trial 34 out of 78</p>","null","","","","","","","","","","","","","","","","","","","","","","","","","",""
"","","","","","image-keyboard-response","212","1199051","0.0-3.0-5.0-1.33","6234a93224a61094ce06a76f","D2","batch4","pattern_response","4944","stim/no_53_1_b.png","j","pattern_33","j","true","","","","4944","true","32","","","","","","","","","","","","","","","","",""
"","","","","","html-keyboard-response","213","1200361","0.0-3.0-5.0-0.34","6234a93224a61094ce06a76f","D2","batch4","pattern_show_trial_num","null","<p class=block-text>Trial 35 out of 78</p>","null","","","","","","","","","","","","","","","","","","","","","","","","","",""
"","","","","","image-keyboard-response","214","1202013","0.0-3.0-5.0-1.34","6234a93224a61094ce06a76f","D2","batch4","pattern_response","1649.4000000059605","stim/no_18_1_b.png","j","pattern_05","j","true","","","","1649.4000000059605","true","33","","","","","","","","","","","","","","","","",""
"","","","","","html-keyboard-response","215","1203329","0.0-3.0-5.0-0.35","6234a93224a61094ce06a76f","D2","batch4","pattern_show_trial_num","null","<p class=block-text>Trial 36 out of 78</p>","null","","","","","","","","","","","","","","","","","","","","","","","","","",""
"","","","","","image-keyboard-response","216","1205459","0.0-3.0-5.0-1.35","6234a93224a61094ce06a76f","D2","batch4","pattern_response","2129","stim/no_25_1_b.png","j","pattern_09","j","true","","","","2129","true","34","","","","","","","","","","","","","","","","",""
"","","","","","html-keyboard-response","217","1206768","0.0-3.0-5.0-0.36","6234a93224a61094ce06a76f","D2","batch4","pattern_show_trial_num","null","<p class=block-text>Trial 37 out of 78</p>","null","","","","","","","","","","","","","","","","","","","","","","","","","",""
"","","","","","image-keyboard-response","218","1207805","0.0-3.0-5.0-1.36","6234a93224a61094ce06a76f","D2","batch4","pattern_response","1035.5","stim/yes_49_hor_w1_b.png","f","pattern_70","f","true","","","","1035.5","true","35","","","","","","","","","","","","","","","","",""
"","","","","","html-keyboard-response","219","1209120","0.0-3.0-5.0-0.37","6234a93224a61094ce06a76f","D2","batch4","pattern_show_trial_num","null","<p class=block-text>Trial 38 out of 78</p>","null","","","","","","","","","","","","","","","","","","","","","","","","","",""
"","","","","","image-keyboard-response","220","1213074","0.0-3.0-5.0-1.37","6234a93224a61094ce06a76f","D2","batch4","pattern_response","3951.5","stim/yes_51_dia_b1.png","j","pattern_72","f","false","","","","3951.5","false","35","","","","","","","","","","","","","","","","",""
"","","","","","html-keyboard-response","221","1214385","0.0-3.0-5.0-0.38","6234a93224a61094ce06a76f","D2","batch4","pattern_show_trial_num","null","<p class=block-text>Trial 39 out of 78</p>","null","","","","","","","","","","","","","","","","","","","","","","","","","",""
"","","","","","image-keyboard-response","222","1217721","0.0-3.0-5.0-1.38","6234a93224a61094ce06a76f","D2","batch4","pattern_response","3334.5999999940395","stim/no_49_2_b.png","j","pattern_29","j","true","","","","3334.5999999940395","true","36","","","","","","","","","","","","","","","","",""
"","","","","","image-keyboard-response","223","1220137","0.0-3.0-6.0","6234a93224a61094ce06a76f","D2","batch4","attention_check","1911.300000011921","stim/empty_board.png","j","","j","true","","","","","","","500","[""f"",""j""]","","","","","","","","","","","","","","",""
"","","","","","html-keyboard-response","224","1220944","0.0-3.0-7.0-0.0","6234a93224a61094ce06a76f","D2","batch4","pattern_show_trial_num","null","<p class=block-text>Trial 40 out of 78</p>","null","","","","","","","","","","","","","","","","","","","","","","","","","",""
"","","","","","image-keyboard-response","225","1221775","0.0-3.0-7.0-1.0","6234a93224a61094ce06a76f","D2","batch4","pattern_response","828.8000000119209","stim/yes_14_hor_b1_w.png","f","pattern_43","f","true","","","","828.8000000119209","true","37","","","","","","","","","","","","","","","","",""
"","","","","","html-keyboard-response","226","1223092","0.0-3.0-7.0-0.1","6234a93224a61094ce06a76f","D2","batch4","pattern_show_trial_num","null","<p class=block-text>Trial 41 out of 78</p>","null","","","","","","","","","","","","","","","","","","","","","","","","","",""
"","","","","","image-keyboard-response","227","1226132","0.0-3.0-7.0-1.1","6234a93224a61094ce06a76f","D2","batch4","pattern_response","3038.699999988079","stim/no_44_1.png","j","pattern_24","j","true","","","","3038.699999988079","true","38","","","","","","","","","","","","","","","","",""
"","","","","","html-keyboard-response","228","1227450","0.0-3.0-7.0-0.2","6234a93224a61094ce06a76f","D2","batch4","pattern_show_trial_num","null","<p class=block-text>Trial 42 out of 78</p>","null","","","","","","","","","","","","","","","","","","","","","","","","","",""
"","","","","","image-keyboard-response","229","1230819","0.0-3.0-7.0-1.2","6234a93224a61094ce06a76f","D2","batch4","pattern_response","3367.7000000178814","stim/no_48_1_w.png","j","pattern_28","j","true","","","","3367.7000000178814","true","39","","","","","","","","","","","","","","","","",""
"","","","","","html-keyboard-response","230","1232136","0.0-3.0-7.0-0.3","6234a93224a61094ce06a76f","D2","batch4","pattern_show_trial_num","null","<p class=block-text>Trial 43 out of 78</p>","null","","","","","","","","","","","","","","","","","","","","","","","","","",""
"","","","","","image-keyboard-response","231","1233935","0.0-3.0-7.0-1.3","6234a93224a61094ce06a76f","D2","batch4","pattern_response","1797.0999999940395","stim/yes_29_ver_w1.png","f","pattern_53","f","true","","","","1797.0999999940395","true","40","","","","","","","","","","","","","","","","",""
"","","","","","html-keyboard-response","232","1235248","0.0-3.0-7.0-0.4","6234a93224a61094ce06a76f","D2","batch4","pattern_show_trial_num","null","<p class=block-text>Trial 44 out of 78</p>","null","","","","","","","","","","","","","","","","","","","","","","","","","",""
"","","","","","image-keyboard-response","233","1236159","0.0-3.0-7.0-1.4","6234a93224a61094ce06a76f","D2","batch4","pattern_response","909","stim/yes_67_hor_b1.png","f","pattern_79","f","true","","","","909","true","41","","","","","","","","","","","","","","","","",""
"","","","","","html-keyboard-response","234","1237473","0.0-3.0-7.0-0.5","6234a93224a61094ce06a76f","D2","batch4","pattern_show_trial_num","null","<p class=block-text>Trial 45 out of 78</p>","null","","","","","","","","","","","","","","","","","","","","","","","","","",""
"","","","","","image-keyboard-response","235","1238329","0.0-3.0-7.0-1.5","6234a93224a61094ce06a76f","D2","batch4","pattern_response","854.8000000119209","stim/yes_35_dia_b1.png","f","pattern_57","f","true","","","","854.8000000119209","true","42","","","","","","","","","","","","","","","","",""
"","","","","","html-keyboard-response","236","1239640","0.0-3.0-7.0-0.6","6234a93224a61094ce06a76f","D2","batch4","pattern_show_trial_num","null","<p class=block-text>Trial 46 out of 78</p>","null","","","","","","","","","","","","","","","","","","","","","","","","","",""
"","","","","","image-keyboard-response","237","1240414","0.0-3.0-7.0-1.6","6234a93224a61094ce06a76f","D2","batch4","pattern_response","771.8000000119209","stim/yes_28_ver_b1.png","f","pattern_51","f","true","","","","771.8000000119209","true","43","","","","","","","","","","","","","","","","",""
"","","","","","html-keyboard-response","238","1241728","0.0-3.0-7.0-0.7","6234a93224a61094ce06a76f","D2","batch4","pattern_show_trial_num","null","<p class=block-text>Trial 47 out of 78</p>","null","","","","","","","","","","","","","","","","","","","","","","","","","",""
"","","","","","image-keyboard-response","239","1243226","0.0-3.0-7.0-1.7","6234a93224a61094ce06a76f","D2","batch4","pattern_response","1496.5","stim/yes_45_hor_b2_b.png","f","pattern_67","f","true","","","","1496.5","true","44","","","","","","","","","","","","","","","","",""
"","","","","","html-keyboard-response","240","1244536","0.0-3.0-7.0-0.8","6234a93224a61094ce06a76f","D2","batch4","pattern_show_trial_num","null","<p class=block-text>Trial 48 out of 78</p>","null","","","","","","","","","","","","","","","","","","","","","","","","","",""
"","","","","","image-keyboard-response","241","1248930","0.0-3.0-7.0-1.8","6234a93224a61094ce06a76f","D2","batch4","pattern_response","4392","stim/yes_48_dia_w1_w.png","j","pattern_69","f","false","","","","4392","false","44","","","","","","","","","","","","","","","","",""
"","","","","","html-keyboard-response","242","1250240","0.0-3.0-7.0-0.9","6234a93224a61094ce06a76f","D2","batch4","pattern_show_trial_num","null","<p class=block-text>Trial 49 out of 78</p>","null","","","","","","","","","","","","","","","","","","","","","","","","","",""
"","","","","","image-keyboard-response","243","1252115","0.0-3.0-7.0-1.9","6234a93224a61094ce06a76f","D2","batch4","pattern_response","1873.2999999821186","stim/yes_50_dia_w1.png","f","pattern_71","f","true","","","","1873.2999999821186","true","45","","","","","","","","","","","","","","","","",""
"","","","","","html-keyboard-response","244","1253432","0.0-3.0-7.0-0.10","6234a93224a61094ce06a76f","D2","batch4","pattern_show_trial_num","null","<p class=block-text>Trial 50 out of 78</p>","null","","","","","","","","","","","","","","","","","","","","","","","","","",""
"","","","","","image-keyboard-response","245","1255921","0.0-3.0-7.0-1.10","6234a93224a61094ce06a76f","D2","batch4","pattern_response","2486.800000011921","stim/no_23_1.png","j","pattern_08","j","true","","","","2486.800000011921","true","46","","","","","","","","","","","","","","","","",""
"","","","","","html-keyboard-response","246","1257231","0.0-3.0-7.0-0.11","6234a93224a61094ce06a76f","D2","batch4","pattern_show_trial_num","null","<p class=block-text>Trial 51 out of 78</p>","null","","","","","","","","","","","","","","","","","","","","","","","","","",""
"","","","","","image-keyboard-response","247","1258018","0.0-3.0-7.0-1.11","6234a93224a61094ce06a76f","D2","batch4","pattern_response","785.2000000178814","stim/yes_17_dia_w1.png","f","pattern_45","f","true","","","","785.2000000178814","true","47","","","","","","","","","","","","","","","","",""
"","","","","","html-keyboard-response","248","1259328","0.0-3.0-7.0-0.12","6234a93224a61094ce06a76f","D2","batch4","pattern_show_trial_num","null","<p class=block-text>Trial 52 out of 78</p>","null","","","","","","","","","","","","","","","","","","","","","","","","","",""
"","","","","","image-keyboard-response","249","1262216","0.0-3.0-7.0-1.12","6234a93224a61094ce06a76f","D2","batch4","pattern_response","2886.5999999940395","stim/no_50_1.png","j","pattern_30","j","true","","","","2886.5999999940395","true","48","","","","","","","","","","","","","","","","",""
"","","","","","html-keyboard-response","250","1263528","0.0-3.0-7.0-0.13","6234a93224a61094ce06a76f","D2","batch4","pattern_show_trial_num","null","<p class=block-text>Trial 53 out of 78</p>","null","","","","","","","","","","","","","","","","","","","","","","","","","",""
"","","","","","image-keyboard-response","251","1266625","0.0-3.0-7.0-1.13","6234a93224a61094ce06a76f","D2","batch4","pattern_response","3095.4000000059605","stim/yes_52_ver_w1.png","j","pattern_73","f","false","","","","3095.4000000059605","false","48","","","","","","","","","","","","","","","","",""
"","","","","","html-keyboard-response","252","1267939","0.0-3.0-7.0-0.14","6234a93224a61094ce06a76f","D2","batch4","pattern_show_trial_num","null","<p class=block-text>Trial 54 out of 78</p>","null","","","","","","","","","","","","","","","","","","","","","","","","","",""
"","","","","","image-keyboard-response","253","1272552","0.0-3.0-7.0-1.14","6234a93224a61094ce06a76f","D2","batch4","pattern_response","4610.5999999940395","stim/no_55_1_w.png","j","pattern_34","j","true","","","","4610.5999999940395","true","49","","","","","","","","","","","","","","","","",""
"","","","","","html-keyboard-response","254","1273864","0.0-3.0-7.0-0.15","6234a93224a61094ce06a76f","D2","batch4","pattern_show_trial_num","null","<p class=block-text>Trial 55 out of 78</p>","null","","","","","","","","","","","","","","","","","","","","","","","","","",""
"","","","","","image-keyboard-response","255","1276729","0.0-3.0-7.0-1.15","6234a93224a61094ce06a76f","D2","batch4","pattern_response","2863.7999999821186","stim/yes_40_dia_b1_b.png","j","pattern_63","f","false","","","","2863.7999999821186","false","49","","","","","","","","","","","","","","","","",""
"","","","","","html-keyboard-response","256","1278040","0.0-3.0-7.0-0.16","6234a93224a61094ce06a76f","D2","batch4","pattern_show_trial_num","null","<p class=block-text>Trial 56 out of 78</p>","null","","","","","","","","","","","","","","","","","","","","","","","","","",""
"","","","","","image-keyboard-response","257","1279764","0.0-3.0-7.0-1.16","6234a93224a61094ce06a76f","D2","batch4","pattern_response","1722.4000000059605","stim/no_26_1_w.png","j","pattern_10","j","true","","","","1722.4000000059605","true","50","","","","","","","","","","","","","","","","",""
"","","","","","html-keyboard-response","258","1281080","0.0-3.0-7.0-0.17","6234a93224a61094ce06a76f","D2","batch4","pattern_show_trial_num","null","<p class=block-text>Trial 57 out of 78</p>","null","","","","","","","","","","","","","","","","","","","","","","","","","",""
"","","","","","image-keyboard-response","259","1282094","0.0-3.0-7.0-1.17","6234a93224a61094ce06a76f","D2","batch4","pattern_response","1012.3000000119209","stim/yes_38_hor_b1_b.png","f","pattern_61","f","true","","","","1012.3000000119209","true","51","","","","","","","","","","","","","","","","",""
"","","","","","html-keyboard-response","260","1283407","0.0-3.0-7.0-0.18","6234a93224a61094ce06a76f","D2","batch4","pattern_show_trial_num","null","<p class=block-text>Trial 58 out of 78</p>","null","","","","","","","","","","","","","","","","","","","","","","","","","",""
"","","","","","image-keyboard-response","261","1284549","0.0-3.0-7.0-1.18","6234a93224a61094ce06a76f","D2","batch4","pattern_response","1139.5999999940395","stim/no_13_2_b.png","j","pattern_02","j","true","","","","1139.5999999940395","true","52","","","","","","","","","","","","","","","","",""
"","","","","","html-keyboard-response","262","1285864","0.0-3.0-7.0-0.19","6234a93224a61094ce06a76f","D2","batch4","pattern_show_trial_num","null","<p class=block-text>Trial 59 out of 78</p>","null","","","","","","","","","","","","","","","","","","","","","","","","","",""
"","","","","","image-keyboard-response","263","1288534","0.0-3.0-7.0-1.19","6234a93224a61094ce06a76f","D2","batch4","pattern_response","2669.100000023842","stim/no_38_1_b.png","j","pattern_20","j","true","","","","2669.100000023842","true","53","","","","","","","","","","","","","","","","",""
"","","","","","html-keyboard-response","264","1289847","0.0-3.0-7.0-0.20","6234a93224a61094ce06a76f","D2","batch4","pattern_show_trial_num","null","<p class=block-text>Trial 60 out of 78</p>","null","","","","","","","","","","","","","","","","","","","","","","","","","",""
"","","","","","image-keyboard-response","265","1291680","0.0-3.0-7.0-1.20","6234a93224a61094ce06a76f","D2","batch4","pattern_response","1831.199999988079","stim/yes_37_dia_w1.png","j","pattern_59","f","false","","","","1831.199999988079","false","53","","","","","","","","","","","","","","","","",""
"","","","","","html-keyboard-response","266","1292991","0.0-3.0-7.0-0.21","6234a93224a61094ce06a76f","D2","batch4","pattern_show_trial_num","null","<p class=block-text>Trial 61 out of 78</p>","null","","","","","","","","","","","","","","","","","","","","","","","","","",""
"","","","","","image-keyboard-response","267","1297222","0.0-3.0-7.0-1.21","6234a93224a61094ce06a76f","D2","batch4","pattern_response","4229.4000000059605","stim/yes_60_ver_b1_b.png","f","pattern_77","f","true","","","","4229.4000000059605","true","54","","","","","","","","","","","","","","","","",""
"","","","","","html-keyboard-response","268","1298535","0.0-3.0-7.0-0.22","6234a93224a61094ce06a76f","D2","batch4","pattern_show_trial_num","null","<p class=block-text>Trial 62 out of 78</p>","null","","","","","","","","","","","","","","","","","","","","","","","","","",""
"","","","","","image-keyboard-response","269","1300077","0.0-3.0-7.0-1.22","6234a93224a61094ce06a76f","D2","batch4","pattern_response","1539","stim/no_32_1_w.png","j","pattern_14","j","true","","","","1539","true","55","","","","","","","","","","","","","","","","",""
"","","","","","html-keyboard-response","270","1301390","0.0-3.0-7.0-0.23","6234a93224a61094ce06a76f","D2","batch4","pattern_show_trial_num","null","<p class=block-text>Trial 63 out of 78</p>","null","","","","","","","","","","","","","","","","","","","","","","","","","",""
"","","","","","image-keyboard-response","271","1302462","0.0-3.0-7.0-1.23","6234a93224a61094ce06a76f","D2","batch4","pattern_response","1070","stim/yes_43_ver_w1_w.png","f","pattern_65","f","true","","","","1070","true","56","","","","","","","","","","","","","","","","",""
"","","","","","html-keyboard-response","272","1303775","0.0-3.0-7.0-0.24","6234a93224a61094ce06a76f","D2","batch4","pattern_show_trial_num","null","<p class=block-text>Trial 64 out of 78</p>","null","","","","","","","","","","","","","","","","","","","","","","","","","",""
"","","","","","image-keyboard-response","273","1304908","0.0-3.0-7.0-1.24","6234a93224a61094ce06a76f","D2","batch4","pattern_response","1131.2000000178814","stim/no_20_1_w.png","j","pattern_06","j","true","","","","1131.2000000178814","true","57","","","","","","","","","","","","","","","","",""
"","","","","","html-keyboard-response","274","1306223","0.0-3.0-7.0-0.25","6234a93224a61094ce06a76f","D2","batch4","pattern_show_trial_num","null","<p class=block-text>Trial 65 out of 78</p>","null","","","","","","","","","","","","","","","","","","","","","","","","","",""
"","","","","","image-keyboard-response","275","1311522","0.0-3.0-7.0-1.25","6234a93224a61094ce06a76f","D2","batch4","pattern_response","5298.4000000059605","stim/no_65_1_b.png","j","pattern_38","j","true","","","","5298.4000000059605","true","58","","","","","","","","","","","","","","","","",""
"","","","","","html-keyboard-response","276","1312839","0.0-3.0-7.0-0.26","6234a93224a61094ce06a76f","D2","batch4","pattern_show_trial_num","null","<p class=block-text>Trial 66 out of 78</p>","null","","","","","","","","","","","","","","","","","","","","","","","","","",""
"","","","","","image-keyboard-response","277","1316122","0.0-3.0-7.0-1.26","6234a93224a61094ce06a76f","D2","batch4","pattern_response","3280.5999999940395","stim/no_52_1.png","j","pattern_32","j","true","","","","3280.5999999940395","true","59","","","","","","","","","","","","","","","","",""
"","","","","","html-keyboard-response","278","1317439","0.0-3.0-7.0-0.27","6234a93224a61094ce06a76f","D2","batch4","pattern_show_trial_num","null","<p class=block-text>Trial 67 out of 78</p>","null","","","","","","","","","","","","","","","","","","","","","","","","","",""
"","","","","","image-keyboard-response","279","1322403","0.0-3.0-7.0-1.27","6234a93224a61094ce06a76f","D2","batch4","pattern_response","4961.699999988079","stim/no_62_1_w.png","j","pattern_36","j","true","","","","4961.699999988079","true","60","","","","","","","","","","","","","","","","",""
"","","","","","html-keyboard-response","280","1323719","0.0-3.0-7.0-0.28","6234a93224a61094ce06a76f","D2","batch4","pattern_show_trial_num","null","<p class=block-text>Trial 68 out of 78</p>","null","","","","","","","","","","","","","","","","","","","","","","","","","",""
"","","","","","image-keyboard-response","281","1324490","0.0-3.0-7.0-1.28","6234a93224a61094ce06a76f","D2","batch4","pattern_response","768.5999999940395","stim/yes_55_hor_w1_w.png","f","pattern_75","f","true","","","","768.5999999940395","true","61","","","","","","","","","","","","","","","","",""
"","","","","","html-keyboard-response","282","1325799","0.0-3.0-7.0-0.29","6234a93224a61094ce06a76f","D2","batch4","pattern_show_trial_num","null","<p class=block-text>Trial 69 out of 78</p>","null","","","","","","","","","","","","","","","","","","","","","","","","","",""
"","","","","","image-keyboard-response","283","1328755","0.0-3.0-7.0-1.29","6234a93224a61094ce06a76f","D2","batch4","pattern_response","2954.0999999940395","stim/no_42_1_w.png","j","pattern_22","j","true","","","","2954.0999999940395","true","62","","","","","","","","","","","","","","","","",""
"","","","","","html-keyboard-response","284","1330070","0.0-3.0-7.0-0.30","6234a93224a61094ce06a76f","D2","batch4","pattern_show_trial_num","null","<p class=block-text>Trial 70 out of 78</p>","null","","","","","","","","","","","","","","","","","","","","","","","","","",""
"","","","","","image-keyboard-response","285","1332992","0.0-3.0-7.0-1.30","6234a93224a61094ce06a76f","D2","batch4","pattern_response","2920.399999976158","stim/no_36_2_w.png","j","pattern_18","j","true","","","","2920.399999976158","true","63","","","","","","","","","","","","","","","","",""
"","","","","","html-keyboard-response","286","1334303","0.0-3.0-7.0-0.31","6234a93224a61094ce06a76f","D2","batch4","pattern_show_trial_num","null","<p class=block-text>Trial 71 out of 78</p>","null","","","","","","","","","","","","","","","","","","","","","","","","","",""
"","","","","","image-keyboard-response","287","1335451","0.0-3.0-7.0-1.31","6234a93224a61094ce06a76f","D2","batch4","pattern_response","1146.9000000059605","stim/no_17_1_w.png","j","pattern_04","j","true","","","","1146.9000000059605","true","64","","","","","","","","","","","","","","","","",""
"","","","","","html-keyboard-response","288","1336767","0.0-3.0-7.0-0.32","6234a93224a61094ce06a76f","D2","batch4","pattern_show_trial_num","null","<p class=block-text>Trial 72 out of 78</p>","null","","","","","","","","","","","","","","","","","","","","","","","","","",""
"","","","","","image-keyboard-response","289","1341890","0.0-3.0-7.0-1.32","6234a93224a61094ce06a76f","D2","batch4","pattern_response","5122","stim/no_70_2.png","j","pattern_40","j","true","","","","5122","true","65","","","","","","","","","","","","","","","","",""
"","","","","","html-keyboard-response","290","1343206","0.0-3.0-7.0-0.33","6234a93224a61094ce06a76f","D2","batch4","pattern_show_trial_num","null","<p class=block-text>Trial 73 out of 78</p>","null","","","","","","","","","","","","","","","","","","","","","","","","","",""
"","","","","","image-keyboard-response","291","1345822","0.0-3.0-7.0-1.33","6234a93224a61094ce06a76f","D2","batch4","pattern_response","2613.5","stim/no_29_1_b.png","j","pattern_12","j","true","","","","2613.5","true","66","","","","","","","","","","","","","","","","",""
"","","","","","html-keyboard-response","292","1347134","0.0-3.0-7.0-0.34","6234a93224a61094ce06a76f","D2","batch4","pattern_show_trial_num","null","<p class=block-text>Trial 74 out of 78</p>","null","","","","","","","","","","","","","","","","","","","","","","","","","",""
"","","","","","image-keyboard-response","293","1347951","0.0-3.0-7.0-1.34","6234a93224a61094ce06a76f","D2","batch4","pattern_response","814.2000000178814","stim/yes_22_ver_w1.png","f","pattern_47","f","true","","","","814.2000000178814","true","67","","","","","","","","","","","","","","","","",""
"","","","","","html-keyboard-response","294","1349262","0.0-3.0-7.0-0.35","6234a93224a61094ce06a76f","D2","batch4","pattern_show_trial_num","null","<p class=block-text>Trial 75 out of 78</p>","null","","","","","","","","","","","","","","","","","","","","","","","","","",""
"","","","","","image-keyboard-response","295","1351740","0.0-3.0-7.0-1.35","6234a93224a61094ce06a76f","D2","batch4","pattern_response","2476","stim/no_34_1_b.png","j","pattern_16","j","true","","","","2476","true","68","","","","","","","","","","","","","","","","",""
"","","","","","html-keyboard-response","296","1353054","0.0-3.0-7.0-0.36","6234a93224a61094ce06a76f","D2","batch4","pattern_show_trial_num","null","<p class=block-text>Trial 76 out of 78</p>","null","","","","","","","","","","","","","","","","","","","","","","","","","",""
"","","","","","image-keyboard-response","297","1354202","0.0-3.0-7.0-1.36","6234a93224a61094ce06a76f","D2","batch4","pattern_response","1144.9000000059605","stim/yes_25_hor_b1_b.png","f","pattern_49","f","true","","","","1144.9000000059605","true","69","","","","","","","","","","","","","","","","",""
"","","","","","html-keyboard-response","298","1355518","0.0-3.0-7.0-0.37","6234a93224a61094ce06a76f","D2","batch4","pattern_show_trial_num","null","<p class=block-text>Trial 77 out of 78</p>","null","","","","","","","","","","","","","","","","","","","","","","","","","",""
"","","","","","image-keyboard-response","299","1357170","0.0-3.0-7.0-1.37","6234a93224a61094ce06a76f","D2","batch4","pattern_response","1649.4000000059605","stim/yes_31_hor_b1.png","f","pattern_55","f","true","","","","1649.4000000059605","true","70","","","","","","","","","","","","","","","","",""
"","","","","","html-keyboard-response","300","1358489","0.0-3.0-7.0-0.38","6234a93224a61094ce06a76f","D2","batch4","pattern_show_trial_num","null","<p class=block-text>Trial 78 out of 78</p>","null","","","","","","","","","","","","","","","","","","","","","","","","","",""
"","","","","","image-keyboard-response","301","1363983","0.0-3.0-7.0-1.38","6234a93224a61094ce06a76f","D2","batch4","pattern_response","5492.5999999940395","stim/no_46_1_b.png","j","pattern_26","j","true","","","","5492.5999999940395","true","71","","","","","","","","","","","","","","","","",""
"","","","","","html-button-response","302","1368016","0.0-3.0-8.0","6234a93224a61094ce06a76f","D2","batch4","","3524.0999999940395","<p class = block-text>This concludes the 4-in-a-row detection game.Thank you for your responses!<br>
            You responded correctly on 91% of the trials.<br>
            When you are ready, press ""Continue"" button to continue </p>","0","","","","","","","","","","","","","","","","","","","","","","","","","",""
"true","","","","","fullscreen","303","1370958","0.0-4.0-0.0","6234a93224a61094ce06a76f","D2","batch4","","","","","","","","","","","","","","","","","","","","","","","","","","","","","",""
"","","","","","instructions","304","1411688","0.0-4.0-1.0-0.0-0.0","6234a93224a61094ce06a76f","D2","batch4","tol-instructions","40729.30000001192","","","","","","","","[{""page_index"":0,""viewing_time"":8406.200000017881},{""page_index"":1,""viewing_time"":7850.5999999940395},{""page_index"":2,""viewing_time"":3177.9000000059605},{""page_index"":3,""viewing_time"":9409.59999999404},{""page_index"":4,""viewing_time"":4705},{""page_index"":5,""viewing_time"":5545.299999982119},{""page_index"":6,""viewing_time"":1634.4000000059605}]","","","","","","","","","","","","","","","","","","","",""
"","","","","","html-button-response","305","1412642","0.0-4.0-1.0-1.0-0.0","6234a93224a61094ce06a76f","D2","batch4","tol_enter_quiz","953.7000000178814","<p class=block-text> Let's answer a few questions <br>","0","","","","","","","","","","","","","","","","","","","","","","","","","",""
"","","","","","html-button-response","306","1417194","0.0-4.0-1.0-1.0-1.0","6234a93224a61094ce06a76f","D2","batch4","tol_quiz","4550.199999988079","<p class = block-text>True or False: You can only move the ball on top of a peg. <br></p>","0","","","true","","","","","","","","","","","","","","","","","","","","","","",""
"","","","","","html-button-response","307","1418134","0.0-4.0-1.0-1.0-2.0","6234a93224a61094ce06a76f","D2","batch4","tol_quiz_feedback","937.9000000059605","<p class = block-text>Correct! You can only move the ball on top of a peg.</p>","0","","","","","","","","","","","","","","","","","","","","","","","","","",""
"","","","","","html-button-response","308","1420505","0.0-4.0-1.0-1.0-3.0","6234a93224a61094ce06a76f","D2","batch4","tol_quiz","2370.300000011921","<p class = block-text>True or False: You should try to match your board with the target board with fewest moves possible. <br></p>","0","","","true","","","","","","","","","","","","","","","","","","","","","","",""
"","","","","","html-button-response","309","1421213","0.0-4.0-1.0-1.0-4.0","6234a93224a61094ce06a76f","D2","batch4","tol_quiz_feedback","707","<p class = block-text>Correct! </p>","0","","","","","","","","","","","","","","","","","","","","","","","","","",""
"","","","","","html-button-response","310","1422761","0.0-4.0-2.0","6234a93224a61094ce06a76f","D2","batch4","","1546.6000000238419","<p class=block-text> Now that you've understood the game, let's practice a few easier examples before we start!<br> <br>","0","","","","","","","","","","","","","","","","","","","","","","","","","",""
"","","","","","single-stim-button","311","1424867","0.0-4.0-3.0-0.0","6234a93224a61094ce06a76f","D2","batch4","tol_practice","2105","","","","","","","","","","","","","","tol_peg_2","2105","2105","0","[[1,2,0],[0,0],[0]]","1","[[1,2,0],[0,0],[3]]","practice","2105","","","","","",""
"","","","","","single-stim-button","312","1425729","0.0-4.0-3.0-1.0","6234a93224a61094ce06a76f","D2","batch4","tol_practice","861","","","","","","","","","","","","","","tol_peg_3","861","861","0","[[1,2,0],[0,0],[3]]","1","[[1,2,0],[0,0],[3]]","practice","861","","","","","",""
"","","","","","poldrack-single-stim","313","1426733","0.0-4.0-4.0","6234a93224a61094ce06a76f","D2","batch4","tol_feedback","-1","","","","","true","","","","","","","","","","1000","1000","500","","","","","","-1","none","true","","0",""
"","","","","","single-stim-button","314","1429644","0.0-4.0-5.0-0.0","6234a93224a61094ce06a76f","D2","batch4","tol_practice","2911","","","","","","","","","","","","","","tol_peg_1","2911","2911","0","[[1,0,0],[3,0],[0]]","2","[[0,0,0],[3,1],[2]]","practice","2911","","","","","",""
"","","","","","single-stim-button","315","1430657","0.0-4.0-5.0-1.0","6234a93224a61094ce06a76f","D2","batch4","tol_practice","1012","","","","","","","","","","","","","","tol_peg_3","1012","1012","0","[[1,0,0],[3,0],[2]]","2","[[0,0,0],[3,1],[2]]","practice","1012","","","","","",""
"","","","","","single-stim-button","316","1431366","0.0-4.0-5.1-0.1","6234a93224a61094ce06a76f","D2","batch4","tol_practice","708","","","","","","","","","","","","","","tol_peg_1","708","708","0","[[0,0,0],[3,0],[2]]","3","[[0,0,0],[3,1],[2]]","practice","708","","","","","",""
"","","","","","single-stim-button","317","1431925","0.0-4.0-5.1-1.1","6234a93224a61094ce06a76f","D2","batch4","tol_practice","558","","","","","","","","","","","","","","tol_peg_2","558","558","0","[[0,0,0],[3,1],[2]]","3","[[0,0,0],[3,1],[2]]","practice","558","","","","","",""
"","","","","","poldrack-single-stim","318","1432933","0.0-4.0-6.0","6234a93224a61094ce06a76f","D2","batch4","tol_feedback","-1","","","","","true","","","","","","","","","","1000","1000","500","","","","","","-1","none","true","","0",""
"","","","","","single-stim-button","319","1434919","0.0-4.0-7.0-0.0","6234a93224a61094ce06a76f","D2","batch4","tol_practice","1985","","","","","","","","","","","","","","tol_peg_2","1985","1985","0","[[1,2,0],[0,0],[0]]","4","[[1,0,0],[2,0],[3]]","practice","1985","","","","","",""
"","","","","","single-stim-button","320","1435611","0.0-4.0-7.0-1.0","6234a93224a61094ce06a76f","D2","batch4","tol_practice","690","","","","","","","","","","","","","","tol_peg_3","690","690","0","[[1,2,0],[0,0],[3]]","4","[[1,0,0],[2,0],[3]]","practice","690","","","","","",""
"","","","","","single-stim-button","321","1436328","0.0-4.0-7.1-0.1","6234a93224a61094ce06a76f","D2","batch4","tol_practice","717","","","","","","","","","","","","","","tol_peg_1","717","717","0","[[1,0,0],[0,0],[3]]","5","[[1,0,0],[2,0],[3]]","practice","717","","","","","",""
"","","","","","single-stim-button","322","1437273","0.0-4.0-7.1-1.1","6234a93224a61094ce06a76f","D2","batch4","tol_practice","944","","","","","","","","","","","","","","tol_peg_2","944","944","0","[[1,0,0],[2,0],[3]]","5","[[1,0,0],[2,0],[3]]","practice","944","","","","","",""
"","","","","","poldrack-single-stim","323","1438277","0.0-4.0-8.0","6234a93224a61094ce06a76f","D2","batch4","tol_feedback","-1","","","","","true","","","","","","","","","","1000","1000","500","","","","","","-1","none","true","","0",""
"","","","","","html-button-response","324","1441312","0.0-4.0-9.0","6234a93224a61094ce06a76f","D2","batch4","tol_instruction","3033.9000000059605","<div class = centerbox><p class = center-block-text>Great job! You are done with practice trials<br>You are about to start official trials.<br> <br> Problem <strong>1</strong> out of 25 problems</p></div>","0","","","","","","","","","","","","","","","","","","","","","","","","","",""
"","","","","","single-stim-button","325","1444718","0.0-4.0-10.0-0.0","6234a93224a61094ce06a76f","D2","batch4","tol_tohand","2399","","","","","","","","","","","","","","tol_peg_2","2399","2399","0","[[1,2,0],[0,0],[0]]","1","[[1,3,0],[2,0],[0]]","0","0","","","","","","3"
"","","","","","single-stim-button","326","1445319","0.0-4.0-10.0-1.0","6234a93224a61094ce06a76f","D2","batch4","tol_toboard","600","","","","","","","","","","","","","","tol_peg_3","600","600","0","[[1,2,0],[0,0],[3]]","1","[[1,3,0],[2,0],[0]]","0","0","","","","","","3"
"","","","","","single-stim-button","327","1445944","0.0-4.0-10.1-0.1","6234a93224a61094ce06a76f","D2","batch4","tol_tohand","625","","","","","","","","","","","","","","tol_peg_1","625","625","0","[[1,0,0],[0,0],[3]]","2","[[1,3,0],[2,0],[0]]","0","0","","","","","","3"
"","","","","","single-stim-button","328","1446471","0.0-4.0-10.1-1.1","6234a93224a61094ce06a76f","D2","batch4","tol_toboard","526","","","","","","","","","","","","","","tol_peg_2","526","526","0","[[1,0,0],[2,0],[3]]","2","[[1,3,0],[2,0],[0]]","0","0","","","","","","3"
"","","","","","single-stim-button","329","1447089","0.0-4.0-10.2-0.2","6234a93224a61094ce06a76f","D2","batch4","tol_tohand","618","","","","","","","","","","","","","","tol_peg_3","618","618","0","[[1,0,0],[2,0],[0]]","3","[[1,3,0],[2,0],[0]]","0","0","","","","","","3"
"","","","","","single-stim-button","330","1447879","0.0-4.0-10.2-1.2","6234a93224a61094ce06a76f","D2","batch4","tol_toboard","790","","","","","","","","","","","","","","tol_peg_1","790","790","0","[[1,3,0],[2,0],[0]]","3","[[1,3,0],[2,0],[0]]","0","0","","","","","","3"
"","","","","","poldrack-single-stim","331","1448888","0.0-4.0-11.0","6234a93224a61094ce06a76f","D2","batch4","tol_feedback","-1","","","","","true","","","","","","","","","","1000","1000","500","","","","","","-1","none","true","2399","3642",""
"","","","","","html-button-response","332","1450065","0.0-4.0-12.0","6234a93224a61094ce06a76f","D2","batch4","tol_trial_num","1175.7000000178814","<div class = centerbox><p class = center-block-text>problem <strong>2</strong> out of 25 problems</p></div>","0","","","","","","","","","","","","","","","","","","","","","","","","","",""
"","","","","","single-stim-button","333","1452477","0.0-4.0-13.0-0.0","6234a93224a61094ce06a76f","D2","batch4","tol_tohand","2412","","","","","","","","","","","","","","tol_peg_1","2412","2412","0","[[1,0,0],[3,0],[0]]","1","[[2,1,3],[0,0],[0]]","1","0","","","","","","5"
"","","","","","single-stim-button","334","1454083","0.0-4.0-13.0-1.0","6234a93224a61094ce06a76f","D2","batch4","tol_toboard","1605","","","","","","","","","","","","","","tol_peg_3","1605","1605","0","[[1,0,0],[3,0],[2]]","1","[[2,1,3],[0,0],[0]]","1","0","","","","","","5"
"","","","","","single-stim-button","335","1454914","0.0-4.0-13.1-0.1","6234a93224a61094ce06a76f","D2","batch4","tol_tohand","830","","","","","","","","","","","","","","tol_peg_1","830","830","0","[[0,0,0],[3,0],[2]]","2","[[2,1,3],[0,0],[0]]","1","0","","","","","","5"
"","","","","","single-stim-button","336","1455599","0.0-4.0-13.1-1.1","6234a93224a61094ce06a76f","D2","batch4","tol_toboard","684","","","","","","","","","","","","","","tol_peg_2","684","684","0","[[0,0,0],[3,1],[2]]","2","[[2,1,3],[0,0],[0]]","1","0","","","","","","5"
"","","","","","single-stim-button","337","1456150","0.0-4.0-13.2-0.2","6234a93224a61094ce06a76f","D2","batch4","tol_tohand","550","","","","","","","","","","","","","","tol_peg_3","550","550","0","[[0,0,0],[3,1],[0]]","3","[[2,1,3],[0,0],[0]]","1","0","","","","","","5"
"","","","","","single-stim-button","338","1456981","0.0-4.0-13.2-1.2","6234a93224a61094ce06a76f","D2","batch4","tol_toboard","831","","","","","","","","","","","","","","tol_peg_1","831","831","0","[[2,0,0],[3,1],[0]]","3","[[2,1,3],[0,0],[0]]","1","0","","","","","","5"
"","","","","","single-stim-button","339","1457740","0.0-4.0-13.3-0.3","6234a93224a61094ce06a76f","D2","batch4","tol_tohand","757","","","","","","","","","","","","","","tol_peg_2","757","757","0","[[2,0,0],[3,0],[0]]","4","[[2,1,3],[0,0],[0]]","1","0","","","","","","5"
"","","","","","single-stim-button","340","1458432","0.0-4.0-13.3-1.3","6234a93224a61094ce06a76f","D2","batch4","tol_toboard","691","","","","","","","","","","","","","","tol_peg_1","691","691","0","[[2,1,0],[3,0],[0]]","4","[[2,1,3],[0,0],[0]]","1","0","","","","","","5"
"","","","","","single-stim-button","341","1458941","0.0-4.0-13.4-0.4","6234a93224a61094ce06a76f","D2","batch4","tol_tohand","509","","","","","","","","","","","","","","tol_peg_2","509","509","0","[[2,1,0],[0,0],[0]]","5","[[2,1,3],[0,0],[0]]","1","0","","","","","","5"
"","","","","","single-stim-button","342","1459444","0.0-4.0-13.4-1.4","6234a93224a61094ce06a76f","D2","batch4","tol_toboard","502","","","","","","","","","","","","","","tol_peg_1","502","502","0","[[2,1,3],[0,0],[0]]","5","[[2,1,3],[0,0],[0]]","1","0","","","","","","5"
"","","","","","poldrack-single-stim","343","1460453","0.0-4.0-14.0","6234a93224a61094ce06a76f","D2","batch4","tol_feedback","-1","","","","","true","","","","","","","","","","1000","1000","500","","","","","","-1","none","true","2412","5058",""
"","","","","","html-button-response","344","1461473","0.0-4.0-15.0","6234a93224a61094ce06a76f","D2","batch4","tol_trial_num","1019.2999999821186","<div class = centerbox><p class = center-block-text>problem <strong>3</strong> out of 25 problems</p></div>","0","","","","","","","","","","","","","","","","","","","","","","","","","",""
"","","","","","single-stim-button","345","1467513","0.0-4.0-16.0-0.0","6234a93224a61094ce06a76f","D2","batch4","tol_tohand","6039","","","","","","","","","","","","","","tol_peg_3","6039","6039","0","[[2,3,0],[0,0],[0]]","1","[[1,2,0],[3,0],[0]]","2","0","","","","","","4"
"","","","","","single-stim-button","346","1468502","0.0-4.0-16.0-1.0","6234a93224a61094ce06a76f","D2","batch4","tol_toboard","988","","","","","","","","","","","","","","tol_peg_2","988","988","0","[[2,3,0],[1,0],[0]]","1","[[1,2,0],[3,0],[0]]","2","0","","","","","","4"
"","","","","","single-stim-button","347","1469096","0.0-4.0-16.1-0.1","6234a93224a61094ce06a76f","D2","batch4","tol_tohand","593","","","","","","","","","","","","","","tol_peg_1","593","593","0","[[2,0,0],[1,0],[0]]","2","[[1,2,0],[3,0],[0]]","2","0","","","","","","4"
