"success","timeout","failed_images","failed_audio","failed_video","trial_type","trial_index","time_elapsed","internal_node_id","subject_id","study_id","session_id","task","rt","stimulus","response","item","answer","correct","spm_correct","spm_rt","view_history","fiar_detect_rt","fiar_detect_correct","total_correct_fiar_detect","post_trial_gap","choices","mouse_click","stim_duration","block_duration","timing_post_trial","current_position","tol_num_moves_made","tol_target","tol_problem_id","tol_rt","key_press","possible_responses","tol_correct","preplanning","tol_rt_per_trial","tol_min_moves"
"true","false","[]","[]","[]","preload","0","9232","0.0-0.0","6234b670fac1a65a6f832f32","C3","batch3","","","","","","","","","","","","","","","","","","","","","","","","","","","","","",""
"true","","","","","fullscreen","1","37067","0.0-1.0-0.0","6234b670fac1a65a6f832f32","C3","batch3","","","","","","","","","","","","","","","","","","","","","","","","","","","","","",""
"true","","","","","fullscreen","2","42771","0.0-2.0-0.0","6234b670fac1a65a6f832f32","C3","batch3","spm_fullscreen","","","","","","","","","","","","","","","","","","","","","","","","","","","","",""
"","","","","","html-button-response","3","62966","0.0-2.0-1.0","6234b670fac1a65a6f832f32","C3","batch3","","20190.700000047684","<p class = block-text><b>Instructions</b> <br>This is a widely used intelligence test in research. <br>In this test, a figure with a missing piece will be presented.<br>Below the figure are alternative pieces to complete the figure, only one of which is correct.<br> Different figures might involve different principles for obtaining the missing piece<br>Your job is to select the most logical piece to complete the figure.</p>","0","","","","","","","","","","","","","","","","","","","","","","","","","",""
"","","","","","html-keyboard-response","4","63771","0.0-2.0-2.0-0.0","6234b670fac1a65a6f832f32","C3","batch3","spm_show_trial_num","null","<p class=block-text>Trial 1 out of 60</p>","null","","","","","","","","","","","","","","","","","","","","","","","","","",""
"","","","","","image-button-response","5","74344","0.0-2.0-2.0-1.0","6234b670fac1a65a6f832f32","C3","batch3","spm_respsonse","10566.899999976158","img/question_1_1.jpeg","3","mat_01","4","1","1","10566.899999976158","","","","","","","","","","","","","","","","","","","","",""
"","","","","","html-keyboard-response","6","75408","0.0-2.0-2.0-0.1","6234b670fac1a65a6f832f32","C3","batch3","spm_show_trial_num","null","<p class=block-text>Trial 2 out of 60</p>","null","","","","","","","","","","","","","","","","","","","","","","","","","",""
"","","","","","image-button-response","7","79204","0.0-2.0-2.0-1.1","6234b670fac1a65a6f832f32","C3","batch3","spm_respsonse","3793","img/question_1_2.jpeg","4","mat_02","5","1","1","3793","","","","","","","","","","","","","","","","","","","","",""
"","","","","","html-keyboard-response","8","80265","0.0-2.0-2.0-0.2","6234b670fac1a65a6f832f32","C3","batch3","spm_show_trial_num","null","<p class=block-text>Trial 3 out of 60</p>","null","","","","","","","","","","","","","","","","","","","","","","","","","",""
"","","","","","image-button-response","9","85068","0.0-2.0-2.0-1.2","6234b670fac1a65a6f832f32","C3","batch3","spm_respsonse","4800.199999928474","img/question_1_3.jpeg","0","mat_03","1","1","1","4800.199999928474","","","","","","","","","","","","","","","","","","","","",""
"","","","","","html-keyboard-response","10","86136","0.0-2.0-2.0-0.3","6234b670fac1a65a6f832f32","C3","batch3","spm_show_trial_num","null","<p class=block-text>Trial 4 out of 60</p>","null","","","","","","","","","","","","","","","","","","","","","","","","","",""
"","","","","","image-button-response","11","90320","0.0-2.0-2.0-1.3","6234b670fac1a65a6f832f32","C3","batch3","spm_respsonse","4179.5","img/question_1_4.jpeg","1","mat_04","2","1","1","4179.5","","","","","","","","","","","","","","","","","","","","",""
"","","","","","html-keyboard-response","12","91395","0.0-2.0-2.0-0.4","6234b670fac1a65a6f832f32","C3","batch3","spm_show_trial_num","null","<p class=block-text>Trial 5 out of 60</p>","null","","","","","","","","","","","","","","","","","","","","","","","","","",""
"","","","","","image-button-response","13","99092","0.0-2.0-2.0-1.4","6234b670fac1a65a6f832f32","C3","batch3","spm_respsonse","7693.199999928474","img/question_1_5.jpeg","5","mat_05","6","1","1","7693.199999928474","","","","","","","","","","","","","","","","","","","","",""
"","","","","","html-keyboard-response","14","100152","0.0-2.0-2.0-0.5","6234b670fac1a65a6f832f32","C3","batch3","spm_show_trial_num","null","<p class=block-text>Trial 6 out of 60</p>","null","","","","","","","","","","","","","","","","","","","","","","","","","",""
"","","","","","image-button-response","15","105365","0.0-2.0-2.0-1.5","6234b670fac1a65a6f832f32","C3","batch3","spm_respsonse","5209.600000023842","img/question_1_6.jpeg","2","mat_06","3","1","1","5209.600000023842","","","","","","","","","","","","","","","","","","","","",""
"","","","","","html-keyboard-response","16","106433","0.0-2.0-2.0-0.6","6234b670fac1a65a6f832f32","C3","batch3","spm_show_trial_num","null","<p class=block-text>Trial 7 out of 60</p>","null","","","","","","","","","","","","","","","","","","","","","","","","","",""
"","","","","","image-button-response","17","113185","0.0-2.0-2.0-1.6","6234b670fac1a65a6f832f32","C3","batch3","spm_respsonse","6748.799999952316","img/question_1_7.jpeg","5","mat_07","6","1","1","6748.799999952316","","","","","","","","","","","","","","","","","","","","",""
"","","","","","html-keyboard-response","18","114244","0.0-2.0-2.0-0.7","6234b670fac1a65a6f832f32","C3","batch3","spm_show_trial_num","null","<p class=block-text>Trial 8 out of 60</p>","null","","","","","","","","","","","","","","","","","","","","","","","","","",""
"","","","","","image-button-response","19","122512","0.0-2.0-2.0-1.7","6234b670fac1a65a6f832f32","C3","batch3","spm_respsonse","8266.100000023842","img/question_1_8.jpeg","1","mat_08","2","1","1","8266.100000023842","","","","","","","","","","","","","","","","","","","","",""
"","","","","","html-keyboard-response","20","123591","0.0-2.0-2.0-0.8","6234b670fac1a65a6f832f32","C3","batch3","spm_show_trial_num","null","<p class=block-text>Trial 9 out of 60</p>","null","","","","","","","","","","","","","","","","","","","","","","","","","",""
"","","","","","image-button-response","21","128750","0.0-2.0-2.0-1.8","6234b670fac1a65a6f832f32","C3","batch3","spm_respsonse","5156","img/question_1_9.jpeg","0","mat_09","1","1","1","5156","","","","","","","","","","","","","","","","","","","","",""
"","","","","","html-keyboard-response","22","129822","0.0-2.0-2.0-0.9","6234b670fac1a65a6f832f32","C3","batch3","spm_show_trial_num","null","<p class=block-text>Trial 10 out of 60</p>","null","","","","","","","","","","","","","","","","","","","","","","","","","",""
"","","","","","image-button-response","23","137992","0.0-2.0-2.0-1.9","6234b670fac1a65a6f832f32","C3","batch3","spm_respsonse","8167.300000071526","img/question_1_10.jpeg","2","mat_10","3","1","1","8167.300000071526","","","","","","","","","","","","","","","","","","","","",""
"","","","","","html-keyboard-response","24","139055","0.0-2.0-2.0-0.10","6234b670fac1a65a6f832f32","C3","batch3","spm_show_trial_num","null","<p class=block-text>Trial 11 out of 60</p>","null","","","","","","","","","","","","","","","","","","","","","","","","","",""
"","","","","","image-button-response","25","157459","0.0-2.0-2.0-1.10","6234b670fac1a65a6f832f32","C3","batch3","spm_respsonse","18400.700000047684","img/question_1_11.jpeg","1","mat_11","4","0","0","18400.700000047684","","","","","","","","","","","","","","","","","","","","",""
"","","","","","html-keyboard-response","26","158520","0.0-2.0-2.0-0.11","6234b670fac1a65a6f832f32","C3","batch3","spm_show_trial_num","null","<p class=block-text>Trial 12 out of 60</p>","null","","","","","","","","","","","","","","","","","","","","","","","","","",""
"","","","","","image-button-response","27","177585","0.0-2.0-2.0-1.11","6234b670fac1a65a6f832f32","C3","batch3","spm_respsonse","19062.600000023842","img/question_1_12.jpeg","0","mat_12","5","0","0","19062.600000023842","","","","","","","","","","","","","","","","","","","","",""
"","","","","","html-keyboard-response","28","178643","0.0-2.0-2.0-0.12","6234b670fac1a65a6f832f32","C3","batch3","spm_show_trial_num","null","<p class=block-text>Trial 13 out of 60</p>","null","","","","","","","","","","","","","","","","","","","","","","","","","",""
"","","","","","image-button-response","29","182470","0.0-2.0-2.0-1.12","6234b670fac1a65a6f832f32","C3","batch3","spm_respsonse","3822.5999999046326","img/question_2_1.jpeg","1","mat_13","2","1","1","3822.5999999046326","","","","","","","","","","","","","","","","","","","","",""
"","","","","","html-keyboard-response","30","183535","0.0-2.0-2.0-0.13","6234b670fac1a65a6f832f32","C3","batch3","spm_show_trial_num","null","<p class=block-text>Trial 14 out of 60</p>","null","","","","","","","","","","","","","","","","","","","","","","","","","",""
"","","","","","image-button-response","31","189862","0.0-2.0-2.0-1.13","6234b670fac1a65a6f832f32","C3","batch3","spm_respsonse","6324.700000047684","img/question_2_2.jpeg","5","mat_14","6","1","1","6324.700000047684","","","","","","","","","","","","","","","","","","","","",""
"","","","","","html-keyboard-response","32","190936","0.0-2.0-2.0-0.14","6234b670fac1a65a6f832f32","C3","batch3","spm_show_trial_num","null","<p class=block-text>Trial 15 out of 60</p>","null","","","","","","","","","","","","","","","","","","","","","","","","","",""
"","","","","","image-button-response","33","194748","0.0-2.0-2.0-1.14","6234b670fac1a65a6f832f32","C3","batch3","spm_respsonse","3809.6999999284744","img/question_2_3.jpeg","0","mat_15","1","1","1","3809.6999999284744","","","","","","","","","","","","","","","","","","","","",""
"","","","","","html-keyboard-response","34","195810","0.0-2.0-2.0-0.15","6234b670fac1a65a6f832f32","C3","batch3","spm_show_trial_num","null","<p class=block-text>Trial 16 out of 60</p>","null","","","","","","","","","","","","","","","","","","","","","","","","","",""
"","","","","","image-button-response","35","201868","0.0-2.0-2.0-1.15","6234b670fac1a65a6f832f32","C3","batch3","spm_respsonse","6055.600000023842","img/question_2_4.jpeg","1","mat_16","2","1","1","6055.600000023842","","","","","","","","","","","","","","","","","","","","",""
"","","","","","html-keyboard-response","36","202946","0.0-2.0-2.0-0.16","6234b670fac1a65a6f832f32","C3","batch3","spm_show_trial_num","null","<p class=block-text>Trial 17 out of 60</p>","null","","","","","","","","","","","","","","","","","","","","","","","","","",""
"","","","","","image-button-response","37","217603","0.0-2.0-2.0-1.16","6234b670fac1a65a6f832f32","C3","batch3","spm_respsonse","14654.699999928474","img/question_2_5.jpeg","0","mat_17","1","1","1","14654.699999928474","","","","","","","","","","","","","","","","","","","","",""
"","","","","","html-keyboard-response","38","218664","0.0-2.0-2.0-0.17","6234b670fac1a65a6f832f32","C3","batch3","spm_show_trial_num","null","<p class=block-text>Trial 18 out of 60</p>","null","","","","","","","","","","","","","","","","","","","","","","","","","",""
"","","","","","image-button-response","39","225189","0.0-2.0-2.0-1.17","6234b670fac1a65a6f832f32","C3","batch3","spm_respsonse","6521.700000047684","img/question_2_6.jpeg","2","mat_18","3","1","1","6521.700000047684","","","","","","","","","","","","","","","","","","","","",""
"","","","","","html-keyboard-response","40","226253","0.0-2.0-2.0-0.18","6234b670fac1a65a6f832f32","C3","batch3","spm_show_trial_num","null","<p class=block-text>Trial 19 out of 60</p>","null","","","","","","","","","","","","","","","","","","","","","","","","","",""
"","","","","","image-button-response","41","232711","0.0-2.0-2.0-1.18","6234b670fac1a65a6f832f32","C3","batch3","spm_respsonse","6454.599999904633","img/question_2_7.jpeg","4","mat_19","5","1","1","6454.599999904633","","","","","","","","","","","","","","","","","","","","",""
"","","","","","html-keyboard-response","42","233767","0.0-2.0-2.0-0.19","6234b670fac1a65a6f832f32","C3","batch3","spm_show_trial_num","null","<p class=block-text>Trial 20 out of 60</p>","null","","","","","","","","","","","","","","","","","","","","","","","","","",""
"","","","","","image-button-response","43","243191","0.0-2.0-2.0-1.19","6234b670fac1a65a6f832f32","C3","batch3","spm_respsonse","9421","img/question_2_8.jpeg","3","mat_20","6","0","0","9421","","","","","","","","","","","","","","","","","","","","",""
"","","","","","html-keyboard-response","44","244258","0.0-2.0-2.0-0.20","6234b670fac1a65a6f832f32","C3","batch3","spm_show_trial_num","null","<p class=block-text>Trial 21 out of 60</p>","null","","","","","","","","","","","","","","","","","","","","","","","","","",""
"","","","","","image-button-response","45","259047","0.0-2.0-2.0-1.20","6234b670fac1a65a6f832f32","C3","batch3","spm_respsonse","14785.599999904633","img/question_2_9.jpeg","3","mat_21","4","1","1","14785.599999904633","","","","","","","","","","","","","","","","","","","","",""
"","","","","","html-keyboard-response","46","260112","0.0-2.0-2.0-0.21","6234b670fac1a65a6f832f32","C3","batch3","spm_show_trial_num","null","<p class=block-text>Trial 22 out of 60</p>","null","","","","","","","","","","","","","","","","","","","","","","","","","",""
"","","","","","image-button-response","47","270785","0.0-2.0-2.0-1.21","6234b670fac1a65a6f832f32","C3","batch3","spm_respsonse","10670.399999976158","img/question_2_10.jpeg","2","mat_22","3","1","1","10670.399999976158","","","","","","","","","","","","","","","","","","","","",""
"","","","","","html-keyboard-response","48","271842","0.0-2.0-2.0-0.22","6234b670fac1a65a6f832f32","C3","batch3","spm_show_trial_num","null","<p class=block-text>Trial 23 out of 60</p>","null","","","","","","","","","","","","","","","","","","","","","","","","","",""
"","","","","","image-button-response","49","284134","0.0-2.0-2.0-1.22","6234b670fac1a65a6f832f32","C3","batch3","spm_respsonse","12290.899999976158","img/question_2_11.jpeg","3","mat_23","4","1","1","12290.899999976158","","","","","","","","","","","","","","","","","","","","",""
"","","","","","html-keyboard-response","50","285195","0.0-2.0-2.0-0.23","6234b670fac1a65a6f832f32","C3","batch3","spm_show_trial_num","null","<p class=block-text>Trial 24 out of 60</p>","null","","","","","","","","","","","","","","","","","","","","","","","","","",""
"","","","","","image-button-response","51","319151","0.0-2.0-2.0-1.23","6234b670fac1a65a6f832f32","C3","batch3","spm_respsonse","33953.699999928474","img/question_2_12.jpeg","4","mat_24","5","1","1","33953.699999928474","","","","","","","","","","","","","","","","","","","","",""
"","","","","","html-button-response","52","322272","0.0-2.0-3.0","6234b670fac1a65a6f832f32","C3","batch3","attention_check","2867.100000023842","<p class = block-text>Attention check: Please choose 1<br></p>","0","","","true","","","","","","","","","","","","","","","","","","","","","","",""
"","","","","","html-keyboard-response","53","323083","0.0-2.0-4.0-0.0","6234b670fac1a65a6f832f32","C3","batch3","spm_show_trial_num","null","<p class=block-text>Trial 25 out of 60</p>","null","","","","","","","","","","","","","","","","","","","","","","","","","",""
"","","","","","image-button-response","54","335220","0.0-2.0-4.0-1.0","6234b670fac1a65a6f832f32","C3","batch3","spm_respsonse","12133.300000071526","img/question_3_1.jpeg","7","mat_25","8","1","1","12133.300000071526","","","","","","","","","","","","","","","","","","","","",""
"","","","","","html-keyboard-response","55","336284","0.0-2.0-4.0-0.1","6234b670fac1a65a6f832f32","C3","batch3","spm_show_trial_num","null","<p class=block-text>Trial 26 out of 60</p>","null","","","","","","","","","","","","","","","","","","","","","","","","","",""
"","","","","","image-button-response","56","347435","0.0-2.0-4.0-1.1","6234b670fac1a65a6f832f32","C3","batch3","spm_respsonse","11148","img/question_3_2.jpeg","1","mat_26","2","1","1","11148","","","","","","","","","","","","","","","","","","","","",""
"","","","","","html-keyboard-response","57","348496","0.0-2.0-4.0-0.2","6234b670fac1a65a6f832f32","C3","batch3","spm_show_trial_num","null","<p class=block-text>Trial 27 out of 60</p>","null","","","","","","","","","","","","","","","","","","","","","","","","","",""
"","","","","","image-button-response","58","363975","0.0-2.0-4.0-1.2","6234b670fac1a65a6f832f32","C3","batch3","spm_respsonse","15476.399999976158","img/question_3_3.jpeg","2","mat_27","3","1","1","15476.399999976158","","","","","","","","","","","","","","","","","","","","",""
"","","","","","html-keyboard-response","59","365041","0.0-2.0-4.0-0.3","6234b670fac1a65a6f832f32","C3","batch3","spm_show_trial_num","null","<p class=block-text>Trial 28 out of 60</p>","null","","","","","","","","","","","","","","","","","","","","","","","","","",""
"","","","","","image-button-response","60","400513","0.0-2.0-4.0-1.3","6234b670fac1a65a6f832f32","C3","batch3","spm_respsonse","35469.5","img/question_3_4.jpeg","7","mat_28","8","1","1","35469.5","","","","","","","","","","","","","","","","","","","","",""
"","","","","","html-keyboard-response","61","401583","0.0-2.0-4.0-0.4","6234b670fac1a65a6f832f32","C3","batch3","spm_show_trial_num","null","<p class=block-text>Trial 29 out of 60</p>","null","","","","","","","","","","","","","","","","","","","","","","","","","",""
"","","","","","image-button-response","62","413603","0.0-2.0-4.0-1.4","6234b670fac1a65a6f832f32","C3","batch3","spm_respsonse","12017.299999952316","img/question_3_5.jpeg","6","mat_29","7","1","1","12017.299999952316","","","","","","","","","","","","","","","","","","","","",""
"","","","","","html-keyboard-response","63","414661","0.0-2.0-4.0-0.5","6234b670fac1a65a6f832f32","C3","batch3","spm_show_trial_num","null","<p class=block-text>Trial 30 out of 60</p>","null","","","","","","","","","","","","","","","","","","","","","","","","","",""
"","","","","","image-button-response","64","433928","0.0-2.0-4.0-1.5","6234b670fac1a65a6f832f32","C3","batch3","spm_respsonse","19263.700000047684","img/question_3_6.jpeg","7","mat_30","4","0","0","19263.700000047684","","","","","","","","","","","","","","","","","","","","",""
"","","","","","html-keyboard-response","65","434996","0.0-2.0-4.0-0.6","6234b670fac1a65a6f832f32","C3","batch3","spm_show_trial_num","null","<p class=block-text>Trial 31 out of 60</p>","null","","","","","","","","","","","","","","","","","","","","","","","","","",""
"","","","","","image-button-response","66","446620","0.0-2.0-4.0-1.6","6234b670fac1a65a6f832f32","C3","batch3","spm_respsonse","11620.600000023842","img/question_3_7.jpeg","4","mat_31","5","1","1","11620.600000023842","","","","","","","","","","","","","","","","","","","","",""
"","","","","","html-keyboard-response","67","447686","0.0-2.0-4.0-0.7","6234b670fac1a65a6f832f32","C3","batch3","spm_show_trial_num","null","<p class=block-text>Trial 32 out of 60</p>","null","","","","","","","","","","","","","","","","","","","","","","","","","",""
"","","","","","image-button-response","68","489970","0.0-2.0-4.0-1.7","6234b670fac1a65a6f832f32","C3","batch3","spm_respsonse","42281.299999952316","img/question_3_8.jpeg","0","mat_32","1","1","1","42281.299999952316","","","","","","","","","","","","","","","","","","","","",""
"","","","","","html-keyboard-response","69","491026","0.0-2.0-4.0-0.8","6234b670fac1a65a6f832f32","C3","batch3","spm_show_trial_num","null","<p class=block-text>Trial 33 out of 60</p>","null","","","","","","","","","","","","","","","","","","","","","","","","","",""
"","","","","","image-button-response","70","523551","0.0-2.0-4.0-1.8","6234b670fac1a65a6f832f32","C3","batch3","spm_respsonse","32522.399999976158","img/question_3_9.jpeg","6","mat_33","7","1","1","32522.399999976158","","","","","","","","","","","","","","","","","","","","",""
"","","","","","html-keyboard-response","71","524619","0.0-2.0-4.0-0.9","6234b670fac1a65a6f832f32","C3","batch3","spm_show_trial_num","null","<p class=block-text>Trial 34 out of 60</p>","null","","","","","","","","","","","","","","","","","","","","","","","","","",""
"","","","","","image-button-response","72","581471","0.0-2.0-4.0-1.9","6234b670fac1a65a6f832f32","C3","batch3","spm_respsonse","56848.700000047684","img/question_3_10.jpeg","0","mat_34","6","0","0","56848.700000047684","","","","","","","","","","","","","","","","","","","","",""
"","","","","","html-keyboard-response","73","582542","0.0-2.0-4.0-0.10","6234b670fac1a65a6f832f32","C3","batch3","spm_show_trial_num","null","<p class=block-text>Trial 35 out of 60</p>","null","","","","","","","","","","","","","","","","","","","","","","","","","",""
"","","","","","image-button-response","74","662828","0.0-2.0-4.0-1.10","6234b670fac1a65a6f832f32","C3","batch3","spm_respsonse","80284","img/question_3_11.jpeg","0","mat_35","1","1","1","80284","","","","","","","","","","","","","","","","","","","","",""
"","","","","","html-keyboard-response","75","663886","0.0-2.0-4.0-0.11","6234b670fac1a65a6f832f32","C3","batch3","spm_show_trial_num","null","<p class=block-text>Trial 36 out of 60</p>","null","","","","","","","","","","","","","","","","","","","","","","","","","",""
"","","","","","image-button-response","76","724454","0.0-2.0-4.0-1.11","6234b670fac1a65a6f832f32","C3","batch3","spm_respsonse","60565.5","img/question_3_12.jpeg","4","mat_36","2","0","0","60565.5","","","","","","","","","","","","","","","","","","","","",""
"","","","","","html-keyboard-response","77","725519","0.0-2.0-4.0-0.12","6234b670fac1a65a6f832f32","C3","batch3","spm_show_trial_num","null","<p class=block-text>Trial 37 out of 60</p>","null","","","","","","","","","","","","","","","","","","","","","","","","","",""
"","","","","","image-button-response","78","733678","0.0-2.0-4.0-1.12","6234b670fac1a65a6f832f32","C3","batch3","spm_respsonse","8155.399999976158","img/question_4_1.jpeg","2","mat_37","3","1","1","8155.399999976158","","","","","","","","","","","","","","","","","","","","",""
"","","","","","html-keyboard-response","79","734736","0.0-2.0-4.0-0.13","6234b670fac1a65a6f832f32","C3","batch3","spm_show_trial_num","null","<p class=block-text>Trial 38 out of 60</p>","null","","","","","","","","","","","","","","","","","","","","","","","","","",""
"","","","","","image-button-response","80","757587","0.0-2.0-4.0-1.13","6234b670fac1a65a6f832f32","C3","batch3","spm_respsonse","22848.5","img/question_4_2.jpeg","3","mat_38","4","1","1","22848.5","","","","","","","","","","","","","","","","","","","","",""
"","","","","","html-keyboard-response","81","758655","0.0-2.0-4.0-0.14","6234b670fac1a65a6f832f32","C3","batch3","spm_show_trial_num","null","<p class=block-text>Trial 39 out of 60</p>","null","","","","","","","","","","","","","","","","","","","","","","","","","",""
"","","","","","image-button-response","82","774127","0.0-2.0-4.0-1.14","6234b670fac1a65a6f832f32","C3","batch3","spm_respsonse","15469.300000071526","img/question_4_3.jpeg","2","mat_39","3","1","1","15469.300000071526","","","","","","","","","","","","","","","","","","","","",""
"","","","","","html-keyboard-response","83","775192","0.0-2.0-4.0-0.15","6234b670fac1a65a6f832f32","C3","batch3","spm_show_trial_num","null","<p class=block-text>Trial 40 out of 60</p>","null","","","","","","","","","","","","","","","","","","","","","","","","","",""
"","","","","","image-button-response","84","799176","0.0-2.0-4.0-1.15","6234b670fac1a65a6f832f32","C3","batch3","spm_respsonse","23980.5","img/question_4_4.jpeg","6","mat_40","7","1","1","23980.5","","","","","","","","","","","","","","","","","","","","",""
"","","","","","html-keyboard-response","85","800245","0.0-2.0-4.0-0.16","6234b670fac1a65a6f832f32","C3","batch3","spm_show_trial_num","null","<p class=block-text>Trial 41 out of 60</p>","null","","","","","","","","","","","","","","","","","","","","","","","","","",""
"","","","","","image-button-response","86","834670","0.0-2.0-4.0-1.16","6234b670fac1a65a6f832f32","C3","batch3","spm_respsonse","34422.300000071526","img/question_4_5.jpeg","7","mat_41","8","1","1","34422.300000071526","","","","","","","","","","","","","","","","","","","","",""
"","","","","","html-keyboard-response","87","835726","0.0-2.0-4.0-0.17","6234b670fac1a65a6f832f32","C3","batch3","spm_show_trial_num","null","<p class=block-text>Trial 42 out of 60</p>","null","","","","","","","","","","","","","","","","","","","","","","","","","",""
"","","","","","image-button-response","88","861102","0.0-2.0-4.0-1.17","6234b670fac1a65a6f832f32","C3","batch3","spm_respsonse","25373.399999976158","img/question_4_6.jpeg","5","mat_42","6","1","1","25373.399999976158","","","","","","","","","","","","","","","","","","","","",""
"","","","","","html-keyboard-response","89","862181","0.0-2.0-4.0-0.18","6234b670fac1a65a6f832f32","C3","batch3","spm_show_trial_num","null","<p class=block-text>Trial 43 out of 60</p>","null","","","","","","","","","","","","","","","","","","","","","","","","","",""
"","","","","","image-button-response","90","909953","0.0-2.0-4.0-1.18","6234b670fac1a65a6f832f32","C3","batch3","spm_respsonse","47770","img/question_4_7.jpeg","4","mat_43","5","1","1","47770","","","","","","","","","","","","","","","","","","","","",""
"","","","","","html-keyboard-response","91","911012","0.0-2.0-4.0-0.19","6234b670fac1a65a6f832f32","C3","batch3","spm_show_trial_num","null","<p class=block-text>Trial 44 out of 60</p>","null","","","","","","","","","","","","","","","","","","","","","","","","","",""
"","","","","","image-button-response","92","937551","0.0-2.0-4.0-1.19","6234b670fac1a65a6f832f32","C3","batch3","spm_respsonse","26535.700000047684","img/question_4_8.jpeg","4","mat_44","4","0","0","26535.700000047684","","","","","","","","","","","","","","","","","","","","",""
"","","","","","html-keyboard-response","93","938608","0.0-2.0-4.0-0.20","6234b670fac1a65a6f832f32","C3","batch3","spm_show_trial_num","null","<p class=block-text>Trial 45 out of 60</p>","null","","","","","","","","","","","","","","","","","","","","","","","","","",""
"","","","","","image-button-response","94","969404","0.0-2.0-4.0-1.20","6234b670fac1a65a6f832f32","C3","batch3","spm_respsonse","30796.799999952316","img/question_4_9.jpeg","3","mat_45","1","0","0","30796.799999952316","","","","","","","","","","","","","","","","","","","","",""
"","","","","","html-keyboard-response","95","970463","0.0-2.0-4.0-0.21","6234b670fac1a65a6f832f32","C3","batch3","spm_show_trial_num","null","<p class=block-text>Trial 46 out of 60</p>","null","","","","","","","","","","","","","","","","","","","","","","","","","",""
"","","","","","image-button-response","96","1005938","0.0-2.0-4.0-1.21","6234b670fac1a65a6f832f32","C3","batch3","spm_respsonse","35472.39999997616","img/question_4_10.jpeg","5","mat_46","2","0","0","35472.39999997616","","","","","","","","","","","","","","","","","","","","",""
"","","","","","html-keyboard-response","97","1007007","0.0-2.0-4.0-0.22","6234b670fac1a65a6f832f32","C3","batch3","spm_show_trial_num","null","<p class=block-text>Trial 47 out of 60</p>","null","","","","","","","","","","","","","","","","","","","","","","","","","",""
"","","","","","image-button-response","98","1048427","0.0-2.0-4.0-1.22","6234b670fac1a65a6f832f32","C3","batch3","spm_respsonse","41411.700000047684","img/question_4_11.jpeg","5","mat_47","5","0","0","41411.700000047684","","","","","","","","","","","","","","","","","","","","",""
"","","","","","html-keyboard-response","99","1049488","0.0-2.0-4.0-0.23","6234b670fac1a65a6f832f32","C3","batch3","spm_show_trial_num","null","<p class=block-text>Trial 48 out of 60</p>","null","","","","","","","","","","","","","","","","","","","","","","","","","",""
"","","","","","image-button-response","100","1106220","0.0-2.0-4.0-1.23","6234b670fac1a65a6f832f32","C3","batch3","spm_respsonse","56727.299999952316","img/question_4_12.jpeg","6","mat_48","6","0","0","56727.299999952316","","","","","","","","","","","","","","","","","","","","",""
"","","","","","html-keyboard-response","101","1107290","0.0-2.0-4.0-0.24","6234b670fac1a65a6f832f32","C3","batch3","spm_show_trial_num","null","<p class=block-text>Trial 49 out of 60</p>","null","","","","","","","","","","","","","","","","","","","","","","","","","",""
"","","","","","image-button-response","102","1145161","0.0-2.0-4.0-1.24","6234b670fac1a65a6f832f32","C3","batch3","spm_respsonse","37868.5","img/question_5_1.jpeg","2","mat_49","7","0","0","37868.5","","","","","","","","","","","","","","","","","","","","",""
"","","","","","html-keyboard-response","103","1146220","0.0-2.0-4.0-0.25","6234b670fac1a65a6f832f32","C3","batch3","spm_show_trial_num","null","<p class=block-text>Trial 50 out of 60</p>","null","","","","","","","","","","","","","","","","","","","","","","","","","",""
"","","","","","image-button-response","104","1168758","0.0-2.0-4.0-1.25","6234b670fac1a65a6f832f32","C3","batch3","spm_respsonse","22534.600000023842","img/question_5_2.jpeg","5","mat_50","6","1","1","22534.600000023842","","","","","","","","","","","","","","","","","","","","",""
"","","","","","html-keyboard-response","105","1169839","0.0-2.0-4.0-0.26","6234b670fac1a65a6f832f32","C3","batch3","spm_show_trial_num","null","<p class=block-text>Trial 51 out of 60</p>","null","","","","","","","","","","","","","","","","","","","","","","","","","",""
"","","","","","image-button-response","106","1194553","0.0-2.0-4.0-1.26","6234b670fac1a65a6f832f32","C3","batch3","spm_respsonse","24711.300000071526","img/question_5_3.jpeg","7","mat_51","8","1","1","24711.300000071526","","","","","","","","","","","","","","","","","","","","",""
"","","","","","html-keyboard-response","107","1195626","0.0-2.0-4.0-0.27","6234b670fac1a65a6f832f32","C3","batch3","spm_show_trial_num","null","<p class=block-text>Trial 52 out of 60</p>","null","","","","","","","","","","","","","","","","","","","","","","","","","",""
"","","","","","image-button-response","108","1221961","0.0-2.0-4.0-1.27","6234b670fac1a65a6f832f32","C3","batch3","spm_respsonse","26332.700000047684","img/question_5_4.jpeg","5","mat_52","2","0","0","26332.700000047684","","","","","","","","","","","","","","","","","","","","",""
"","","","","","html-keyboard-response","109","1223021","0.0-2.0-4.0-0.28","6234b670fac1a65a6f832f32","C3","batch3","spm_show_trial_num","null","<p class=block-text>Trial 53 out of 60</p>","null","","","","","","","","","","","","","","","","","","","","","","","","","",""
"","","","","","image-button-response","110","1241410","0.0-2.0-4.0-1.28","6234b670fac1a65a6f832f32","C3","batch3","spm_respsonse","18386.200000047684","img/question_5_5.jpeg","0","mat_53","1","1","1","18386.200000047684","","","","","","","","","","","","","","","","","","","","",""
"","","","","","html-keyboard-response","111","1242465","0.0-2.0-4.0-0.29","6234b670fac1a65a6f832f32","C3","batch3","spm_show_trial_num","null","<p class=block-text>Trial 54 out of 60</p>","null","","","","","","","","","","","","","","","","","","","","","","","","","",""
"","","","","","image-button-response","112","1266971","0.0-2.0-4.0-1.29","6234b670fac1a65a6f832f32","C3","batch3","spm_respsonse","24503.100000023842","img/question_5_6.jpeg","4","mat_54","5","1","1","24503.100000023842","","","","","","","","","","","","","","","","","","","","",""
"","","","","","html-keyboard-response","113","1268033","0.0-2.0-4.0-0.30","6234b670fac1a65a6f832f32","C3","batch3","spm_show_trial_num","null","<p class=block-text>Trial 55 out of 60</p>","null","","","","","","","","","","","","","","","","","","","","","","","","","",""
"","","","","","image-button-response","114","1337321","0.0-2.0-4.0-1.30","6234b670fac1a65a6f832f32","C3","batch3","spm_respsonse","69284.39999997616","img/question_5_7.jpeg","0","mat_55","1","1","1","69284.39999997616","","","","","","","","","","","","","","","","","","","","",""
"","","","","","html-keyboard-response","115","1338391","0.0-2.0-4.0-0.31","6234b670fac1a65a6f832f32","C3","batch3","spm_show_trial_num","null","<p class=block-text>Trial 56 out of 60</p>","null","","","","","","","","","","","","","","","","","","","","","","","","","",""
"","","","","","image-button-response","116","1366072","0.0-2.0-4.0-1.31","6234b670fac1a65a6f832f32","C3","batch3","spm_respsonse","27678.199999928474","img/question_5_8.jpeg","4","mat_56","6","0","0","27678.199999928474","","","","","","","","","","","","","","","","","","","","",""
"","","","","","html-keyboard-response","117","1367130","0.0-2.0-4.0-0.32","6234b670fac1a65a6f832f32","C3","batch3","spm_show_trial_num","null","<p class=block-text>Trial 57 out of 60</p>","null","","","","","","","","","","","","","","","","","","","","","","","","","",""
"","","","","","image-button-response","118","1399036","0.0-2.0-4.0-1.32","6234b670fac1a65a6f832f32","C3","batch3","spm_respsonse","31903","img/question_5_9.jpeg","6","mat_57","3","0","0","31903","","","","","","","","","","","","","","","","","","","","",""
"","","","","","html-keyboard-response","119","1400101","0.0-2.0-4.0-0.33","6234b670fac1a65a6f832f32","C3","batch3","spm_show_trial_num","null","<p class=block-text>Trial 58 out of 60</p>","null","","","","","","","","","","","","","","","","","","","","","","","","","",""
"","","","","","image-button-response","120","1427496","0.0-2.0-4.0-1.33","6234b670fac1a65a6f832f32","C3","batch3","spm_respsonse","27392.299999952316","img/question_5_10.jpeg","3","mat_58","2","0","0","27392.299999952316","","","","","","","","","","","","","","","","","","","","",""
"","","","","","html-keyboard-response","121","1428558","0.0-2.0-4.0-0.34","6234b670fac1a65a6f832f32","C3","batch3","spm_show_trial_num","null","<p class=block-text>Trial 59 out of 60</p>","null","","","","","","","","","","","","","","","","","","","","","","","","","",""
"","","","","","image-button-response","122","1453186","0.0-2.0-4.0-1.34","6234b670fac1a65a6f832f32","C3","batch3","spm_respsonse","24625.599999904633","img/question_5_11.jpeg","2","mat_59","4","0","0","24625.599999904633","","","","","","","","","","","","","","","","","","","","",""
"","","","","","html-keyboard-response","123","1454245","0.0-2.0-4.0-0.35","6234b670fac1a65a6f832f32","C3","batch3","spm_show_trial_num","null","<p class=block-text>Trial 60 out of 60</p>","null","","","","","","","","","","","","","","","","","","","","","","","","","",""
"","","","","","image-button-response","124","1506903","0.0-2.0-4.0-1.35","6234b670fac1a65a6f832f32","C3","batch3","spm_respsonse","52654.60000002384","img/question_5_12.jpeg","4","mat_60","5","1","1","52654.60000002384","","","","","","","","","","","","","","","","","","","","",""
"","","","","","html-button-response","125","1511788","0.0-2.0-5.0","6234b670fac1a65a6f832f32","C3","batch3","spm_goodbye","4632","<p class= block-text>This concludes the Standard Progressive Matrix game. Thank you for your responses!<br> When you are ready, click the button continue</p>","0","","","","","","","","","","","","","","","","","","","","","","","","","",""
"true","","","","","fullscreen","126","1516705","0.0-3.0-0.0","6234b670fac1a65a6f832f32","C3","batch3","","","","","","","","","","","","","","","","","","","","","","","","","","","","","",""
"","","","","","instructions","127","1547857","0.0-3.0-1.0-0.0","6234b670fac1a65a6f832f32","C3","batch3","","31150.600000023842","","","","","","","","[{""page_index"":0,""viewing_time"":16400.5},{""page_index"":1,""viewing_time"":14749.600000023842}]","","","","","","","","","","","","","","","","","","","",""
"","","","","","html-button-response","128","1549601","0.0-3.0-1.0-1.0-0.0","6234b670fac1a65a6f832f32","C3","batch3","pattern_enter_quiz","1742.8999999761581","<p class=block-text> Let's answer a few questions <br>","0","","","","","","","","","","","","","","","","","","","","","","","","","",""
"","","","","","html-button-response","129","1552786","0.0-3.0-1.0-1.0-1.0","6234b670fac1a65a6f832f32","C3","batch3","pattern_quiz","3181.899999976158","<p class = block-text>True or False: You will have as much time as you want to make each choice. <br></p>","1","","","true","","","","","","","","","","","","","","","","","","","","","","",""
"","","","","","html-button-response","130","1554904","0.0-3.0-1.0-1.0-2.0","6234b670fac1a65a6f832f32","C3","batch3","pattern_quiz_feedback","2114.2000000476837","<p class = block-text>Correct! You should make your choice <strong> as fast as you can</strong>.</p>","0","","","","","","","","","","","","","","","","","","","","","","","","","",""
"","","","","","html-button-response","131","1561132","0.0-3.0-1.0-1.0-3.0","6234b670fac1a65a6f832f32","C3","batch3","pattern_quiz","6226.299999952316","<p class = block-text>True or False: You will look for 4 pieces in black or white color connected in a row either horizontally, vertically or diagonally. <br></p>","0","","","true","","","","","","","","","","","","","","","","","","","","","","",""
"","","","","","html-button-response","132","1562470","0.0-3.0-1.0-1.0-4.0","6234b670fac1a65a6f832f32","C3","batch3","pattern_quiz_feedback","1336.7999999523163","<p class = block-text>Correct! </p>","0","","","","","","","","","","","","","","","","","","","","","","","","","",""
"","","","","","html-button-response","133","1575041","0.0-3.0-2.0","6234b670fac1a65a6f832f32","C3","batch3","pattern_enter_practice","12567.100000023842","<p class=block-text> Now that you've understood the game, let's do a few practice trials before we start!<br> <br>","0","","","","","","","","","","","","","","","","","","","","","","","","","",""
"","","","","","image-keyboard-response","134","1581261","0.0-3.0-3.0-0.0","6234b670fac1a65a6f832f32","C3","batch3","pattern_practice","6215.700000047684","stim/prac_yes_20_dia_b1.png","f","","f","true","","","","","","","","","","","","","","","","","","","","","","",""
"","","","","","html-keyboard-response","135","1582267","0.0-3.0-3.0-1.0","6234b670fac1a65a6f832f32","C3","batch3","pattern_feedback","null","<p style=""font-size:30px;color:green;"">Correct!</p>","null","","","","","","","","","","","","","","","","","","","","","","","","","",""
"","","","","","image-keyboard-response","136","1586516","0.0-3.0-3.0-0.1","6234b670fac1a65a6f832f32","C3","batch3","pattern_practice","4247.600000023842","stim/prac_no_18_1.png","j","","j","true","","","","","","","","","","","","","","","","","","","","","","",""
"","","","","","html-keyboard-response","137","1587536","0.0-3.0-3.0-1.1","6234b670fac1a65a6f832f32","C3","batch3","pattern_feedback","null","<p style=""font-size:30px;color:green;"">Correct!</p>","null","","","","","","","","","","","","","","","","","","","","","","","","","",""
"","","","","","image-keyboard-response","138","1588720","0.0-3.0-3.0-0.2","6234b670fac1a65a6f832f32","C3","batch3","pattern_practice","1181.0999999046326","stim/prac_yes_18_hor_w1.png","f","","f","true","","","","","","","","","","","","","","","","","","","","","","",""
"","","","","","html-keyboard-response","139","1589742","0.0-3.0-3.0-1.2","6234b670fac1a65a6f832f32","C3","batch3","pattern_feedback","null","<p style=""font-size:30px;color:green;"">Correct!</p>","null","","","","","","","","","","","","","","","","","","","","","","","","","",""
"","","","","","image-keyboard-response","140","1591335","0.0-3.0-3.0-0.3","6234b670fac1a65a6f832f32","C3","batch3","pattern_practice","1590.8999999761581","stim/prac_no_16_1.png","j","","j","true","","","","","","","","","","","","","","","","","","","","","","",""
"","","","","","html-keyboard-response","141","1592356","0.0-3.0-3.0-1.3","6234b670fac1a65a6f832f32","C3","batch3","pattern_feedback","null","<p style=""font-size:30px;color:green;"">Correct!</p>","null","","","","","","","","","","","","","","","","","","","","","","","","","",""
"","","","","","image-keyboard-response","142","1593247","0.0-3.0-3.0-0.4","6234b670fac1a65a6f832f32","C3","batch3","pattern_practice","888.7999999523163","stim/prac_yes_16_ver_w1.png","f","","f","true","","","","","","","","","","","","","","","","","","","","","","",""
"","","","","","html-keyboard-response","143","1594253","0.0-3.0-3.0-1.4","6234b670fac1a65a6f832f32","C3","batch3","pattern_feedback","null","<p style=""font-size:30px;color:green;"">Correct!</p>","null","","","","","","","","","","","","","","","","","","","","","","","","","",""
"","","","","","html-button-response","144","1602312","0.0-3.0-4.0","6234b670fac1a65a6f832f32","C3","batch3","pattern_enter_official_trials","8056.5","<p class=block-text> Good job! You are done with practice trials!<br>
        You responded correctly on 100% of the trials.<br>
        Press the button below to start official trials. Now you won't see any feedback about your response</p>","0","","","","","","","","","","","","","","","","","","","","","","","","","",""
"","","","","","html-keyboard-response","145","1603125","0.0-3.0-5.0-0.0","6234b670fac1a65a6f832f32","C3","batch3","pattern_show_trial_num","null","<p class=block-text>Trial 1 out of 78</p>","null","","","","","","","","","","","","","","","","","","","","","","","","","",""
"","","","","","image-keyboard-response","146","1606667","0.0-3.0-5.0-1.0","6234b670fac1a65a6f832f32","C3","batch3","pattern_response","3539.899999976158","stim/yes_42_dia_w1_w.png","f","pattern_64","f","true","","","","3539.899999976158","true","1","","","","","","","","","","","","","","","","",""
"","","","","","html-keyboard-response","147","1607977","0.0-3.0-5.0-0.1","6234b670fac1a65a6f832f32","C3","batch3","pattern_show_trial_num","null","<p class=block-text>Trial 2 out of 78</p>","null","","","","","","","","","","","","","","","","","","","","","","","","","",""
"","","","","","image-keyboard-response","148","1611115","0.0-3.0-5.0-1.1","6234b670fac1a65a6f832f32","C3","batch3","pattern_response","3130.399999976158","stim/yes_33_dia_w1_w.png","j","pattern_56","f","false","","","","3130.399999976158","false","1","","","","","","","","","","","","","","","","",""
"","","","","","html-keyboard-response","149","1612431","0.0-3.0-5.0-0.2","6234b670fac1a65a6f832f32","C3","batch3","pattern_show_trial_num","null","<p class=block-text>Trial 3 out of 78</p>","null","","","","","","","","","","","","","","","","","","","","","","","","","",""
"","","","","","image-keyboard-response","150","1613437","0.0-3.0-5.0-1.2","6234b670fac1a65a6f832f32","C3","batch3","pattern_response","1004.1000000238419","stim/yes_17_ver_b1_b.png","f","pattern_46","f","true","","","","1004.1000000238419","true","2","","","","","","","","","","","","","","","","",""
"","","","","","html-keyboard-response","151","1614744","0.0-3.0-5.0-0.3","6234b670fac1a65a6f832f32","C3","batch3","pattern_show_trial_num","null","<p class=block-text>Trial 4 out of 78</p>","null","","","","","","","","","","","","","","","","","","","","","","","","","",""
"","","","","","image-keyboard-response","152","1616086","0.0-3.0-5.0-1.3","6234b670fac1a65a6f832f32","C3","batch3","pattern_response","1339.6000000238419","stim/yes_49_hor_w1_b.png","f","pattern_70","f","true","","","","1339.6000000238419","true","3","","","","","","","","","","","","","","","","",""
"","","","","","html-keyboard-response","153","1617398","0.0-3.0-5.0-0.4","6234b670fac1a65a6f832f32","C3","batch3","pattern_show_trial_num","null","<p class=block-text>Trial 5 out of 78</p>","null","","","","","","","","","","","","","","","","","","","","","","","","","",""
"","","","","","image-keyboard-response","154","1624027","0.0-3.0-5.0-1.4","6234b670fac1a65a6f832f32","C3","batch3","pattern_response","6626.900000095367","stim/yes_63_dia_b1.png","f","pattern_78","f","true","","","","6626.900000095367","true","4","","","","","","","","","","","","","","","","",""
"","","","","","html-keyboard-response","155","1625346","0.0-3.0-5.0-0.5","6234b670fac1a65a6f832f32","C3","batch3","pattern_show_trial_num","null","<p class=block-text>Trial 6 out of 78</p>","null","","","","","","","","","","","","","","","","","","","","","","","","","",""
"","","","","","image-keyboard-response","156","1630864","0.0-3.0-5.0-1.5","6234b670fac1a65a6f832f32","C3","batch3","pattern_response","5514","stim/no_39_1_w.png","j","pattern_21","j","true","","","","5514","true","5","","","","","","","","","","","","","","","","",""
"","","","","","html-keyboard-response","157","1632181","0.0-3.0-5.0-0.6","6234b670fac1a65a6f832f32","C3","batch3","pattern_show_trial_num","null","<p class=block-text>Trial 7 out of 78</p>","null","","","","","","","","","","","","","","","","","","","","","","","","","",""
"","","","","","image-keyboard-response","158","1634985","0.0-3.0-5.0-1.6","6234b670fac1a65a6f832f32","C3","batch3","pattern_response","2802.2999999523163","stim/yes_53_ver_b1_b.png","f","pattern_74","f","true","","","","2802.2999999523163","true","6","","","","","","","","","","","","","","","","",""
"","","","","","html-keyboard-response","159","1636303","0.0-3.0-5.0-0.7","6234b670fac1a65a6f832f32","C3","batch3","pattern_show_trial_num","null","<p class=block-text>Trial 8 out of 78</p>","null","","","","","","","","","","","","","","","","","","","","","","","","","",""
"","","","","","image-keyboard-response","160","1637660","0.0-3.0-5.0-1.7","6234b670fac1a65a6f832f32","C3","batch3","pattern_response","1354.1999999284744","stim/yes_39_hor_w1_w.png","f","pattern_62","f","true","","","","1354.1999999284744","true","7","","","","","","","","","","","","","","","","",""
"","","","","","html-keyboard-response","161","1638984","0.0-3.0-5.0-0.8","6234b670fac1a65a6f832f32","C3","batch3","pattern_show_trial_num","null","<p class=block-text>Trial 9 out of 78</p>","null","","","","","","","","","","","","","","","","","","","","","","","","","",""
"","","","","","image-keyboard-response","162","1644809","0.0-3.0-5.0-1.8","6234b670fac1a65a6f832f32","C3","batch3","pattern_response","5822.700000047684","stim/no_53_1_b.png","j","pattern_33","j","true","","","","5822.700000047684","true","8","","","","","","","","","","","","","","","","",""
"","","","","","html-keyboard-response","163","1646116","0.0-3.0-5.0-0.9","6234b670fac1a65a6f832f32","C3","batch3","pattern_show_trial_num","null","<p class=block-text>Trial 10 out of 78</p>","null","","","","","","","","","","","","","","","","","","","","","","","","","",""
"","","","","","image-keyboard-response","164","1648659","0.0-3.0-5.0-1.9","6234b670fac1a65a6f832f32","C3","batch3","pattern_response","2541","stim/yes_70_ver_b1.png","f","pattern_80","f","true","","","","2541","true","9","","","","","","","","","","","","","","","","",""
"","","","","","html-keyboard-response","165","1649980","0.0-3.0-5.0-0.10","6234b670fac1a65a6f832f32","C3","batch3","pattern_show_trial_num","null","<p class=block-text>Trial 11 out of 78</p>","null","","","","","","","","","","","","","","","","","","","","","","","","","",""
"","","","","","image-keyboard-response","166","1654382","0.0-3.0-5.0-1.10","6234b670fac1a65a6f832f32","C3","batch3","pattern_response","4399","stim/no_58_1_w.png","j","pattern_35","j","true","","","","4399","true","10","","","","","","","","","","","","","","","","",""
"","","","","","html-keyboard-response","167","1655697","0.0-3.0-5.0-0.11","6234b670fac1a65a6f832f32","C3","batch3","pattern_show_trial_num","null","<p class=block-text>Trial 12 out of 78</p>","null","","","","","","","","","","","","","","","","","","","","","","","","","",""
"","","","","","image-keyboard-response","168","1660426","0.0-3.0-5.0-1.11","6234b670fac1a65a6f832f32","C3","batch3","pattern_response","4728","stim/yes_51_dia_b1.png","f","pattern_72","f","true","","","","4728","true","11","","","","","","","","","","","","","","","","",""
"","","","","","html-keyboard-response","169","1661752","0.0-3.0-5.0-0.12","6234b670fac1a65a6f832f32","C3","batch3","pattern_show_trial_num","null","<p class=block-text>Trial 13 out of 78</p>","null","","","","","","","","","","","","","","","","","","","","","","","","","",""
"","","","","","image-keyboard-response","170","1663280","0.0-3.0-5.0-1.12","6234b670fac1a65a6f832f32","C3","batch3","pattern_response","1526.6000000238419","stim/no_18_1_b.png","j","pattern_05","j","true","","","","1526.6000000238419","true","12","","","","","","","","","","","","","","","","",""
"","","","","","html-keyboard-response","171","1664610","0.0-3.0-5.0-0.13","6234b670fac1a65a6f832f32","C3","batch3","pattern_show_trial_num","null","<p class=block-text>Trial 14 out of 78</p>","null","","","","","","","","","","","","","","","","","","","","","","","","","",""
"","","","","","image-keyboard-response","172","1665879","0.0-3.0-5.0-1.13","6234b670fac1a65a6f832f32","C3","batch3","pattern_response","1266.9000000953674","stim/no_12_1.png","j","pattern_01","j","true","","","","1266.9000000953674","true","13","","","","","","","","","","","","","","","","",""
"","","","","","html-keyboard-response","173","1667186","0.0-3.0-5.0-0.14","6234b670fac1a65a6f832f32","C3","batch3","pattern_show_trial_num","null","<p class=block-text>Trial 15 out of 78</p>","null","","","","","","","","","","","","","","","","","","","","","","","","","",""
"","","","","","image-keyboard-response","174","1668438","0.0-3.0-5.0-1.14","6234b670fac1a65a6f832f32","C3","batch3","pattern_response","1250","stim/no_22_1_b.png","j","pattern_07","j","true","","","","1250","true","14","","","","","","","","","","","","","","","","",""
"","","","","","html-keyboard-response","175","1669747","0.0-3.0-5.0-0.15","6234b670fac1a65a6f832f32","C3","batch3","pattern_show_trial_num","null","<p class=block-text>Trial 16 out of 78</p>","null","","","","","","","","","","","","","","","","","","","","","","","","","",""
"","","","","","image-keyboard-response","176","1674609","0.0-3.0-5.0-1.15","6234b670fac1a65a6f832f32","C3","batch3","pattern_response","4861.100000023842","stim/no_45_1_w.png","j","pattern_25","j","true","","","","4861.100000023842","true","15","","","","","","","","","","","","","","","","",""
"","","","","","html-keyboard-response","177","1675916","0.0-3.0-5.0-0.16","6234b670fac1a65a6f832f32","C3","batch3","pattern_show_trial_num","null","<p class=block-text>Trial 17 out of 78</p>","null","","","","","","","","","","","","","","","","","","","","","","","","","",""
"","","","","","image-keyboard-response","178","1679503","0.0-3.0-5.0-1.16","6234b670fac1a65a6f832f32","C3","batch3","pattern_response","3584","stim/no_25_1_b.png","j","pattern_09","j","true","","","","3584","true","16","","","","","","","","","","","","","","","","",""
"","","","","","html-keyboard-response","179","1680825","0.0-3.0-5.0-0.17","6234b670fac1a65a6f832f32","C3","batch3","pattern_show_trial_num","null","<p class=block-text>Trial 18 out of 78</p>","null","","","","","","","","","","","","","","","","","","","","","","","","","",""
"","","","","","image-keyboard-response","180","1681902","0.0-3.0-5.0-1.17","6234b670fac1a65a6f832f32","C3","batch3","pattern_response","1074.6000000238419","stim/yes_37_hor_w1_w.png","f","pattern_60","f","true","","","","1074.6000000238419","true","17","","","","","","","","","","","","","","","","",""
"","","","","","html-keyboard-response","181","1683213","0.0-3.0-5.0-0.18","6234b670fac1a65a6f832f32","C3","batch3","pattern_show_trial_num","null","<p class=block-text>Trial 19 out of 78</p>","null","","","","","","","","","","","","","","","","","","","","","","","","","",""
"","","","","","image-keyboard-response","182","1689959","0.0-3.0-5.0-1.18","6234b670fac1a65a6f832f32","C3","batch3","pattern_response","6744.699999928474","stim/no_67_1.png","j","pattern_39","j","true","","","","6744.699999928474","true","18","","","","","","","","","","","","","","","","",""
"","","","","","html-keyboard-response","183","1691277","0.0-3.0-5.0-0.19","6234b670fac1a65a6f832f32","C3","batch3","pattern_show_trial_num","null","<p class=block-text>Trial 20 out of 78</p>","null","","","","","","","","","","","","","","","","","","","","","","","","","",""
"","","","","","image-keyboard-response","184","1694231","0.0-3.0-5.0-1.19","6234b670fac1a65a6f832f32","C3","batch3","pattern_response","2951.399999976158","stim/no_30_1_b.png","j","pattern_13","j","true","","","","2951.399999976158","true","19","","","","","","","","","","","","","","","","",""
"","","","","","html-keyboard-response","185","1695541","0.0-3.0-5.0-0.20","6234b670fac1a65a6f832f32","C3","batch3","pattern_show_trial_num","null","<p class=block-text>Trial 21 out of 78</p>","null","","","","","","","","","","","","","","","","","","","","","","","","","",""
"","","","","","image-keyboard-response","186","1698034","0.0-3.0-5.0-1.20","6234b670fac1a65a6f832f32","C3","batch3","pattern_response","2490.7000000476837","stim/yes_58_dia_w1_w.png","f","pattern_76","f","true","","","","2490.7000000476837","true","20","","","","","","","","","","","","","","","","",""
"","","","","","html-keyboard-response","187","1699348","0.0-3.0-5.0-0.21","6234b670fac1a65a6f832f32","C3","batch3","pattern_show_trial_num","null","<p class=block-text>Trial 22 out of 78</p>","null","","","","","","","","","","","","","","","","","","","","","","","","","",""
"","","","","","image-keyboard-response","188","1700276","0.0-3.0-5.0-1.21","6234b670fac1a65a6f832f32","C3","batch3","pattern_response","925.8999999761581","stim/yes_12_hor_w1_w.png","f","pattern_42","f","true","","","","925.8999999761581","true","21","","","","","","","","","","","","","","","","",""
"","","","","","html-keyboard-response","189","1701599","0.0-3.0-5.0-0.22","6234b670fac1a65a6f832f32","C3","batch3","pattern_show_trial_num","null","<p class=block-text>Trial 23 out of 78</p>","null","","","","","","","","","","","","","","","","","","","","","","","","","",""
"","","","","","image-keyboard-response","190","1703439","0.0-3.0-5.0-1.22","6234b670fac1a65a6f832f32","C3","batch3","pattern_response","1838.8999999761581","stim/yes_23_ver_b1.png","f","pattern_48","f","true","","","","1838.8999999761581","true","22","","","","","","","","","","","","","","","","",""
"","","","","","html-keyboard-response","191","1704749","0.0-3.0-5.0-0.23","6234b670fac1a65a6f832f32","C3","batch3","pattern_show_trial_num","null","<p class=block-text>Trial 24 out of 78</p>","null","","","","","","","","","","","","","","","","","","","","","","","","","",""
"","","","","","image-keyboard-response","192","1708444","0.0-3.0-5.0-1.23","6234b670fac1a65a6f832f32","C3","batch3","pattern_response","3693.5","stim/no_28_2.png","f","pattern_11","j","false","","","","3693.5","false","22","","","","","","","","","","","","","","","","",""
"","","","","","html-keyboard-response","193","1709754","0.0-3.0-5.0-0.24","6234b670fac1a65a6f832f32","C3","batch3","pattern_show_trial_num","null","<p class=block-text>Trial 25 out of 78</p>","null","","","","","","","","","","","","","","","","","","","","","","","","","",""
"","","","","","image-keyboard-response","194","1710815","0.0-3.0-5.0-1.24","6234b670fac1a65a6f832f32","C3","batch3","pattern_response","1058.4000000953674","stim/yes_30_ver_b1_b.png","f","pattern_54","f","true","","","","1058.4000000953674","true","23","","","","","","","","","","","","","","","","",""
"","","","","","html-keyboard-response","195","1712129","0.0-3.0-5.0-0.25","6234b670fac1a65a6f832f32","C3","batch3","pattern_show_trial_num","null","<p class=block-text>Trial 26 out of 78</p>","null","","","","","","","","","","","","","","","","","","","","","","","","","",""
"","","","","","image-keyboard-response","196","1714751","0.0-3.0-5.0-1.25","6234b670fac1a65a6f832f32","C3","batch3","pattern_response","2620.3000000715256","stim/no_15_1_w.png","j","pattern_03","j","true","","","","2620.3000000715256","true","24","","","","","","","","","","","","","","","","",""
"","","","","","html-keyboard-response","197","1716082","0.0-3.0-5.0-0.26","6234b670fac1a65a6f832f32","C3","batch3","pattern_show_trial_num","null","<p class=block-text>Trial 27 out of 78</p>","null","","","","","","","","","","","","","","","","","","","","","","","","","",""
"","","","","","image-keyboard-response","198","1716968","0.0-3.0-5.0-1.26","6234b670fac1a65a6f832f32","C3","batch3","pattern_response","882.6000000238419","stim/yes_29_hor_b1_b.png","f","pattern_52","f","true","","","","882.6000000238419","true","25","","","","","","","","","","","","","","","","",""
"","","","","","html-keyboard-response","199","1718291","0.0-3.0-5.0-0.27","6234b670fac1a65a6f832f32","C3","batch3","pattern_show_trial_num","null","<p class=block-text>Trial 28 out of 78</p>","null","","","","","","","","","","","","","","","","","","","","","","","","","",""
"","","","","","image-keyboard-response","200","1722638","0.0-3.0-5.0-1.27","6234b670fac1a65a6f832f32","C3","batch3","pattern_response","4344.300000071526","stim/no_36_1_b.png","j","pattern_17","j","true","","","","4344.300000071526","true","26","","","","","","","","","","","","","","","","",""
"","","","","","html-keyboard-response","201","1723953","0.0-3.0-5.0-0.28","6234b670fac1a65a6f832f32","C3","batch3","pattern_show_trial_num","null","<p class=block-text>Trial 29 out of 78</p>","null","","","","","","","","","","","","","","","","","","","","","","","","","",""
"","","","","","image-keyboard-response","202","1728073","0.0-3.0-5.0-1.28","6234b670fac1a65a6f832f32","C3","batch3","pattern_response","4117.800000071526","stim/yes_44_ver_w1_w.png","f","pattern_66","f","true","","","","4117.800000071526","true","27","","","","","","","","","","","","","","","","",""
"","","","","","html-keyboard-response","203","1729395","0.0-3.0-5.0-0.29","6234b670fac1a65a6f832f32","C3","batch3","pattern_show_trial_num","null","<p class=block-text>Trial 30 out of 78</p>","null","","","","","","","","","","","","","","","","","","","","","","","","","",""
"","","","","","image-keyboard-response","204","1730372","0.0-3.0-5.0-1.29","6234b670fac1a65a6f832f32","C3","batch3","pattern_response","974.3999999761581","stim/yes_36_ver_w1_w.png","f","pattern_58","f","true","","","","974.3999999761581","true","28","","","","","","","","","","","","","","","","",""
"","","","","","html-keyboard-response","205","1731689","0.0-3.0-5.0-0.30","6234b670fac1a65a6f832f32","C3","batch3","pattern_show_trial_num","null","<p class=block-text>Trial 31 out of 78</p>","null","","","","","","","","","","","","","","","","","","","","","","","","","",""
"","","","","","image-keyboard-response","206","1736859","0.0-3.0-5.0-1.30","6234b670fac1a65a6f832f32","C3","batch3","pattern_response","5167.899999976158","stim/no_49_2_b.png","j","pattern_29","j","true","","","","5167.899999976158","true","29","","","","","","","","","","","","","","","","",""
"","","","","","html-keyboard-response","207","1738181","0.0-3.0-5.0-0.31","6234b670fac1a65a6f832f32","C3","batch3","pattern_show_trial_num","null","<p class=block-text>Trial 32 out of 78</p>","null","","","","","","","","","","","","","","","","","","","","","","","","","",""
"","","","","","image-keyboard-response","208","1738957","0.0-3.0-5.0-1.31","6234b670fac1a65a6f832f32","C3","batch3","pattern_response","774.8999999761581","stim/yes_15_dia_b1u_b.png","f","pattern_44","f","true","","","","774.8999999761581","true","30","","","","","","","","","","","","","","","","",""
"","","","","","html-keyboard-response","209","1740272","0.0-3.0-5.0-0.32","6234b670fac1a65a6f832f32","C3","batch3","pattern_show_trial_num","null","<p class=block-text>Trial 33 out of 78</p>","null","","","","","","","","","","","","","","","","","","","","","","","","","",""
"","","","","","image-keyboard-response","210","1743153","0.0-3.0-5.0-1.32","6234b670fac1a65a6f832f32","C3","batch3","pattern_response","2879.1999999284744","stim/no_43_2_b.png","j","pattern_23","j","true","","","","2879.1999999284744","true","31","","","","","","","","","","","","","","","","",""
"","","","","","html-keyboard-response","211","1744475","0.0-3.0-5.0-0.33","6234b670fac1a65a6f832f32","C3","batch3","pattern_show_trial_num","null","<p class=block-text>Trial 34 out of 78</p>","null","","","","","","","","","","","","","","","","","","","","","","","","","",""
"","","","","","image-keyboard-response","212","1745448","0.0-3.0-5.0-1.33","6234b670fac1a65a6f832f32","C3","batch3","pattern_response","970.5","stim/yes_26_dia_w2_w.png","f","pattern_50","f","true","","","","970.5","true","32","","","","","","","","","","","","","","","","",""
"","","","","","html-keyboard-response","213","1746767","0.0-3.0-5.0-0.34","6234b670fac1a65a6f832f32","C3","batch3","pattern_show_trial_num","null","<p class=block-text>Trial 35 out of 78</p>","null","","","","","","","","","","","","","","","","","","","","","","","","","",""
"","","","","","image-keyboard-response","214","1752753","0.0-3.0-5.0-1.34","6234b670fac1a65a6f832f32","C3","batch3","pattern_response","5984.199999928474","stim/no_51_1.png","j","pattern_31","j","true","","","","5984.199999928474","true","33","","","","","","","","","","","","","","","","",""
"","","","","","html-keyboard-response","215","1754081","0.0-3.0-5.0-0.35","6234b670fac1a65a6f832f32","C3","batch3","pattern_show_trial_num","null","<p class=block-text>Trial 36 out of 78</p>","null","","","","","","","","","","","","","","","","","","","","","","","","","",""
"","","","","","image-keyboard-response","216","1757915","0.0-3.0-5.0-1.35","6234b670fac1a65a6f832f32","C3","batch3","pattern_response","3831.5999999046326","stim/no_37_2_w.png","j","pattern_19","j","true","","","","3831.5999999046326","true","34","","","","","","","","","","","","","","","","",""
"","","","","","html-keyboard-response","217","1759237","0.0-3.0-5.0-0.36","6234b670fac1a65a6f832f32","C3","batch3","pattern_show_trial_num","null","<p class=block-text>Trial 37 out of 78</p>","null","","","","","","","","","","","","","","","","","","","","","","","","","",""
"","","","","","image-keyboard-response","218","1762748","0.0-3.0-5.0-1.36","6234b670fac1a65a6f832f32","C3","batch3","pattern_response","3508.2000000476837","stim/no_33_1_b.png","j","pattern_15","j","true","","","","3508.2000000476837","true","35","","","","","","","","","","","","","","","","",""
"","","","","","html-keyboard-response","219","1764066","0.0-3.0-5.0-0.37","6234b670fac1a65a6f832f32","C3","batch3","pattern_show_trial_num","null","<p class=block-text>Trial 38 out of 78</p>","null","","","","","","","","","","","","","","","","","","","","","","","","","",""
"","","","","","image-keyboard-response","220","1767825","0.0-3.0-5.0-1.37","6234b670fac1a65a6f832f32","C3","batch3","pattern_response","3756","stim/no_47_1_b.png","j","pattern_27","j","true","","","","3756","true","36","","","","","","","","","","","","","","","","",""
"","","","","","html-keyboard-response","221","1769137","0.0-3.0-5.0-0.38","6234b670fac1a65a6f832f32","C3","batch3","pattern_show_trial_num","null","<p class=block-text>Trial 39 out of 78</p>","null","","","","","","","","","","","","","","","","","","","","","","","","","",""
"","","","","","image-keyboard-response","222","1773842","0.0-3.0-5.0-1.38","6234b670fac1a65a6f832f32","C3","batch3","pattern_response","4701.899999976158","stim/yes_46_ver_b1_b.png","j","pattern_68","f","false","","","","4701.899999976158","false","36","","","","","","","","","","","","","","","","",""
"","","","","","image-keyboard-response","223","1776684","0.0-3.0-6.0","6234b670fac1a65a6f832f32","C3","batch3","attention_check","2339","stim/empty_board.png","j","","j","true","","","","","","","500","[""f"",""j""]","","","","","","","","","","","","","","",""
"","","","","","html-keyboard-response","224","1777491","0.0-3.0-7.0-0.0","6234b670fac1a65a6f832f32","C3","batch3","pattern_show_trial_num","null","<p class=block-text>Trial 40 out of 78</p>","null","","","","","","","","","","","","","","","","","","","","","","","","","",""
"","","","","","image-keyboard-response","225","1779636","0.0-3.0-7.0-1.0","6234b670fac1a65a6f832f32","C3","batch3","pattern_response","2142.7000000476837","stim/yes_37_dia_w1.png","f","pattern_59","f","true","","","","2142.7000000476837","true","37","","","","","","","","","","","","","","","","",""
"","","","","","html-keyboard-response","226","1780961","0.0-3.0-7.0-0.1","6234b670fac1a65a6f832f32","C3","batch3","pattern_show_trial_num","null","<p class=block-text>Trial 41 out of 78</p>","null","","","","","","","","","","","","","","","","","","","","","","","","","",""
"","","","","","image-keyboard-response","227","1784082","0.0-3.0-7.0-1.1","6234b670fac1a65a6f832f32","C3","batch3","pattern_response","3119.399999976158","stim/no_26_1_w.png","j","pattern_10","j","true","","","","3119.399999976158","true","38","","","","","","","","","","","","","","","","",""
"","","","","","html-keyboard-response","228","1785406","0.0-3.0-7.0-0.2","6234b670fac1a65a6f832f32","C3","batch3","pattern_show_trial_num","null","<p class=block-text>Trial 42 out of 78</p>","null","","","","","","","","","","","","","","","","","","","","","","","","","",""
"","","","","","image-keyboard-response","229","1787661","0.0-3.0-7.0-1.2","6234b670fac1a65a6f832f32","C3","batch3","pattern_response","2252.899999976158","stim/no_20_1_w.png","j","pattern_06","j","true","","","","2252.899999976158","true","39","","","","","","","","","","","","","","","","",""
"","","","","","html-keyboard-response","230","1788984","0.0-3.0-7.0-0.3","6234b670fac1a65a6f832f32","C3","batch3","pattern_show_trial_num","null","<p class=block-text>Trial 43 out of 78</p>","null","","","","","","","","","","","","","","","","","","","","","","","","","",""
"","","","","","image-keyboard-response","231","1793392","0.0-3.0-7.0-1.3","6234b670fac1a65a6f832f32","C3","batch3","pattern_response","4405.699999928474","stim/no_55_1_w.png","j","pattern_34","j","true","","","","4405.699999928474","true","40","","","","","","","","","","","","","","","","",""
"","","","","","html-keyboard-response","232","1794707","0.0-3.0-7.0-0.4","6234b670fac1a65a6f832f32","C3","batch3","pattern_show_trial_num","null","<p class=block-text>Trial 44 out of 78</p>","null","","","","","","","","","","","","","","","","","","","","","","","","","",""
"","","","","","image-keyboard-response","233","1797606","0.0-3.0-7.0-1.4","6234b670fac1a65a6f832f32","C3","batch3","pattern_response","2896.2999999523163","stim/yes_40_dia_b1_b.png","j","pattern_63","f","false","","","","2896.2999999523163","false","40","","","","","","","","","","","","","","","","",""
"","","","","","html-keyboard-response","234","1798919","0.0-3.0-7.0-0.5","6234b670fac1a65a6f832f32","C3","batch3","pattern_show_trial_num","null","<p class=block-text>Trial 45 out of 78</p>","null","","","","","","","","","","","","","","","","","","","","","","","","","",""
"","","","","","image-keyboard-response","235","1802174","0.0-3.0-7.0-1.5","6234b670fac1a65a6f832f32","C3","batch3","pattern_response","3252.100000023842","stim/no_34_1_b.png","j","pattern_16","j","true","","","","3252.100000023842","true","41","","","","","","","","","","","","","","","","",""
"","","","","","html-keyboard-response","236","1803496","0.0-3.0-7.0-0.6","6234b670fac1a65a6f832f32","C3","batch3","pattern_show_trial_num","null","<p class=block-text>Trial 46 out of 78</p>","null","","","","","","","","","","","","","","","","","","","","","","","","","",""
"","","","","","image-keyboard-response","237","1809413","0.0-3.0-7.0-1.6","6234b670fac1a65a6f832f32","C3","batch3","pattern_response","5914","stim/no_46_1_b.png","j","pattern_26","j","true","","","","5914","true","42","","","","","","","","","","","","","","","","",""
"","","","","","html-keyboard-response","238","1810728","0.0-3.0-7.0-0.7","6234b670fac1a65a6f832f32","C3","batch3","pattern_show_trial_num","null","<p class=block-text>Trial 47 out of 78</p>","null","","","","","","","","","","","","","","","","","","","","","","","","","",""
"","","","","","image-keyboard-response","239","1814559","0.0-3.0-7.0-1.7","6234b670fac1a65a6f832f32","C3","batch3","pattern_response","3828.3000000715256","stim/yes_55_hor_w1_w.png","f","pattern_75","f","true","","","","3828.3000000715256","true","43","","","","","","","","","","","","","","","","",""
"","","","","","html-keyboard-response","240","1815874","0.0-3.0-7.0-0.8","6234b670fac1a65a6f832f32","C3","batch3","pattern_show_trial_num","null","<p class=block-text>Trial 48 out of 78</p>","null","","","","","","","","","","","","","","","","","","","","","","","","","",""
"","","","","","image-keyboard-response","241","1817837","0.0-3.0-7.0-1.8","6234b670fac1a65a6f832f32","C3","batch3","pattern_response","1960.2000000476837","stim/no_17_1_w.png","j","pattern_04","j","true","","","","1960.2000000476837","true","44","","","","","","","","","","","","","","","","",""
"","","","","","html-keyboard-response","242","1819157","0.0-3.0-7.0-0.9","6234b670fac1a65a6f832f32","C3","batch3","pattern_show_trial_num","null","<p class=block-text>Trial 49 out of 78</p>","null","","","","","","","","","","","","","","","","","","","","","","","","","",""
"","","","","","image-keyboard-response","243","1820503","0.0-3.0-7.0-1.9","6234b670fac1a65a6f832f32","C3","batch3","pattern_response","1343.1999999284744","stim/yes_52_ver_w1.png","f","pattern_73","f","true","","","","1343.1999999284744","true","45","","","","","","","","","","","","","","","","",""
"","","","","","html-keyboard-response","244","1821815","0.0-3.0-7.0-0.10","6234b670fac1a65a6f832f32","C3","batch3","pattern_show_trial_num","null","<p class=block-text>Trial 50 out of 78</p>","null","","","","","","","","","","","","","","","","","","","","","","","","","",""
"","","","","","image-keyboard-response","245","1822890","0.0-3.0-7.0-1.10","6234b670fac1a65a6f832f32","C3","batch3","pattern_response","1073.2000000476837","stim/yes_22_ver_w1.png","f","pattern_47","f","true","","","","1073.2000000476837","true","46","","","","","","","","","","","","","","","","",""
"","","","","","html-keyboard-response","246","1824211","0.0-3.0-7.0-0.11","6234b670fac1a65a6f832f32","C3","batch3","pattern_show_trial_num","null","<p class=block-text>Trial 51 out of 78</p>","null","","","","","","","","","","","","","","","","","","","","","","","","","",""
"","","","","","image-keyboard-response","247","1831794","0.0-3.0-7.0-1.11","6234b670fac1a65a6f832f32","C3","batch3","pattern_response","7580.700000047684","stim/no_70_2.png","j","pattern_40","j","true","","","","7580.700000047684","true","47","","","","","","","","","","","","","","","","",""
"","","","","","html-keyboard-response","248","1833108","0.0-3.0-7.0-0.12","6234b670fac1a65a6f832f32","C3","batch3","pattern_show_trial_num","null","<p class=block-text>Trial 52 out of 78</p>","null","","","","","","","","","","","","","","","","","","","","","","","","","",""
"","","","","","image-keyboard-response","249","1838738","0.0-3.0-7.0-1.12","6234b670fac1a65a6f832f32","C3","batch3","pattern_response","5627.899999976158","stim/no_52_1.png","j","pattern_32","j","true","","","","5627.899999976158","true","48","","","","","","","","","","","","","","","","",""
"","","","","","html-keyboard-response","250","1840057","0.0-3.0-7.0-0.13","6234b670fac1a65a6f832f32","C3","batch3","pattern_show_trial_num","null","<p class=block-text>Trial 53 out of 78</p>","null","","","","","","","","","","","","","","","","","","","","","","","","","",""
"","","","","","image-keyboard-response","251","1840906","0.0-3.0-7.0-1.13","6234b670fac1a65a6f832f32","C3","batch3","pattern_response","846.7999999523163","stim/yes_29_ver_w1.png","f","pattern_53","f","true","","","","846.7999999523163","true","49","","","","","","","","","","","","","","","","",""
"","","","","","html-keyboard-response","252","1842229","0.0-3.0-7.0-0.14","6234b670fac1a65a6f832f32","C3","batch3","pattern_show_trial_num","null","<p class=block-text>Trial 54 out of 78</p>","null","","","","","","","","","","","","","","","","","","","","","","","","","",""
"","","","","","image-keyboard-response","253","1844284","0.0-3.0-7.0-1.14","6234b670fac1a65a6f832f32","C3","batch3","pattern_response","2053.7999999523163","stim/no_32_1_w.png","j","pattern_14","j","true","","","","2053.7999999523163","true","50","","","","","","","","","","","","","","","","",""
"","","","","","html-keyboard-response","254","1845597","0.0-3.0-7.0-0.15","6234b670fac1a65a6f832f32","C3","batch3","pattern_show_trial_num","null","<p class=block-text>Trial 55 out of 78</p>","null","","","","","","","","","","","","","","","","","","","","","","","","","",""
"","","","","","image-keyboard-response","255","1852695","0.0-3.0-7.0-1.15","6234b670fac1a65a6f832f32","C3","batch3","pattern_response","7095","stim/yes_67_hor_b1.png","j","pattern_79","f","false","","","","7095","false","50","","","","","","","","","","","","","","","","",""
"","","","","","html-keyboard-response","256","1854017","0.0-3.0-7.0-0.16","6234b670fac1a65a6f832f32","C3","batch3","pattern_show_trial_num","null","<p class=block-text>Trial 56 out of 78</p>","null","","","","","","","","","","","","","","","","","","","","","","","","","",""
"","","","","","image-keyboard-response","257","1855431","0.0-3.0-7.0-1.16","6234b670fac1a65a6f832f32","C3","batch3","pattern_response","1411.0999999046326","stim/yes_43_ver_w1_w.png","f","pattern_65","f","true","","","","1411.0999999046326","true","51","","","","","","","","","","","","","","","","",""
"","","","","","html-keyboard-response","258","1856751","0.0-3.0-7.0-0.17","6234b670fac1a65a6f832f32","C3","batch3","pattern_show_trial_num","null","<p class=block-text>Trial 57 out of 78</p>","null","","","","","","","","","","","","","","","","","","","","","","","","","",""
"","","","","","image-keyboard-response","259","1860864","0.0-3.0-7.0-1.17","6234b670fac1a65a6f832f32","C3","batch3","pattern_response","4110.699999928474","stim/no_44_1.png","j","pattern_24","j","true","","","","4110.699999928474","true","52","","","","","","","","","","","","","","","","",""
"","","","","","html-keyboard-response","260","1862175","0.0-3.0-7.0-0.18","6234b670fac1a65a6f832f32","C3","batch3","pattern_show_trial_num","null","<p class=block-text>Trial 58 out of 78</p>","null","","","","","","","","","","","","","","","","","","","","","","","","","",""
"","","","","","image-keyboard-response","261","1863058","0.0-3.0-7.0-1.18","6234b670fac1a65a6f832f32","C3","batch3","pattern_response","880.8999999761581","stim/yes_14_hor_b1_w.png","f","pattern_43","f","true","","","","880.8999999761581","true","53","","","","","","","","","","","","","","","","",""
"","","","","","html-keyboard-response","262","1864369","0.0-3.0-7.0-0.19","6234b670fac1a65a6f832f32","C3","batch3","pattern_show_trial_num","null","<p class=block-text>Trial 59 out of 78</p>","null","","","","","","","","","","","","","","","","","","","","","","","","","",""
"","","","","","image-keyboard-response","263","1865633","0.0-3.0-7.0-1.19","6234b670fac1a65a6f832f32","C3","batch3","pattern_response","1262.1000000238419","stim/yes_38_hor_b1_b.png","f","pattern_61","f","true","","","","1262.1000000238419","true","54","","","","","","","","","","","","","","","","",""
"","","","","","html-keyboard-response","264","1866945","0.0-3.0-7.0-0.20","6234b670fac1a65a6f832f32","C3","batch3","pattern_show_trial_num","null","<p class=block-text>Trial 60 out of 78</p>","null","","","","","","","","","","","","","","","","","","","","","","","","","",""
"","","","","","image-keyboard-response","265","1872144","0.0-3.0-7.0-1.20","6234b670fac1a65a6f832f32","C3","batch3","pattern_response","5197.600000023842","stim/no_62_1_w.png","j","pattern_36","j","true","","","","5197.600000023842","true","55","","","","","","","","","","","","","","","","",""
"","","","","","html-keyboard-response","266","1873465","0.0-3.0-7.0-0.21","6234b670fac1a65a6f832f32","C3","batch3","pattern_show_trial_num","null","<p class=block-text>Trial 61 out of 78</p>","null","","","","","","","","","","","","","","","","","","","","","","","","","",""
"","","","","","image-keyboard-response","267","1875643","0.0-3.0-7.0-1.21","6234b670fac1a65a6f832f32","C3","batch3","pattern_response","2176.2000000476837","stim/no_23_1.png","j","pattern_08","j","true","","","","2176.2000000476837","true","56","","","","","","","","","","","","","","","","",""
"","","","","","html-keyboard-response","268","1876964","0.0-3.0-7.0-0.22","6234b670fac1a65a6f832f32","C3","batch3","pattern_show_trial_num","null","<p class=block-text>Trial 62 out of 78</p>","null","","","","","","","","","","","","","","","","","","","","","","","","","",""
"","","","","","image-keyboard-response","269","1878101","0.0-3.0-7.0-1.22","6234b670fac1a65a6f832f32","C3","batch3","pattern_response","1135.3000000715256","stim/no_13_2_b.png","j","pattern_02","j","true","","","","1135.3000000715256","true","57","","","","","","","","","","","","","","","","",""
"","","","","","html-keyboard-response","270","1879418","0.0-3.0-7.0-0.23","6234b670fac1a65a6f832f32","C3","batch3","pattern_show_trial_num","null","<p class=block-text>Trial 63 out of 78</p>","null","","","","","","","","","","","","","","","","","","","","","","","","","",""
"","","","","","image-keyboard-response","271","1883179","0.0-3.0-7.0-1.23","6234b670fac1a65a6f832f32","C3","batch3","pattern_response","3758.600000023842","stim/no_42_1_w.png","j","pattern_22","j","true","","","","3758.600000023842","true","58","","","","","","","","","","","","","","","","",""
"","","","","","html-keyboard-response","272","1884496","0.0-3.0-7.0-0.24","6234b670fac1a65a6f832f32","C3","batch3","pattern_show_trial_num","null","<p class=block-text>Trial 64 out of 78</p>","null","","","","","","","","","","","","","","","","","","","","","","","","","",""
"","","","","","image-keyboard-response","273","1887782","0.0-3.0-7.0-1.24","6234b670fac1a65a6f832f32","C3","batch3","pattern_response","3283.7000000476837","stim/yes_35_dia_b1.png","f","pattern_57","f","true","","","","3283.7000000476837","true","59","","","","","","","","","","","","","","","","",""
"","","","","","html-keyboard-response","274","1889101","0.0-3.0-7.0-0.25","6234b670fac1a65a6f832f32","C3","batch3","pattern_show_trial_num","null","<p class=block-text>Trial 65 out of 78</p>","null","","","","","","","","","","","","","","","","","","","","","","","","","",""
"","","","","","image-keyboard-response","275","1890112","0.0-3.0-7.0-1.25","6234b670fac1a65a6f832f32","C3","batch3","pattern_response","1009.1999999284744","stim/yes_17_dia_w1.png","f","pattern_45","f","true","","","","1009.1999999284744","true","60","","","","","","","","","","","","","","","","",""
"","","","","","html-keyboard-response","276","1891433","0.0-3.0-7.0-0.26","6234b670fac1a65a6f832f32","C3","batch3","pattern_show_trial_num","null","<p class=block-text>Trial 66 out of 78</p>","null","","","","","","","","","","","","","","","","","","","","","","","","","",""
"","","","","","image-keyboard-response","277","1892172","0.0-3.0-7.0-1.26","6234b670fac1a65a6f832f32","C3","batch3","pattern_response","736.6000000238419","stim/yes_25_hor_b1_b.png","f","pattern_49","f","true","","","","736.6000000238419","true","61","","","","","","","","","","","","","","","","",""
"","","","","","html-keyboard-response","278","1893481","0.0-3.0-7.0-0.27","6234b670fac1a65a6f832f32","C3","batch3","pattern_show_trial_num","null","<p class=block-text>Trial 67 out of 78</p>","null","","","","","","","","","","","","","","","","","","","","","","","","","",""
"","","","","","image-keyboard-response","279","1894831","0.0-3.0-7.0-1.27","6234b670fac1a65a6f832f32","C3","batch3","pattern_response","1347.5","stim/no_29_1_b.png","j","pattern_12","j","true","","","","1347.5","true","62","","","","","","","","","","","","","","","","",""
"","","","","","html-keyboard-response","280","1896142","0.0-3.0-7.0-0.28","6234b670fac1a65a6f832f32","C3","batch3","pattern_show_trial_num","null","<p class=block-text>Trial 68 out of 78</p>","null","","","","","","","","","","","","","","","","","","","","","","","","","",""
"","","","","","image-keyboard-response","281","1899635","0.0-3.0-7.0-1.28","6234b670fac1a65a6f832f32","C3","batch3","pattern_response","3492.0999999046326","stim/no_48_1_w.png","j","pattern_28","j","true","","","","3492.0999999046326","true","63","","","","","","","","","","","","","","","","",""
"","","","","","html-keyboard-response","282","1900947","0.0-3.0-7.0-0.29","6234b670fac1a65a6f832f32","C3","batch3","pattern_show_trial_num","null","<p class=block-text>Trial 69 out of 78</p>","null","","","","","","","","","","","","","","","","","","","","","","","","","",""
"","","","","","image-keyboard-response","283","1904447","0.0-3.0-7.0-1.29","6234b670fac1a65a6f832f32","C3","batch3","pattern_response","3498","stim/yes_60_ver_b1_b.png","f","pattern_77","f","true","","","","3498","true","64","","","","","","","","","","","","","","","","",""
"","","","","","html-keyboard-response","284","1905767","0.0-3.0-7.0-0.30","6234b670fac1a65a6f832f32","C3","batch3","pattern_show_trial_num","null","<p class=block-text>Trial 70 out of 78</p>","null","","","","","","","","","","","","","","","","","","","","","","","","","",""
"","","","","","image-keyboard-response","285","1909719","0.0-3.0-7.0-1.30","6234b670fac1a65a6f832f32","C3","batch3","pattern_response","3950.2000000476837","stim/no_50_1.png","j","pattern_30","j","true","","","","3950.2000000476837","true","65","","","","","","","","","","","","","","","","",""
"","","","","","html-keyboard-response","286","1911041","0.0-3.0-7.0-0.31","6234b670fac1a65a6f832f32","C3","batch3","pattern_show_trial_num","null","<p class=block-text>Trial 71 out of 78</p>","null","","","","","","","","","","","","","","","","","","","","","","","","","",""
"","","","","","image-keyboard-response","287","1913116","0.0-3.0-7.0-1.31","6234b670fac1a65a6f832f32","C3","batch3","pattern_response","2072.7999999523163","stim/yes_45_hor_b2_b.png","f","pattern_67","f","true","","","","2072.7999999523163","true","66","","","","","","","","","","","","","","","","",""
"","","","","","html-keyboard-response","288","1914432","0.0-3.0-7.0-0.32","6234b670fac1a65a6f832f32","C3","batch3","pattern_show_trial_num","null","<p class=block-text>Trial 72 out of 78</p>","null","","","","","","","","","","","","","","","","","","","","","","","","","",""
"","","","","","image-keyboard-response","289","1915369","0.0-3.0-7.0-1.32","6234b670fac1a65a6f832f32","C3","batch3","pattern_response","934.2000000476837","stim/yes_28_ver_b1.png","f","pattern_51","f","true","","","","934.2000000476837","true","67","","","","","","","","","","","","","","","","",""
"","","","","","html-keyboard-response","290","1916683","0.0-3.0-7.0-0.33","6234b670fac1a65a6f832f32","C3","batch3","pattern_show_trial_num","null","<p class=block-text>Trial 73 out of 78</p>","null","","","","","","","","","","","","","","","","","","","","","","","","","",""
"","","","","","image-keyboard-response","291","1919627","0.0-3.0-7.0-1.33","6234b670fac1a65a6f832f32","C3","batch3","pattern_response","2941.100000023842","stim/yes_50_dia_w1.png","j","pattern_71","f","false","","","","2941.100000023842","false","67","","","","","","","","","","","","","","","","",""
"","","","","","html-keyboard-response","292","1920943","0.0-3.0-7.0-0.34","6234b670fac1a65a6f832f32","C3","batch3","pattern_show_trial_num","null","<p class=block-text>Trial 74 out of 78</p>","null","","","","","","","","","","","","","","","","","","","","","","","","","",""
"","","","","","image-keyboard-response","293","1923272","0.0-3.0-7.0-1.34","6234b670fac1a65a6f832f32","C3","batch3","pattern_response","2325.6999999284744","stim/no_36_2_w.png","j","pattern_18","j","true","","","","2325.6999999284744","true","68","","","","","","","","","","","","","","","","",""
"","","","","","html-keyboard-response","294","1924592","0.0-3.0-7.0-0.35","6234b670fac1a65a6f832f32","C3","batch3","pattern_show_trial_num","null","<p class=block-text>Trial 75 out of 78</p>","null","","","","","","","","","","","","","","","","","","","","","","","","","",""
"","","","","","image-keyboard-response","295","1928238","0.0-3.0-7.0-1.35","6234b670fac1a65a6f832f32","C3","batch3","pattern_response","3637.899999976158","stim/no_38_1_b.png","j","pattern_20","j","true","","","","3637.899999976158","true","69","","","","","","","","","","","","","","","","",""
"","","","","","html-keyboard-response","296","1929552","0.0-3.0-7.0-0.36","6234b670fac1a65a6f832f32","C3","batch3","pattern_show_trial_num","null","<p class=block-text>Trial 76 out of 78</p>","null","","","","","","","","","","","","","","","","","","","","","","","","","",""
"","","","","","image-keyboard-response","297","1932615","0.0-3.0-7.0-1.36","6234b670fac1a65a6f832f32","C3","batch3","pattern_response","3060.100000023842","stim/yes_48_dia_w1_w.png","f","pattern_69","f","true","","","","3060.100000023842","true","70","","","","","","","","","","","","","","","","",""
"","","","","","html-keyboard-response","298","1933931","0.0-3.0-7.0-0.37","6234b670fac1a65a6f832f32","C3","batch3","pattern_show_trial_num","null","<p class=block-text>Trial 77 out of 78</p>","null","","","","","","","","","","","","","","","","","","","","","","","","","",""
"","","","","","image-keyboard-response","299","1938619","0.0-3.0-7.0-1.37","6234b670fac1a65a6f832f32","C3","batch3","pattern_response","4685.100000023842","stim/no_65_1_b.png","j","pattern_38","j","true","","","","4685.100000023842","true","71","","","","","","","","","","","","","","","","",""
"","","","","","html-keyboard-response","300","1939934","0.0-3.0-7.0-0.38","6234b670fac1a65a6f832f32","C3","batch3","pattern_show_trial_num","null","<p class=block-text>Trial 78 out of 78</p>","null","","","","","","","","","","","","","","","","","","","","","","","","","",""
"","","","","","image-keyboard-response","301","1942255","0.0-3.0-7.0-1.38","6234b670fac1a65a6f832f32","C3","batch3","pattern_response","2318.3000000715256","stim/yes_31_hor_b1.png","f","pattern_55","f","true","","","","2318.3000000715256","true","72","","","","","","","","","","","","","","","","",""
"","","","","","html-button-response","302","1956336","0.0-3.0-8.0","6234b670fac1a65a6f832f32","C3","batch3","","13567.899999976158","<p class = block-text>This concludes the 4-in-a-row detection game.Thank you for your responses!<br>
            You responded correctly on 92% of the trials.<br>
            When you are ready, press ""Continue"" button to continue </p>","0","","","","","","","","","","","","","","","","","","","","","","","","","",""
"true","","","","","fullscreen","303","1969794","0.0-4.0-0.0","6234b670fac1a65a6f832f32","C3","batch3","","","","","","","","","","","","","","","","","","","","","","","","","","","","","",""
"","","","","","instructions","304","2098688","0.0-4.0-1.0-0.0-0.0","6234b670fac1a65a6f832f32","C3","batch3","tol-instructions","128893.09999990463","","","","","","","","[{""page_index"":0,""viewing_time"":33457.59999990463},{""page_index"":1,""viewing_time"":12270.800000071526},{""page_index"":2,""viewing_time"":7518.199999928474},{""page_index"":3,""viewing_time"":19033.800000071526},{""page_index"":4,""viewing_time"":13633.199999928474},{""page_index"":5,""viewing_time"":37151.60000002384},{""page_index"":6,""viewing_time"":5827.5}]","","","","","","","","","","","","","","","","","","","",""
"","","","","","html-button-response","305","2100903","0.0-4.0-1.0-1.0-0.0","6234b670fac1a65a6f832f32","C3","batch3","tol_enter_quiz","2213.1999999284744","<p class=block-text> Let's answer a few questions <br>","0","","","","","","","","","","","","","","","","","","","","","","","","","",""
"","","","","","html-button-response","306","2108203","0.0-4.0-1.0-1.0-1.0","6234b670fac1a65a6f832f32","C3","batch3","tol_quiz","7296.599999904633","<p class = block-text>True or False: You can only move the ball on top of a peg. <br></p>","1","","","false","","","","","","","","","","","","","","","","","","","","","","",""
"","","","","","html-button-response","307","2112220","0.0-4.0-1.0-1.0-2.0","6234b670fac1a65a6f832f32","C3","batch3","tol_quiz_feedback","4015.2000000476837","<p class = block-text>Incorrect. Remember, you can only move the ball on top of a peg.</p>","0","","","","","","","","","","","","","","","","","","","","","","","","","",""
"","","","","","html-button-response","308","2117371","0.0-4.0-1.0-1.0-3.0","6234b670fac1a65a6f832f32","C3","batch3","tol_quiz","5148.5","<p class = block-text>True or False: You should try to match your board with the target board with fewest moves possible. <br></p>","0","","","true","","","","","","","","","","","","","","","","","","","","","","",""
"","","","","","html-button-response","309","2118953","0.0-4.0-1.0-1.0-4.0","6234b670fac1a65a6f832f32","C3","batch3","tol_quiz_feedback","1580.1000000238419","<p class = block-text>Correct! </p>","0","","","","","","","","","","","","","","","","","","","","","","","","","",""
"","","","","","html-button-response","310","2124302","0.0-4.0-1.0-2.0-0.0","6234b670fac1a65a6f832f32","C3","batch3","","5347.399999976158","<p class = block-text>You made too many incorrect choices.</p><p class = block-text>You will now repeat the instructions and quiz</p>","0","","","","","","","","","","","","","","","","","","","","","","","","","",""
"","","","","","instructions","311","2205179","0.0-4.0-1.1-0.1-0.1","6234b670fac1a65a6f832f32","C3","batch3","tol-instructions","80875","","","","","","","","[{""page_index"":0,""viewing_time"":15498.100000023842},{""page_index"":1,""viewing_time"":7758.299999952316},{""page_index"":2,""viewing_time"":5149.600000023842},{""page_index"":3,""viewing_time"":13463.200000047684},{""page_index"":4,""viewing_time"":10768.299999952316},{""page_index"":5,""viewing_time"":21330},{""page_index"":6,""viewing_time"":6907.100000023842}]","","","","","","","","","","","","","","","","","","","",""
"","","","","","html-button-response","312","2207091","0.0-4.0-1.1-1.1-0.1","6234b670fac1a65a6f832f32","C3","batch3","tol_enter_quiz","1910.6000000238419","<p class=block-text> Let's answer a few questions <br>","0","","","","","","","","","","","","","","","","","","","","","","","","","",""
"","","","","","html-button-response","313","2215348","0.0-4.0-1.1-1.1-1.1","6234b670fac1a65a6f832f32","C3","batch3","tol_quiz","8254.399999976158","<p class = block-text>True or False: You can only move the ball on top of a peg. <br></p>","1","","","false","","","","","","","","","","","","","","","","","","","","","","",""
"","","","","","html-button-response","314","2218395","0.0-4.0-1.1-1.1-2.1","6234b670fac1a65a6f832f32","C3","batch3","tol_quiz_feedback","3045.1999999284744","<p class = block-text>Incorrect. Remember, you can only move the ball on top of a peg.</p>","0","","","","","","","","","","","","","","","","","","","","","","","","","",""
"","","","","","html-button-response","315","2222962","0.0-4.0-1.1-1.1-3.1","6234b670fac1a65a6f832f32","C3","batch3","tol_quiz","4565.599999904633","<p class = block-text>True or False: You should try to match your board with the target board with fewest moves possible. <br></p>","0","","","true","","","","","","","","","","","","","","","","","","","","","","",""
"","","","","","html-button-response","316","2224329","0.0-4.0-1.1-1.1-4.1","6234b670fac1a65a6f832f32","C3","batch3","tol_quiz_feedback","1365.8999999761581","<p class = block-text>Correct! </p>","0","","","","","","","","","","","","","","","","","","","","","","","","","",""
"","","","","","html-button-response","317","2227478","0.0-4.0-1.1-2.1-0.1","6234b670fac1a65a6f832f32","C3","batch3","","3146.899999976158","<p class = block-text>You made too many incorrect choices.</p><p class = block-text>You will now repeat the instructions and quiz</p>","0","","","","","","","","","","","","","","","","","","","","","","","","","",""
"","","","","","instructions","318","2259742","0.0-4.0-1.2-0.2-0.2","6234b670fac1a65a6f832f32","C3","batch3","tol-instructions","32263.5","","","","","","","","[{""page_index"":0,""viewing_time"":1372.5999999046326},{""page_index"":1,""viewing_time"":4206.900000095367},{""page_index"":2,""viewing_time"":1953.1999999284744},{""page_index"":3,""viewing_time"":9950.600000023842},{""page_index"":4,""viewing_time"":2725.2000000476837},{""page_index"":5,""viewing_time"":8905},{""page_index"":6,""viewing_time"":3149.6999999284744}]","","","","","","","","","","","","","","","","","","","",""
"","","","","","html-button-response","319","2263455","0.0-4.0-1.2-1.2-0.2","6234b670fac1a65a6f832f32","C3","batch3","tol_enter_quiz","3711.7000000476837","<p class=block-text> Let's answer a few questions <br>","0","","","","","","","","","","","","","","","","","","","","","","","","","",""
"","","","","","html-button-response","320","2263925","0.0-4.0-1.2-1.2-1.2","6234b670fac1a65a6f832f32","C3","batch3","tol_quiz","467.6999999284744","<p class = block-text>True or False: You can only move the ball on top of a peg. <br></p>","1","","","false","","","","","","","","","","","","","","","","","","","","","","",""
"","","","","","html-button-response","321","2267471","0.0-4.0-1.2-1.2-2.2","6234b670fac1a65a6f832f32","C3","batch3","tol_quiz_feedback","3544.7000000476837","<p class = block-text>Incorrect. Remember, you can only move the ball on top of a peg.</p>","0","","","","","","","","","","","","","","","","","","","","","","","","","",""
"","","","","","html-button-response","322","2271629","0.0-4.0-1.2-1.2-3.2","6234b670fac1a65a6f832f32","C3","batch3","tol_quiz","4156.200000047684","<p class = block-text>True or False: You should try to match your board with the target board with fewest moves possible. <br></p>","0","","","true","","","","","","","","","","","","","","","","","","","","","","",""
"","","","","","html-button-response","323","2272997","0.0-4.0-1.2-1.2-4.2","6234b670fac1a65a6f832f32","C3","batch3","tol_quiz_feedback","1366.8999999761581","<p class = block-text>Correct! </p>","0","","","","","","","","","","","","","","","","","","","","","","","","","",""
"","","","","","html-button-response","324","2276051","0.0-4.0-1.2-2.2-0.2","6234b670fac1a65a6f832f32","C3","batch3","","3053.1999999284744","<p class = block-text>You made too many incorrect choices.</p><p class = block-text>You will now repeat the instructions and quiz</p>","0","","","","","","","","","","","","","","","","","","","","","","","","","",""
"","","","","","instructions","325","2289220","0.0-4.0-1.3-0.3-0.3","6234b670fac1a65a6f832f32","C3","batch3","tol-instructions","13167.699999928474","","","","","","","","[{""page_index"":0,""viewing_time"":1765.7999999523163},{""page_index"":1,""viewing_time"":1192.6000000238419},{""page_index"":2,""viewing_time"":1299.5},{""page_index"":3,""viewing_time"":1931.1000000238419},{""page_index"":4,""viewing_time"":1896},{""page_index"":5,""viewing_time"":1154.5},{""page_index"":6,""viewing_time"":3927.899999976158}]","","","","","","","","","","","","","","","","","","","",""
"","","","","","html-button-response","326","2290961","0.0-4.0-1.3-1.3-0.3","6234b670fac1a65a6f832f32","C3","batch3","tol_enter_quiz","1739.2999999523163","<p class=block-text> Let's answer a few questions <br>","0","","","","","","","","","","","","","","","","","","","","","","","","","",""
"","","","","","html-button-response","327","2294395","0.0-4.0-1.3-1.3-1.3","6234b670fac1a65a6f832f32","C3","batch3","tol_quiz","3432.399999976158","<p class = block-text>True or False: You can only move the ball on top of a peg. <br></p>","0","","","true","","","","","","","","","","","","","","","","","","","","","","",""
"","","","","","html-button-response","328","2297584","0.0-4.0-1.3-1.3-2.3","6234b670fac1a65a6f832f32","C3","batch3","tol_quiz_feedback","3187.399999976158","<p class = block-text>Correct! You can only move the ball on top of a peg.</p>","0","","","","","","","","","","","","","","","","","","","","","","","","","",""
"","","","","","html-button-response","329","2301447","0.0-4.0-1.3-1.3-3.3","6234b670fac1a65a6f832f32","C3","batch3","tol_quiz","3861","<p class = block-text>True or False: You should try to match your board with the target board with fewest moves possible. <br></p>","0","","","true","","","","","","","","","","","","","","","","","","","","","","",""
"","","","","","html-button-response","330","2302770","0.0-4.0-1.3-1.3-4.3","6234b670fac1a65a6f832f32","C3","batch3","tol_quiz_feedback","1322.3000000715256","<p class = block-text>Correct! </p>","0","","","","","","","","","","","","","","","","","","","","","","","","","",""
"","","","","","html-button-response","331","2305646","0.0-4.0-2.0","6234b670fac1a65a6f832f32","C3","batch3","","2874.1999999284744","<p class=block-text> Now that you've understood the game, let's practice a few easier examples before we start!<br> <br>","0","","","","","","","","","","","","","","","","","","","","","","","","","",""
"","","","","","single-stim-button","332","2312365","0.0-4.0-3.0-0.0","6234b670fac1a65a6f832f32","C3","batch3","tol_practice","6715","","","","","","","","","","","","","","tol_peg_2","6715","6715","0","[[1,2,0],[0,0],[0]]","1","[[1,2,0],[0,0],[3]]","practice","6715","","","","","",""
"","","","","","single-stim-button","333","2314903","0.0-4.0-3.0-1.0","6234b670fac1a65a6f832f32","C3","batch3","tol_practice","2537","","","","","","","","","","","","","","tol_peg_3","2537","2537","0","[[1,2,0],[0,0],[3]]","1","[[1,2,0],[0,0],[3]]","practice","2537","","","","","",""
"","","","","","poldrack-single-stim","334","2315919","0.0-4.0-4.0","6234b670fac1a65a6f832f32","C3","batch3","tol_feedback","-1","","","","","true","","","","","","","","","","1000","1000","500","","","","","","-1","none","true","","0",""
"","","","","","single-stim-button","335","2324575","0.0-4.0-5.0-0.0","6234b670fac1a65a6f832f32","C3","batch3","tol_practice","8656","","","","","","","","","","","","","","tol_peg_1","8656","8656","0","[[1,0,0],[3,0],[0]]","2","[[0,0,0],[3,1],[2]]","practice","8656","","","","","",""
"","","","","","single-stim-button","336","2327615","0.0-4.0-5.0-1.0","6234b670fac1a65a6f832f32","C3","batch3","tol_practice","3038","","","","","","","","","","","","","","tol_peg_3","3038","3038","0","[[1,0,0],[3,0],[2]]","2","[[0,0,0],[3,1],[2]]","practice","3038","","","","","",""
"","","","","","single-stim-button","337","2330806","0.0-4.0-5.1-0.1","6234b670fac1a65a6f832f32","C3","batch3","tol_practice","3189","","","","","","","","","","","","","","tol_peg_1","3189","3189","0","[[0,0,0],[3,0],[2]]","3","[[0,0,0],[3,1],[2]]","practice","3189","","","","","",""
"","","","","","single-stim-button","338","2332406","0.0-4.0-5.1-1.1","6234b670fac1a65a6f832f32","C3","batch3","tol_practice","1599","","","","","","","","","","","","","","tol_peg_2","1599","1599","0","[[0,0,0],[3,1],[2]]","3","[[0,0,0],[3,1],[2]]","practice","1599","","","","","",""
"","","","","","poldrack-single-stim","339","2333410","0.0-4.0-6.0","6234b670fac1a65a6f832f32","C3","batch3","tol_feedback","-1","","","","","true","","","","","","","","","","1000","1000","500","","","","","","-1","none","true","","0",""
"","","","","","single-stim-button","340","2337141","0.0-4.0-7.0-0.0","6234b670fac1a65a6f832f32","C3","batch3","tol_practice","3730","","","","","","","","","","","","","","tol_peg_2","3730","3730","0","[[1,2,0],[0,0],[0]]","4","[[1,0,0],[2,0],[3]]","practice","3730","","","","","",""
