"success","timeout","failed_images","failed_audio","failed_video","trial_type","trial_index","time_elapsed","internal_node_id","subject_id","study_id","session_id","view_history","rt","stimulus","response","task","correct","answer","item","fiar_detect_rt","fiar_detect_correct","total_correct_fiar_detect","post_trial_gap","choices","spm_correct","spm_rt","mouse_click","stim_duration","block_duration","timing_post_trial","current_position","tol_num_moves_made","tol_target","tol_problem_id","tol_rt","key_press","possible_responses","tol_correct","preplanning","tol_rt_per_trial","tol_min_moves"
"true","false","[]","[]","[]","preload","0","14380","0.0-0.0","6237ca974050879378c8fea8","A3","batch1","","","","","","","","","","","","","","","","","","","","","","","","","","","","","",""
"true","","","","","fullscreen","1","146457","0.0-1.0-0.0","6237ca974050879378c8fea8","A3","batch1","","","","","","","","","","","","","","","","","","","","","","","","","","","","","",""
"true","","","","","fullscreen","2","153079","0.0-2.0-0.0","6237ca974050879378c8fea8","A3","batch1","","","","","","","","","","","","","","","","","","","","","","","","","","","","","",""
"","","","","","instructions","3","211051","0.0-2.0-1.0-0.0","6237ca974050879378c8fea8","A3","batch1","[{""page_index"":0,""viewing_time"":50348.09999990463},{""page_index"":1,""viewing_time"":7623.5}]","57971.799999952316","","","","","","","","","","","","","","","","","","","","","","","","","","","",""
"","","","","","html-button-response","4","214771","0.0-2.0-1.0-1.0-0.0","6237ca974050879378c8fea8","A3","batch1","","3718.899999976158","<p class=block-text> Let's answer a few questions <br>","0","pattern_enter_quiz","","","","","","","","","","","","","","","","","","","","","","","","",""
"","","","","","html-button-response","5","221107","0.0-2.0-1.0-1.0-1.0","6237ca974050879378c8fea8","A3","batch1","","6335.100000023842","<p class = block-text>True or False: You will have as much time as you want to make each choice. <br></p>","1","pattern_quiz","true","","","","","","","","","","","","","","","","","","","","","","","",""
"","","","","","html-button-response","6","222425","0.0-2.0-1.0-1.0-2.0","6237ca974050879378c8fea8","A3","batch1","","1317.2000000476837","<p class = block-text>Correct! You should make your choice <strong> as fast as you can</strong>.</p>","0","pattern_quiz_feedback","","","","","","","","","","","","","","","","","","","","","","","","",""
"","","","","","html-button-response","7","226715","0.0-2.0-1.0-1.0-3.0","6237ca974050879378c8fea8","A3","batch1","","4289.399999976158","<p class = block-text>True or False: You will look for 4 pieces in black or white color connected in a row either horizontally, vertically or diagonally. <br></p>","0","pattern_quiz","true","","","","","","","","","","","","","","","","","","","","","","","",""
"","","","","","html-button-response","8","227281","0.0-2.0-1.0-1.0-4.0","6237ca974050879378c8fea8","A3","batch1","","565.8999999761581","<p class = block-text>Correct! </p>","0","pattern_quiz_feedback","","","","","","","","","","","","","","","","","","","","","","","","",""
"","","","","","html-button-response","9","228929","0.0-2.0-2.0","6237ca974050879378c8fea8","A3","batch1","","1647.3999999761581","<p class=block-text> Now that you've understood the game, let's do a few practice trials before we start!<br> <br>","0","pattern_enter_practice","","","","","","","","","","","","","","","","","","","","","","","","",""
"","","","","","image-keyboard-response","10","229761","0.0-2.0-3.0-0.0","6237ca974050879378c8fea8","A3","batch1","","829.6000000238419","stim/prac_yes_16_ver_w1.png","f","pattern_practice","true","f","","","","","","","","","","","","","","","","","","","","","","",""
"","","","","","html-keyboard-response","11","230773","0.0-2.0-3.0-1.0","6237ca974050879378c8fea8","A3","batch1","","null","<p style=""font-size:30px;color:green;"">Correct!</p>","null","pattern_feedback","","","","","","","","","","","","","","","","","","","","","","","","",""
"","","","","","image-keyboard-response","12","231934","0.0-2.0-3.0-0.1","6237ca974050879378c8fea8","A3","batch1","","1160.7000000476837","stim/prac_yes_20_dia_b1.png","f","pattern_practice","true","f","","","","","","","","","","","","","","","","","","","","","","",""
"","","","","","html-keyboard-response","13","232951","0.0-2.0-3.0-1.1","6237ca974050879378c8fea8","A3","batch1","","null","<p style=""font-size:30px;color:green;"">Correct!</p>","null","pattern_feedback","","","","","","","","","","","","","","","","","","","","","","","","",""
"","","","","","image-keyboard-response","14","234041","0.0-2.0-3.0-0.2","6237ca974050879378c8fea8","A3","batch1","","1089.3999999761581","stim/prac_no_16_1.png","j","pattern_practice","true","j","","","","","","","","","","","","","","","","","","","","","","",""
"","","","","","html-keyboard-response","15","235053","0.0-2.0-3.0-1.2","6237ca974050879378c8fea8","A3","batch1","","null","<p style=""font-size:30px;color:green;"">Correct!</p>","null","pattern_feedback","","","","","","","","","","","","","","","","","","","","","","","","",""
"","","","","","image-keyboard-response","16","235628","0.0-2.0-3.0-0.3","6237ca974050879378c8fea8","A3","batch1","","573.8000000715256","stim/prac_yes_18_hor_w1.png","f","pattern_practice","true","f","","","","","","","","","","","","","","","","","","","","","","",""
"","","","","","html-keyboard-response","17","236649","0.0-2.0-3.0-1.3","6237ca974050879378c8fea8","A3","batch1","","null","<p style=""font-size:30px;color:green;"">Correct!</p>","null","pattern_feedback","","","","","","","","","","","","","","","","","","","","","","","","",""
"","","","","","image-keyboard-response","18","237667","0.0-2.0-3.0-0.4","6237ca974050879378c8fea8","A3","batch1","","1017.6000000238419","stim/prac_no_18_1.png","j","pattern_practice","true","j","","","","","","","","","","","","","","","","","","","","","","",""
"","","","","","html-keyboard-response","19","238679","0.0-2.0-3.0-1.4","6237ca974050879378c8fea8","A3","batch1","","null","<p style=""font-size:30px;color:green;"">Correct!</p>","null","pattern_feedback","","","","","","","","","","","","","","","","","","","","","","","","",""
"","","","","","html-button-response","20","345716","0.0-2.0-4.0","6237ca974050879378c8fea8","A3","batch1","","107036.79999995232","<p class=block-text> Good job! You are done with practice trials!<br>
        You responded correctly on 100% of the trials.<br>
        Press the button below to start official trials. Now you won't see any feedback about your response</p>","0","pattern_enter_official_trials","","","","","","","","","","","","","","","","","","","","","","","","",""
"","","","","","html-keyboard-response","21","346530","0.0-2.0-5.0-0.0","6237ca974050879378c8fea8","A3","batch1","","null","<p class=block-text>Trial 1 out of 78</p>","null","pattern_show_trial_num","","","","","","","","","","","","","","","","","","","","","","","","",""
"","","","","","image-keyboard-response","22","348539","0.0-2.0-5.0-1.0","6237ca974050879378c8fea8","A3","batch1","","2007.3000000715256","stim/yes_12_hor_w1_w.png","f","pattern_response","true","f","pattern_42","2007.3000000715256","true","1","","","","","","","","","","","","","","","","","","",""
"","","","","","html-keyboard-response","23","349847","0.0-2.0-5.0-0.1","6237ca974050879378c8fea8","A3","batch1","","null","<p class=block-text>Trial 2 out of 78</p>","null","pattern_show_trial_num","","","","","","","","","","","","","","","","","","","","","","","","",""
"","","","","","image-keyboard-response","24","350413","0.0-2.0-5.0-1.1","6237ca974050879378c8fea8","A3","batch1","","566","stim/yes_39_hor_w1_w.png","f","pattern_response","true","f","pattern_62","566","true","2","","","","","","","","","","","","","","","","","","",""
"","","","","","html-keyboard-response","25","351719","0.0-2.0-5.0-0.2","6237ca974050879378c8fea8","A3","batch1","","null","<p class=block-text>Trial 3 out of 78</p>","null","pattern_show_trial_num","","","","","","","","","","","","","","","","","","","","","","","","",""
"","","","","","image-keyboard-response","26","352300","0.0-2.0-5.0-1.2","6237ca974050879378c8fea8","A3","batch1","","579.8000000715256","stim/yes_46_ver_b1_b.png","f","pattern_response","true","f","pattern_68","579.8000000715256","true","3","","","","","","","","","","","","","","","","","","",""
"","","","","","html-keyboard-response","27","353617","0.0-2.0-5.0-0.3","6237ca974050879378c8fea8","A3","batch1","","null","<p class=block-text>Trial 4 out of 78</p>","null","pattern_show_trial_num","","","","","","","","","","","","","","","","","","","","","","","","",""
"","","","","","image-keyboard-response","28","354389","0.0-2.0-5.0-1.3","6237ca974050879378c8fea8","A3","batch1","","771.7000000476837","stim/yes_37_hor_w1_w.png","f","pattern_response","true","f","pattern_60","771.7000000476837","true","4","","","","","","","","","","","","","","","","","","",""
"","","","","","html-keyboard-response","29","355700","0.0-2.0-5.0-0.4","6237ca974050879378c8fea8","A3","batch1","","null","<p class=block-text>Trial 5 out of 78</p>","null","pattern_show_trial_num","","","","","","","","","","","","","","","","","","","","","","","","",""
"","","","","","image-keyboard-response","30","356439","0.0-2.0-5.0-1.4","6237ca974050879378c8fea8","A3","batch1","","738.1000000238419","stim/yes_26_dia_w2_w.png","f","pattern_response","true","f","pattern_50","738.1000000238419","true","5","","","","","","","","","","","","","","","","","","",""
"","","","","","html-keyboard-response","31","357742","0.0-2.0-5.0-0.5","6237ca974050879378c8fea8","A3","batch1","","null","<p class=block-text>Trial 6 out of 78</p>","null","pattern_show_trial_num","","","","","","","","","","","","","","","","","","","","","","","","",""
"","","","","","image-keyboard-response","32","358469","0.0-2.0-5.0-1.5","6237ca974050879378c8fea8","A3","batch1","","726.8000000715256","stim/yes_70_ver_b1.png","f","pattern_response","true","f","pattern_80","726.8000000715256","true","6","","","","","","","","","","","","","","","","","","",""
"","","","","","html-keyboard-response","33","359801","0.0-2.0-5.0-0.6","6237ca974050879378c8fea8","A3","batch1","","null","<p class=block-text>Trial 7 out of 78</p>","null","pattern_show_trial_num","","","","","","","","","","","","","","","","","","","","","","","","",""
"","","","","","image-keyboard-response","34","362198","0.0-2.0-5.0-1.6","6237ca974050879378c8fea8","A3","batch1","","2395.899999976158","stim/no_51_1.png","j","pattern_response","true","j","pattern_31","2395.899999976158","true","7","","","","","","","","","","","","","","","","","","",""
"","","","","","html-keyboard-response","35","363503","0.0-2.0-5.0-0.7","6237ca974050879378c8fea8","A3","batch1","","null","<p class=block-text>Trial 8 out of 78</p>","null","pattern_show_trial_num","","","","","","","","","","","","","","","","","","","","","","","","",""
"","","","","","image-keyboard-response","36","364845","0.0-2.0-5.0-1.7","6237ca974050879378c8fea8","A3","batch1","","1341.1000000238419","stim/no_25_1_b.png","j","pattern_response","true","j","pattern_09","1341.1000000238419","true","8","","","","","","","","","","","","","","","","","","",""
"","","","","","html-keyboard-response","37","366164","0.0-2.0-5.0-0.8","6237ca974050879378c8fea8","A3","batch1","","null","<p class=block-text>Trial 9 out of 78</p>","null","pattern_show_trial_num","","","","","","","","","","","","","","","","","","","","","","","","",""
"","","","","","image-keyboard-response","38","370350","0.0-2.0-5.0-1.8","6237ca974050879378c8fea8","A3","batch1","","4185.600000023842","stim/no_67_1.png","j","pattern_response","true","j","pattern_39","4185.600000023842","true","9","","","","","","","","","","","","","","","","","","",""
"","","","","","html-keyboard-response","39","371658","0.0-2.0-5.0-0.9","6237ca974050879378c8fea8","A3","batch1","","null","<p class=block-text>Trial 10 out of 78</p>","null","pattern_show_trial_num","","","","","","","","","","","","","","","","","","","","","","","","",""
"","","","","","image-keyboard-response","40","375522","0.0-2.0-5.0-1.9","6237ca974050879378c8fea8","A3","batch1","","3862.600000023842","stim/no_53_1_b.png","j","pattern_response","true","j","pattern_33","3862.600000023842","true","10","","","","","","","","","","","","","","","","","","",""
"","","","","","html-keyboard-response","41","376834","0.0-2.0-5.0-0.10","6237ca974050879378c8fea8","A3","batch1","","null","<p class=block-text>Trial 11 out of 78</p>","null","pattern_show_trial_num","","","","","","","","","","","","","","","","","","","","","","","","",""
"","","","","","image-keyboard-response","42","380647","0.0-2.0-5.0-1.10","6237ca974050879378c8fea8","A3","batch1","","3812.6999999284744","stim/no_49_2_b.png","j","pattern_response","true","j","pattern_29","3812.6999999284744","true","11","","","","","","","","","","","","","","","","","","",""
"","","","","","html-keyboard-response","43","381956","0.0-2.0-5.0-0.11","6237ca974050879378c8fea8","A3","batch1","","null","<p class=block-text>Trial 12 out of 78</p>","null","pattern_show_trial_num","","","","","","","","","","","","","","","","","","","","","","","","",""
"","","","","","image-keyboard-response","44","382700","0.0-2.0-5.0-1.11","6237ca974050879378c8fea8","A3","batch1","","744","stim/yes_15_dia_b1u_b.png","f","pattern_response","true","f","pattern_44","744","true","12","","","","","","","","","","","","","","","","","","",""
"","","","","","html-keyboard-response","45","384020","0.0-2.0-5.0-0.12","6237ca974050879378c8fea8","A3","batch1","","null","<p class=block-text>Trial 13 out of 78</p>","null","pattern_show_trial_num","","","","","","","","","","","","","","","","","","","","","","","","",""
"","","","","","image-keyboard-response","46","387211","0.0-2.0-5.0-1.12","6237ca974050879378c8fea8","A3","batch1","","3190.600000023842","stim/no_47_1_b.png","j","pattern_response","true","j","pattern_27","3190.600000023842","true","13","","","","","","","","","","","","","","","","","","",""
"","","","","","html-keyboard-response","47","388531","0.0-2.0-5.0-0.13","6237ca974050879378c8fea8","A3","batch1","","null","<p class=block-text>Trial 14 out of 78</p>","null","pattern_show_trial_num","","","","","","","","","","","","","","","","","","","","","","","","",""
"","","","","","image-keyboard-response","48","390232","0.0-2.0-5.0-1.13","6237ca974050879378c8fea8","A3","batch1","","1700.2999999523163","stim/yes_51_dia_b1.png","f","pattern_response","true","f","pattern_72","1700.2999999523163","true","14","","","","","","","","","","","","","","","","","","",""
"","","","","","html-keyboard-response","49","391540","0.0-2.0-5.0-0.14","6237ca974050879378c8fea8","A3","batch1","","null","<p class=block-text>Trial 15 out of 78</p>","null","pattern_show_trial_num","","","","","","","","","","","","","","","","","","","","","","","","",""
"","","","","","image-keyboard-response","50","392666","0.0-2.0-5.0-1.14","6237ca974050879378c8fea8","A3","batch1","","1125.5","stim/yes_33_dia_w1_w.png","f","pattern_response","true","f","pattern_56","1125.5","true","15","","","","","","","","","","","","","","","","","","",""
"","","","","","html-keyboard-response","51","393973","0.0-2.0-5.0-0.15","6237ca974050879378c8fea8","A3","batch1","","null","<p class=block-text>Trial 16 out of 78</p>","null","pattern_show_trial_num","","","","","","","","","","","","","","","","","","","","","","","","",""
"","","","","","image-keyboard-response","52","394632","0.0-2.0-5.0-1.15","6237ca974050879378c8fea8","A3","batch1","","657.3000000715256","stim/yes_36_ver_w1_w.png","f","pattern_response","true","f","pattern_58","657.3000000715256","true","16","","","","","","","","","","","","","","","","","","",""
"","","","","","html-keyboard-response","53","395946","0.0-2.0-5.0-0.16","6237ca974050879378c8fea8","A3","batch1","","null","<p class=block-text>Trial 17 out of 78</p>","null","pattern_show_trial_num","","","","","","","","","","","","","","","","","","","","","","","","",""
"","","","","","image-keyboard-response","54","397042","0.0-2.0-5.0-1.16","6237ca974050879378c8fea8","A3","batch1","","1094.6000000238419","stim/no_22_1_b.png","j","pattern_response","true","j","pattern_07","1094.6000000238419","true","17","","","","","","","","","","","","","","","","","","",""
"","","","","","html-keyboard-response","55","398358","0.0-2.0-5.0-0.17","6237ca974050879378c8fea8","A3","batch1","","null","<p class=block-text>Trial 18 out of 78</p>","null","pattern_show_trial_num","","","","","","","","","","","","","","","","","","","","","","","","",""
"","","","","","image-keyboard-response","56","400086","0.0-2.0-5.0-1.17","6237ca974050879378c8fea8","A3","batch1","","1726.8999999761581","stim/yes_29_hor_b1_b.png","j","pattern_response","false","f","pattern_52","1726.8999999761581","false","17","","","","","","","","","","","","","","","","","","",""
"","","","","","html-keyboard-response","57","401395","0.0-2.0-5.0-0.18","6237ca974050879378c8fea8","A3","batch1","","null","<p class=block-text>Trial 19 out of 78</p>","null","pattern_show_trial_num","","","","","","","","","","","","","","","","","","","","","","","","",""
"","","","","","image-keyboard-response","58","402284","0.0-2.0-5.0-1.18","6237ca974050879378c8fea8","A3","batch1","","889","stim/yes_49_hor_w1_b.png","f","pattern_response","true","f","pattern_70","889","true","18","","","","","","","","","","","","","","","","","","",""
"","","","","","html-keyboard-response","59","403599","0.0-2.0-5.0-0.19","6237ca974050879378c8fea8","A3","batch1","","null","<p class=block-text>Trial 20 out of 78</p>","null","pattern_show_trial_num","","","","","","","","","","","","","","","","","","","","","","","","",""
"","","","","","image-keyboard-response","60","404563","0.0-2.0-5.0-1.19","6237ca974050879378c8fea8","A3","batch1","","963.3000000715256","stim/no_18_1_b.png","j","pattern_response","true","j","pattern_05","963.3000000715256","true","19","","","","","","","","","","","","","","","","","","",""
"","","","","","html-keyboard-response","61","405881","0.0-2.0-5.0-0.20","6237ca974050879378c8fea8","A3","batch1","","null","<p class=block-text>Trial 21 out of 78</p>","null","pattern_show_trial_num","","","","","","","","","","","","","","","","","","","","","","","","",""
"","","","","","image-keyboard-response","62","408547","0.0-2.0-5.0-1.20","6237ca974050879378c8fea8","A3","batch1","","2665.3000000715256","stim/no_45_1_w.png","j","pattern_response","true","j","pattern_25","2665.3000000715256","true","20","","","","","","","","","","","","","","","","","","",""
"","","","","","html-keyboard-response","63","409861","0.0-2.0-5.0-0.21","6237ca974050879378c8fea8","A3","batch1","","null","<p class=block-text>Trial 22 out of 78</p>","null","pattern_show_trial_num","","","","","","","","","","","","","","","","","","","","","","","","",""
"","","","","","image-keyboard-response","64","410764","0.0-2.0-5.0-1.21","6237ca974050879378c8fea8","A3","batch1","","902.1999999284744","stim/yes_44_ver_w1_w.png","f","pattern_response","true","f","pattern_66","902.1999999284744","true","21","","","","","","","","","","","","","","","","","","",""
"","","","","","html-keyboard-response","65","412076","0.0-2.0-5.0-0.22","6237ca974050879378c8fea8","A3","batch1","","null","<p class=block-text>Trial 23 out of 78</p>","null","pattern_show_trial_num","","","","","","","","","","","","","","","","","","","","","","","","",""
"","","","","","image-keyboard-response","66","413131","0.0-2.0-5.0-1.22","6237ca974050879378c8fea8","A3","batch1","","1054.3999999761581","stim/no_28_2.png","j","pattern_response","true","j","pattern_11","1054.3999999761581","true","22","","","","","","","","","","","","","","","","","","",""
"","","","","","html-keyboard-response","67","414436","0.0-2.0-5.0-0.23","6237ca974050879378c8fea8","A3","batch1","","null","<p class=block-text>Trial 24 out of 78</p>","null","pattern_show_trial_num","","","","","","","","","","","","","","","","","","","","","","","","",""
"","","","","","image-keyboard-response","68","415450","0.0-2.0-5.0-1.23","6237ca974050879378c8fea8","A3","batch1","","1013.8000000715256","stim/yes_23_ver_b1.png","f","pattern_response","true","f","pattern_48","1013.8000000715256","true","23","","","","","","","","","","","","","","","","","","",""
"","","","","","html-keyboard-response","69","416766","0.0-2.0-5.0-0.24","6237ca974050879378c8fea8","A3","batch1","","null","<p class=block-text>Trial 25 out of 78</p>","null","pattern_show_trial_num","","","","","","","","","","","","","","","","","","","","","","","","",""
"","","","","","image-keyboard-response","70","417684","0.0-2.0-5.0-1.24","6237ca974050879378c8fea8","A3","batch1","","917.8000000715256","stim/no_30_1_b.png","j","pattern_response","true","j","pattern_13","917.8000000715256","true","24","","","","","","","","","","","","","","","","","","",""
"","","","","","html-keyboard-response","71","418998","0.0-2.0-5.0-0.25","6237ca974050879378c8fea8","A3","batch1","","null","<p class=block-text>Trial 26 out of 78</p>","null","pattern_show_trial_num","","","","","","","","","","","","","","","","","","","","","","","","",""
"","","","","","image-keyboard-response","72","420346","0.0-2.0-5.0-1.25","6237ca974050879378c8fea8","A3","batch1","","1347.1000000238419","stim/no_36_1_b.png","j","pattern_response","true","j","pattern_17","1347.1000000238419","true","25","","","","","","","","","","","","","","","","","","",""
"","","","","","html-keyboard-response","73","421659","0.0-2.0-5.0-0.26","6237ca974050879378c8fea8","A3","batch1","","null","<p class=block-text>Trial 27 out of 78</p>","null","pattern_show_trial_num","","","","","","","","","","","","","","","","","","","","","","","","",""
"","","","","","image-keyboard-response","74","426840","0.0-2.0-5.0-1.26","6237ca974050879378c8fea8","A3","batch1","","5179.700000047684","stim/yes_63_dia_b1.png","j","pattern_response","false","f","pattern_78","5179.700000047684","false","25","","","","","","","","","","","","","","","","","","",""
"","","","","","html-keyboard-response","75","428150","0.0-2.0-5.0-0.27","6237ca974050879378c8fea8","A3","batch1","","null","<p class=block-text>Trial 28 out of 78</p>","null","pattern_show_trial_num","","","","","","","","","","","","","","","","","","","","","","","","",""
"","","","","","image-keyboard-response","76","429354","0.0-2.0-5.0-1.27","6237ca974050879378c8fea8","A3","batch1","","1202.8999999761581","stim/yes_42_dia_w1_w.png","f","pattern_response","true","f","pattern_64","1202.8999999761581","true","26","","","","","","","","","","","","","","","","","","",""
"","","","","","html-keyboard-response","77","430660","0.0-2.0-5.0-0.28","6237ca974050879378c8fea8","A3","batch1","","null","<p class=block-text>Trial 29 out of 78</p>","null","pattern_show_trial_num","","","","","","","","","","","","","","","","","","","","","","","","",""
"","","","","","image-keyboard-response","78","434111","0.0-2.0-5.0-1.28","6237ca974050879378c8fea8","A3","batch1","","3450","stim/no_39_1_w.png","j","pattern_response","true","j","pattern_21","3450","true","27","","","","","","","","","","","","","","","","","","",""
"","","","","","html-keyboard-response","79","435426","0.0-2.0-5.0-0.29","6237ca974050879378c8fea8","A3","batch1","","null","<p class=block-text>Trial 30 out of 78</p>","null","pattern_show_trial_num","","","","","","","","","","","","","","","","","","","","","","","","",""
"","","","","","image-keyboard-response","80","441408","0.0-2.0-5.0-1.29","6237ca974050879378c8fea8","A3","batch1","","5980.799999952316","stim/no_58_1_w.png","j","pattern_response","true","j","pattern_35","5980.799999952316","true","28","","","","","","","","","","","","","","","","","","",""
"","","","","","html-keyboard-response","81","442718","0.0-2.0-5.0-0.30","6237ca974050879378c8fea8","A3","batch1","","null","<p class=block-text>Trial 31 out of 78</p>","null","pattern_show_trial_num","","","","","","","","","","","","","","","","","","","","","","","","",""
"","","","","","image-keyboard-response","82","448294","0.0-2.0-5.0-1.30","6237ca974050879378c8fea8","A3","batch1","","5575","stim/yes_58_dia_w1_w.png","j","pattern_response","false","f","pattern_76","5575","false","28","","","","","","","","","","","","","","","","","","",""
"","","","","","html-keyboard-response","83","449605","0.0-2.0-5.0-0.31","6237ca974050879378c8fea8","A3","batch1","","null","<p class=block-text>Trial 32 out of 78</p>","null","pattern_show_trial_num","","","","","","","","","","","","","","","","","","","","","","","","",""
"","","","","","image-keyboard-response","84","450903","0.0-2.0-5.0-1.31","6237ca974050879378c8fea8","A3","batch1","","1297","stim/no_12_1.png","j","pattern_response","true","j","pattern_01","1297","true","29","","","","","","","","","","","","","","","","","","",""
"","","","","","html-keyboard-response","85","452220","0.0-2.0-5.0-0.32","6237ca974050879378c8fea8","A3","batch1","","null","<p class=block-text>Trial 33 out of 78</p>","null","pattern_show_trial_num","","","","","","","","","","","","","","","","","","","","","","","","",""
"","","","","","image-keyboard-response","86","457374","0.0-2.0-5.0-1.32","6237ca974050879378c8fea8","A3","batch1","","5153.399999976158","stim/no_37_2_w.png","j","pattern_response","true","j","pattern_19","5153.399999976158","true","30","","","","","","","","","","","","","","","","","","",""
"","","","","","html-keyboard-response","87","458691","0.0-2.0-5.0-0.33","6237ca974050879378c8fea8","A3","batch1","","null","<p class=block-text>Trial 34 out of 78</p>","null","pattern_show_trial_num","","","","","","","","","","","","","","","","","","","","","","","","",""
"","","","","","image-keyboard-response","88","464427","0.0-2.0-5.0-1.33","6237ca974050879378c8fea8","A3","batch1","","5735.600000023842","stim/no_33_1_b.png","j","pattern_response","true","j","pattern_15","5735.600000023842","true","31","","","","","","","","","","","","","","","","","","",""
"","","","","","html-keyboard-response","89","465733","0.0-2.0-5.0-0.34","6237ca974050879378c8fea8","A3","batch1","","null","<p class=block-text>Trial 35 out of 78</p>","null","pattern_show_trial_num","","","","","","","","","","","","","","","","","","","","","","","","",""
"","","","","","image-keyboard-response","90","469027","0.0-2.0-5.0-1.34","6237ca974050879378c8fea8","A3","batch1","","3292.899999976158","stim/yes_53_ver_b1_b.png","f","pattern_response","true","f","pattern_74","3292.899999976158","true","32","","","","","","","","","","","","","","","","","","",""
"","","","","","html-keyboard-response","91","470356","0.0-2.0-5.0-0.35","6237ca974050879378c8fea8","A3","batch1","","null","<p class=block-text>Trial 36 out of 78</p>","null","pattern_show_trial_num","","","","","","","","","","","","","","","","","","","","","","","","",""
"","","","","","image-keyboard-response","92","471020","0.0-2.0-5.0-1.35","6237ca974050879378c8fea8","A3","batch1","","663.1999999284744","stim/yes_30_ver_b1_b.png","f","pattern_response","true","f","pattern_54","663.1999999284744","true","33","","","","","","","","","","","","","","","","","","",""
"","","","","","html-keyboard-response","93","472333","0.0-2.0-5.0-0.36","6237ca974050879378c8fea8","A3","batch1","","null","<p class=block-text>Trial 37 out of 78</p>","null","pattern_show_trial_num","","","","","","","","","","","","","","","","","","","","","","","","",""
"","","","","","image-keyboard-response","94","476740","0.0-2.0-5.0-1.36","6237ca974050879378c8fea8","A3","batch1","","4406.700000047684","stim/no_43_2_b.png","j","pattern_response","true","j","pattern_23","4406.700000047684","true","34","","","","","","","","","","","","","","","","","","",""
"","","","","","html-keyboard-response","95","478047","0.0-2.0-5.0-0.37","6237ca974050879378c8fea8","A3","batch1","","null","<p class=block-text>Trial 38 out of 78</p>","null","pattern_show_trial_num","","","","","","","","","","","","","","","","","","","","","","","","",""
"","","","","","image-keyboard-response","96","478676","0.0-2.0-5.0-1.37","6237ca974050879378c8fea8","A3","batch1","","627.7999999523163","stim/yes_17_ver_b1_b.png","f","pattern_response","true","f","pattern_46","627.7999999523163","true","35","","","","","","","","","","","","","","","","","","",""
"","","","","","html-keyboard-response","97","479990","0.0-2.0-5.0-0.38","6237ca974050879378c8fea8","A3","batch1","","null","<p class=block-text>Trial 39 out of 78</p>","null","pattern_show_trial_num","","","","","","","","","","","","","","","","","","","","","","","","",""
"","","","","","image-keyboard-response","98","480905","0.0-2.0-5.0-1.38","6237ca974050879378c8fea8","A3","batch1","","913.8000000715256","stim/no_15_1_w.png","j","pattern_response","true","j","pattern_03","913.8000000715256","true","36","","","","","","","","","","","","","","","","","","",""
"","","","","","image-keyboard-response","99","482619","0.0-2.0-6.0","6237ca974050879378c8fea8","A3","batch1","","1200.9000000953674","stim/empty_board.png","j","attention_check","true","j","","","","","500","[""f"",""j""]","","","","","","","","","","","","","","","","",""
"","","","","","html-keyboard-response","100","483427","0.0-2.0-7.0-0.0","6237ca974050879378c8fea8","A3","batch1","","null","<p class=block-text>Trial 40 out of 78</p>","null","pattern_show_trial_num","","","","","","","","","","","","","","","","","","","","","","","","",""
"","","","","","image-keyboard-response","101","486243","0.0-2.0-7.0-1.0","6237ca974050879378c8fea8","A3","batch1","","2814.600000023842","stim/no_32_1_w.png","j","pattern_response","true","j","pattern_14","2814.600000023842","true","37","","","","","","","","","","","","","","","","","","",""
"","","","","","html-keyboard-response","102","487551","0.0-2.0-7.0-0.1","6237ca974050879378c8fea8","A3","batch1","","null","<p class=block-text>Trial 41 out of 78</p>","null","pattern_show_trial_num","","","","","","","","","","","","","","","","","","","","","","","","",""
"","","","","","image-keyboard-response","103","489071","0.0-2.0-7.0-1.1","6237ca974050879378c8fea8","A3","batch1","","1518.8000000715256","stim/yes_31_hor_b1.png","f","pattern_response","true","f","pattern_55","1518.8000000715256","true","38","","","","","","","","","","","","","","","","","","",""
"","","","","","html-keyboard-response","104","490388","0.0-2.0-7.0-0.2","6237ca974050879378c8fea8","A3","batch1","","null","<p class=block-text>Trial 42 out of 78</p>","null","pattern_show_trial_num","","","","","","","","","","","","","","","","","","","","","","","","",""
"","","","","","image-keyboard-response","105","494391","0.0-2.0-7.0-1.2","6237ca974050879378c8fea8","A3","batch1","","4001.899999976158","stim/no_34_1_b.png","j","pattern_response","true","j","pattern_16","4001.899999976158","true","39","","","","","","","","","","","","","","","","","","",""
"","","","","","html-keyboard-response","106","495709","0.0-2.0-7.0-0.3","6237ca974050879378c8fea8","A3","batch1","","null","<p class=block-text>Trial 43 out of 78</p>","null","pattern_show_trial_num","","","","","","","","","","","","","","","","","","","","","","","","",""
"","","","","","image-keyboard-response","107","496371","0.0-2.0-7.0-1.3","6237ca974050879378c8fea8","A3","batch1","","660.8000000715256","stim/no_13_2_b.png","j","pattern_response","true","j","pattern_02","660.8000000715256","true","40","","","","","","","","","","","","","","","","","","",""
"","","","","","html-keyboard-response","108","497678","0.0-2.0-7.0-0.4","6237ca974050879378c8fea8","A3","batch1","","null","<p class=block-text>Trial 44 out of 78</p>","null","pattern_show_trial_num","","","","","","","","","","","","","","","","","","","","","","","","",""
"","","","","","image-keyboard-response","109","498345","0.0-2.0-7.0-1.4","6237ca974050879378c8fea8","A3","batch1","","665.4000000953674","stim/yes_22_ver_w1.png","f","pattern_response","true","f","pattern_47","665.4000000953674","true","41","","","","","","","","","","","","","","","","","","",""
"","","","","","html-keyboard-response","110","499662","0.0-2.0-7.0-0.5","6237ca974050879378c8fea8","A3","batch1","","null","<p class=block-text>Trial 45 out of 78</p>","null","pattern_show_trial_num","","","","","","","","","","","","","","","","","","","","","","","","",""
"","","","","","image-keyboard-response","111","500260","0.0-2.0-7.0-1.5","6237ca974050879378c8fea8","A3","batch1","","596.5","stim/yes_14_hor_b1_w.png","f","pattern_response","true","f","pattern_43","596.5","true","42","","","","","","","","","","","","","","","","","","",""
"","","","","","html-keyboard-response","112","501578","0.0-2.0-7.0-0.6","6237ca974050879378c8fea8","A3","batch1","","null","<p class=block-text>Trial 46 out of 78</p>","null","pattern_show_trial_num","","","","","","","","","","","","","","","","","","","","","","","","",""
"","","","","","image-keyboard-response","113","504053","0.0-2.0-7.0-1.6","6237ca974050879378c8fea8","A3","batch1","","2474.3000000715256","stim/yes_60_ver_b1_b.png","f","pattern_response","true","f","pattern_77","2474.3000000715256","true","43","","","","","","","","","","","","","","","","","","",""
"","","","","","html-keyboard-response","114","505355","0.0-2.0-7.0-0.7","6237ca974050879378c8fea8","A3","batch1","","null","<p class=block-text>Trial 47 out of 78</p>","null","pattern_show_trial_num","","","","","","","","","","","","","","","","","","","","","","","","",""
"","","","","","image-keyboard-response","115","506871","0.0-2.0-7.0-1.7","6237ca974050879378c8fea8","A3","batch1","","1514.8000000715256","stim/yes_48_dia_w1_w.png","f","pattern_response","true","f","pattern_69","1514.8000000715256","true","44","","","","","","","","","","","","","","","","","","",""
"","","","","","html-keyboard-response","116","508178","0.0-2.0-7.0-0.8","6237ca974050879378c8fea8","A3","batch1","","null","<p class=block-text>Trial 48 out of 78</p>","null","pattern_show_trial_num","","","","","","","","","","","","","","","","","","","","","","","","",""
"","","","","","image-keyboard-response","117","510238","0.0-2.0-7.0-1.8","6237ca974050879378c8fea8","A3","batch1","","2059.2999999523163","stim/no_23_1.png","j","pattern_response","true","j","pattern_08","2059.2999999523163","true","45","","","","","","","","","","","","","","","","","","",""
"","","","","","html-keyboard-response","118","511544","0.0-2.0-7.0-0.9","6237ca974050879378c8fea8","A3","batch1","","null","<p class=block-text>Trial 49 out of 78</p>","null","pattern_show_trial_num","","","","","","","","","","","","","","","","","","","","","","","","",""
"","","","","","image-keyboard-response","119","516789","0.0-2.0-7.0-1.9","6237ca974050879378c8fea8","A3","batch1","","5243.799999952316","stim/no_62_1_w.png","j","pattern_response","true","j","pattern_36","5243.799999952316","true","46","","","","","","","","","","","","","","","","","","",""
"","","","","","html-keyboard-response","120","518092","0.0-2.0-7.0-0.10","6237ca974050879378c8fea8","A3","batch1","","null","<p class=block-text>Trial 50 out of 78</p>","null","pattern_show_trial_num","","","","","","","","","","","","","","","","","","","","","","","","",""
"","","","","","image-keyboard-response","121","519523","0.0-2.0-7.0-1.10","6237ca974050879378c8fea8","A3","batch1","","1429.3999999761581","stim/no_20_1_w.png","j","pattern_response","true","j","pattern_06","1429.3999999761581","true","47","","","","","","","","","","","","","","","","","","",""
"","","","","","html-keyboard-response","122","520835","0.0-2.0-7.0-0.11","6237ca974050879378c8fea8","A3","batch1","","null","<p class=block-text>Trial 51 out of 78</p>","null","pattern_show_trial_num","","","","","","","","","","","","","","","","","","","","","","","","",""
"","","","","","image-keyboard-response","123","521912","0.0-2.0-7.0-1.11","6237ca974050879378c8fea8","A3","batch1","","1075.9000000953674","stim/yes_37_dia_w1.png","f","pattern_response","true","f","pattern_59","1075.9000000953674","true","48","","","","","","","","","","","","","","","","","","",""
"","","","","","html-keyboard-response","124","523227","0.0-2.0-7.0-0.12","6237ca974050879378c8fea8","A3","batch1","","null","<p class=block-text>Trial 52 out of 78</p>","null","pattern_show_trial_num","","","","","","","","","","","","","","","","","","","","","","","","",""
"","","","","","image-keyboard-response","125","526230","0.0-2.0-7.0-1.12","6237ca974050879378c8fea8","A3","batch1","","3003.100000023842","stim/no_29_1_b.png","j","pattern_response","true","j","pattern_12","3003.100000023842","true","49","","","","","","","","","","","","","","","","","","",""
"","","","","","html-keyboard-response","126","527533","0.0-2.0-7.0-0.13","6237ca974050879378c8fea8","A3","batch1","","null","<p class=block-text>Trial 53 out of 78</p>","null","pattern_show_trial_num","","","","","","","","","","","","","","","","","","","","","","","","",""
"","","","","","image-keyboard-response","127","529101","0.0-2.0-7.0-1.13","6237ca974050879378c8fea8","A3","batch1","","1566.6999999284744","stim/yes_38_hor_b1_b.png","f","pattern_response","true","f","pattern_61","1566.6999999284744","true","50","","","","","","","","","","","","","","","","","","",""
"","","","","","html-keyboard-response","128","530415","0.0-2.0-7.0-0.14","6237ca974050879378c8fea8","A3","batch1","","null","<p class=block-text>Trial 54 out of 78</p>","null","pattern_show_trial_num","","","","","","","","","","","","","","","","","","","","","","","","",""
"","","","","","image-keyboard-response","129","530941","0.0-2.0-7.0-1.14","6237ca974050879378c8fea8","A3","batch1","","525.2999999523163","stim/yes_17_dia_w1.png","f","pattern_response","true","f","pattern_45","525.2999999523163","true","51","","","","","","","","","","","","","","","","","","",""
"","","","","","html-keyboard-response","130","532248","0.0-2.0-7.0-0.15","6237ca974050879378c8fea8","A3","batch1","","null","<p class=block-text>Trial 55 out of 78</p>","null","pattern_show_trial_num","","","","","","","","","","","","","","","","","","","","","","","","",""
"","","","","","image-keyboard-response","131","535805","0.0-2.0-7.0-1.15","6237ca974050879378c8fea8","A3","batch1","","3555.6999999284744","stim/no_52_1.png","j","pattern_response","true","j","pattern_32","3555.6999999284744","true","52","","","","","","","","","","","","","","","","","","",""
"","","","","","html-keyboard-response","132","537119","0.0-2.0-7.0-0.16","6237ca974050879378c8fea8","A3","batch1","","null","<p class=block-text>Trial 56 out of 78</p>","null","pattern_show_trial_num","","","","","","","","","","","","","","","","","","","","","","","","",""
"","","","","","image-keyboard-response","133","537907","0.0-2.0-7.0-1.16","6237ca974050879378c8fea8","A3","batch1","","788.2000000476837","stim/yes_29_ver_w1.png","f","pattern_response","true","f","pattern_53","788.2000000476837","true","53","","","","","","","","","","","","","","","","","","",""
"","","","","","html-keyboard-response","134","539215","0.0-2.0-7.0-0.17","6237ca974050879378c8fea8","A3","batch1","","null","<p class=block-text>Trial 57 out of 78</p>","null","pattern_show_trial_num","","","","","","","","","","","","","","","","","","","","","","","","",""
"","","","","","image-keyboard-response","135","541683","0.0-2.0-7.0-1.17","6237ca974050879378c8fea8","A3","batch1","","2466.899999976158","stim/yes_40_dia_b1_b.png","f","pattern_response","true","f","pattern_63","2466.899999976158","true","54","","","","","","","","","","","","","","","","","","",""
"","","","","","html-keyboard-response","136","542989","0.0-2.0-7.0-0.18","6237ca974050879378c8fea8","A3","batch1","","null","<p class=block-text>Trial 58 out of 78</p>","null","pattern_show_trial_num","","","","","","","","","","","","","","","","","","","","","","","","",""
"","","","","","image-keyboard-response","137","547396","0.0-2.0-7.0-1.18","6237ca974050879378c8fea8","A3","batch1","","4406.5","stim/no_42_1_w.png","j","pattern_response","true","j","pattern_22","4406.5","true","55","","","","","","","","","","","","","","","","","","",""
"","","","","","html-keyboard-response","138","548718","0.0-2.0-7.0-0.19","6237ca974050879378c8fea8","A3","batch1","","null","<p class=block-text>Trial 59 out of 78</p>","null","pattern_show_trial_num","","","","","","","","","","","","","","","","","","","","","","","","",""
"","","","","","image-keyboard-response","139","549621","0.0-2.0-7.0-1.19","6237ca974050879378c8fea8","A3","batch1","","902.7999999523163","stim/no_26_1_w.png","j","pattern_response","true","j","pattern_10","902.7999999523163","true","56","","","","","","","","","","","","","","","","","","",""
"","","","","","html-keyboard-response","140","550937","0.0-2.0-7.0-0.20","6237ca974050879378c8fea8","A3","batch1","","null","<p class=block-text>Trial 60 out of 78</p>","null","pattern_show_trial_num","","","","","","","","","","","","","","","","","","","","","","","","",""
"","","","","","image-keyboard-response","141","555433","0.0-2.0-7.0-1.20","6237ca974050879378c8fea8","A3","batch1","","4495","stim/no_50_1.png","j","pattern_response","true","j","pattern_30","4495","true","57","","","","","","","","","","","","","","","","","","",""
"","","","","","html-keyboard-response","142","556751","0.0-2.0-7.0-0.21","6237ca974050879378c8fea8","A3","batch1","","null","<p class=block-text>Trial 61 out of 78</p>","null","pattern_show_trial_num","","","","","","","","","","","","","","","","","","","","","","","","",""
"","","","","","image-keyboard-response","143","557807","0.0-2.0-7.0-1.21","6237ca974050879378c8fea8","A3","batch1","","1055.2000000476837","stim/yes_45_hor_b2_b.png","f","pattern_response","true","f","pattern_67","1055.2000000476837","true","58","","","","","","","","","","","","","","","","","","",""
"","","","","","html-keyboard-response","144","559135","0.0-2.0-7.0-0.22","6237ca974050879378c8fea8","A3","batch1","","null","<p class=block-text>Trial 62 out of 78</p>","null","pattern_show_trial_num","","","","","","","","","","","","","","","","","","","","","","","","",""
"","","","","","image-keyboard-response","145","559878","0.0-2.0-7.0-1.22","6237ca974050879378c8fea8","A3","batch1","","741.7000000476837","stim/yes_43_ver_w1_w.png","f","pattern_response","true","f","pattern_65","741.7000000476837","true","59","","","","","","","","","","","","","","","","","","",""
"","","","","","html-keyboard-response","146","561196","0.0-2.0-7.0-0.23","6237ca974050879378c8fea8","A3","batch1","","null","<p class=block-text>Trial 63 out of 78</p>","null","pattern_show_trial_num","","","","","","","","","","","","","","","","","","","","","","","","",""
"","","","","","image-keyboard-response","147","565056","0.0-2.0-7.0-1.23","6237ca974050879378c8fea8","A3","batch1","","3858.6999999284744","stim/yes_67_hor_b1.png","f","pattern_response","true","f","pattern_79","3858.6999999284744","true","60","","","","","","","","","","","","","","","","","","",""
"","","","","","html-keyboard-response","148","566367","0.0-2.0-7.0-0.24","6237ca974050879378c8fea8","A3","batch1","","null","<p class=block-text>Trial 64 out of 78</p>","null","pattern_show_trial_num","","","","","","","","","","","","","","","","","","","","","","","","",""
"","","","","","image-keyboard-response","149","567562","0.0-2.0-7.0-1.24","6237ca974050879378c8fea8","A3","batch1","","1193.3999999761581","stim/no_17_1_w.png","j","pattern_response","true","j","pattern_04","1193.3999999761581","true","61","","","","","","","","","","","","","","","","","","",""
"","","","","","html-keyboard-response","150","568881","0.0-2.0-7.0-0.25","6237ca974050879378c8fea8","A3","batch1","","null","<p class=block-text>Trial 65 out of 78</p>","null","pattern_show_trial_num","","","","","","","","","","","","","","","","","","","","","","","","",""
"","","","","","image-keyboard-response","151","574902","0.0-2.0-7.0-1.25","6237ca974050879378c8fea8","A3","batch1","","6019.600000023842","stim/no_48_1_w.png","j","pattern_response","true","j","pattern_28","6019.600000023842","true","62","","","","","","","","","","","","","","","","","","",""
"","","","","","html-keyboard-response","152","576207","0.0-2.0-7.0-0.26","6237ca974050879378c8fea8","A3","batch1","","null","<p class=block-text>Trial 66 out of 78</p>","null","pattern_show_trial_num","","","","","","","","","","","","","","","","","","","","","","","","",""
"","","","","","image-keyboard-response","153","581902","0.0-2.0-7.0-1.26","6237ca974050879378c8fea8","A3","batch1","","5693.600000023842","stim/no_44_1.png","j","pattern_response","true","j","pattern_24","5693.600000023842","true","63","","","","","","","","","","","","","","","","","","",""
"","","","","","html-keyboard-response","154","583212","0.0-2.0-7.0-0.27","6237ca974050879378c8fea8","A3","batch1","","null","<p class=block-text>Trial 67 out of 78</p>","null","pattern_show_trial_num","","","","","","","","","","","","","","","","","","","","","","","","",""
"","","","","","image-keyboard-response","155","588916","0.0-2.0-7.0-1.27","6237ca974050879378c8fea8","A3","batch1","","5702.799999952316","stim/no_46_1_b.png","j","pattern_response","true","j","pattern_26","5702.799999952316","true","64","","","","","","","","","","","","","","","","","","",""
"","","","","","html-keyboard-response","156","590229","0.0-2.0-7.0-0.28","6237ca974050879378c8fea8","A3","batch1","","null","<p class=block-text>Trial 68 out of 78</p>","null","pattern_show_trial_num","","","","","","","","","","","","","","","","","","","","","","","","",""
"","","","","","image-keyboard-response","157","591264","0.0-2.0-7.0-1.28","6237ca974050879378c8fea8","A3","batch1","","1033.6000000238419","stim/yes_55_hor_w1_w.png","f","pattern_response","true","f","pattern_75","1033.6000000238419","true","65","","","","","","","","","","","","","","","","","","",""
"","","","","","html-keyboard-response","158","592571","0.0-2.0-7.0-0.29","6237ca974050879378c8fea8","A3","batch1","","null","<p class=block-text>Trial 69 out of 78</p>","null","pattern_show_trial_num","","","","","","","","","","","","","","","","","","","","","","","","",""
"","","","","","image-keyboard-response","159","594215","0.0-2.0-7.0-1.29","6237ca974050879378c8fea8","A3","batch1","","1643.5","stim/yes_50_dia_w1.png","f","pattern_response","true","f","pattern_71","1643.5","true","66","","","","","","","","","","","","","","","","","","",""
"","","","","","html-keyboard-response","160","595524","0.0-2.0-7.0-0.30","6237ca974050879378c8fea8","A3","batch1","","null","<p class=block-text>Trial 70 out of 78</p>","null","pattern_show_trial_num","","","","","","","","","","","","","","","","","","","","","","","","",""
"","","","","","image-keyboard-response","161","598883","0.0-2.0-7.0-1.30","6237ca974050879378c8fea8","A3","batch1","","3358.9000000953674","stim/no_36_2_w.png","j","pattern_response","true","j","pattern_18","3358.9000000953674","true","67","","","","","","","","","","","","","","","","","","",""
"","","","","","html-keyboard-response","162","600197","0.0-2.0-7.0-0.31","6237ca974050879378c8fea8","A3","batch1","","null","<p class=block-text>Trial 71 out of 78</p>","null","pattern_show_trial_num","","","","","","","","","","","","","","","","","","","","","","","","",""
"","","","","","image-keyboard-response","163","608114","0.0-2.0-7.0-1.31","6237ca974050879378c8fea8","A3","batch1","","7913.100000023842","stim/no_55_1_w.png","j","pattern_response","true","j","pattern_34","7913.100000023842","true","68","","","","","","","","","","","","","","","","","","",""
"","","","","","html-keyboard-response","164","609424","0.0-2.0-7.0-0.32","6237ca974050879378c8fea8","A3","batch1","","null","<p class=block-text>Trial 72 out of 78</p>","null","pattern_show_trial_num","","","","","","","","","","","","","","","","","","","","","","","","",""
"","","","","","image-keyboard-response","165","610139","0.0-2.0-7.0-1.32","6237ca974050879378c8fea8","A3","batch1","","713.5","stim/yes_28_ver_b1.png","f","pattern_response","true","f","pattern_51","713.5","true","69","","","","","","","","","","","","","","","","","","",""
"","","","","","html-keyboard-response","166","611452","0.0-2.0-7.0-0.33","6237ca974050879378c8fea8","A3","batch1","","null","<p class=block-text>Trial 73 out of 78</p>","null","pattern_show_trial_num","","","","","","","","","","","","","","","","","","","","","","","","",""
"","","","","","image-keyboard-response","167","612370","0.0-2.0-7.0-1.33","6237ca974050879378c8fea8","A3","batch1","","917.5","stim/yes_52_ver_w1.png","f","pattern_response","true","f","pattern_73","917.5","true","70","","","","","","","","","","","","","","","","","","",""
"","","","","","html-keyboard-response","168","613676","0.0-2.0-7.0-0.34","6237ca974050879378c8fea8","A3","batch1","","null","<p class=block-text>Trial 74 out of 78</p>","null","pattern_show_trial_num","","","","","","","","","","","","","","","","","","","","","","","","",""
"","","","","","image-keyboard-response","169","614232","0.0-2.0-7.0-1.34","6237ca974050879378c8fea8","A3","batch1","","554.8999999761581","stim/yes_25_hor_b1_b.png","f","pattern_response","true","f","pattern_49","554.8999999761581","true","71","","","","","","","","","","","","","","","","","","",""
"","","","","","html-keyboard-response","170","615549","0.0-2.0-7.0-0.35","6237ca974050879378c8fea8","A3","batch1","","null","<p class=block-text>Trial 75 out of 78</p>","null","pattern_show_trial_num","","","","","","","","","","","","","","","","","","","","","","","","",""
"","","","","","image-keyboard-response","171","616556","0.0-2.0-7.0-1.35","6237ca974050879378c8fea8","A3","batch1","","1005.8999999761581","stim/yes_35_dia_b1.png","f","pattern_response","true","f","pattern_57","1005.8999999761581","true","72","","","","","","","","","","","","","","","","","","",""
"","","","","","html-keyboard-response","172","617869","0.0-2.0-7.0-0.36","6237ca974050879378c8fea8","A3","batch1","","null","<p class=block-text>Trial 76 out of 78</p>","null","pattern_show_trial_num","","","","","","","","","","","","","","","","","","","","","","","","",""
"","","","","","image-keyboard-response","173","620840","0.0-2.0-7.0-1.36","6237ca974050879378c8fea8","A3","batch1","","2969.899999976158","stim/no_38_1_b.png","j","pattern_response","true","j","pattern_20","2969.899999976158","true","73","","","","","","","","","","","","","","","","","","",""
"","","","","","html-keyboard-response","174","622140","0.0-2.0-7.0-0.37","6237ca974050879378c8fea8","A3","batch1","","null","<p class=block-text>Trial 77 out of 78</p>","null","pattern_show_trial_num","","","","","","","","","","","","","","","","","","","","","","","","",""
"","","","","","image-keyboard-response","175","627290","0.0-2.0-7.0-1.37","6237ca974050879378c8fea8","A3","batch1","","5148.5","stim/no_70_2.png","j","pattern_response","true","j","pattern_40","5148.5","true","74","","","","","","","","","","","","","","","","","","",""
"","","","","","html-keyboard-response","176","628594","0.0-2.0-7.0-0.38","6237ca974050879378c8fea8","A3","batch1","","null","<p class=block-text>Trial 78 out of 78</p>","null","pattern_show_trial_num","","","","","","","","","","","","","","","","","","","","","","","","",""
"","","","","","image-keyboard-response","177","635537","0.0-2.0-7.0-1.38","6237ca974050879378c8fea8","A3","batch1","","6942.200000047684","stim/no_65_1_b.png","j","pattern_response","true","j","pattern_38","6942.200000047684","true","75","","","","","","","","","","","","","","","","","","",""
"","","","","","html-button-response","178","894505","0.0-2.0-8.0","6237ca974050879378c8fea8","A3","batch1","","258451.80000007153","<p class = block-text>This concludes the 4-in-a-row detection game.Thank you for your responses!<br>
            You responded correctly on 96% of the trials.<br>
            When you are ready, press ""Continue"" button to continue </p>","0","","","","","","","","","","","","","","","","","","","","","","","","","",""
"true","","","","","fullscreen","179","900686","0.0-3.0-0.0","6237ca974050879378c8fea8","A3","batch1","","","","","spm_fullscreen","","","","","","","","","","","","","","","","","","","","","","","","",""
"","","","","","html-button-response","180","951286","0.0-3.0-1.0","6237ca974050879378c8fea8","A3","batch1","","50599","<p class = block-text><b>Instructions</b> <br>This is a widely used intelligence test in research. <br>In this test, a figure with a missing piece will be presented.<br>Below the figure are alternative pieces to complete the figure, only one of which is correct.<br> Different figures might involve different principles for obtaining the missing piece<br>Your job is to select the most logical piece to complete the figure.</p>","0","","","","","","","","","","","","","","","","","","","","","","","","","",""
"","","","","","html-keyboard-response","181","952099","0.0-3.0-2.0-0.0","6237ca974050879378c8fea8","A3","batch1","","null","<p class=block-text>Trial 1 out of 60</p>","null","spm_show_trial_num","","","","","","","","","","","","","","","","","","","","","","","","",""
"","","","","","image-button-response","182","957663","0.0-3.0-2.0-1.0","6237ca974050879378c8fea8","A3","batch1","","5562.600000023842","img/question_1_1.jpeg","3","spm_respsonse","1","4","mat_01","","","","","","1","5562.600000023842","","","","","","","","","","","","","","",""
"","","","","","html-keyboard-response","183","958735","0.0-3.0-2.0-0.1","6237ca974050879378c8fea8","A3","batch1","","null","<p class=block-text>Trial 2 out of 60</p>","null","spm_show_trial_num","","","","","","","","","","","","","","","","","","","","","","","","",""
"","","","","","image-button-response","184","961056","0.0-3.0-2.0-1.1","6237ca974050879378c8fea8","A3","batch1","","2320.100000023842","img/question_1_2.jpeg","4","spm_respsonse","1","5","mat_02","","","","","","1","2320.100000023842","","","","","","","","","","","","","","",""
"","","","","","html-keyboard-response","185","962125","0.0-3.0-2.0-0.2","6237ca974050879378c8fea8","A3","batch1","","null","<p class=block-text>Trial 3 out of 60</p>","null","spm_show_trial_num","","","","","","","","","","","","","","","","","","","","","","","","",""
"","","","","","image-button-response","186","964850","0.0-3.0-2.0-1.2","6237ca974050879378c8fea8","A3","batch1","","2724.100000023842","img/question_1_3.jpeg","0","spm_respsonse","1","1","mat_03","","","","","","1","2724.100000023842","","","","","","","","","","","","","","",""
"","","","","","html-keyboard-response","187","965922","0.0-3.0-2.0-0.3","6237ca974050879378c8fea8","A3","batch1","","null","<p class=block-text>Trial 4 out of 60</p>","null","spm_show_trial_num","","","","","","","","","","","","","","","","","","","","","","","","",""
"","","","","","image-button-response","188","968761","0.0-3.0-2.0-1.3","6237ca974050879378c8fea8","A3","batch1","","2837.600000023842","img/question_1_4.jpeg","1","spm_respsonse","1","2","mat_04","","","","","","1","2837.600000023842","","","","","","","","","","","","","","",""
"","","","","","html-keyboard-response","189","969823","0.0-3.0-2.0-0.4","6237ca974050879378c8fea8","A3","batch1","","null","<p class=block-text>Trial 5 out of 60</p>","null","spm_show_trial_num","","","","","","","","","","","","","","","","","","","","","","","","",""
"","","","","","image-button-response","190","972942","0.0-3.0-2.0-1.4","6237ca974050879378c8fea8","A3","batch1","","3117.9000000953674","img/question_1_5.jpeg","5","spm_respsonse","1","6","mat_05","","","","","","1","3117.9000000953674","","","","","","","","","","","","","","",""
"","","","","","html-keyboard-response","191","974004","0.0-3.0-2.0-0.5","6237ca974050879378c8fea8","A3","batch1","","null","<p class=block-text>Trial 6 out of 60</p>","null","spm_show_trial_num","","","","","","","","","","","","","","","","","","","","","","","","",""
"","","","","","image-button-response","192","977854","0.0-3.0-2.0-1.5","6237ca974050879378c8fea8","A3","batch1","","3848.6999999284744","img/question_1_6.jpeg","2","spm_respsonse","1","3","mat_06","","","","","","1","3848.6999999284744","","","","","","","","","","","","","","",""
"","","","","","html-keyboard-response","193","978925","0.0-3.0-2.0-0.6","6237ca974050879378c8fea8","A3","batch1","","null","<p class=block-text>Trial 7 out of 60</p>","null","spm_show_trial_num","","","","","","","","","","","","","","","","","","","","","","","","",""
"","","","","","image-button-response","194","981948","0.0-3.0-2.0-1.6","6237ca974050879378c8fea8","A3","batch1","","3021.899999976158","img/question_1_7.jpeg","5","spm_respsonse","1","6","mat_07","","","","","","1","3021.899999976158","","","","","","","","","","","","","","",""
"","","","","","html-keyboard-response","195","983014","0.0-3.0-2.0-0.7","6237ca974050879378c8fea8","A3","batch1","","null","<p class=block-text>Trial 8 out of 60</p>","null","spm_show_trial_num","","","","","","","","","","","","","","","","","","","","","","","","",""
"","","","","","image-button-response","196","986529","0.0-3.0-2.0-1.7","6237ca974050879378c8fea8","A3","batch1","","3514.7000000476837","img/question_1_8.jpeg","1","spm_respsonse","1","2","mat_08","","","","","","1","3514.7000000476837","","","","","","","","","","","","","","",""
"","","","","","html-keyboard-response","197","987608","0.0-3.0-2.0-0.8","6237ca974050879378c8fea8","A3","batch1","","null","<p class=block-text>Trial 9 out of 60</p>","null","spm_show_trial_num","","","","","","","","","","","","","","","","","","","","","","","","",""
"","","","","","image-button-response","198","990223","0.0-3.0-2.0-1.8","6237ca974050879378c8fea8","A3","batch1","","2614.2000000476837","img/question_1_9.jpeg","0","spm_respsonse","1","1","mat_09","","","","","","1","2614.2000000476837","","","","","","","","","","","","","","",""
"","","","","","html-keyboard-response","199","991285","0.0-3.0-2.0-0.9","6237ca974050879378c8fea8","A3","batch1","","null","<p class=block-text>Trial 10 out of 60</p>","null","spm_show_trial_num","","","","","","","","","","","","","","","","","","","","","","","","",""
"","","","","","image-button-response","200","1006082","0.0-3.0-2.0-1.9","6237ca974050879378c8fea8","A3","batch1","","14795.400000095367","img/question_1_10.jpeg","2","spm_respsonse","1","3","mat_10","","","","","","1","14795.400000095367","","","","","","","","","","","","","","",""
"","","","","","html-keyboard-response","201","1007139","0.0-3.0-2.0-0.10","6237ca974050879378c8fea8","A3","batch1","","null","<p class=block-text>Trial 11 out of 60</p>","null","spm_show_trial_num","","","","","","","","","","","","","","","","","","","","","","","","",""
"","","","","","image-button-response","202","1012310","0.0-3.0-2.0-1.10","6237ca974050879378c8fea8","A3","batch1","","5170.5","img/question_1_11.jpeg","3","spm_respsonse","1","4","mat_11","","","","","","1","5170.5","","","","","","","","","","","","","","",""
"","","","","","html-keyboard-response","203","1013367","0.0-3.0-2.0-0.11","6237ca974050879378c8fea8","A3","batch1","","null","<p class=block-text>Trial 12 out of 60</p>","null","spm_show_trial_num","","","","","","","","","","","","","","","","","","","","","","","","",""
"","","","","","image-button-response","204","1020903","0.0-3.0-2.0-1.11","6237ca974050879378c8fea8","A3","batch1","","7534.5","img/question_1_12.jpeg","4","spm_respsonse","1","5","mat_12","","","","","","1","7534.5","","","","","","","","","","","","","","",""
"","","","","","html-keyboard-response","205","1021965","0.0-3.0-2.0-0.12","6237ca974050879378c8fea8","A3","batch1","","null","<p class=block-text>Trial 13 out of 60</p>","null","spm_show_trial_num","","","","","","","","","","","","","","","","","","","","","","","","",""
"","","","","","image-button-response","206","1023900","0.0-3.0-2.0-1.12","6237ca974050879378c8fea8","A3","batch1","","1933.8999999761581","img/question_2_1.jpeg","1","spm_respsonse","1","2","mat_13","","","","","","1","1933.8999999761581","","","","","","","","","","","","","","",""
"","","","","","html-keyboard-response","207","1024966","0.0-3.0-2.0-0.13","6237ca974050879378c8fea8","A3","batch1","","null","<p class=block-text>Trial 14 out of 60</p>","null","spm_show_trial_num","","","","","","","","","","","","","","","","","","","","","","","","",""
"","","","","","image-button-response","208","1027861","0.0-3.0-2.0-1.13","6237ca974050879378c8fea8","A3","batch1","","2894.100000023842","img/question_2_2.jpeg","5","spm_respsonse","1","6","mat_14","","","","","","1","2894.100000023842","","","","","","","","","","","","","","",""
"","","","","","html-keyboard-response","209","1028926","0.0-3.0-2.0-0.14","6237ca974050879378c8fea8","A3","batch1","","null","<p class=block-text>Trial 15 out of 60</p>","null","spm_show_trial_num","","","","","","","","","","","","","","","","","","","","","","","","",""
"","","","","","image-button-response","210","1031559","0.0-3.0-2.0-1.14","6237ca974050879378c8fea8","A3","batch1","","2631.600000023842","img/question_2_3.jpeg","0","spm_respsonse","1","1","mat_15","","","","","","1","2631.600000023842","","","","","","","","","","","","","","",""
"","","","","","html-keyboard-response","211","1032617","0.0-3.0-2.0-0.15","6237ca974050879378c8fea8","A3","batch1","","null","<p class=block-text>Trial 16 out of 60</p>","null","spm_show_trial_num","","","","","","","","","","","","","","","","","","","","","","","","",""
"","","","","","image-button-response","212","1035977","0.0-3.0-2.0-1.15","6237ca974050879378c8fea8","A3","batch1","","3358.5999999046326","img/question_2_4.jpeg","1","spm_respsonse","1","2","mat_16","","","","","","1","3358.5999999046326","","","","","","","","","","","","","","",""
"","","","","","html-keyboard-response","213","1037030","0.0-3.0-2.0-0.16","6237ca974050879378c8fea8","A3","batch1","","null","<p class=block-text>Trial 17 out of 60</p>","null","spm_show_trial_num","","","","","","","","","","","","","","","","","","","","","","","","",""
"","","","","","image-button-response","214","1042002","0.0-3.0-2.0-1.16","6237ca974050879378c8fea8","A3","batch1","","4971.100000023842","img/question_2_5.jpeg","0","spm_respsonse","1","1","mat_17","","","","","","1","4971.100000023842","","","","","","","","","","","","","","",""
"","","","","","html-keyboard-response","215","1043057","0.0-3.0-2.0-0.17","6237ca974050879378c8fea8","A3","batch1","","null","<p class=block-text>Trial 18 out of 60</p>","null","spm_show_trial_num","","","","","","","","","","","","","","","","","","","","","","","","",""
"","","","","","image-button-response","216","1048177","0.0-3.0-2.0-1.17","6237ca974050879378c8fea8","A3","batch1","","5119.599999904633","img/question_2_6.jpeg","2","spm_respsonse","1","3","mat_18","","","","","","1","5119.599999904633","","","","","","","","","","","","","","",""
"","","","","","html-keyboard-response","217","1049250","0.0-3.0-2.0-0.18","6237ca974050879378c8fea8","A3","batch1","","null","<p class=block-text>Trial 19 out of 60</p>","null","spm_show_trial_num","","","","","","","","","","","","","","","","","","","","","","","","",""
"","","","","","image-button-response","218","1053849","0.0-3.0-2.0-1.18","6237ca974050879378c8fea8","A3","batch1","","4597.700000047684","img/question_2_7.jpeg","4","spm_respsonse","1","5","mat_19","","","","","","1","4597.700000047684","","","","","","","","","","","","","","",""
"","","","","","html-keyboard-response","219","1054919","0.0-3.0-2.0-0.19","6237ca974050879378c8fea8","A3","batch1","","null","<p class=block-text>Trial 20 out of 60</p>","null","spm_show_trial_num","","","","","","","","","","","","","","","","","","","","","","","","",""
"","","","","","image-button-response","220","1059009","0.0-3.0-2.0-1.19","6237ca974050879378c8fea8","A3","batch1","","4088.7999999523163","img/question_2_8.jpeg","5","spm_respsonse","1","6","mat_20","","","","","","1","4088.7999999523163","","","","","","","","","","","","","","",""
"","","","","","html-keyboard-response","221","1060075","0.0-3.0-2.0-0.20","6237ca974050879378c8fea8","A3","batch1","","null","<p class=block-text>Trial 21 out of 60</p>","null","spm_show_trial_num","","","","","","","","","","","","","","","","","","","","","","","","",""
"","","","","","image-button-response","222","1062877","0.0-3.0-2.0-1.20","6237ca974050879378c8fea8","A3","batch1","","2800.5","img/question_2_9.jpeg","3","spm_respsonse","1","4","mat_21","","","","","","1","2800.5","","","","","","","","","","","","","","",""
"","","","","","html-keyboard-response","223","1063942","0.0-3.0-2.0-0.21","6237ca974050879378c8fea8","A3","batch1","","null","<p class=block-text>Trial 22 out of 60</p>","null","spm_show_trial_num","","","","","","","","","","","","","","","","","","","","","","","","",""
"","","","","","image-button-response","224","1074430","0.0-3.0-2.0-1.21","6237ca974050879378c8fea8","A3","batch1","","10486.799999952316","img/question_2_10.jpeg","2","spm_respsonse","1","3","mat_22","","","","","","1","10486.799999952316","","","","","","","","","","","","","","",""
"","","","","","html-keyboard-response","225","1075486","0.0-3.0-2.0-0.22","6237ca974050879378c8fea8","A3","batch1","","null","<p class=block-text>Trial 23 out of 60</p>","null","spm_show_trial_num","","","","","","","","","","","","","","","","","","","","","","","","",""
"","","","","","image-button-response","226","1079388","0.0-3.0-2.0-1.22","6237ca974050879378c8fea8","A3","batch1","","3901.5","img/question_2_11.jpeg","3","spm_respsonse","1","4","mat_23","","","","","","1","3901.5","","","","","","","","","","","","","","",""
"","","","","","html-keyboard-response","227","1080442","0.0-3.0-2.0-0.23","6237ca974050879378c8fea8","A3","batch1","","null","<p class=block-text>Trial 24 out of 60</p>","null","spm_show_trial_num","","","","","","","","","","","","","","","","","","","","","","","","",""
"","","","","","image-button-response","228","1094074","0.0-3.0-2.0-1.23","6237ca974050879378c8fea8","A3","batch1","","13630.399999976158","img/question_2_12.jpeg","5","spm_respsonse","0","5","mat_24","","","","","","0","13630.399999976158","","","","","","","","","","","","","","",""
"","","","","","html-button-response","229","1095726","0.0-3.0-3.0","6237ca974050879378c8fea8","A3","batch1","","1400.3999999761581","<p class = block-text>Attention check: Please choose 1<br></p>","0","attention_check","true","","","","","","","","","","","","","","","","","","","","","","","",""
"","","","","","html-keyboard-response","230","1096536","0.0-3.0-4.0-0.0","6237ca974050879378c8fea8","A3","batch1","","null","<p class=block-text>Trial 25 out of 60</p>","null","spm_show_trial_num","","","","","","","","","","","","","","","","","","","","","","","","",""
"","","","","","image-button-response","231","1103520","0.0-3.0-4.0-1.0","6237ca974050879378c8fea8","A3","batch1","","6982.699999928474","img/question_3_1.jpeg","7","spm_respsonse","1","8","mat_25","","","","","","1","6982.699999928474","","","","","","","","","","","","","","",""
"","","","","","html-keyboard-response","232","1104582","0.0-3.0-4.0-0.1","6237ca974050879378c8fea8","A3","batch1","","null","<p class=block-text>Trial 26 out of 60</p>","null","spm_show_trial_num","","","","","","","","","","","","","","","","","","","","","","","","",""
"","","","","","image-button-response","233","1110920","0.0-3.0-4.0-1.1","6237ca974050879378c8fea8","A3","batch1","","6336.700000047684","img/question_3_2.jpeg","1","spm_respsonse","1","2","mat_26","","","","","","1","6336.700000047684","","","","","","","","","","","","","","",""
"","","","","","html-keyboard-response","234","1111991","0.0-3.0-4.0-0.2","6237ca974050879378c8fea8","A3","batch1","","null","<p class=block-text>Trial 27 out of 60</p>","null","spm_show_trial_num","","","","","","","","","","","","","","","","","","","","","","","","",""
"","","","","","image-button-response","235","1120056","0.0-3.0-4.0-1.2","6237ca974050879378c8fea8","A3","batch1","","8064.299999952316","img/question_3_3.jpeg","2","spm_respsonse","1","3","mat_27","","","","","","1","8064.299999952316","","","","","","","","","","","","","","",""
"","","","","","html-keyboard-response","236","1121119","0.0-3.0-4.0-0.3","6237ca974050879378c8fea8","A3","batch1","","null","<p class=block-text>Trial 28 out of 60</p>","null","spm_show_trial_num","","","","","","","","","","","","","","","","","","","","","","","","",""
"","","","","","image-button-response","237","1142523","0.0-3.0-4.0-1.3","6237ca974050879378c8fea8","A3","batch1","","21403.699999928474","img/question_3_4.jpeg","2","spm_respsonse","0","8","mat_28","","","","","","0","21403.699999928474","","","","","","","","","","","","","","",""
"","","","","","html-keyboard-response","238","1143578","0.0-3.0-4.0-0.4","6237ca974050879378c8fea8","A3","batch1","","null","<p class=block-text>Trial 29 out of 60</p>","null","spm_show_trial_num","","","","","","","","","","","","","","","","","","","","","","","","",""
"","","","","","image-button-response","239","1157712","0.0-3.0-4.0-1.4","6237ca974050879378c8fea8","A3","batch1","","14132.699999928474","img/question_3_5.jpeg","6","spm_respsonse","1","7","mat_29","","","","","","1","14132.699999928474","","","","","","","","","","","","","","",""
"","","","","","html-keyboard-response","240","1158772","0.0-3.0-4.0-0.5","6237ca974050879378c8fea8","A3","batch1","","null","<p class=block-text>Trial 30 out of 60</p>","null","spm_show_trial_num","","","","","","","","","","","","","","","","","","","","","","","","",""
"","","","","","image-button-response","241","1169512","0.0-3.0-4.0-1.5","6237ca974050879378c8fea8","A3","batch1","","10739.300000071526","img/question_3_6.jpeg","3","spm_respsonse","1","4","mat_30","","","","","","1","10739.300000071526","","","","","","","","","","","","","","",""
"","","","","","html-keyboard-response","242","1170588","0.0-3.0-4.0-0.6","6237ca974050879378c8fea8","A3","batch1","","null","<p class=block-text>Trial 31 out of 60</p>","null","spm_show_trial_num","","","","","","","","","","","","","","","","","","","","","","","","",""
"","","","","","image-button-response","243","1178446","0.0-3.0-4.0-1.6","6237ca974050879378c8fea8","A3","batch1","","7856.200000047684","img/question_3_7.jpeg","4","spm_respsonse","1","5","mat_31","","","","","","1","7856.200000047684","","","","","","","","","","","","","","",""
"","","","","","html-keyboard-response","244","1179506","0.0-3.0-4.0-0.7","6237ca974050879378c8fea8","A3","batch1","","null","<p class=block-text>Trial 32 out of 60</p>","null","spm_show_trial_num","","","","","","","","","","","","","","","","","","","","","","","","",""
"","","","","","image-button-response","245","1183886","0.0-3.0-4.0-1.7","6237ca974050879378c8fea8","A3","batch1","","4378.5","img/question_3_8.jpeg","0","spm_respsonse","1","1","mat_32","","","","","","1","4378.5","","","","","","","","","","","","","","",""
"","","","","","html-keyboard-response","246","1184948","0.0-3.0-4.0-0.8","6237ca974050879378c8fea8","A3","batch1","","null","<p class=block-text>Trial 33 out of 60</p>","null","spm_show_trial_num","","","","","","","","","","","","","","","","","","","","","","","","",""
"","","","","","image-button-response","247","1191504","0.0-3.0-4.0-1.8","6237ca974050879378c8fea8","A3","batch1","","6554.899999976158","img/question_3_9.jpeg","6","spm_respsonse","1","7","mat_33","","","","","","1","6554.899999976158","","","","","","","","","","","","","","",""
"","","","","","html-keyboard-response","248","1192573","0.0-3.0-4.0-0.9","6237ca974050879378c8fea8","A3","batch1","","null","<p class=block-text>Trial 34 out of 60</p>","null","spm_show_trial_num","","","","","","","","","","","","","","","","","","","","","","","","",""
"","","","","","image-button-response","249","1208011","0.0-3.0-4.0-1.9","6237ca974050879378c8fea8","A3","batch1","","15436.199999928474","img/question_3_10.jpeg","7","spm_respsonse","0","6","mat_34","","","","","","0","15436.199999928474","","","","","","","","","","","","","","",""
"","","","","","html-keyboard-response","250","1209065","0.0-3.0-4.0-0.10","6237ca974050879378c8fea8","A3","batch1","","null","<p class=block-text>Trial 35 out of 60</p>","null","spm_show_trial_num","","","","","","","","","","","","","","","","","","","","","","","","",""
"","","","","","image-button-response","251","1220109","0.0-3.0-4.0-1.10","6237ca974050879378c8fea8","A3","batch1","","11042.399999976158","img/question_3_11.jpeg","0","spm_respsonse","1","1","mat_35","","","","","","1","11042.399999976158","","","","","","","","","","","","","","",""
"","","","","","html-keyboard-response","252","1221162","0.0-3.0-4.0-0.11","6237ca974050879378c8fea8","A3","batch1","","null","<p class=block-text>Trial 36 out of 60</p>","null","spm_show_trial_num","","","","","","","","","","","","","","","","","","","","","","","","",""
"","","","","","image-button-response","253","1241797","0.0-3.0-4.0-1.11","6237ca974050879378c8fea8","A3","batch1","","20634.200000047684","img/question_3_12.jpeg","1","spm_respsonse","1","2","mat_36","","","","","","1","20634.200000047684","","","","","","","","","","","","","","",""
"","","","","","html-keyboard-response","254","1242859","0.0-3.0-4.0-0.12","6237ca974050879378c8fea8","A3","batch1","","null","<p class=block-text>Trial 37 out of 60</p>","null","spm_show_trial_num","","","","","","","","","","","","","","","","","","","","","","","","",""
"","","","","","image-button-response","255","1245785","0.0-3.0-4.0-1.12","6237ca974050879378c8fea8","A3","batch1","","2925.5","img/question_4_1.jpeg","2","spm_respsonse","1","3","mat_37","","","","","","1","2925.5","","","","","","","","","","","","","","",""
"","","","","","html-keyboard-response","256","1246836","0.0-3.0-4.0-0.13","6237ca974050879378c8fea8","A3","batch1","","null","<p class=block-text>Trial 38 out of 60</p>","null","spm_show_trial_num","","","","","","","","","","","","","","","","","","","","","","","","",""
"","","","","","image-button-response","257","1251116","0.0-3.0-4.0-1.13","6237ca974050879378c8fea8","A3","batch1","","4278.600000023842","img/question_4_2.jpeg","3","spm_respsonse","1","4","mat_38","","","","","","1","4278.600000023842","","","","","","","","","","","","","","",""
"","","","","","html-keyboard-response","258","1252168","0.0-3.0-4.0-0.14","6237ca974050879378c8fea8","A3","batch1","","null","<p class=block-text>Trial 39 out of 60</p>","null","spm_show_trial_num","","","","","","","","","","","","","","","","","","","","","","","","",""
"","","","","","image-button-response","259","1257139","0.0-3.0-4.0-1.14","6237ca974050879378c8fea8","A3","batch1","","4969.600000023842","img/question_4_3.jpeg","2","spm_respsonse","1","3","mat_39","","","","","","1","4969.600000023842","","","","","","","","","","","","","","",""
"","","","","","html-keyboard-response","260","1258202","0.0-3.0-4.0-0.15","6237ca974050879378c8fea8","A3","batch1","","null","<p class=block-text>Trial 40 out of 60</p>","null","spm_show_trial_num","","","","","","","","","","","","","","","","","","","","","","","","",""
"","","","","","image-button-response","261","1263629","0.0-3.0-4.0-1.15","6237ca974050879378c8fea8","A3","batch1","","5425.200000047684","img/question_4_4.jpeg","6","spm_respsonse","1","7","mat_40","","","","","","1","5425.200000047684","","","","","","","","","","","","","","",""
"","","","","","html-keyboard-response","262","1264696","0.0-3.0-4.0-0.16","6237ca974050879378c8fea8","A3","batch1","","null","<p class=block-text>Trial 41 out of 60</p>","null","spm_show_trial_num","","","","","","","","","","","","","","","","","","","","","","","","",""
"","","","","","image-button-response","263","1270658","0.0-3.0-4.0-1.16","6237ca974050879378c8fea8","A3","batch1","","5960.600000023842","img/question_4_5.jpeg","7","spm_respsonse","1","8","mat_41","","","","","","1","5960.600000023842","","","","","","","","","","","","","","",""
"","","","","","html-keyboard-response","264","1271723","0.0-3.0-4.0-0.17","6237ca974050879378c8fea8","A3","batch1","","null","<p class=block-text>Trial 42 out of 60</p>","null","spm_show_trial_num","","","","","","","","","","","","","","","","","","","","","","","","",""
"","","","","","image-button-response","265","1286791","0.0-3.0-4.0-1.17","6237ca974050879378c8fea8","A3","batch1","","15067.100000023842","img/question_4_6.jpeg","5","spm_respsonse","1","6","mat_42","","","","","","1","15067.100000023842","","","","","","","","","","","","","","",""
"","","","","","html-keyboard-response","266","1287855","0.0-3.0-4.0-0.18","6237ca974050879378c8fea8","A3","batch1","","null","<p class=block-text>Trial 43 out of 60</p>","null","spm_show_trial_num","","","","","","","","","","","","","","","","","","","","","","","","",""
"","","","","","image-button-response","267","1295443","0.0-3.0-4.0-1.18","6237ca974050879378c8fea8","A3","batch1","","7586.400000095367","img/question_4_7.jpeg","4","spm_respsonse","1","5","mat_43","","","","","","1","7586.400000095367","","","","","","","","","","","","","","",""
"","","","","","html-keyboard-response","268","1296495","0.0-3.0-4.0-0.19","6237ca974050879378c8fea8","A3","batch1","","null","<p class=block-text>Trial 44 out of 60</p>","null","spm_show_trial_num","","","","","","","","","","","","","","","","","","","","","","","","",""
"","","","","","image-button-response","269","1307134","0.0-3.0-4.0-1.19","6237ca974050879378c8fea8","A3","batch1","","10638.199999928474","img/question_4_8.jpeg","3","spm_respsonse","1","4","mat_44","","","","","","1","10638.199999928474","","","","","","","","","","","","","","",""
"","","","","","html-keyboard-response","270","1308190","0.0-3.0-4.0-0.20","6237ca974050879378c8fea8","A3","batch1","","null","<p class=block-text>Trial 45 out of 60</p>","null","spm_show_trial_num","","","","","","","","","","","","","","","","","","","","","","","","",""
"","","","","","image-button-response","271","1322529","0.0-3.0-4.0-1.20","6237ca974050879378c8fea8","A3","batch1","","14338.299999952316","img/question_4_9.jpeg","0","spm_respsonse","1","1","mat_45","","","","","","1","14338.299999952316","","","","","","","","","","","","","","",""
"","","","","","html-keyboard-response","272","1323585","0.0-3.0-4.0-0.21","6237ca974050879378c8fea8","A3","batch1","","null","<p class=block-text>Trial 46 out of 60</p>","null","spm_show_trial_num","","","","","","","","","","","","","","","","","","","","","","","","",""
"","","","","","image-button-response","273","1342000","0.0-3.0-4.0-1.21","6237ca974050879378c8fea8","A3","batch1","","18413.700000047684","img/question_4_10.jpeg","1","spm_respsonse","1","2","mat_46","","","","","","1","18413.700000047684","","","","","","","","","","","","","","",""
"","","","","","html-keyboard-response","274","1343071","0.0-3.0-4.0-0.22","6237ca974050879378c8fea8","A3","batch1","","null","<p class=block-text>Trial 47 out of 60</p>","null","spm_show_trial_num","","","","","","","","","","","","","","","","","","","","","","","","",""
"","","","","","image-button-response","275","1364839","0.0-3.0-4.0-1.22","6237ca974050879378c8fea8","A3","batch1","","21766.399999976158","img/question_4_11.jpeg","1","spm_respsonse","0","5","mat_47","","","","","","0","21766.399999976158","","","","","","","","","","","","","","",""
"","","","","","html-keyboard-response","276","1365891","0.0-3.0-4.0-0.23","6237ca974050879378c8fea8","A3","batch1","","null","<p class=block-text>Trial 48 out of 60</p>","null","spm_show_trial_num","","","","","","","","","","","","","","","","","","","","","","","","",""
"","","","","","image-button-response","277","1379917","0.0-3.0-4.0-1.23","6237ca974050879378c8fea8","A3","batch1","","14025.199999928474","img/question_4_12.jpeg","6","spm_respsonse","0","6","mat_48","","","","","","0","14025.199999928474","","","","","","","","","","","","","","",""
"","","","","","html-keyboard-response","278","1380988","0.0-3.0-4.0-0.24","6237ca974050879378c8fea8","A3","batch1","","null","<p class=block-text>Trial 49 out of 60</p>","null","spm_show_trial_num","","","","","","","","","","","","","","","","","","","","","","","","",""
"","","","","","image-button-response","279","1387310","0.0-3.0-4.0-1.24","6237ca974050879378c8fea8","A3","batch1","","6321.599999904633","img/question_5_1.jpeg","6","spm_respsonse","1","7","mat_49","","","","","","1","6321.599999904633","","","","","","","","","","","","","","",""
"","","","","","html-keyboard-response","280","1388374","0.0-3.0-4.0-0.25","6237ca974050879378c8fea8","A3","batch1","","null","<p class=block-text>Trial 50 out of 60</p>","null","spm_show_trial_num","","","","","","","","","","","","","","","","","","","","","","","","",""
"","","","","","image-button-response","281","1400443","0.0-3.0-4.0-1.25","6237ca974050879378c8fea8","A3","batch1","","12068.600000023842","img/question_5_2.jpeg","5","spm_respsonse","1","6","mat_50","","","","","","1","12068.600000023842","","","","","","","","","","","","","","",""
"","","","","","html-keyboard-response","282","1401501","0.0-3.0-4.0-0.26","6237ca974050879378c8fea8","A3","batch1","","null","<p class=block-text>Trial 51 out of 60</p>","null","spm_show_trial_num","","","","","","","","","","","","","","","","","","","","","","","","",""
"","","","","","image-button-response","283","1412408","0.0-3.0-4.0-1.26","6237ca974050879378c8fea8","A3","batch1","","10905.900000095367","img/question_5_3.jpeg","7","spm_respsonse","1","8","mat_51","","","","","","1","10905.900000095367","","","","","","","","","","","","","","",""
"","","","","","html-keyboard-response","284","1413464","0.0-3.0-4.0-0.27","6237ca974050879378c8fea8","A3","batch1","","null","<p class=block-text>Trial 52 out of 60</p>","null","spm_show_trial_num","","","","","","","","","","","","","","","","","","","","","","","","",""
"","","","","","image-button-response","285","1424654","0.0-3.0-4.0-1.27","6237ca974050879378c8fea8","A3","batch1","","11189.300000071526","img/question_5_4.jpeg","1","spm_respsonse","1","2","mat_52","","","","","","1","11189.300000071526","","","","","","","","","","","","","","",""
"","","","","","html-keyboard-response","286","1425715","0.0-3.0-4.0-0.28","6237ca974050879378c8fea8","A3","batch1","","null","<p class=block-text>Trial 53 out of 60</p>","null","spm_show_trial_num","","","","","","","","","","","","","","","","","","","","","","","","",""
"","","","","","image-button-response","287","1438152","0.0-3.0-4.0-1.28","6237ca974050879378c8fea8","A3","batch1","","12436.199999928474","img/question_5_5.jpeg","5","spm_respsonse","0","1","mat_53","","","","","","0","12436.199999928474","","","","","","","","","","","","","","",""
"","","","","","html-keyboard-response","288","1439212","0.0-3.0-4.0-0.29","6237ca974050879378c8fea8","A3","batch1","","null","<p class=block-text>Trial 54 out of 60</p>","null","spm_show_trial_num","","","","","","","","","","","","","","","","","","","","","","","","",""
"","","","","","image-button-response","289","1452438","0.0-3.0-4.0-1.29","6237ca974050879378c8fea8","A3","batch1","","13224.5","img/question_5_6.jpeg","4","spm_respsonse","1","5","mat_54","","","","","","1","13224.5","","","","","","","","","","","","","","",""
"","","","","","html-keyboard-response","290","1453491","0.0-3.0-4.0-0.30","6237ca974050879378c8fea8","A3","batch1","","null","<p class=block-text>Trial 55 out of 60</p>","null","spm_show_trial_num","","","","","","","","","","","","","","","","","","","","","","","","",""
"","","","","","image-button-response","291","1476926","0.0-3.0-4.0-1.30","6237ca974050879378c8fea8","A3","batch1","","23434.399999976158","img/question_5_7.jpeg","3","spm_respsonse","0","1","mat_55","","","","","","0","23434.399999976158","","","","","","","","","","","","","","",""
"","","","","","html-keyboard-response","292","1477982","0.0-3.0-4.0-0.31","6237ca974050879378c8fea8","A3","batch1","","null","<p class=block-text>Trial 56 out of 60</p>","null","spm_show_trial_num","","","","","","","","","","","","","","","","","","","","","","","","",""
"","","","","","image-button-response","293","1488965","0.0-3.0-4.0-1.31","6237ca974050879378c8fea8","A3","batch1","","10982.100000023842","img/question_5_8.jpeg","5","spm_respsonse","1","6","mat_56","","","","","","1","10982.100000023842","","","","","","","","","","","","","","",""
"","","","","","html-keyboard-response","294","1490021","0.0-3.0-4.0-0.32","6237ca974050879378c8fea8","A3","batch1","","null","<p class=block-text>Trial 57 out of 60</p>","null","spm_show_trial_num","","","","","","","","","","","","","","","","","","","","","","","","",""
"","","","","","image-button-response","295","1503634","0.0-3.0-4.0-1.32","6237ca974050879378c8fea8","A3","batch1","","13611.5","img/question_5_9.jpeg","7","spm_respsonse","0","3","mat_57","","","","","","0","13611.5","","","","","","","","","","","","","","",""
"","","","","","html-keyboard-response","296","1504688","0.0-3.0-4.0-0.33","6237ca974050879378c8fea8","A3","batch1","","null","<p class=block-text>Trial 58 out of 60</p>","null","spm_show_trial_num","","","","","","","","","","","","","","","","","","","","","","","","",""
"","","","","","image-button-response","297","1525698","0.0-3.0-4.0-1.33","6237ca974050879378c8fea8","A3","batch1","","21008.899999976158","img/question_5_10.jpeg","5","spm_respsonse","0","2","mat_58","","","","","","0","21008.899999976158","","","","","","","","","","","","","","",""
"","","","","","html-keyboard-response","298","1526761","0.0-3.0-4.0-0.34","6237ca974050879378c8fea8","A3","batch1","","null","<p class=block-text>Trial 59 out of 60</p>","null","spm_show_trial_num","","","","","","","","","","","","","","","","","","","","","","","","",""
"","","","","","image-button-response","299","1541266","0.0-3.0-4.0-1.34","6237ca974050879378c8fea8","A3","batch1","","14504","img/question_5_11.jpeg","6","spm_respsonse","0","4","mat_59","","","","","","0","14504","","","","","","","","","","","","","","",""
"","","","","","html-keyboard-response","300","1542319","0.0-3.0-4.0-0.35","6237ca974050879378c8fea8","A3","batch1","","null","<p class=block-text>Trial 60 out of 60</p>","null","spm_show_trial_num","","","","","","","","","","","","","","","","","","","","","","","","",""
"","","","","","image-button-response","301","1560454","0.0-3.0-4.0-1.35","6237ca974050879378c8fea8","A3","batch1","","18133.299999952316","img/question_5_12.jpeg","4","spm_respsonse","1","5","mat_60","","","","","","1","18133.299999952316","","","","","","","","","","","","","","",""
"","","","","","html-button-response","302","1563245","0.0-3.0-5.0","6237ca974050879378c8fea8","A3","batch1","","2539.8000000715256","<p class= block-text>This concludes the Standard Progressive Matrix game. Thank you for your responses!<br> When you are ready, click the button continue</p>","0","spm_goodbye","","","","","","","","","","","","","","","","","","","","","","","","",""
"true","","","","","fullscreen","303","1710336","0.0-4.0-0.0","6237ca974050879378c8fea8","A3","batch1","","","","","","","","","","","","","","","","","","","","","","","","","","","","","",""
"","","","","","instructions","304","1807083","0.0-4.0-1.0-0.0-0.0","6237ca974050879378c8fea8","A3","batch1","[{""page_index"":0,""viewing_time"":28203.799999952316},{""page_index"":1,""viewing_time"":5019.400000095367},{""page_index"":2,""viewing_time"":3769.2999999523163},{""page_index"":3,""viewing_time"":22549.299999952316},{""page_index"":4,""viewing_time"":23331.700000047684},{""page_index"":5,""viewing_time"":9322.100000023842},{""page_index"":6,""viewing_time"":4551.600000023842}]","96747.29999995232","","","tol-instructions","","","","","","","","","","","","","","","","","","","","","","","","",""
"","","","","","html-button-response","305","1808120","0.0-4.0-1.0-1.0-0.0","6237ca974050879378c8fea8","A3","batch1","","1036","<p class=block-text> Let's answer a few questions <br>","0","tol_enter_quiz","","","","","","","","","","","","","","","","","","","","","","","","",""
"","","","","","html-button-response","306","1812495","0.0-4.0-1.0-1.0-1.0","6237ca974050879378c8fea8","A3","batch1","","4374.5","<p class = block-text>True or False: You can only move the ball on top of a peg. <br></p>","1","tol_quiz","false","","","","","","","","","","","","","","","","","","","","","","","",""
"","","","","","html-button-response","307","1813494","0.0-4.0-1.0-1.0-2.0","6237ca974050879378c8fea8","A3","batch1","","998.4000000953674","<p class = block-text>Incorrect. Remember, you can only move the ball on top of a peg.</p>","0","tol_quiz_feedback","","","","","","","","","","","","","","","","","","","","","","","","",""
"","","","","","html-button-response","308","1817966","0.0-4.0-1.0-1.0-3.0","6237ca974050879378c8fea8","A3","batch1","","4471.799999952316","<p class = block-text>True or False: You should try to match your board with the target board with fewest moves possible. <br></p>","0","tol_quiz","true","","","","","","","","","","","","","","","","","","","","","","","",""
"","","","","","html-button-response","309","1818562","0.0-4.0-1.0-1.0-4.0","6237ca974050879378c8fea8","A3","batch1","","595.3999999761581","<p class = block-text>Correct! </p>","0","tol_quiz_feedback","","","","","","","","","","","","","","","","","","","","","","","","",""
"","","","","","html-button-response","310","1819473","0.0-4.0-1.0-2.0-0.0","6237ca974050879378c8fea8","A3","batch1","","909.5999999046326","<p class = block-text>You made too many incorrect choices.</p><p class = block-text>You will now repeat the instructions and quiz</p>","0","","","","","","","","","","","","","","","","","","","","","","","","","",""
"","","","","","instructions","311","1823954","0.0-4.0-1.1-0.1-0.1","6237ca974050879378c8fea8","A3","batch1","[{""page_index"":0,""viewing_time"":760.0999999046326},{""page_index"":1,""viewing_time"":397.8000000715256},{""page_index"":2,""viewing_time"":372.2999999523163},{""page_index"":3,""viewing_time"":336.60000002384186},{""page_index"":4,""viewing_time"":438.10000002384186},{""page_index"":5,""viewing_time"":376.10000002384186},{""page_index"":6,""viewing_time"":1799.5999999046326}]","4480.599999904633","","","tol-instructions","","","","","","","","","","","","","","","","","","","","","","","","",""
"","","","","","html-button-response","312","1824866","0.0-4.0-1.1-1.1-0.1","6237ca974050879378c8fea8","A3","batch1","","910.8999999761581","<p class=block-text> Let's answer a few questions <br>","0","tol_enter_quiz","","","","","","","","","","","","","","","","","","","","","","","","",""
"","","","","","html-button-response","313","1826344","0.0-4.0-1.1-1.1-1.1","6237ca974050879378c8fea8","A3","batch1","","1477.5","<p class = block-text>True or False: You can only move the ball on top of a peg. <br></p>","0","tol_quiz","true","","","","","","","","","","","","","","","","","","","","","","","",""
"","","","","","html-button-response","314","1827005","0.0-4.0-1.1-1.1-2.1","6237ca974050879378c8fea8","A3","batch1","","660.2999999523163","<p class = block-text>Correct! You can only move the ball on top of a peg.</p>","0","tol_quiz_feedback","","","","","","","","","","","","","","","","","","","","","","","","",""
"","","","","","html-button-response","315","1827786","0.0-4.0-1.1-1.1-3.1","6237ca974050879378c8fea8","A3","batch1","","780.6999999284744","<p class = block-text>True or False: You should try to match your board with the target board with fewest moves possible. <br></p>","0","tol_quiz","true","","","","","","","","","","","","","","","","","","","","","","","",""
"","","","","","html-button-response","316","1828168","0.0-4.0-1.1-1.1-4.1","6237ca974050879378c8fea8","A3","batch1","","381.3000000715256","<p class = block-text>Correct! </p>","0","tol_quiz_feedback","","","","","","","","","","","","","","","","","","","","","","","","",""
"","","","","","html-button-response","317","1832596","0.0-4.0-2.0","6237ca974050879378c8fea8","A3","batch1","","4428.299999952316","<p class=block-text> Now that you've understood the game, let's practice a few easier examples before we start!<br> <br>","0","","","","","","","","","","","","","","","","","","","","","","","","","",""
"","","","","","single-stim-button","318","1834677","0.0-4.0-3.0-0.0","6237ca974050879378c8fea8","A3","batch1","","2080","","","tol_practice","","","","","","","","","","","tol_peg_2","2080","2080","0","[[1,2,0],[0,0],[0]]","1","[[1,2,0],[0,0],[3]]","practice","2080","","","","","",""
"","","","","","single-stim-button","319","1836769","0.0-4.0-3.0-1.0","6237ca974050879378c8fea8","A3","batch1","","2091","","","tol_practice","","","","","","","","","","","tol_peg_3","2091","2091","0","[[1,2,0],[0,0],[3]]","1","[[1,2,0],[0,0],[3]]","practice","2091","","","","","",""
"","","","","","poldrack-single-stim","320","1837770","0.0-4.0-4.0","6237ca974050879378c8fea8","A3","batch1","","-1","","","tol_feedback","true","","","","","","","","","","","1000","1000","500","","","","","","-1","none","true","","0",""
"","","","","","single-stim-button","321","1840728","0.0-4.0-5.0-0.0","6237ca974050879378c8fea8","A3","batch1","","2958","","","tol_practice","","","","","","","","","","","tol_peg_1","2958","2958","0","[[1,0,0],[3,0],[0]]","2","[[0,0,0],[3,1],[2]]","practice","2958","","","","","",""
"","","","","","single-stim-button","322","1841719","0.0-4.0-5.0-1.0","6237ca974050879378c8fea8","A3","batch1","","989","","","tol_practice","","","","","","","","","","","tol_peg_3","989","989","0","[[1,0,0],[3,0],[2]]","2","[[0,0,0],[3,1],[2]]","practice","989","","","","","",""
"","","","","","single-stim-button","323","1842405","0.0-4.0-5.1-0.1","6237ca974050879378c8fea8","A3","batch1","","686","","","tol_practice","","","","","","","","","","","tol_peg_1","686","686","0","[[0,0,0],[3,0],[2]]","3","[[0,0,0],[3,1],[2]]","practice","686","","","","","",""
"","","","","","single-stim-button","324","1842818","0.0-4.0-5.1-1.1","6237ca974050879378c8fea8","A3","batch1","","412","","","tol_practice","","","","","","","","","","","tol_peg_2","412","412","0","[[0,0,0],[3,1],[2]]","3","[[0,0,0],[3,1],[2]]","practice","412","","","","","",""
"","","","","","poldrack-single-stim","325","1843824","0.0-4.0-6.0","6237ca974050879378c8fea8","A3","batch1","","-1","","","tol_feedback","true","","","","","","","","","","","1000","1000","500","","","","","","-1","none","true","","0",""
"","","","","","single-stim-button","326","1847722","0.0-4.0-7.0-0.0","6237ca974050879378c8fea8","A3","batch1","","3897","","","tol_practice","","","","","","","","","","","tol_peg_2","3897","3897","0","[[1,2,0],[0,0],[0]]","4","[[1,0,0],[2,0],[3]]","practice","3897","","","","","",""
"","","","","","single-stim-button","327","1848875","0.0-4.0-7.0-1.0","6237ca974050879378c8fea8","A3","batch1","","1152","","","tol_practice","","","","","","","","","","","tol_peg_3","1152","1152","0","[[1,2,0],[0,0],[3]]","4","[[1,0,0],[2,0],[3]]","practice","1152","","","","","",""
"","","","","","single-stim-button","328","1849348","0.0-4.0-7.1-0.1","6237ca974050879378c8fea8","A3","batch1","","473","","","tol_practice","","","","","","","","","","","tol_peg_1","473","473","0","[[1,0,0],[0,0],[3]]","5","[[1,0,0],[2,0],[3]]","practice","473","","","","","",""
"","","","","","single-stim-button","329","1849822","0.0-4.0-7.1-1.1","6237ca974050879378c8fea8","A3","batch1","","473","","","tol_practice","","","","","","","","","","","tol_peg_2","473","473","0","[[1,0,0],[2,0],[3]]","5","[[1,0,0],[2,0],[3]]","practice","473","","","","","",""
"","","","","","poldrack-single-stim","330","1850824","0.0-4.0-8.0","6237ca974050879378c8fea8","A3","batch1","","-1","","","tol_feedback","true","","","","","","","","","","","1000","1000","500","","","","","","-1","none","true","","0",""
"","","","","","html-button-response","331","1853203","0.0-4.0-9.0","6237ca974050879378c8fea8","A3","batch1","","2378.100000023842","<div class = centerbox><p class = center-block-text>Great job! You are done with practice trials<br>You are about to start official trials.<br> <br> Problem <strong>1</strong> out of 25 problems</p></div>","0","tol_instruction","","","","","","","","","","","","","","","","","","","","","","","","",""
"","","","","","single-stim-button","332","1861357","0.0-4.0-10.0-0.0","6237ca974050879378c8fea8","A3","batch1","","7147","","","tol_tohand","","","","","","","","","","","tol_peg_1","7147","7147","0","[[1,0,0],[3,0],[0]]","1","[[1,3,0],[2,0],[0]]","0","0","","","","","","3"
"","","","","","single-stim-button","333","1862727","0.0-4.0-10.0-1.0","6237ca974050879378c8fea8","A3","batch1","","1370","","","tol_toboard","","","","","","","","","","","tol_peg_3","1370","1370","0","[[1,0,0],[3,0],[2]]","1","[[1,3,0],[2,0],[0]]","0","0","","","","","","3"
"","","","","","single-stim-button","334","1863191","0.0-4.0-10.1-0.1","6237ca974050879378c8fea8","A3","batch1","","462","","","tol_tohand","","","","","","","","","","","tol_peg_2","462","462","0","[[1,0,0],[0,0],[2]]","2","[[1,3,0],[2,0],[0]]","0","0","","","","","","3"
"","","","","","single-stim-button","335","1864295","0.0-4.0-10.1-1.1","6237ca974050879378c8fea8","A3","batch1","","1103","","","tol_toboard","","","","","","","","","","","tol_peg_1","1103","1103","0","[[1,3,0],[0,0],[2]]","2","[[1,3,0],[2,0],[0]]","0","0","","","","","","3"
"","","","","","single-stim-button","336","1864871","0.0-4.0-10.2-0.2","6237ca974050879378c8fea8","A3","batch1","","576","","","tol_tohand","","","","","","","","","","","tol_peg_3","576","576","0","[[1,3,0],[0,0],[0]]","3","[[1,3,0],[2,0],[0]]","0","0","","","","","","3"
"","","","","","single-stim-button","337","1865332","0.0-4.0-10.2-1.2","6237ca974050879378c8fea8","A3","batch1","","461","","","tol_toboard","","","","","","","","","","","tol_peg_2","461","461","0","[[1,3,0],[2,0],[0]]","3","[[1,3,0],[2,0],[0]]","0","0","","","","","","3"
"","","","","","poldrack-single-stim","338","1866334","0.0-4.0-11.0","6237ca974050879378c8fea8","A3","batch1","","-1","","","tol_feedback","true","","","","","","","","","","","1000","1000","500","","","","","","-1","none","true","7147","8185",""
"","","","","","html-button-response","339","1867021","0.0-4.0-12.0","6237ca974050879378c8fea8","A3","batch1","","686.6000000238419","<div class = centerbox><p class = center-block-text>problem <strong>2</strong> out of 25 problems</p></div>","0","tol_trial_num","","","","","","","","","","","","","","","","","","","","","","","","",""
"","","","","","single-stim-button","340","1869649","0.0-4.0-13.0-0.0","6237ca974050879378c8fea8","A3","batch1","","2628","","","tol_tohand","","","","","","","","","","","tol_peg_1","2628","2628","0","[[1,0,0],[3,0],[0]]","1","[[2,1,3],[0,0],[0]]","1","0","","","","","","5"
"","","","","","single-stim-button","341","1870625","0.0-4.0-13.0-1.0","6237ca974050879378c8fea8","A3","batch1","","974","","","tol_toboard","","","","","","","","","","","tol_peg_3","974","974","0","[[1,0,0],[3,0],[2]]","1","[[2,1,3],[0,0],[0]]","1","0","","","","","","5"
"","","","","","single-stim-button","342","1875153","0.0-4.0-13.1-0.1","6237ca974050879378c8fea8","A3","batch1","","4527","","","tol_tohand","","","","","","","","","","","tol_peg_1","4527","4527","0","[[0,0,0],[3,0],[2]]","2","[[2,1,3],[0,0],[0]]","1","0","","","","","","5"
"","","","","","single-stim-button","343","1875675","0.0-4.0-13.1-1.1","6237ca974050879378c8fea8","A3","batch1","","521","","","tol_toboard","","","","","","","","","","","tol_peg_2","521","521","0","[[0,0,0],[3,1],[2]]","2","[[2,1,3],[0,0],[0]]","1","0","","","","","","5"
"","","","","","single-stim-button","344","1876031","0.0-4.0-13.2-0.2","6237ca974050879378c8fea8","A3","batch1","","355","","","tol_tohand","","","","","","","","","","","tol_peg_3","355","355","0","[[0,0,0],[3,1],[0]]","3","[[2,1,3],[0,0],[0]]","1","0","","","","","","5"
