"success","timeout","failed_images","failed_audio","failed_video","trial_type","trial_index","time_elapsed","internal_node_id","subject_id","study_id","session_id","view_history","rt","task","stimulus","response","correct","mouse_click","stim_duration","block_duration","timing_post_trial","current_position","tol_num_moves_made","tol_target","tol_problem_id","tol_rt","key_press","possible_responses","tol_correct","preplanning","tol_rt_per_trial","tol_min_moves","item","answer","spm_correct","spm_rt","fiar_detect_rt","fiar_detect_correct","total_correct_fiar_detect","post_trial_gap","choices"
"true","false","[]","[]","[]","preload","0","1187","0.0-0.0","6245c8c532cdc22633ecbf3f","E1","batch5","","","","","","","","","","","","","","","","","","","","","","","","","","","","","",""
"true","","","","","fullscreen","1","9609","0.0-1.0-0.0","6245c8c532cdc22633ecbf3f","E1","batch5","","","","","","","","","","","","","","","","","","","","","","","","","","","","","",""
"true","","","","","fullscreen","2","12439","0.0-2.0-0.0","6245c8c532cdc22633ecbf3f","E1","batch5","","","","","","","","","","","","","","","","","","","","","","","","","","","","","",""
"","","","","","instructions","3","50034","0.0-2.0-1.0-0.0-0.0","6245c8c532cdc22633ecbf3f","E1","batch5","[{""page_index"":0,""viewing_time"":8086.600000023842},{""page_index"":1,""viewing_time"":3592.7000000476837},{""page_index"":2,""viewing_time"":2278.6999999284744},{""page_index"":3,""viewing_time"":9253.300000071526},{""page_index"":4,""viewing_time"":3466.0999999046326},{""page_index"":5,""viewing_time"":8664.600000023842},{""page_index"":6,""viewing_time"":2251.7000000476837}]","37594","tol-instructions","","","","","","","","","","","","","","","","","","","","","","","","","","",""
"","","","","","html-button-response","4","51066","0.0-2.0-1.0-1.0-0.0","6245c8c532cdc22633ecbf3f","E1","batch5","","1030.7999999523163","tol_enter_quiz","<p class=block-text> Let's answer a few questions <br>","0","","","","","","","","","","","","","","","","","","","","","","","","",""
"","","","","","html-button-response","5","55373","0.0-2.0-1.0-1.0-1.0","6245c8c532cdc22633ecbf3f","E1","batch5","","4305.600000023842","tol_quiz","<p class = block-text>True or False: You can only move the ball on top of a peg. <br></p>","0","true","","","","","","","","","","","","","","","","","","","","","","","",""
"","","","","","html-button-response","6","56314","0.0-2.0-1.0-1.0-2.0","6245c8c532cdc22633ecbf3f","E1","batch5","","939","tol_quiz_feedback","<p class = block-text>Correct! You can only move the ball on top of a peg.</p>","0","","","","","","","","","","","","","","","","","","","","","","","","",""
"","","","","","html-button-response","7","58367","0.0-2.0-1.0-1.0-3.0","6245c8c532cdc22633ecbf3f","E1","batch5","","2051.600000023842","tol_quiz","<p class = block-text>True or False: You should try to match your board with the target board with fewest moves possible. <br></p>","0","true","","","","","","","","","","","","","","","","","","","","","","","",""
"","","","","","html-button-response","8","58935","0.0-2.0-1.0-1.0-4.0","6245c8c532cdc22633ecbf3f","E1","batch5","","567.5","tol_quiz_feedback","<p class = block-text>Correct! </p>","0","","","","","","","","","","","","","","","","","","","","","","","","",""
"","","","","","html-button-response","9","60142","0.0-2.0-2.0","6245c8c532cdc22633ecbf3f","E1","batch5","","1205.2000000476837","","<p class=block-text> Now that you've understood the game, let's practice a few easier examples before we start!<br> <br>","0","","","","","","","","","","","","","","","","","","","","","","","","",""
"","","","","","single-stim-button","10","66132","0.0-2.0-3.0-0.0","6245c8c532cdc22633ecbf3f","E1","batch5","","5988","tol_practice","","","","tol_peg_2","5988","5988","0","[[1,2,0],[0,0],[0]]","1","[[1,2,0],[0,0],[3]]","practice","5988","","","","","","","","","","","","","","",""
"","","","","","single-stim-button","11","67161","0.0-2.0-3.0-1.0","6245c8c532cdc22633ecbf3f","E1","batch5","","1029","tol_practice","","","","tol_peg_3","1029","1029","0","[[1,2,0],[0,0],[3]]","1","[[1,2,0],[0,0],[3]]","practice","1029","","","","","","","","","","","","","","",""
"","","","","","poldrack-single-stim","12","68169","0.0-2.0-4.0","6245c8c532cdc22633ecbf3f","E1","batch5","","-1","tol_feedback","","","true","","1000","1000","500","","","","","","-1","none","true","","0","","","","","","","","","",""
"","","","","","single-stim-button","13","72373","0.0-2.0-5.0-0.0","6245c8c532cdc22633ecbf3f","E1","batch5","","4202","tol_practice","","","","tol_peg_1","4202","4202","0","[[1,0,0],[3,0],[0]]","2","[[0,0,0],[3,1],[2]]","practice","4202","","","","","","","","","","","","","","",""
"","","","","","single-stim-button","14","74227","0.0-2.0-5.0-1.0","6245c8c532cdc22633ecbf3f","E1","batch5","","1853","tol_practice","","","","tol_peg_3","1853","1853","0","[[1,0,0],[3,0],[2]]","2","[[0,0,0],[3,1],[2]]","practice","1853","","","","","","","","","","","","","","",""
"","","","","","single-stim-button","15","75324","0.0-2.0-5.1-0.1","6245c8c532cdc22633ecbf3f","E1","batch5","","1096","tol_practice","","","","tol_peg_1","1096","1096","0","[[0,0,0],[3,0],[2]]","3","[[0,0,0],[3,1],[2]]","practice","1096","","","","","","","","","","","","","","",""
"","","","","","single-stim-button","16","76079","0.0-2.0-5.1-1.1","6245c8c532cdc22633ecbf3f","E1","batch5","","754","tol_practice","","","","tol_peg_2","754","754","0","[[0,0,0],[3,1],[2]]","3","[[0,0,0],[3,1],[2]]","practice","754","","","","","","","","","","","","","","",""
"","","","","","poldrack-single-stim","17","77093","0.0-2.0-6.0","6245c8c532cdc22633ecbf3f","E1","batch5","","-1","tol_feedback","","","true","","1000","1000","500","","","","","","-1","none","true","","0","","","","","","","","","",""
"","","","","","single-stim-button","18","82697","0.0-2.0-7.0-0.0","6245c8c532cdc22633ecbf3f","E1","batch5","","5603","tol_practice","","","","tol_peg_2","5603","5603","0","[[1,2,0],[0,0],[0]]","4","[[1,0,0],[2,0],[3]]","practice","5603","","","","","","","","","","","","","","",""
"","","","","","single-stim-button","19","83675","0.0-2.0-7.0-1.0","6245c8c532cdc22633ecbf3f","E1","batch5","","977","tol_practice","","","","tol_peg_3","977","977","0","[[1,2,0],[0,0],[3]]","4","[[1,0,0],[2,0],[3]]","practice","977","","","","","","","","","","","","","","",""
"","","","","","single-stim-button","20","84379","0.0-2.0-7.1-0.1","6245c8c532cdc22633ecbf3f","E1","batch5","","703","tol_practice","","","","tol_peg_1","703","703","0","[[1,0,0],[0,0],[3]]","5","[[1,0,0],[2,0],[3]]","practice","703","","","","","","","","","","","","","","",""
"","","","","","single-stim-button","21","85004","0.0-2.0-7.1-1.1","6245c8c532cdc22633ecbf3f","E1","batch5","","624","tol_practice","","","","tol_peg_2","624","624","0","[[1,0,0],[2,0],[3]]","5","[[1,0,0],[2,0],[3]]","practice","624","","","","","","","","","","","","","","",""
"","","","","","poldrack-single-stim","22","86015","0.0-2.0-8.0","6245c8c532cdc22633ecbf3f","E1","batch5","","-1","tol_feedback","","","true","","1000","1000","500","","","","","","-1","none","true","","0","","","","","","","","","",""
"","","","","","html-button-response","23","87318","0.0-2.0-9.0","6245c8c532cdc22633ecbf3f","E1","batch5","","1301.2000000476837","tol_instruction","<div class = centerbox><p class = center-block-text>Great job! You are done with practice trials<br>You are about to start official trials.<br> <br> Problem <strong>1</strong> out of 25 problems</p></div>","0","","","","","","","","","","","","","","","","","","","","","","","","",""
"","","","","","single-stim-button","24","93279","0.0-2.0-10.0-0.0","6245c8c532cdc22633ecbf3f","E1","batch5","","4949","tol_tohand","","","","tol_peg_1","4949","4949","0","[[1,0,0],[3,0],[0]]","1","[[1,3,0],[2,0],[0]]","0","0","","","","","","3","","","","","","","","",""
"","","","","","single-stim-button","25","94559","0.0-2.0-10.0-1.0","6245c8c532cdc22633ecbf3f","E1","batch5","","1279","tol_toboard","","","","tol_peg_3","1279","1279","0","[[1,0,0],[3,0],[2]]","1","[[1,3,0],[2,0],[0]]","0","0","","","","","","3","","","","","","","","",""
"","","","","","single-stim-button","26","95281","0.0-2.0-10.1-0.1","6245c8c532cdc22633ecbf3f","E1","batch5","","721","tol_tohand","","","","tol_peg_2","721","721","0","[[1,0,0],[0,0],[2]]","2","[[1,3,0],[2,0],[0]]","0","0","","","","","","3","","","","","","","","",""
"","","","","","single-stim-button","27","96009","0.0-2.0-10.1-1.1","6245c8c532cdc22633ecbf3f","E1","batch5","","728","tol_toboard","","","","tol_peg_1","728","728","0","[[1,3,0],[0,0],[2]]","2","[[1,3,0],[2,0],[0]]","0","0","","","","","","3","","","","","","","","",""
"","","","","","single-stim-button","28","96620","0.0-2.0-10.2-0.2","6245c8c532cdc22633ecbf3f","E1","batch5","","610","tol_tohand","","","","tol_peg_3","610","610","0","[[1,3,0],[0,0],[0]]","3","[[1,3,0],[2,0],[0]]","0","0","","","","","","3","","","","","","","","",""
"","","","","","single-stim-button","29","97420","0.0-2.0-10.2-1.2","6245c8c532cdc22633ecbf3f","E1","batch5","","799","tol_toboard","","","","tol_peg_2","799","799","0","[[1,3,0],[2,0],[0]]","3","[[1,3,0],[2,0],[0]]","0","0","","","","","","3","","","","","","","","",""
"","","","","","poldrack-single-stim","30","98428","0.0-2.0-11.0","6245c8c532cdc22633ecbf3f","E1","batch5","","-1","tol_feedback","","","true","","1000","1000","500","","","","","","-1","none","true","4949","6280","","","","","","","","","",""
"","","","","","html-button-response","31","99517","0.0-2.0-12.0","6245c8c532cdc22633ecbf3f","E1","batch5","","1087.6999999284744","tol_trial_num","<div class = centerbox><p class = center-block-text>problem <strong>2</strong> out of 25 problems</p></div>","0","","","","","","","","","","","","","","","","","","","","","","","","",""
"","","","","","single-stim-button","32","104447","0.0-2.0-13.0-0.0","6245c8c532cdc22633ecbf3f","E1","batch5","","4928","tol_tohand","","","","tol_peg_1","4928","4928","0","[[1,0,0],[3,0],[0]]","1","[[2,1,3],[0,0],[0]]","1","0","","","","","","5","","","","","","","","",""
"","","","","","single-stim-button","33","105285","0.0-2.0-13.0-1.0","6245c8c532cdc22633ecbf3f","E1","batch5","","837","tol_toboard","","","","tol_peg_3","837","837","0","[[1,0,0],[3,0],[2]]","1","[[2,1,3],[0,0],[0]]","1","0","","","","","","5","","","","","","","","",""
"","","","","","single-stim-button","34","106673","0.0-2.0-13.1-0.1","6245c8c532cdc22633ecbf3f","E1","batch5","","1386","tol_tohand","","","","tol_peg_1","1386","1386","0","[[0,0,0],[3,0],[2]]","2","[[2,1,3],[0,0],[0]]","1","0","","","","","","5","","","","","","","","",""
"","","","","","single-stim-button","35","107752","0.0-2.0-13.1-1.1","6245c8c532cdc22633ecbf3f","E1","batch5","","1078","tol_toboard","","","","tol_peg_2","1078","1078","0","[[0,0,0],[3,1],[2]]","2","[[2,1,3],[0,0],[0]]","1","0","","","","","","5","","","","","","","","",""
"","","","","","single-stim-button","36","108626","0.0-2.0-13.2-0.2","6245c8c532cdc22633ecbf3f","E1","batch5","","873","tol_tohand","","","","tol_peg_3","873","873","0","[[0,0,0],[3,1],[0]]","3","[[2,1,3],[0,0],[0]]","1","0","","","","","","5","","","","","","","","",""
"","","","","","single-stim-button","37","109445","0.0-2.0-13.2-1.2","6245c8c532cdc22633ecbf3f","E1","batch5","","818","tol_toboard","","","","tol_peg_1","818","818","0","[[2,0,0],[3,1],[0]]","3","[[2,1,3],[0,0],[0]]","1","0","","","","","","5","","","","","","","","",""
"","","","","","single-stim-button","38","110104","0.0-2.0-13.3-0.3","6245c8c532cdc22633ecbf3f","E1","batch5","","659","tol_tohand","","","","tol_peg_2","659","659","0","[[2,0,0],[3,0],[0]]","4","[[2,1,3],[0,0],[0]]","1","0","","","","","","5","","","","","","","","",""
"","","","","","single-stim-button","39","110784","0.0-2.0-13.3-1.3","6245c8c532cdc22633ecbf3f","E1","batch5","","678","tol_toboard","","","","tol_peg_1","678","678","0","[[2,1,0],[3,0],[0]]","4","[[2,1,3],[0,0],[0]]","1","0","","","","","","5","","","","","","","","",""
"","","","","","single-stim-button","40","111401","0.0-2.0-13.4-0.4","6245c8c532cdc22633ecbf3f","E1","batch5","","617","tol_tohand","","","","tol_peg_2","617","617","0","[[2,1,0],[0,0],[0]]","5","[[2,1,3],[0,0],[0]]","1","0","","","","","","5","","","","","","","","",""
"","","","","","single-stim-button","41","112084","0.0-2.0-13.4-1.4","6245c8c532cdc22633ecbf3f","E1","batch5","","682","tol_toboard","","","","tol_peg_1","682","682","0","[[2,1,3],[0,0],[0]]","5","[[2,1,3],[0,0],[0]]","1","0","","","","","","5","","","","","","","","",""
"","","","","","poldrack-single-stim","42","113087","0.0-2.0-14.0","6245c8c532cdc22633ecbf3f","E1","batch5","","-1","tol_feedback","","","true","","1000","1000","500","","","","","","-1","none","true","4928","8463","","","","","","","","","",""
"","","","","","html-button-response","43","113780","0.0-2.0-15.0","6245c8c532cdc22633ecbf3f","E1","batch5","","692.0999999046326","tol_trial_num","<div class = centerbox><p class = center-block-text>problem <strong>3</strong> out of 25 problems</p></div>","0","","","","","","","","","","","","","","","","","","","","","","","","",""
"","","","","","single-stim-button","44","118696","0.0-2.0-16.0-0.0","6245c8c532cdc22633ecbf3f","E1","batch5","","4915","tol_tohand","","","","tol_peg_1","4915","4915","0","[[2,0,0],[0,0],[1]]","1","[[1,2,0],[3,0],[0]]","2","0","","","","","","4","","","","","","","","",""
"","","","","","single-stim-button","45","119543","0.0-2.0-16.0-1.0","6245c8c532cdc22633ecbf3f","E1","batch5","","844","tol_toboard","","","","tol_peg_2","844","844","0","[[2,0,0],[3,0],[1]]","1","[[1,2,0],[3,0],[0]]","2","0","","","","","","4","","","","","","","","",""
"","","","","","single-stim-button","46","121345","0.0-2.0-16.1-0.1","6245c8c532cdc22633ecbf3f","E1","batch5","","1801","tol_tohand","","","","tol_peg_1","1801","1801","0","[[0,0,0],[3,0],[1]]","2","[[1,2,0],[3,0],[0]]","2","0","","","","","","4","","","","","","","","",""
"","","","","","single-stim-button","47","123964","0.0-2.0-16.1-1.1","6245c8c532cdc22633ecbf3f","E1","batch5","","2618","tol_toboard","","","","tol_peg_2","2618","2618","0","[[0,0,0],[3,2],[1]]","2","[[1,2,0],[3,0],[0]]","2","0","","","","","","4","","","","","","","","",""
"","","","","","single-stim-button","48","124723","0.0-2.0-16.2-0.2","6245c8c532cdc22633ecbf3f","E1","batch5","","758","tol_tohand","","","","tol_peg_3","758","758","0","[[0,0,0],[3,2],[0]]","3","[[1,2,0],[3,0],[0]]","2","0","","","","","","4","","","","","","","","",""
"","","","","","single-stim-button","49","125751","0.0-2.0-16.2-1.2","6245c8c532cdc22633ecbf3f","E1","batch5","","1027","tol_toboard","","","","tol_peg_1","1027","1027","0","[[1,0,0],[3,2],[0]]","3","[[1,2,0],[3,0],[0]]","2","0","","","","","","4","","","","","","","","",""
"","","","","","single-stim-button","50","126420","0.0-2.0-16.3-0.3","6245c8c532cdc22633ecbf3f","E1","batch5","","668","tol_tohand","","","","tol_peg_2","668","668","0","[[1,0,0],[3,0],[0]]","4","[[1,2,0],[3,0],[0]]","2","0","","","","","","4","","","","","","","","",""
"","","","","","single-stim-button","51","127193","0.0-2.0-16.3-1.3","6245c8c532cdc22633ecbf3f","E1","batch5","","773","tol_toboard","","","","tol_peg_1","773","773","0","[[1,2,0],[3,0],[0]]","4","[[1,2,0],[3,0],[0]]","2","0","","","","","","4","","","","","","","","",""
"","","","","","poldrack-single-stim","52","128203","0.0-2.0-17.0","6245c8c532cdc22633ecbf3f","E1","batch5","","-1","tol_feedback","","","true","","1000","1000","500","","","","","","-1","none","true","4915","8142","","","","","","","","","",""
"","","","","","html-button-response","53","128989","0.0-2.0-18.0","6245c8c532cdc22633ecbf3f","E1","batch5","","784.5","tol_trial_num","<div class = centerbox><p class = center-block-text>problem <strong>4</strong> out of 25 problems</p></div>","0","","","","","","","","","","","","","","","","","","","","","","","","",""
"","","","","","single-stim-button","54","132938","0.0-2.0-19.0-0.0","6245c8c532cdc22633ecbf3f","E1","batch5","","3947","tol_tohand","","","","tol_peg_2","3947","3947","0","[[3,0,0],[2,0],[0]]","1","[[3,0,0],[1,0],[2]]","3","0","","","","","","3","","","","","","","","",""
"","","","","","single-stim-button","55","135071","0.0-2.0-19.0-1.0","6245c8c532cdc22633ecbf3f","E1","batch5","","2132","tol_toboard","","","","tol_peg_3","2132","2132","0","[[3,0,0],[2,0],[1]]","1","[[3,0,0],[1,0],[2]]","3","0","","","","","","3","","","","","","","","",""
"","","","","","single-stim-button","56","136155","0.0-2.0-19.1-0.1","6245c8c532cdc22633ecbf3f","E1","batch5","","1083","tol_tohand","","","","tol_peg_2","1083","1083","0","[[3,0,0],[0,0],[1]]","2","[[3,0,0],[1,0],[2]]","3","0","","","","","","3","","","","","","","","",""
"","","","","","single-stim-button","57","137145","0.0-2.0-19.1-1.1","6245c8c532cdc22633ecbf3f","E1","batch5","","988","tol_toboard","","","","tol_peg_1","988","988","0","[[3,2,0],[0,0],[1]]","2","[[3,0,0],[1,0],[2]]","3","0","","","","","","3","","","","","","","","",""
"","","","","","single-stim-button","58","137898","0.0-2.0-19.2-0.2","6245c8c532cdc22633ecbf3f","E1","batch5","","752","tol_tohand","","","","tol_peg_3","752","752","0","[[3,2,0],[0,0],[0]]","3","[[3,0,0],[1,0],[2]]","3","0","","","","","","3","","","","","","","","",""
"","","","","","single-stim-button","59","138539","0.0-2.0-19.2-1.2","6245c8c532cdc22633ecbf3f","E1","batch5","","639","tol_toboard","","","","tol_peg_2","639","639","0","[[3,2,0],[1,0],[0]]","3","[[3,0,0],[1,0],[2]]","3","0","","","","","","3","","","","","","","","",""
"","","","","","single-stim-button","60","139160","0.0-2.0-19.3-0.3","6245c8c532cdc22633ecbf3f","E1","batch5","","620","tol_tohand","","","","tol_peg_1","620","620","0","[[3,0,0],[1,0],[0]]","4","[[3,0,0],[1,0],[2]]","3","0","","","","","","3","","","","","","","","",""
"","","","","","single-stim-button","61","140251","0.0-2.0-19.3-1.3","6245c8c532cdc22633ecbf3f","E1","batch5","","1091","tol_toboard","","","","tol_peg_3","1091","1091","0","[[3,0,0],[1,0],[2]]","4","[[3,0,0],[1,0],[2]]","3","0","","","","","","3","","","","","","","","",""
"","","","","","poldrack-single-stim","62","141264","0.0-2.0-20.0","6245c8c532cdc22633ecbf3f","E1","batch5","","-1","tol_feedback","","","true","","1000","1000","500","","","","","","-1","none","true","3947","6402","","","","","","","","","",""
"","","","","","html-button-response","63","142183","0.0-2.0-21.0","6245c8c532cdc22633ecbf3f","E1","batch5","","917.3999999761581","tol_trial_num","<div class = centerbox><p class = center-block-text>problem <strong>5</strong> out of 25 problems</p></div>","0","","","","","","","","","","","","","","","","","","","","","","","","",""
"","","","","","single-stim-button","64","148586","0.0-2.0-22.0-0.0","6245c8c532cdc22633ecbf3f","E1","batch5","","6402","tol_tohand","","","","tol_peg_2","6402","6402","0","[[1,0,0],[0,0],[3]]","1","[[0,0,0],[1,2],[3]]","4","0","","","","","","7","","","","","","","","",""
"","","","","","single-stim-button","65","152591","0.0-2.0-22.0-1.0","6245c8c532cdc22633ecbf3f","E1","batch5","","4004","tol_toboard","","","","tol_peg_2","4004","4004","0","[[1,0,0],[2,0],[3]]","1","[[0,0,0],[1,2],[3]]","4","0","","","","","","7","","","","","","","","",""
"","","","","","single-stim-button","66","154428","0.0-2.0-22.1-0.1","6245c8c532cdc22633ecbf3f","E1","batch5","","1836","tol_tohand","","","","tol_peg_1","1836","1836","0","[[0,0,0],[2,0],[3]]","2","[[0,0,0],[1,2],[3]]","4","0","","","","","","7","","","","","","","","",""
"","","","","","single-stim-button","67","158486","0.0-2.0-22.1-1.1","6245c8c532cdc22633ecbf3f","E1","batch5","","4057","tol_toboard","","","","tol_peg_1","4057","4057","0","[[1,0,0],[2,0],[3]]","2","[[0,0,0],[1,2],[3]]","4","0","","","","","","7","","","","","","","","",""
"","","","","","single-stim-button","68","159379","0.0-2.0-22.2-0.2","6245c8c532cdc22633ecbf3f","E1","batch5","","892","tol_tohand","","","","tol_peg_3","892","892","0","[[1,0,0],[2,0],[0]]","3","[[0,0,0],[1,2],[3]]","4","0","","","","","","7","","","","","","","","",""
"","","","","","single-stim-button","69","160231","0.0-2.0-22.2-1.2","6245c8c532cdc22633ecbf3f","E1","batch5","","851","tol_toboard","","","","tol_peg_1","851","851","0","[[1,3,0],[2,0],[0]]","3","[[0,0,0],[1,2],[3]]","4","0","","","","","","7","","","","","","","","",""
"","","","","","single-stim-button","70","161980","0.0-2.0-22.3-0.3","6245c8c532cdc22633ecbf3f","E1","batch5","","1749","tol_tohand","","","","tol_peg_2","1749","1749","0","[[1,3,0],[0,0],[0]]","4","[[0,0,0],[1,2],[3]]","4","0","","","","","","7","","","","","","","","",""
"","","","","","single-stim-button","71","163417","0.0-2.0-22.3-1.3","6245c8c532cdc22633ecbf3f","E1","batch5","","1436","tol_toboard","","","","tol_peg_3","1436","1436","0","[[1,3,0],[0,0],[2]]","4","[[0,0,0],[1,2],[3]]","4","0","","","","","","7","","","","","","","","",""
"","","","","","single-stim-button","72","164471","0.0-2.0-22.4-0.4","6245c8c532cdc22633ecbf3f","E1","batch5","","1054","tol_tohand","","","","tol_peg_1","1054","1054","0","[[1,0,0],[0,0],[2]]","5","[[0,0,0],[1,2],[3]]","4","0","","","","","","7","","","","","","","","",""
"","","","","","single-stim-button","73","165830","0.0-2.0-22.4-1.4","6245c8c532cdc22633ecbf3f","E1","batch5","","1357","tol_toboard","","","","tol_peg_2","1357","1357","0","[[1,0,0],[3,0],[2]]","5","[[0,0,0],[1,2],[3]]","4","0","","","","","","7","","","","","","","","",""
"","","","","","single-stim-button","74","168929","0.0-2.0-22.5-0.5","6245c8c532cdc22633ecbf3f","E1","batch5","","3098","tol_tohand","","","","tol_peg_1","3098","3098","0","[[0,0,0],[3,0],[2]]","6","[[0,0,0],[1,2],[3]]","4","0","","","","","","7","","","","","","","","",""
"","","","","","single-stim-button","75","171001","0.0-2.0-22.5-1.5","6245c8c532cdc22633ecbf3f","E1","batch5","","2071","tol_toboard","","","","tol_peg_1","2071","2071","0","[[1,0,0],[3,0],[2]]","6","[[0,0,0],[1,2],[3]]","4","0","","","","","","7","","","","","","","","",""
"","","","","","single-stim-button","76","172061","0.0-2.0-22.6-0.6","6245c8c532cdc22633ecbf3f","E1","batch5","","1059","tol_tohand","","","","tol_peg_2","1059","1059","0","[[1,0,0],[0,0],[2]]","7","[[0,0,0],[1,2],[3]]","4","0","","","","","","7","","","","","","","","",""
"","","","","","single-stim-button","77","176406","0.0-2.0-22.6-1.6","6245c8c532cdc22633ecbf3f","E1","batch5","","4344","tol_toboard","","","","tol_peg_2","4344","4344","0","[[1,0,0],[3,0],[2]]","7","[[0,0,0],[1,2],[3]]","4","0","","","","","","7","","","","","","","","",""
"","","","","","single-stim-button","78","177269","0.0-2.0-22.7-0.7","6245c8c532cdc22633ecbf3f","E1","batch5","","862","tol_tohand","","","","tol_peg_1","862","862","0","[[0,0,0],[3,0],[2]]","8","[[0,0,0],[1,2],[3]]","4","0","","","","","","7","","","","","","","","",""
"","","","","","single-stim-button","79","179939","0.0-2.0-22.7-1.7","6245c8c532cdc22633ecbf3f","E1","batch5","","2669","tol_toboard","","","","tol_peg_1","2669","2669","0","[[1,0,0],[3,0],[2]]","8","[[0,0,0],[1,2],[3]]","4","0","","","","","","7","","","","","","","","",""
"","","","","","single-stim-button","80","180828","0.0-2.0-22.8-0.8","6245c8c532cdc22633ecbf3f","E1","batch5","","888","tol_tohand","","","","tol_peg_2","888","888","0","[[1,0,0],[0,0],[2]]","9","[[0,0,0],[1,2],[3]]","4","0","","","","","","7","","","","","","","","",""
"","","","","","single-stim-button","81","181970","0.0-2.0-22.8-1.8","6245c8c532cdc22633ecbf3f","E1","batch5","","1142","tol_toboard","","","","tol_peg_1","1142","1142","0","[[1,3,0],[0,0],[2]]","9","[[0,0,0],[1,2],[3]]","4","0","","","","","","7","","","","","","","","",""
"","","","","","single-stim-button","82","182569","0.0-2.0-22.9-0.9","6245c8c532cdc22633ecbf3f","E1","batch5","","598","tol_tohand","","","","tol_peg_1","598","598","0","[[1,0,0],[0,0],[2]]","10","[[0,0,0],[1,2],[3]]","4","0","","","","","","7","","","","","","","","",""
"","","","","","single-stim-button","83","188143","0.0-2.0-22.9-1.9","6245c8c532cdc22633ecbf3f","E1","batch5","","5574","tol_toboard","","","","tol_peg_1","5574","5574","0","[[1,3,0],[0,0],[2]]","10","[[0,0,0],[1,2],[3]]","4","0","","","","","","7","","","","","","","","",""
"","","","","","single-stim-button","84","189234","0.0-2.0-22.10-0.10","6245c8c532cdc22633ecbf3f","E1","batch5","","1089","tol_tohand","","","","tol_peg_3","1089","1089","0","[[1,3,0],[0,0],[0]]","11","[[0,0,0],[1,2],[3]]","4","0","","","","","","7","","","","","","","","",""
"","","","","","single-stim-button","85","190485","0.0-2.0-22.10-1.10","6245c8c532cdc22633ecbf3f","E1","batch5","","1250","tol_toboard","","","","tol_peg_2","1250","1250","0","[[1,3,0],[2,0],[0]]","11","[[0,0,0],[1,2],[3]]","4","0","","","","","","7","","","","","","","","",""
"","","","","","single-stim-button","86","192031","0.0-2.0-22.11-0.11","6245c8c532cdc22633ecbf3f","E1","batch5","","1545","tol_tohand","","","","tol_peg_1","1545","1545","0","[[1,0,0],[2,0],[0]]","12","[[0,0,0],[1,2],[3]]","4","0","","","","","","7","","","","","","","","",""
"","","","","","single-stim-button","87","193120","0.0-2.0-22.11-1.11","6245c8c532cdc22633ecbf3f","E1","batch5","","1088","tol_toboard","","","","tol_peg_3","1088","1088","0","[[1,0,0],[2,0],[3]]","12","[[0,0,0],[1,2],[3]]","4","0","","","","","","7","","","","","","","","",""
"","","","","","single-stim-button","88","194876","0.0-2.0-22.12-0.12","6245c8c532cdc22633ecbf3f","E1","batch5","","1755","tol_tohand","","","","tol_peg_1","1755","1755","0","[[0,0,0],[2,0],[3]]","13","[[0,0,0],[1,2],[3]]","4","0","","","","","","7","","","","","","","","",""
"","","","","","single-stim-button","89","197999","0.0-2.0-22.12-1.12","6245c8c532cdc22633ecbf3f","E1","batch5","","3122","tol_toboard","","","","tol_peg_1","3122","3122","0","[[1,0,0],[2,0],[3]]","13","[[0,0,0],[1,2],[3]]","4","0","","","","","","7","","","","","","","","",""
"","","","","","single-stim-button","90","198672","0.0-2.0-22.13-0.13","6245c8c532cdc22633ecbf3f","E1","batch5","","672","tol_tohand","","","","tol_peg_2","672","672","0","[[1,0,0],[0,0],[3]]","14","[[0,0,0],[1,2],[3]]","4","0","","","","","","7","","","","","","","","",""
"","","","","","single-stim-button","91","199916","0.0-2.0-22.13-1.13","6245c8c532cdc22633ecbf3f","E1","batch5","","1242","tol_toboard","","","","tol_peg_2","1242","1242","0","[[1,0,0],[2,0],[3]]","14","[[0,0,0],[1,2],[3]]","4","0","","","","","","7","","","","","","","","",""
"","","","","","single-stim-button","92","202662","0.0-2.0-22.14-0.14","6245c8c532cdc22633ecbf3f","E1","batch5","","2745","tol_tohand","","","","tol_peg_2","2745","2745","0","[[1,0,0],[0,0],[3]]","15","[[0,0,0],[1,2],[3]]","4","0","","","","","","7","","","","","","","","",""
"","","","","","single-stim-button","93","203789","0.0-2.0-22.14-1.14","6245c8c532cdc22633ecbf3f","E1","batch5","","1127","tol_toboard","","","","tol_peg_2","1127","1127","0","[[1,0,0],[2,0],[3]]","15","[[0,0,0],[1,2],[3]]","4","0","","","","","","7","","","","","","","","",""
"","","","","","single-stim-button","94","204418","0.0-2.0-22.15-0.15","6245c8c532cdc22633ecbf3f","E1","batch5","","628","tol_tohand","","","","tol_peg_1","628","628","0","[[0,0,0],[2,0],[3]]","16","[[0,0,0],[1,2],[3]]","4","0","","","","","","7","","","","","","","","",""
"","","","","","single-stim-button","95","205370","0.0-2.0-22.15-1.15","6245c8c532cdc22633ecbf3f","E1","batch5","","950","tol_toboard","","","","tol_peg_2","950","950","0","[[0,0,0],[2,1],[3]]","16","[[0,0,0],[1,2],[3]]","4","0","","","","","","7","","","","","","","","",""
"","","","","","single-stim-button","96","209987","0.0-2.0-22.16-0.16","6245c8c532cdc22633ecbf3f","E1","batch5","","4616","tol_tohand","","","","tol_peg_3","4616","4616","0","[[0,0,0],[2,1],[0]]","17","[[0,0,0],[1,2],[3]]","4","0","","","","","","7","","","","","","","","",""
"","","","","","single-stim-button","97","210752","0.0-2.0-22.16-1.16","6245c8c532cdc22633ecbf3f","E1","batch5","","764","tol_toboard","","","","tol_peg_1","764","764","0","[[3,0,0],[2,1],[0]]","17","[[0,0,0],[1,2],[3]]","4","0","","","","","","7","","","","","","","","",""
"","","","","","single-stim-button","98","212431","0.0-2.0-22.17-0.17","6245c8c532cdc22633ecbf3f","E1","batch5","","1679","tol_tohand","","","","tol_peg_2","1679","1679","0","[[3,0,0],[2,0],[0]]","18","[[0,0,0],[1,2],[3]]","4","0","","","","","","7","","","","","","","","",""
"","","","","","single-stim-button","99","215871","0.0-2.0-22.17-1.17","6245c8c532cdc22633ecbf3f","E1","batch5","","3439","tol_toboard","","","","tol_peg_1","3439","3439","0","[[3,1,0],[2,0],[0]]","18","[[0,0,0],[1,2],[3]]","4","0","","","","","","7","","","","","","","","",""
"","","","","","single-stim-button","100","217725","0.0-2.0-22.18-0.18","6245c8c532cdc22633ecbf3f","E1","batch5","","1854","tol_tohand","","","","tol_peg_2","1854","1854","0","[[3,1,0],[0,0],[0]]","19","[[0,0,0],[1,2],[3]]","4","0","","","","","","7","","","","","","","","",""
"","","","","","single-stim-button","101","218599","0.0-2.0-22.18-1.18","6245c8c532cdc22633ecbf3f","E1","batch5","","873","tol_toboard","","","","tol_peg_3","873","873","0","[[3,1,0],[0,0],[2]]","19","[[0,0,0],[1,2],[3]]","4","0","","","","","","7","","","","","","","","",""
"","","","","","single-stim-button","102","219518","0.0-2.0-22.19-0.19","6245c8c532cdc22633ecbf3f","E1","batch5","","918","tol_tohand","","","","tol_peg_1","918","918","0","[[3,0,0],[0,0],[2]]","20","[[0,0,0],[1,2],[3]]","4","0","","","","","","7","","","","","","","","",""
"","","","","","single-stim-button","103","220182","0.0-2.0-22.19-1.19","6245c8c532cdc22633ecbf3f","E1","batch5","","664","tol_toboard","","","","tol_peg_2","664","664","0","[[3,0,0],[1,0],[2]]","20","[[0,0,0],[1,2],[3]]","4","0","","","","","","7","","","","","","","","",""
"","","","","","single-stim-button","104","220931","0.0-2.0-22.20-0.20","6245c8c532cdc22633ecbf3f","E1","batch5","","748","tol_tohand","","","","tol_peg_3","748","748","0","[[3,0,0],[1,0],[0]]","21","[[0,0,0],[1,2],[3]]","4","0","","","","","","7","","","","","","","","",""
"","","","","","single-stim-button","105","221776","0.0-2.0-22.20-1.20","6245c8c532cdc22633ecbf3f","E1","batch5","","844","tol_toboard","","","","tol_peg_2","844","844","0","[[3,0,0],[1,2],[0]]","21","[[0,0,0],[1,2],[3]]","4","0","","","","","","7","","","","","","","","",""
"","","","","","single-stim-button","106","222438","0.0-2.0-22.21-0.21","6245c8c532cdc22633ecbf3f","E1","batch5","","660","tol_tohand","","","","tol_peg_1","660","660","0","[[0,0,0],[1,2],[0]]","22","[[0,0,0],[1,2],[3]]","4","0","","","","","","7","","","","","","","","",""
"","","","","","single-stim-button","107","223221","0.0-2.0-22.21-1.21","6245c8c532cdc22633ecbf3f","E1","batch5","","783","tol_toboard","","","","tol_peg_3","783","783","0","[[0,0,0],[1,2],[3]]","22","[[0,0,0],[1,2],[3]]","4","0","","","","","","7","","","","","","","","",""
"","","","","","poldrack-single-stim","108","224224","0.0-2.0-23.0","6245c8c532cdc22633ecbf3f","E1","batch5","","-1","tol_feedback","","","true","","1000","1000","500","","","","","","-1","none","true","6402","37347","","","","","","","","","",""
"","","","","","html-button-response","109","227868","0.0-2.0-24.0","6245c8c532cdc22633ecbf3f","E1","batch5","","3642.399999976158","tol_trial_num","<div class = centerbox><p class = center-block-text>problem <strong>6</strong> out of 25 problems</p></div>","0","","","","","","","","","","","","","","","","","","","","","","","","",""
"","","","","","single-stim-button","110","235683","0.0-2.0-25.0-0.0","6245c8c532cdc22633ecbf3f","E1","batch5","","7814","tol_tohand","","","","tol_peg_2","7814","7814","0","[[0,0,0],[1,0],[3]]","1","[[1,0,0],[2,3],[0]]","5","0","","","","","","6","","","","","","","","",""
"","","","","","single-stim-button","111","237592","0.0-2.0-25.0-1.0","6245c8c532cdc22633ecbf3f","E1","batch5","","1907","tol_toboard","","","","tol_peg_1","1907","1907","0","[[2,0,0],[1,0],[3]]","1","[[1,0,0],[2,3],[0]]","5","0","","","","","","6","","","","","","","","",""
"","","","","","single-stim-button","112","239071","0.0-2.0-25.1-0.1","6245c8c532cdc22633ecbf3f","E1","batch5","","1478","tol_tohand","","","","tol_peg_2","1478","1478","0","[[2,0,0],[0,0],[3]]","2","[[1,0,0],[2,3],[0]]","5","0","","","","","","6","","","","","","","","",""
"","","","","","single-stim-button","113","240370","0.0-2.0-25.1-1.1","6245c8c532cdc22633ecbf3f","E1","batch5","","1299","tol_toboard","","","","tol_peg_2","1299","1299","0","[[2,0,0],[1,0],[3]]","2","[[1,0,0],[2,3],[0]]","5","0","","","","","","6","","","","","","","","",""
"","","","","","single-stim-button","114","240899","0.0-2.0-25.2-0.2","6245c8c532cdc22633ecbf3f","E1","batch5","","528","tol_tohand","","","","tol_peg_3","528","528","0","[[2,0,0],[1,0],[0]]","3","[[1,0,0],[2,3],[0]]","5","0","","","","","","6","","","","","","","","",""
"","","","","","single-stim-button","115","241705","0.0-2.0-25.2-1.2","6245c8c532cdc22633ecbf3f","E1","batch5","","805","tol_toboard","","","","tol_peg_1","805","805","0","[[2,3,0],[1,0],[0]]","3","[[1,0,0],[2,3],[0]]","5","0","","","","","","6","","","","","","","","",""
"","","","","","single-stim-button","116","243088","0.0-2.0-25.3-0.3","6245c8c532cdc22633ecbf3f","E1","batch5","","1382","tol_tohand","","","","tol_peg_2","1382","1382","0","[[2,3,0],[0,0],[0]]","4","[[1,0,0],[2,3],[0]]","5","0","","","","","","6","","","","","","","","",""
"","","","","","single-stim-button","117","243832","0.0-2.0-25.3-1.3","6245c8c532cdc22633ecbf3f","E1","batch5","","743","tol_toboard","","","","tol_peg_3","743","743","0","[[2,3,0],[0,0],[1]]","4","[[1,0,0],[2,3],[0]]","5","0","","","","","","6","","","","","","","","",""
"","","","","","single-stim-button","118","246065","0.0-2.0-25.4-0.4","6245c8c532cdc22633ecbf3f","E1","batch5","","2232","tol_tohand","","","","tol_peg_1","2232","2232","0","[[2,0,0],[0,0],[1]]","5","[[1,0,0],[2,3],[0]]","5","0","","","","","","6","","","","","","","","",""
"","","","","","single-stim-button","119","246978","0.0-2.0-25.4-1.4","6245c8c532cdc22633ecbf3f","E1","batch5","","911","tol_toboard","","","","tol_peg_2","911","911","0","[[2,0,0],[3,0],[1]]","5","[[1,0,0],[2,3],[0]]","5","0","","","","","","6","","","","","","","","",""
"","","","","","single-stim-button","120","248353","0.0-2.0-25.5-0.5","6245c8c532cdc22633ecbf3f","E1","batch5","","1374","tol_tohand","","","","tol_peg_1","1374","1374","0","[[0,0,0],[3,0],[1]]","6","[[1,0,0],[2,3],[0]]","5","0","","","","","","6","","","","","","","","",""
"","","","","","single-stim-button","121","249658","0.0-2.0-25.5-1.5","6245c8c532cdc22633ecbf3f","E1","batch5","","1304","tol_toboard","","","","tol_peg_2","1304","1304","0","[[0,0,0],[3,2],[1]]","6","[[1,0,0],[2,3],[0]]","5","0","","","","","","6","","","","","","","","",""
"","","","","","single-stim-button","122","250501","0.0-2.0-25.6-0.6","6245c8c532cdc22633ecbf3f","E1","batch5","","843","tol_tohand","","","","tol_peg_3","843","843","0","[[0,0,0],[3,2],[0]]","7","[[1,0,0],[2,3],[0]]","5","0","","","","","","6","","","","","","","","",""
"","","","","","single-stim-button","123","251426","0.0-2.0-25.6-1.6","6245c8c532cdc22633ecbf3f","E1","batch5","","924","tol_toboard","","","","tol_peg_1","924","924","0","[[1,0,0],[3,2],[0]]","7","[[1,0,0],[2,3],[0]]","5","0","","","","","","6","","","","","","","","",""
"","","","","","single-stim-button","124","252444","0.0-2.0-25.7-0.7","6245c8c532cdc22633ecbf3f","E1","batch5","","1017","tol_tohand","","","","tol_peg_2","1017","1017","0","[[1,0,0],[3,0],[0]]","8","[[1,0,0],[2,3],[0]]","5","0","","","","","","6","","","","","","","","",""
"","","","","","single-stim-button","125","253866","0.0-2.0-25.7-1.7","6245c8c532cdc22633ecbf3f","E1","batch5","","1420","tol_toboard","","","","tol_peg_3","1420","1420","0","[[1,0,0],[3,0],[2]]","8","[[1,0,0],[2,3],[0]]","5","0","","","","","","6","","","","","","","","",""
"","","","","","single-stim-button","126","254620","0.0-2.0-25.8-0.8","6245c8c532cdc22633ecbf3f","E1","batch5","","752","tol_tohand","","","","tol_peg_2","752","752","0","[[1,0,0],[0,0],[2]]","9","[[1,0,0],[2,3],[0]]","5","0","","","","","","6","","","","","","","","",""
"","","","","","single-stim-button","127","255275","0.0-2.0-25.8-1.8","6245c8c532cdc22633ecbf3f","E1","batch5","","655","tol_toboard","","","","tol_peg_1","655","655","0","[[1,3,0],[0,0],[2]]","9","[[1,0,0],[2,3],[0]]","5","0","","","","","","6","","","","","","","","",""
"","","","","","single-stim-button","128","255817","0.0-2.0-25.9-0.9","6245c8c532cdc22633ecbf3f","E1","batch5","","542","tol_tohand","","","","tol_peg_3","542","542","0","[[1,3,0],[0,0],[0]]","10","[[1,0,0],[2,3],[0]]","5","0","","","","","","6","","","","","","","","",""
"","","","","","single-stim-button","129","256660","0.0-2.0-25.9-1.9","6245c8c532cdc22633ecbf3f","E1","batch5","","842","tol_toboard","","","","tol_peg_2","842","842","0","[[1,3,0],[2,0],[0]]","10","[[1,0,0],[2,3],[0]]","5","0","","","","","","6","","","","","","","","",""
"","","","","","single-stim-button","130","257275","0.0-2.0-25.10-0.10","6245c8c532cdc22633ecbf3f","E1","batch5","","614","tol_tohand","","","","tol_peg_1","614","614","0","[[1,0,0],[2,0],[0]]","11","[[1,0,0],[2,3],[0]]","5","0","","","","","","6","","","","","","","","",""
"","","","","","single-stim-button","131","258140","0.0-2.0-25.10-1.10","6245c8c532cdc22633ecbf3f","E1","batch5","","864","tol_toboard","","","","tol_peg_2","864","864","0","[[1,0,0],[2,3],[0]]","11","[[1,0,0],[2,3],[0]]","5","0","","","","","","6","","","","","","","","",""
"","","","","","poldrack-single-stim","132","259153","0.0-2.0-26.0","6245c8c532cdc22633ecbf3f","E1","batch5","","-1","tol_feedback","","","true","","1000","1000","500","","","","","","-1","none","true","7814","18576","","","","","","","","","",""
"","","","","","html-button-response","133","259799","0.0-2.0-27.0","6245c8c532cdc22633ecbf3f","E1","batch5","","644.7000000476837","tol_trial_num","<div class = centerbox><p class = center-block-text>problem <strong>7</strong> out of 25 problems</p></div>","0","","","","","","","","","","","","","","","","","","","","","","","","",""
"","","","","","single-stim-button","134","264249","0.0-2.0-28.0-0.0","6245c8c532cdc22633ecbf3f","E1","batch5","","4449","tol_tohand","","","","tol_peg_1","4449","4449","0","[[2,0,0],[0,0],[3]]","1","[[1,2,0],[3,0],[0]]","6","0","","","","","","5","","","","","","","","",""
"","","","","","single-stim-button","135","267245","0.0-2.0-28.0-1.0","6245c8c532cdc22633ecbf3f","E1","batch5","","2994","tol_toboard","","","","tol_peg_2","2994","2994","0","[[2,0,0],[1,0],[3]]","1","[[1,2,0],[3,0],[0]]","6","0","","","","","","5","","","","","","","","",""
"","","","","","single-stim-button","136","269381","0.0-2.0-28.1-0.1","6245c8c532cdc22633ecbf3f","E1","batch5","","2133","tol_tohand","","","","tol_peg_3","2133","2133","0","[[2,0,0],[1,0],[0]]","2","[[1,2,0],[3,0],[0]]","6","0","","","","","","5","","","","","","","","",""
"","","","","","single-stim-button","137","270625","0.0-2.0-28.1-1.1","6245c8c532cdc22633ecbf3f","E1","batch5","","1244","tol_toboard","","","","tol_peg_1","1244","1244","0","[[2,3,0],[1,0],[0]]","2","[[1,2,0],[3,0],[0]]","6","0","","","","","","5","","","","","","","","",""
"","","","","","single-stim-button","138","272377","0.0-2.0-28.2-0.2","6245c8c532cdc22633ecbf3f","E1","batch5","","1751","tol_tohand","","","","tol_peg_2","1751","1751","0","[[2,3,0],[0,0],[0]]","3","[[1,2,0],[3,0],[0]]","6","0","","","","","","5","","","","","","","","",""
"","","","","","single-stim-button","139","273313","0.0-2.0-28.2-1.2","6245c8c532cdc22633ecbf3f","E1","batch5","","934","tol_toboard","","","","tol_peg_3","934","934","0","[[2,3,0],[0,0],[1]]","3","[[1,2,0],[3,0],[0]]","6","0","","","","","","5","","","","","","","","",""
"","","","","","single-stim-button","140","274162","0.0-2.0-28.3-0.3","6245c8c532cdc22633ecbf3f","E1","batch5","","848","tol_tohand","","","","tol_peg_1","848","848","0","[[2,0,0],[0,0],[1]]","4","[[1,2,0],[3,0],[0]]","6","0","","","","","","5","","","","","","","","",""
"","","","","","single-stim-button","141","274958","0.0-2.0-28.3-1.3","6245c8c532cdc22633ecbf3f","E1","batch5","","794","tol_toboard","","","","tol_peg_2","794","794","0","[[2,0,0],[3,0],[1]]","4","[[1,2,0],[3,0],[0]]","6","0","","","","","","5","","","","","","","","",""
"","","","","","single-stim-button","142","275518","0.0-2.0-28.4-0.4","6245c8c532cdc22633ecbf3f","E1","batch5","","559","tol_tohand","","","","tol_peg_1","559","559","0","[[0,0,0],[3,0],[1]]","5","[[1,2,0],[3,0],[0]]","6","0","","","","","","5","","","","","","","","",""
"","","","","","single-stim-button","143","276291","0.0-2.0-28.4-1.4","6245c8c532cdc22633ecbf3f","E1","batch5","","773","tol_toboard","","","","tol_peg_2","773","773","0","[[0,0,0],[3,2],[1]]","5","[[1,2,0],[3,0],[0]]","6","0","","","","","","5","","","","","","","","",""
"","","","","","single-stim-button","144","277045","0.0-2.0-28.5-0.5","6245c8c532cdc22633ecbf3f","E1","batch5","","752","tol_tohand","","","","tol_peg_3","752","752","0","[[0,0,0],[3,2],[0]]","6","[[1,2,0],[3,0],[0]]","6","0","","","","","","5","","","","","","","","",""
"","","","","","single-stim-button","145","278081","0.0-2.0-28.5-1.5","6245c8c532cdc22633ecbf3f","E1","batch5","","1035","tol_toboard","","","","tol_peg_1","1035","1035","0","[[1,0,0],[3,2],[0]]","6","[[1,2,0],[3,0],[0]]","6","0","","","","","","5","","","","","","","","",""
"","","","","","single-stim-button","146","278728","0.0-2.0-28.6-0.6","6245c8c532cdc22633ecbf3f","E1","batch5","","646","tol_tohand","","","","tol_peg_2","646","646","0","[[1,0,0],[3,0],[0]]","7","[[1,2,0],[3,0],[0]]","6","0","","","","","","5","","","","","","","","",""
"","","","","","single-stim-button","147","279416","0.0-2.0-28.6-1.6","6245c8c532cdc22633ecbf3f","E1","batch5","","687","tol_toboard","","","","tol_peg_1","687","687","0","[[1,2,0],[3,0],[0]]","7","[[1,2,0],[3,0],[0]]","6","0","","","","","","5","","","","","","","","",""
"","","","","","poldrack-single-stim","148","280417","0.0-2.0-29.0","6245c8c532cdc22633ecbf3f","E1","batch5","","-1","tol_feedback","","","true","","1000","1000","500","","","","","","-1","none","true","4449","11138","","","","","","","","","",""
"","","","","","html-button-response","149","281356","0.0-2.0-30.0","6245c8c532cdc22633ecbf3f","E1","batch5","","937.5","tol_trial_num","<div class = centerbox><p class = center-block-text>problem <strong>8</strong> out of 25 problems</p></div>","0","","","","","","","","","","","","","","","","","","","","","","","","",""
"","","","","","single-stim-button","150","285644","0.0-2.0-31.0-0.0","6245c8c532cdc22633ecbf3f","E1","batch5","","4286","tol_tohand","","","","tol_peg_3","4286","4286","0","[[0,0,0],[2,3],[0]]","1","[[1,2,0],[3,0],[0]]","7","0","","","","","","4","","","","","","","","",""
"","","","","","single-stim-button","151","286489","0.0-2.0-31.0-1.0","6245c8c532cdc22633ecbf3f","E1","batch5","","844","tol_toboard","","","","tol_peg_1","844","844","0","[[1,0,0],[2,3],[0]]","1","[[1,2,0],[3,0],[0]]","7","0","","","","","","4","","","","","","","","",""
"","","","","","single-stim-button","152","287256","0.0-2.0-31.1-0.1","6245c8c532cdc22633ecbf3f","E1","batch5","","766","tol_tohand","","","","tol_peg_2","766","766","0","[[1,0,0],[2,0],[0]]","2","[[1,2,0],[3,0],[0]]","7","0","","","","","","4","","","","","","","","",""
"","","","","","single-stim-button","153","288256","0.0-2.0-31.1-1.1","6245c8c532cdc22633ecbf3f","E1","batch5","","999","tol_toboard","","","","tol_peg_3","999","999","0","[[1,0,0],[2,0],[3]]","2","[[1,2,0],[3,0],[0]]","7","0","","","","","","4","","","","","","","","",""
"","","","","","single-stim-button","154","288849","0.0-2.0-31.2-0.2","6245c8c532cdc22633ecbf3f","E1","batch5","","592","tol_tohand","","","","tol_peg_2","592","592","0","[[1,0,0],[0,0],[3]]","3","[[1,2,0],[3,0],[0]]","7","0","","","","","","4","","","","","","","","",""
"","","","","","single-stim-button","155","289545","0.0-2.0-31.2-1.2","6245c8c532cdc22633ecbf3f","E1","batch5","","696","tol_toboard","","","","tol_peg_1","696","696","0","[[1,2,0],[0,0],[3]]","3","[[1,2,0],[3,0],[0]]","7","0","","","","","","4","","","","","","","","",""
"","","","","","single-stim-button","156","290218","0.0-2.0-31.3-0.3","6245c8c532cdc22633ecbf3f","E1","batch5","","672","tol_tohand","","","","tol_peg_3","672","672","0","[[1,2,0],[0,0],[0]]","4","[[1,2,0],[3,0],[0]]","7","0","","","","","","4","","","","","","","","",""
"","","","","","single-stim-button","157","290821","0.0-2.0-31.3-1.3","6245c8c532cdc22633ecbf3f","E1","batch5","","603","tol_toboard","","","","tol_peg_2","603","603","0","[[1,2,0],[3,0],[0]]","4","[[1,2,0],[3,0],[0]]","7","0","","","","","","4","","","","","","","","",""
"","","","","","poldrack-single-stim","158","291825","0.0-2.0-32.0","6245c8c532cdc22633ecbf3f","E1","batch5","","-1","tol_feedback","","","true","","1000","1000","500","","","","","","-1","none","true","4286","6316","","","","","","","","","",""
"","","","","","html-button-response","159","292813","0.0-2.0-33.0","6245c8c532cdc22633ecbf3f","E1","batch5","","987.1000000238419","tol_trial_num","<div class = centerbox><p class = center-block-text>problem <strong>9</strong> out of 25 problems</p></div>","0","","","","","","","","","","","","","","","","","","","","","","","","",""
"","","","","","single-stim-button","160","296774","0.0-2.0-34.0-0.0","6245c8c532cdc22633ecbf3f","E1","batch5","","3960","tol_tohand","","","","tol_peg_1","3960","3960","0","[[3,0,0],[0,0],[1]]","1","[[2,1,0],[3,0],[0]]","8","0","","","","","","6","","","","","","","","",""
"","","","","","single-stim-button","161","298831","0.0-2.0-34.0-1.0","6245c8c532cdc22633ecbf3f","E1","batch5","","2055","tol_toboard","","","","tol_peg_1","2055","2055","0","[[3,2,0],[0,0],[1]]","1","[[2,1,0],[3,0],[0]]","8","0","","","","","","6","","","","","","","","",""
"","","","","","single-stim-button","162","299460","0.0-2.0-34.1-0.1","6245c8c532cdc22633ecbf3f","E1","batch5","","629","tol_tohand","","","","tol_peg_3","629","629","0","[[3,2,0],[0,0],[0]]","2","[[2,1,0],[3,0],[0]]","8","0","","","","","","6","","","","","","","","",""
"","","","","","single-stim-button","163","300337","0.0-2.0-34.1-1.1","6245c8c532cdc22633ecbf3f","E1","batch5","","876","tol_toboard","","","","tol_peg_2","876","876","0","[[3,2,0],[1,0],[0]]","2","[[2,1,0],[3,0],[0]]","8","0","","","","","","6","","","","","","","","",""
"","","","","","single-stim-button","164","301159","0.0-2.0-34.2-0.2","6245c8c532cdc22633ecbf3f","E1","batch5","","822","tol_tohand","","","","tol_peg_1","822","822","0","[[3,0,0],[1,0],[0]]","3","[[2,1,0],[3,0],[0]]","8","0","","","","","","6","","","","","","","","",""
"","","","","","single-stim-button","165","304076","0.0-2.0-34.2-1.2","6245c8c532cdc22633ecbf3f","E1","batch5","","2916","tol_toboard","","","","tol_peg_3","2916","2916","0","[[3,0,0],[1,0],[2]]","3","[[2,1,0],[3,0],[0]]","8","0","","","","","","6","","","","","","","","",""
"","","","","","single-stim-button","166","305414","0.0-2.0-34.3-0.3","6245c8c532cdc22633ecbf3f","E1","batch5","","1337","tol_tohand","","","","tol_peg_2","1337","1337","0","[[3,0,0],[0,0],[2]]","4","[[2,1,0],[3,0],[0]]","8","0","","","","","","6","","","","","","","","",""
"","","","","","single-stim-button","167","307405","0.0-2.0-34.3-1.3","6245c8c532cdc22633ecbf3f","E1","batch5","","1991","tol_toboard","","","","tol_peg_2","1991","1991","0","[[3,0,0],[1,0],[2]]","4","[[2,1,0],[3,0],[0]]","8","0","","","","","","6","","","","","","","","",""
"","","","","","single-stim-button","168","307976","0.0-2.0-34.4-0.4","6245c8c532cdc22633ecbf3f","E1","batch5","","570","tol_tohand","","","","tol_peg_1","570","570","0","[[0,0,0],[1,0],[2]]","5","[[2,1,0],[3,0],[0]]","8","0","","","","","","6","","","","","","","","",""
"","","","","","single-stim-button","169","308828","0.0-2.0-34.4-1.4","6245c8c532cdc22633ecbf3f","E1","batch5","","850","tol_toboard","","","","tol_peg_2","850","850","0","[[0,0,0],[1,3],[2]]","5","[[2,1,0],[3,0],[0]]","8","0","","","","","","6","","","","","","","","",""
"","","","","","single-stim-button","170","309909","0.0-2.0-34.5-0.5","6245c8c532cdc22633ecbf3f","E1","batch5","","1080","tol_tohand","","","","tol_peg_3","1080","1080","0","[[0,0,0],[1,3],[0]]","6","[[2,1,0],[3,0],[0]]","8","0","","","","","","6","","","","","","","","",""
"","","","","","single-stim-button","171","311196","0.0-2.0-34.5-1.5","6245c8c532cdc22633ecbf3f","E1","batch5","","1287","tol_toboard","","","","tol_peg_1","1287","1287","0","[[2,0,0],[1,3],[0]]","6","[[2,1,0],[3,0],[0]]","8","0","","","","","","6","","","","","","","","",""
"","","","","","single-stim-button","172","312176","0.0-2.0-34.6-0.6","6245c8c532cdc22633ecbf3f","E1","batch5","","978","tol_tohand","","","","tol_peg_2","978","978","0","[[2,0,0],[1,0],[0]]","7","[[2,1,0],[3,0],[0]]","8","0","","","","","","6","","","","","","","","",""
"","","","","","single-stim-button","173","313153","0.0-2.0-34.6-1.6","6245c8c532cdc22633ecbf3f","E1","batch5","","976","tol_toboard","","","","tol_peg_3","976","976","0","[[2,0,0],[1,0],[3]]","7","[[2,1,0],[3,0],[0]]","8","0","","","","","","6","","","","","","","","",""
"","","","","","single-stim-button","174","313695","0.0-2.0-34.7-0.7","6245c8c532cdc22633ecbf3f","E1","batch5","","541","tol_tohand","","","","tol_peg_2","541","541","0","[[2,0,0],[0,0],[3]]","8","[[2,1,0],[3,0],[0]]","8","0","","","","","","6","","","","","","","","",""
"","","","","","single-stim-button","175","314443","0.0-2.0-34.7-1.7","6245c8c532cdc22633ecbf3f","E1","batch5","","748","tol_toboard","","","","tol_peg_1","748","748","0","[[2,1,0],[0,0],[3]]","8","[[2,1,0],[3,0],[0]]","8","0","","","","","","6","","","","","","","","",""
"","","","","","single-stim-button","176","314943","0.0-2.0-34.8-0.8","6245c8c532cdc22633ecbf3f","E1","batch5","","499","tol_tohand","","","","tol_peg_3","499","499","0","[[2,1,0],[0,0],[0]]","9","[[2,1,0],[3,0],[0]]","8","0","","","","","","6","","","","","","","","",""
"","","","","","single-stim-button","177","315632","0.0-2.0-34.8-1.8","6245c8c532cdc22633ecbf3f","E1","batch5","","688","tol_toboard","","","","tol_peg_2","688","688","0","[[2,1,0],[3,0],[0]]","9","[[2,1,0],[3,0],[0]]","8","0","","","","","","6","","","","","","","","",""
"","","","","","poldrack-single-stim","178","316643","0.0-2.0-35.0","6245c8c532cdc22633ecbf3f","E1","batch5","","-1","tol_feedback","","","true","","1000","1000","500","","","","","","-1","none","true","3960","10416","","","","","","","","","",""
"","","","","","html-button-response","179","318216","0.0-2.0-36.0","6245c8c532cdc22633ecbf3f","E1","batch5","","1572","tol_trial_num","<div class = centerbox><p class = center-block-text>problem <strong>10</strong> out of 25 problems</p></div>","0","","","","","","","","","","","","","","","","","","","","","","","","",""
"","","","","","single-stim-button","180","322541","0.0-2.0-37.0-0.0","6245c8c532cdc22633ecbf3f","E1","batch5","","4323","tol_tohand","","","","tol_peg_2","4323","4323","0","[[3,0,0],[0,0],[2]]","1","[[3,0,0],[2,1],[0]]","9","0","","","","","","3","","","","","","","","",""
"","","","","","single-stim-button","181","323240","0.0-2.0-37.0-1.0","6245c8c532cdc22633ecbf3f","E1","batch5","","698","tol_toboard","","","","tol_peg_1","698","698","0","[[3,1,0],[0,0],[2]]","1","[[3,0,0],[2,1],[0]]","9","0","","","","","","3","","","","","","","","",""
"","","","","","single-stim-button","182","323964","0.0-2.0-37.1-0.1","6245c8c532cdc22633ecbf3f","E1","batch5","","722","tol_tohand","","","","tol_peg_3","722","722","0","[[3,1,0],[0,0],[0]]","2","[[3,0,0],[2,1],[0]]","9","0","","","","","","3","","","","","","","","",""
"","","","","","single-stim-button","183","324598","0.0-2.0-37.1-1.1","6245c8c532cdc22633ecbf3f","E1","batch5","","634","tol_toboard","","","","tol_peg_2","634","634","0","[[3,1,0],[2,0],[0]]","2","[[3,0,0],[2,1],[0]]","9","0","","","","","","3","","","","","","","","",""
"","","","","","single-stim-button","184","325228","0.0-2.0-37.2-0.2","6245c8c532cdc22633ecbf3f","E1","batch5","","629","tol_tohand","","","","tol_peg_1","629","629","0","[[3,0,0],[2,0],[0]]","3","[[3,0,0],[2,1],[0]]","9","0","","","","","","3","","","","","","","","",""
"","","","","","single-stim-button","185","326046","0.0-2.0-37.2-1.2","6245c8c532cdc22633ecbf3f","E1","batch5","","817","tol_toboard","","","","tol_peg_2","817","817","0","[[3,0,0],[2,1],[0]]","3","[[3,0,0],[2,1],[0]]","9","0","","","","","","3","","","","","","","","",""
"","","","","","poldrack-single-stim","186","327050","0.0-2.0-38.0","6245c8c532cdc22633ecbf3f","E1","batch5","","-1","tol_feedback","","","true","","1000","1000","500","","","","","","-1","none","true","4323","5674","","","","","","","","","",""
"","","","","","html-button-response","187","328447","0.0-2.0-39.0","6245c8c532cdc22633ecbf3f","E1","batch5","","1395.6000000238419","tol_trial_num","<div class = centerbox><p class = center-block-text>problem <strong>11</strong> out of 25 problems</p></div>","0","","","","","","","","","","","","","","","","","","","","","","","","",""
"","","","","","single-stim-button","188","331289","0.0-2.0-40.0-0.0","6245c8c532cdc22633ecbf3f","E1","batch5","","2841","tol_tohand","","","","tol_peg_2","2841","2841","0","[[1,2,0],[0,0],[0]]","1","[[2,0,0],[1,3],[0]]","10","0","","","","","","6","","","","","","","","",""
"","","","","","single-stim-button","189","332016","0.0-2.0-40.0-1.0","6245c8c532cdc22633ecbf3f","E1","batch5","","726","tol_toboard","","","","tol_peg_3","726","726","0","[[1,2,0],[0,0],[3]]","1","[[2,0,0],[1,3],[0]]","10","0","","","","","","6","","","","","","","","",""
"","","","","","single-stim-button","190","333181","0.0-2.0-40.1-0.1","6245c8c532cdc22633ecbf3f","E1","batch5","","1164","tol_tohand","","","","tol_peg_1","1164","1164","0","[[1,0,0],[0,0],[3]]","2","[[2,0,0],[1,3],[0]]","10","0","","","","","","6","","","","","","","","",""
"","","","","","single-stim-button","191","334261","0.0-2.0-40.1-1.1","6245c8c532cdc22633ecbf3f","E1","batch5","","1078","tol_toboard","","","","tol_peg_2","1078","1078","0","[[1,0,0],[2,0],[3]]","2","[[2,0,0],[1,3],[0]]","10","0","","","","","","6","","","","","","","","",""
"","","","","","single-stim-button","192","335016","0.0-2.0-40.2-0.2","6245c8c532cdc22633ecbf3f","E1","batch5","","753","tol_tohand","","","","tol_peg_1","753","753","0","[[0,0,0],[2,0],[3]]","3","[[2,0,0],[1,3],[0]]","10","0","","","","","","6","","","","","","","","",""
"","","","","","single-stim-button","193","335939","0.0-2.0-40.2-1.2","6245c8c532cdc22633ecbf3f","E1","batch5","","922","tol_toboard","","","","tol_peg_2","922","922","0","[[0,0,0],[2,1],[3]]","3","[[2,0,0],[1,3],[0]]","10","0","","","","","","6","","","","","","","","",""
"","","","","","single-stim-button","194","336460","0.0-2.0-40.3-0.3","6245c8c532cdc22633ecbf3f","E1","batch5","","521","tol_tohand","","","","tol_peg_3","521","521","0","[[0,0,0],[2,1],[0]]","4","[[2,0,0],[1,3],[0]]","10","0","","","","","","6","","","","","","","","",""
"","","","","","single-stim-button","195","337256","0.0-2.0-40.3-1.3","6245c8c532cdc22633ecbf3f","E1","batch5","","796","tol_toboard","","","","tol_peg_1","796","796","0","[[3,0,0],[2,1],[0]]","4","[[2,0,0],[1,3],[0]]","10","0","","","","","","6","","","","","","","","",""
"","","","","","single-stim-button","196","339664","0.0-2.0-40.4-0.4","6245c8c532cdc22633ecbf3f","E1","batch5","","2406","tol_tohand","","","","tol_peg_2","2406","2406","0","[[3,0,0],[2,0],[0]]","5","[[2,0,0],[1,3],[0]]","10","0","","","","","","6","","","","","","","","",""
"","","","","","single-stim-button","197","340333","0.0-2.0-40.4-1.4","6245c8c532cdc22633ecbf3f","E1","batch5","","668","tol_toboard","","","","tol_peg_3","668","668","0","[[3,0,0],[2,0],[1]]","5","[[2,0,0],[1,3],[0]]","10","0","","","","","","6","","","","","","","","",""
"","","","","","single-stim-button","198","340965","0.0-2.0-40.5-0.5","6245c8c532cdc22633ecbf3f","E1","batch5","","630","tol_tohand","","","","tol_peg_2","630","630","0","[[3,0,0],[0,0],[1]]","6","[[2,0,0],[1,3],[0]]","10","0","","","","","","6","","","","","","","","",""
"","","","","","single-stim-button","199","341892","0.0-2.0-40.5-1.5","6245c8c532cdc22633ecbf3f","E1","batch5","","927","tol_toboard","","","","tol_peg_1","927","927","0","[[3,2,0],[0,0],[1]]","6","[[2,0,0],[1,3],[0]]","10","0","","","","","","6","","","","","","","","",""
"","","","","","single-stim-button","200","342517","0.0-2.0-40.6-0.6","6245c8c532cdc22633ecbf3f","E1","batch5","","624","tol_tohand","","","","tol_peg_3","624","624","0","[[3,2,0],[0,0],[0]]","7","[[2,0,0],[1,3],[0]]","10","0","","","","","","6","","","","","","","","",""
"","","","","","single-stim-button","201","343094","0.0-2.0-40.6-1.6","6245c8c532cdc22633ecbf3f","E1","batch5","","575","tol_toboard","","","","tol_peg_2","575","575","0","[[3,2,0],[1,0],[0]]","7","[[2,0,0],[1,3],[0]]","10","0","","","","","","6","","","","","","","","",""
"","","","","","single-stim-button","202","343911","0.0-2.0-40.7-0.7","6245c8c532cdc22633ecbf3f","E1","batch5","","816","tol_tohand","","","","tol_peg_1","816","816","0","[[3,0,0],[1,0],[0]]","8","[[2,0,0],[1,3],[0]]","10","0","","","","","","6","","","","","","","","",""
"","","","","","single-stim-button","203","344849","0.0-2.0-40.7-1.7","6245c8c532cdc22633ecbf3f","E1","batch5","","937","tol_toboard","","","","tol_peg_3","937","937","0","[[3,0,0],[1,0],[2]]","8","[[2,0,0],[1,3],[0]]","10","0","","","","","","6","","","","","","","","",""
"","","","","","single-stim-button","204","345603","0.0-2.0-40.8-0.8","6245c8c532cdc22633ecbf3f","E1","batch5","","752","tol_tohand","","","","tol_peg_1","752","752","0","[[0,0,0],[1,0],[2]]","9","[[2,0,0],[1,3],[0]]","10","0","","","","","","6","","","","","","","","",""
"","","","","","single-stim-button","205","346324","0.0-2.0-40.8-1.8","6245c8c532cdc22633ecbf3f","E1","batch5","","720","tol_toboard","","","","tol_peg_2","720","720","0","[[0,0,0],[1,3],[2]]","9","[[2,0,0],[1,3],[0]]","10","0","","","","","","6","","","","","","","","",""
"","","","","","single-stim-button","206","346916","0.0-2.0-40.9-0.9","6245c8c532cdc22633ecbf3f","E1","batch5","","591","tol_tohand","","","","tol_peg_3","591","591","0","[[0,0,0],[1,3],[0]]","10","[[2,0,0],[1,3],[0]]","10","0","","","","","","6","","","","","","","","",""
"","","","","","single-stim-button","207","347740","0.0-2.0-40.9-1.9","6245c8c532cdc22633ecbf3f","E1","batch5","","823","tol_toboard","","","","tol_peg_1","823","823","0","[[2,0,0],[1,3],[0]]","10","[[2,0,0],[1,3],[0]]","10","0","","","","","","6","","","","","","","","",""
"","","","","","poldrack-single-stim","208","348750","0.0-2.0-41.0","6245c8c532cdc22633ecbf3f","E1","batch5","","-1","tol_feedback","","","true","","1000","1000","500","","","","","","-1","none","true","2841","11098","","","","","","","","","",""
"","","","","","html-button-response","209","349632","0.0-2.0-42.0","6245c8c532cdc22633ecbf3f","E1","batch5","","880.7999999523163","tol_trial_num","<div class = centerbox><p class = center-block-text>problem <strong>12</strong> out of 25 problems</p></div>","0","","","","","","","","","","","","","","","","","","","","","","","","",""
"","","","","","single-stim-button","210","354238","0.0-2.0-43.0-0.0","6245c8c532cdc22633ecbf3f","E1","batch5","","4604","tol_tohand","","","","tol_peg_2","4604","4604","0","[[1,2,0],[0,0],[0]]","1","[[2,3,0],[0,0],[1]]","11","0","","","","","","4","","","","","","","","",""
"","","","","","single-stim-button","211","355279","0.0-2.0-43.0-1.0","6245c8c532cdc22633ecbf3f","E1","batch5","","1040","tol_toboard","","","","tol_peg_3","1040","1040","0","[[1,2,0],[0,0],[3]]","1","[[2,3,0],[0,0],[1]]","11","0","","","","","","4","","","","","","","","",""
"","","","","","single-stim-button","212","356156","0.0-2.0-43.1-0.1","6245c8c532cdc22633ecbf3f","E1","batch5","","876","tol_tohand","","","","tol_peg_1","876","876","0","[[1,0,0],[0,0],[3]]","2","[[2,3,0],[0,0],[1]]","11","0","","","","","","4","","","","","","","","",""
"","","","","","single-stim-button","213","357039","0.0-2.0-43.1-1.1","6245c8c532cdc22633ecbf3f","E1","batch5","","882","tol_toboard","","","","tol_peg_2","882","882","0","[[1,0,0],[2,0],[3]]","2","[[2,3,0],[0,0],[1]]","11","0","","","","","","4","","","","","","","","",""
"","","","","","single-stim-button","214","357728","0.0-2.0-43.2-0.2","6245c8c532cdc22633ecbf3f","E1","batch5","","688","tol_tohand","","","","tol_peg_1","688","688","0","[[0,0,0],[2,0],[3]]","3","[[2,3,0],[0,0],[1]]","11","0","","","","","","4","","","","","","","","",""
"","","","","","single-stim-button","215","358460","0.0-2.0-43.2-1.2","6245c8c532cdc22633ecbf3f","E1","batch5","","731","tol_toboard","","","","tol_peg_2","731","731","0","[[0,0,0],[2,1],[3]]","3","[[2,3,0],[0,0],[1]]","11","0","","","","","","4","","","","","","","","",""
"","","","","","single-stim-button","216","358997","0.0-2.0-43.3-0.3","6245c8c532cdc22633ecbf3f","E1","batch5","","535","tol_tohand","","","","tol_peg_3","535","535","0","[[0,0,0],[2,1],[0]]","4","[[2,3,0],[0,0],[1]]","11","0","","","","","","4","","","","","","","","",""
"","","","","","single-stim-button","217","360062","0.0-2.0-43.3-1.3","6245c8c532cdc22633ecbf3f","E1","batch5","","1063","tol_toboard","","","","tol_peg_1","1063","1063","0","[[3,0,0],[2,1],[0]]","4","[[2,3,0],[0,0],[1]]","11","0","","","","","","4","","","","","","","","",""
"","","","","","single-stim-button","218","361730","0.0-2.0-43.4-0.4","6245c8c532cdc22633ecbf3f","E1","batch5","","1666","tol_tohand","","","","tol_peg_2","1666","1666","0","[[3,0,0],[2,0],[0]]","5","[[2,3,0],[0,0],[1]]","11","0","","","","","","4","","","","","","","","",""
"","","","","","single-stim-button","219","362335","0.0-2.0-43.4-1.4","6245c8c532cdc22633ecbf3f","E1","batch5","","604","tol_toboard","","","","tol_peg_3","604","604","0","[[3,0,0],[2,0],[1]]","5","[[2,3,0],[0,0],[1]]","11","0","","","","","","4","","","","","","","","",""
"","","","","","single-stim-button","220","362833","0.0-2.0-43.5-0.5","6245c8c532cdc22633ecbf3f","E1","batch5","","497","tol_tohand","","","","tol_peg_2","497","497","0","[[3,0,0],[0,0],[1]]","6","[[2,3,0],[0,0],[1]]","11","0","","","","","","4","","","","","","","","",""
"","","","","","single-stim-button","221","363574","0.0-2.0-43.5-1.5","6245c8c532cdc22633ecbf3f","E1","batch5","","741","tol_toboard","","","","tol_peg_1","741","741","0","[[3,2,0],[0,0],[1]]","6","[[2,3,0],[0,0],[1]]","11","0","","","","","","4","","","","","","","","",""
"","","","","","single-stim-button","222","365434","0.0-2.0-43.6-0.6","6245c8c532cdc22633ecbf3f","E1","batch5","","1860","tol_tohand","","","","tol_peg_1","1860","1860","0","[[3,0,0],[0,0],[1]]","7","[[2,3,0],[0,0],[1]]","11","0","","","","","","4","","","","","","","","",""
"","","","","","single-stim-button","223","367959","0.0-2.0-43.6-1.6","6245c8c532cdc22633ecbf3f","E1","batch5","","2524","tol_toboard","","","","tol_peg_2","2524","2524","0","[[3,0,0],[2,0],[1]]","7","[[2,3,0],[0,0],[1]]","11","0","","","","","","4","","","","","","","","",""
"","","","","","single-stim-button","224","368644","0.0-2.0-43.7-0.7","6245c8c532cdc22633ecbf3f","E1","batch5","","684","tol_tohand","","","","tol_peg_1","684","684","0","[[0,0,0],[2,0],[1]]","8","[[2,3,0],[0,0],[1]]","11","0","","","","","","4","","","","","","","","",""
"","","","","","single-stim-button","225","369439","0.0-2.0-43.7-1.7","6245c8c532cdc22633ecbf3f","E1","batch5","","794","tol_toboard","","","","tol_peg_2","794","794","0","[[0,0,0],[2,3],[1]]","8","[[2,3,0],[0,0],[1]]","11","0","","","","","","4","","","","","","","","",""
"","","","","","single-stim-button","226","370885","0.0-2.0-43.8-0.8","6245c8c532cdc22633ecbf3f","E1","batch5","","1445","tol_tohand","","","","tol_peg_2","1445","1445","0","[[0,0,0],[2,0],[1]]","9","[[2,3,0],[0,0],[1]]","11","0","","","","","","4","","","","","","","","",""
"","","","","","single-stim-button","227","372412","0.0-2.0-43.8-1.8","6245c8c532cdc22633ecbf3f","E1","batch5","","1526","tol_toboard","","","","tol_peg_2","1526","1526","0","[[0,0,0],[2,3],[1]]","9","[[2,3,0],[0,0],[1]]","11","0","","","","","","4","","","","","","","","",""
"","","","","","single-stim-button","228","373008","0.0-2.0-43.9-0.9","6245c8c532cdc22633ecbf3f","E1","batch5","","594","tol_tohand","","","","tol_peg_3","594","594","0","[[0,0,0],[2,3],[0]]","10","[[2,3,0],[0,0],[1]]","11","0","","","","","","4","","","","","","","","",""
"","","","","","single-stim-button","229","373761","0.0-2.0-43.9-1.9","6245c8c532cdc22633ecbf3f","E1","batch5","","753","tol_toboard","","","","tol_peg_1","753","753","0","[[1,0,0],[2,3],[0]]","10","[[2,3,0],[0,0],[1]]","11","0","","","","","","4","","","","","","","","",""
"","","","","","single-stim-button","230","375292","0.0-2.0-43.10-0.10","6245c8c532cdc22633ecbf3f","E1","batch5","","1529","tol_tohand","","","","tol_peg_2","1529","1529","0","[[1,0,0],[2,0],[0]]","11","[[2,3,0],[0,0],[1]]","11","0","","","","","","4","","","","","","","","",""
"","","","","","single-stim-button","231","375961","0.0-2.0-43.10-1.10","6245c8c532cdc22633ecbf3f","E1","batch5","","668","tol_toboard","","","","tol_peg_3","668","668","0","[[1,0,0],[2,0],[3]]","11","[[2,3,0],[0,0],[1]]","11","0","","","","","","4","","","","","","","","",""
"","","","","","single-stim-button","232","376708","0.0-2.0-43.11-0.11","6245c8c532cdc22633ecbf3f","E1","batch5","","746","tol_tohand","","","","tol_peg_1","746","746","0","[[0,0,0],[2,0],[3]]","12","[[2,3,0],[0,0],[1]]","11","0","","","","","","4","","","","","","","","",""
"","","","","","single-stim-button","233","377525","0.0-2.0-43.11-1.11","6245c8c532cdc22633ecbf3f","E1","batch5","","816","tol_toboard","","","","tol_peg_2","816","816","0","[[0,0,0],[2,1],[3]]","12","[[2,3,0],[0,0],[1]]","11","0","","","","","","4","","","","","","","","",""
"","","","","","single-stim-button","234","381748","0.0-2.0-43.12-0.12","6245c8c532cdc22633ecbf3f","E1","batch5","","4223","tol_tohand","","","","tol_peg_2","4223","4223","0","[[0,0,0],[2,0],[3]]","13","[[2,3,0],[0,0],[1]]","11","0","","","","","","4","","","","","","","","",""
"","","","","","single-stim-button","235","383789","0.0-2.0-43.12-1.12","6245c8c532cdc22633ecbf3f","E1","batch5","","2039","tol_toboard","","","","tol_peg_1","2039","2039","0","[[1,0,0],[2,0],[3]]","13","[[2,3,0],[0,0],[1]]","11","0","","","","","","4","","","","","","","","",""
"","","","","","single-stim-button","236","385696","0.0-2.0-43.13-0.13","6245c8c532cdc22633ecbf3f","E1","batch5","","1907","tol_tohand","","","","tol_peg_3","1907","1907","0","[[1,0,0],[2,0],[0]]","14","[[2,3,0],[0,0],[1]]","11","0","","","","","","4","","","","","","","","",""
"","","","","","single-stim-button","237","387087","0.0-2.0-43.13-1.13","6245c8c532cdc22633ecbf3f","E1","batch5","","1390","tol_toboard","","","","tol_peg_2","1390","1390","0","[[1,0,0],[2,3],[0]]","14","[[2,3,0],[0,0],[1]]","11","0","","","","","","4","","","","","","","","",""
"","","","","","single-stim-button","238","388403","0.0-2.0-43.14-0.14","6245c8c532cdc22633ecbf3f","E1","batch5","","1315","tol_tohand","","","","tol_peg_1","1315","1315","0","[[0,0,0],[2,3],[0]]","15","[[2,3,0],[0,0],[1]]","11","0","","","","","","4","","","","","","","","",""
"","","","","","single-stim-button","239","391749","0.0-2.0-43.14-1.14","6245c8c532cdc22633ecbf3f","E1","batch5","","3345","tol_toboard","","","","tol_peg_1","3345","3345","0","[[1,0,0],[2,3],[0]]","15","[[2,3,0],[0,0],[1]]","11","0","","","","","","4","","","","","","","","",""
"","","","","","single-stim-button","240","392355","0.0-2.0-43.15-0.15","6245c8c532cdc22633ecbf3f","E1","batch5","","604","tol_tohand","","","","tol_peg_2","604","604","0","[[1,0,0],[2,0],[0]]","16","[[2,3,0],[0,0],[1]]","11","0","","","","","","4","","","","","","","","",""
"","","","","","single-stim-button","241","393056","0.0-2.0-43.15-1.15","6245c8c532cdc22633ecbf3f","E1","batch5","","701","tol_toboard","","","","tol_peg_1","701","701","0","[[1,3,0],[2,0],[0]]","16","[[2,3,0],[0,0],[1]]","11","0","","","","","","4","","","","","","","","",""
"","","","","","single-stim-button","242","393690","0.0-2.0-43.16-0.16","6245c8c532cdc22633ecbf3f","E1","batch5","","633","tol_tohand","","","","tol_peg_2","633","633","0","[[1,3,0],[0,0],[0]]","17","[[2,3,0],[0,0],[1]]","11","0","","","","","","4","","","","","","","","",""
"","","","","","single-stim-button","243","394320","0.0-2.0-43.16-1.16","6245c8c532cdc22633ecbf3f","E1","batch5","","629","tol_toboard","","","","tol_peg_3","629","629","0","[[1,3,0],[0,0],[2]]","17","[[2,3,0],[0,0],[1]]","11","0","","","","","","4","","","","","","","","",""
"","","","","","single-stim-button","244","395119","0.0-2.0-43.17-0.17","6245c8c532cdc22633ecbf3f","E1","batch5","","798","tol_tohand","","","","tol_peg_1","798","798","0","[[1,0,0],[0,0],[2]]","18","[[2,3,0],[0,0],[1]]","11","0","","","","","","4","","","","","","","","",""
"","","","","","single-stim-button","245","395719","0.0-2.0-43.17-1.17","6245c8c532cdc22633ecbf3f","E1","batch5","","599","tol_toboard","","","","tol_peg_2","599","599","0","[[1,0,0],[3,0],[2]]","18","[[2,3,0],[0,0],[1]]","11","0","","","","","","4","","","","","","","","",""
"","","","","","single-stim-button","246","397274","0.0-2.0-43.18-0.18","6245c8c532cdc22633ecbf3f","E1","batch5","","1555","tol_tohand","","","","tol_peg_1","1555","1555","0","[[0,0,0],[3,0],[2]]","19","[[2,3,0],[0,0],[1]]","11","0","","","","","","4","","","","","","","","",""
"","","","","","single-stim-button","247","397979","0.0-2.0-43.18-1.18","6245c8c532cdc22633ecbf3f","E1","batch5","","705","tol_toboard","","","","tol_peg_2","705","705","0","[[0,0,0],[3,1],[2]]","19","[[2,3,0],[0,0],[1]]","11","0","","","","","","4","","","","","","","","",""
"","","","","","single-stim-button","248","398830","0.0-2.0-43.19-0.19","6245c8c532cdc22633ecbf3f","E1","batch5","","850","tol_tohand","","","","tol_peg_3","850","850","0","[[0,0,0],[3,1],[0]]","20","[[2,3,0],[0,0],[1]]","11","0","","","","","","4","","","","","","","","",""
"","","","","","single-stim-button","249","399641","0.0-2.0-43.19-1.19","6245c8c532cdc22633ecbf3f","E1","batch5","","811","tol_toboard","","","","tol_peg_1","811","811","0","[[2,0,0],[3,1],[0]]","20","[[2,3,0],[0,0],[1]]","11","0","","","","","","4","","","","","","","","",""
"","","","","","single-stim-button","250","400457","0.0-2.0-43.20-0.20","6245c8c532cdc22633ecbf3f","E1","batch5","","815","tol_tohand","","","","tol_peg_2","815","815","0","[[2,0,0],[3,0],[0]]","21","[[2,3,0],[0,0],[1]]","11","0","","","","","","4","","","","","","","","",""
"","","","","","single-stim-button","251","401162","0.0-2.0-43.20-1.20","6245c8c532cdc22633ecbf3f","E1","batch5","","704","tol_toboard","","","","tol_peg_3","704","704","0","[[2,0,0],[3,0],[1]]","21","[[2,3,0],[0,0],[1]]","11","0","","","","","","4","","","","","","","","",""
"","","","","","single-stim-button","252","401683","0.0-2.0-43.21-0.21","6245c8c532cdc22633ecbf3f","E1","batch5","","519","tol_tohand","","","","tol_peg_2","519","519","0","[[2,0,0],[0,0],[1]]","22","[[2,3,0],[0,0],[1]]","11","0","","","","","","4","","","","","","","","",""
"","","","","","single-stim-button","253","402351","0.0-2.0-43.21-1.21","6245c8c532cdc22633ecbf3f","E1","batch5","","668","tol_toboard","","","","tol_peg_1","668","668","0","[[2,3,0],[0,0],[1]]","22","[[2,3,0],[0,0],[1]]","11","0","","","","","","4","","","","","","","","",""
"","","","","","poldrack-single-stim","254","403357","0.0-2.0-44.0","6245c8c532cdc22633ecbf3f","E1","batch5","","-1","tol_feedback","","","true","","1000","1000","500","","","","","","-1","none","true","4604","28943","","","","","","","","","",""
"","","","","","html-button-response","255","404206","0.0-2.0-45.0","6245c8c532cdc22633ecbf3f","E1","batch5","","847.3000000715256","tol_trial_num","<div class = centerbox><p class = center-block-text>problem <strong>13</strong> out of 25 problems</p></div>","0","","","","","","","","","","","","","","","","","","","","","","","","",""
"","","","","","single-stim-button","256","409038","0.0-2.0-46.0-0.0","6245c8c532cdc22633ecbf3f","E1","batch5","","4831","tol_tohand","","","","tol_peg_1","4831","4831","0","[[1,0,0],[3,0],[0]]","1","[[0,0,0],[2,3],[1]]","12","0","","","","","","4","","","","","","","","",""
"","","","","","single-stim-button","257","410206","0.0-2.0-46.0-1.0","6245c8c532cdc22633ecbf3f","E1","batch5","","1167","tol_toboard","","","","tol_peg_1","1167","1167","0","[[1,2,0],[3,0],[0]]","1","[[0,0,0],[2,3],[1]]","12","0","","","","","","4","","","","","","","","",""
"","","","","","single-stim-button","258","411956","0.0-2.0-46.1-0.1","6245c8c532cdc22633ecbf3f","E1","batch5","","1748","tol_tohand","","","","tol_peg_2","1748","1748","0","[[1,2,0],[0,0],[0]]","2","[[0,0,0],[2,3],[1]]","12","0","","","","","","4","","","","","","","","",""
"","","","","","single-stim-button","259","412659","0.0-2.0-46.1-1.1","6245c8c532cdc22633ecbf3f","E1","batch5","","702","tol_toboard","","","","tol_peg_3","702","702","0","[[1,2,0],[0,0],[3]]","2","[[0,0,0],[2,3],[1]]","12","0","","","","","","4","","","","","","","","",""
"","","","","","single-stim-button","260","413364","0.0-2.0-46.2-0.2","6245c8c532cdc22633ecbf3f","E1","batch5","","703","tol_tohand","","","","tol_peg_1","703","703","0","[[1,0,0],[0,0],[3]]","3","[[0,0,0],[2,3],[1]]","12","0","","","","","","4","","","","","","","","",""
"","","","","","single-stim-button","261","414188","0.0-2.0-46.2-1.2","6245c8c532cdc22633ecbf3f","E1","batch5","","824","tol_toboard","","","","tol_peg_2","824","824","0","[[1,0,0],[2,0],[3]]","3","[[0,0,0],[2,3],[1]]","12","0","","","","","","4","","","","","","","","",""
"","","","","","single-stim-button","262","415196","0.0-2.0-46.3-0.3","6245c8c532cdc22633ecbf3f","E1","batch5","","1006","tol_tohand","","","","tol_peg_3","1006","1006","0","[[1,0,0],[2,0],[0]]","4","[[0,0,0],[2,3],[1]]","12","0","","","","","","4","","","","","","","","",""
"","","","","","single-stim-button","263","415758","0.0-2.0-46.3-1.3","6245c8c532cdc22633ecbf3f","E1","batch5","","561","tol_toboard","","","","tol_peg_2","561","561","0","[[1,0,0],[2,3],[0]]","4","[[0,0,0],[2,3],[1]]","12","0","","","","","","4","","","","","","","","",""
"","","","","","single-stim-button","264","416332","0.0-2.0-46.4-0.4","6245c8c532cdc22633ecbf3f","E1","batch5","","573","tol_tohand","","","","tol_peg_1","573","573","0","[[0,0,0],[2,3],[0]]","5","[[0,0,0],[2,3],[1]]","12","0","","","","","","4","","","","","","","","",""
"","","","","","single-stim-button","265","417312","0.0-2.0-46.4-1.4","6245c8c532cdc22633ecbf3f","E1","batch5","","979","tol_toboard","","","","tol_peg_3","979","979","0","[[0,0,0],[2,3],[1]]","5","[[0,0,0],[2,3],[1]]","12","0","","","","","","4","","","","","","","","",""
"","","","","","poldrack-single-stim","266","418326","0.0-2.0-47.0","6245c8c532cdc22633ecbf3f","E1","batch5","","-1","tol_feedback","","","true","","1000","1000","500","","","","","","-1","none","true","4831","8861","","","","","","","","","",""
"","","","","","html-button-response","267","421095","0.0-2.0-48.0","6245c8c532cdc22633ecbf3f","E1","batch5","","2767.5","attention_check","<p class = block-text>How many balls are in your board<br></p>","1","true","","","","","","","","","","","","","","","","","","","","","","","",""
"","","","","","html-button-response","268","421814","0.0-2.0-49.0","6245c8c532cdc22633ecbf3f","E1","batch5","","717.9000000953674","tol_trial_num","<div class = centerbox><p class = center-block-text>problem <strong>14</strong> out of 25 problems</p></div>","0","","","","","","","","","","","","","","","","","","","","","","","","",""
"","","","","","single-stim-button","269","430582","0.0-2.0-50.0-0.0","6245c8c532cdc22633ecbf3f","E1","batch5","","8766","tol_tohand","","","","tol_peg_2","8766","8766","0","[[2,1,0],[0,0],[0]]","1","[[1,2,0],[3,0],[0]]","13","0","","","","","","4","","","","","","","","",""
"","","","","","single-stim-button","270","431388","0.0-2.0-50.0-1.0","6245c8c532cdc22633ecbf3f","E1","batch5","","806","tol_toboard","","","","tol_peg_3","806","806","0","[[2,1,0],[0,0],[3]]","1","[[1,2,0],[3,0],[0]]","13","0","","","","","","4","","","","","","","","",""
"","","","","","single-stim-button","271","432916","0.0-2.0-50.1-0.1","6245c8c532cdc22633ecbf3f","E1","batch5","","1527","tol_tohand","","","","tol_peg_1","1527","1527","0","[[2,0,0],[0,0],[3]]","2","[[1,2,0],[3,0],[0]]","13","0","","","","","","4","","","","","","","","",""
"","","","","","single-stim-button","272","434756","0.0-2.0-50.1-1.1","6245c8c532cdc22633ecbf3f","E1","batch5","","1838","tol_toboard","","","","tol_peg_2","1838","1838","0","[[2,0,0],[1,0],[3]]","2","[[1,2,0],[3,0],[0]]","13","0","","","","","","4","","","","","","","","",""
"","","","","","single-stim-button","273","435534","0.0-2.0-50.2-0.2","6245c8c532cdc22633ecbf3f","E1","batch5","","777","tol_tohand","","","","tol_peg_1","777","777","0","[[0,0,0],[1,0],[3]]","3","[[1,2,0],[3,0],[0]]","13","0","","","","","","4","","","","","","","","",""
"","","","","","single-stim-button","274","437175","0.0-2.0-50.2-1.2","6245c8c532cdc22633ecbf3f","E1","batch5","","1640","tol_toboard","","","","tol_peg_1","1640","1640","0","[[2,0,0],[1,0],[3]]","3","[[1,2,0],[3,0],[0]]","13","0","","","","","","4","","","","","","","","",""
"","","","","","single-stim-button","275","437996","0.0-2.0-50.3-0.3","6245c8c532cdc22633ecbf3f","E1","batch5","","821","tol_tohand","","","","tol_peg_3","821","821","0","[[2,0,0],[1,0],[0]]","4","[[1,2,0],[3,0],[0]]","13","0","","","","","","4","","","","","","","","",""
"","","","","","single-stim-button","276","438541","0.0-2.0-50.3-1.3","6245c8c532cdc22633ecbf3f","E1","batch5","","543","tol_toboard","","","","tol_peg_1","543","543","0","[[2,3,0],[1,0],[0]]","4","[[1,2,0],[3,0],[0]]","13","0","","","","","","4","","","","","","","","",""
"","","","","","single-stim-button","277","439418","0.0-2.0-50.4-0.4","6245c8c532cdc22633ecbf3f","E1","batch5","","877","tol_tohand","","","","tol_peg_2","877","877","0","[[2,3,0],[0,0],[0]]","5","[[1,2,0],[3,0],[0]]","13","0","","","","","","4","","","","","","","","",""
"","","","","","single-stim-button","278","440165","0.0-2.0-50.4-1.4","6245c8c532cdc22633ecbf3f","E1","batch5","","746","tol_toboard","","","","tol_peg_3","746","746","0","[[2,3,0],[0,0],[1]]","5","[[1,2,0],[3,0],[0]]","13","0","","","","","","4","","","","","","","","",""
"","","","","","single-stim-button","279","440900","0.0-2.0-50.5-0.5","6245c8c532cdc22633ecbf3f","E1","batch5","","734","tol_tohand","","","","tol_peg_1","734","734","0","[[2,0,0],[0,0],[1]]","6","[[1,2,0],[3,0],[0]]","13","0","","","","","","4","","","","","","","","",""
"","","","","","single-stim-button","280","441456","0.0-2.0-50.5-1.5","6245c8c532cdc22633ecbf3f","E1","batch5","","554","tol_toboard","","","","tol_peg_2","554","554","0","[[2,0,0],[3,0],[1]]","6","[[1,2,0],[3,0],[0]]","13","0","","","","","","4","","","","","","","","",""
"","","","","","single-stim-button","281","442127","0.0-2.0-50.6-0.6","6245c8c532cdc22633ecbf3f","E1","batch5","","671","tol_tohand","","","","tol_peg_1","671","671","0","[[0,0,0],[3,0],[1]]","7","[[1,2,0],[3,0],[0]]","13","0","","","","","","4","","","","","","","","",""
"","","","","","single-stim-button","282","443089","0.0-2.0-50.6-1.6","6245c8c532cdc22633ecbf3f","E1","batch5","","961","tol_toboard","","","","tol_peg_2","961","961","0","[[0,0,0],[3,2],[1]]","7","[[1,2,0],[3,0],[0]]","13","0","","","","","","4","","","","","","","","",""
"","","","","","single-stim-button","283","443716","0.0-2.0-50.7-0.7","6245c8c532cdc22633ecbf3f","E1","batch5","","625","tol_tohand","","","","tol_peg_3","625","625","0","[[0,0,0],[3,2],[0]]","8","[[1,2,0],[3,0],[0]]","13","0","","","","","","4","","","","","","","","",""
"","","","","","single-stim-button","284","444397","0.0-2.0-50.7-1.7","6245c8c532cdc22633ecbf3f","E1","batch5","","681","tol_toboard","","","","tol_peg_1","681","681","0","[[1,0,0],[3,2],[0]]","8","[[1,2,0],[3,0],[0]]","13","0","","","","","","4","","","","","","","","",""
"","","","","","single-stim-button","285","445275","0.0-2.0-50.8-0.8","6245c8c532cdc22633ecbf3f","E1","batch5","","876","tol_tohand","","","","tol_peg_2","876","876","0","[[1,0,0],[3,0],[0]]","9","[[1,2,0],[3,0],[0]]","13","0","","","","","","4","","","","","","","","",""
"","","","","","single-stim-button","286","445872","0.0-2.0-50.8-1.8","6245c8c532cdc22633ecbf3f","E1","batch5","","596","tol_toboard","","","","tol_peg_1","596","596","0","[[1,2,0],[3,0],[0]]","9","[[1,2,0],[3,0],[0]]","13","0","","","","","","4","","","","","","","","",""
"","","","","","poldrack-single-stim","287","446880","0.0-2.0-51.0","6245c8c532cdc22633ecbf3f","E1","batch5","","-1","tol_feedback","","","true","","1000","1000","500","","","","","","-1","none","true","8766","15674","","","","","","","","","",""
"","","","","","html-button-response","288","447934","0.0-2.0-52.0","6245c8c532cdc22633ecbf3f","E1","batch5","","1052.7000000476837","tol_trial_num","<div class = centerbox><p class = center-block-text>problem <strong>15</strong> out of 25 problems</p></div>","0","","","","","","","","","","","","","","","","","","","","","","","","",""
"","","","","","single-stim-button","289","453114","0.0-2.0-53.0-0.0","6245c8c532cdc22633ecbf3f","E1","batch5","","5179","tol_tohand","","","","tol_peg_1","5179","5179","0","[[1,0,0],[3,0],[0]]","1","[[2,0,0],[3,0],[1]]","14","0","","","","","","3","","","","","","","","",""
"","","","","","single-stim-button","290","453831","0.0-2.0-53.0-1.0","6245c8c532cdc22633ecbf3f","E1","batch5","","716","tol_toboard","","","","tol_peg_3","716","716","0","[[1,0,0],[3,0],[2]]","1","[[2,0,0],[3,0],[1]]","14","0","","","","","","3","","","","","","","","",""
"","","","","","single-stim-button","291","454671","0.0-2.0-53.1-0.1","6245c8c532cdc22633ecbf3f","E1","batch5","","839","tol_tohand","","","","tol_peg_1","839","839","0","[[0,0,0],[3,0],[2]]","2","[[2,0,0],[3,0],[1]]","14","0","","","","","","3","","","","","","","","",""
"","","","","","single-stim-button","292","455295","0.0-2.0-53.1-1.1","6245c8c532cdc22633ecbf3f","E1","batch5","","623","tol_toboard","","","","tol_peg_2","623","623","0","[[0,0,0],[3,1],[2]]","2","[[2,0,0],[3,0],[1]]","14","0","","","","","","3","","","","","","","","",""
"","","","","","single-stim-button","293","455895","0.0-2.0-53.2-0.2","6245c8c532cdc22633ecbf3f","E1","batch5","","599","tol_tohand","","","","tol_peg_3","599","599","0","[[0,0,0],[3,1],[0]]","3","[[2,0,0],[3,0],[1]]","14","0","","","","","","3","","","","","","","","",""
"","","","","","single-stim-button","294","456929","0.0-2.0-53.2-1.2","6245c8c532cdc22633ecbf3f","E1","batch5","","1033","tol_toboard","","","","tol_peg_1","1033","1033","0","[[2,0,0],[3,1],[0]]","3","[[2,0,0],[3,0],[1]]","14","0","","","","","","3","","","","","","","","",""
"","","","","","single-stim-button","295","457507","0.0-2.0-53.3-0.3","6245c8c532cdc22633ecbf3f","E1","batch5","","577","tol_tohand","","","","tol_peg_2","577","577","0","[[2,0,0],[3,0],[0]]","4","[[2,0,0],[3,0],[1]]","14","0","","","","","","3","","","","","","","","",""
"","","","","","single-stim-button","296","458144","0.0-2.0-53.3-1.3","6245c8c532cdc22633ecbf3f","E1","batch5","","635","tol_toboard","","","","tol_peg_3","635","635","0","[[2,0,0],[3,0],[1]]","4","[[2,0,0],[3,0],[1]]","14","0","","","","","","3","","","","","","","","",""
"","","","","","poldrack-single-stim","297","459148","0.0-2.0-54.0","6245c8c532cdc22633ecbf3f","E1","batch5","","-1","tol_feedback","","","true","","1000","1000","500","","","","","","-1","none","true","5179","7194","","","","","","","","","",""
"","","","","","html-button-response","298","460527","0.0-2.0-55.0","6245c8c532cdc22633ecbf3f","E1","batch5","","1377.9000000953674","tol_trial_num","<div class = centerbox><p class = center-block-text>problem <strong>16</strong> out of 25 problems</p></div>","0","","","","","","","","","","","","","","","","","","","","","","","","",""
"","","","","","single-stim-button","299","467476","0.0-2.0-56.0-0.0","6245c8c532cdc22633ecbf3f","E1","batch5","","6948","tol_tohand","","","","tol_peg_3","6948","6948","0","[[0,0,0],[2,3],[0]]","1","[[2,3,0],[1,0],[0]]","15","0","","","","","","7","","","","","","","","",""
"","","","","","single-stim-button","300","468422","0.0-2.0-56.0-1.0","6245c8c532cdc22633ecbf3f","E1","batch5","","945","tol_toboard","","","","tol_peg_1","945","945","0","[[1,0,0],[2,3],[0]]","1","[[2,3,0],[1,0],[0]]","15","0","","","","","","7","","","","","","","","",""
"","","","","","single-stim-button","301","469418","0.0-2.0-56.1-0.1","6245c8c532cdc22633ecbf3f","E1","batch5","","994","tol_tohand","","","","tol_peg_2","994","994","0","[[1,0,0],[2,0],[0]]","2","[[2,3,0],[1,0],[0]]","15","0","","","","","","7","","","","","","","","",""
"","","","","","single-stim-button","302","470140","0.0-2.0-56.1-1.1","6245c8c532cdc22633ecbf3f","E1","batch5","","721","tol_toboard","","","","tol_peg_3","721","721","0","[[1,0,0],[2,0],[3]]","2","[[2,3,0],[1,0],[0]]","15","0","","","","","","7","","","","","","","","",""
"","","","","","single-stim-button","303","472019","0.0-2.0-56.2-0.2","6245c8c532cdc22633ecbf3f","E1","batch5","","1878","tol_tohand","","","","tol_peg_1","1878","1878","0","[[0,0,0],[2,0],[3]]","3","[[2,3,0],[1,0],[0]]","15","0","","","","","","7","","","","","","","","",""
"","","","","","single-stim-button","304","475303","0.0-2.0-56.2-1.2","6245c8c532cdc22633ecbf3f","E1","batch5","","3283","tol_toboard","","","","tol_peg_1","3283","3283","0","[[1,0,0],[2,0],[3]]","3","[[2,3,0],[1,0],[0]]","15","0","","","","","","7","","","","","","","","",""
"","","","","","single-stim-button","305","475964","0.0-2.0-56.3-0.3","6245c8c532cdc22633ecbf3f","E1","batch5","","660","tol_tohand","","","","tol_peg_2","660","660","0","[[1,0,0],[0,0],[3]]","4","[[2,3,0],[1,0],[0]]","15","0","","","","","","7","","","","","","","","",""
"","","","","","single-stim-button","306","476608","0.0-2.0-56.3-1.3","6245c8c532cdc22633ecbf3f","E1","batch5","","642","tol_toboard","","","","tol_peg_1","642","642","0","[[1,2,0],[0,0],[3]]","4","[[2,3,0],[1,0],[0]]","15","0","","","","","","7","","","","","","","","",""
"","","","","","single-stim-button","307","478096","0.0-2.0-56.4-0.4","6245c8c532cdc22633ecbf3f","E1","batch5","","1488","tol_tohand","","","","tol_peg_3","1488","1488","0","[[1,2,0],[0,0],[0]]","5","[[2,3,0],[1,0],[0]]","15","0","","","","","","7","","","","","","","","",""
"","","","","","single-stim-button","308","478696","0.0-2.0-56.4-1.4","6245c8c532cdc22633ecbf3f","E1","batch5","","599","tol_toboard","","","","tol_peg_2","599","599","0","[[1,2,0],[3,0],[0]]","5","[[2,3,0],[1,0],[0]]","15","0","","","","","","7","","","","","","","","",""
"","","","","","single-stim-button","309","479479","0.0-2.0-56.5-0.5","6245c8c532cdc22633ecbf3f","E1","batch5","","782","tol_tohand","","","","tol_peg_1","782","782","0","[[1,0,0],[3,0],[0]]","6","[[2,3,0],[1,0],[0]]","15","0","","","","","","7","","","","","","","","",""
"","","","","","single-stim-button","310","480548","0.0-2.0-56.5-1.5","6245c8c532cdc22633ecbf3f","E1","batch5","","1068","tol_toboard","","","","tol_peg_3","1068","1068","0","[[1,0,0],[3,0],[2]]","6","[[2,3,0],[1,0],[0]]","15","0","","","","","","7","","","","","","","","",""
"","","","","","single-stim-button","311","481286","0.0-2.0-56.6-0.6","6245c8c532cdc22633ecbf3f","E1","batch5","","737","tol_tohand","","","","tol_peg_1","737","737","0","[[0,0,0],[3,0],[2]]","7","[[2,3,0],[1,0],[0]]","15","0","","","","","","7","","","","","","","","",""
"","","","","","single-stim-button","312","482029","0.0-2.0-56.6-1.6","6245c8c532cdc22633ecbf3f","E1","batch5","","742","tol_toboard","","","","tol_peg_2","742","742","0","[[0,0,0],[3,1],[2]]","7","[[2,3,0],[1,0],[0]]","15","0","","","","","","7","","","","","","","","",""
"","","","","","single-stim-button","313","482649","0.0-2.0-56.7-0.7","6245c8c532cdc22633ecbf3f","E1","batch5","","619","tol_tohand","","","","tol_peg_3","619","619","0","[[0,0,0],[3,1],[0]]","8","[[2,3,0],[1,0],[0]]","15","0","","","","","","7","","","","","","","","",""
"","","","","","single-stim-button","314","483631","0.0-2.0-56.7-1.7","6245c8c532cdc22633ecbf3f","E1","batch5","","982","tol_toboard","","","","tol_peg_1","982","982","0","[[2,0,0],[3,1],[0]]","8","[[2,3,0],[1,0],[0]]","15","0","","","","","","7","","","","","","","","",""
"","","","","","single-stim-button","315","484222","0.0-2.0-56.8-0.8","6245c8c532cdc22633ecbf3f","E1","batch5","","590","tol_tohand","","","","tol_peg_2","590","590","0","[[2,0,0],[3,0],[0]]","9","[[2,3,0],[1,0],[0]]","15","0","","","","","","7","","","","","","","","",""
"","","","","","single-stim-button","316","484742","0.0-2.0-56.8-1.8","6245c8c532cdc22633ecbf3f","E1","batch5","","519","tol_toboard","","","","tol_peg_3","519","519","0","[[2,0,0],[3,0],[1]]","9","[[2,3,0],[1,0],[0]]","15","0","","","","","","7","","","","","","","","",""
"","","","","","single-stim-button","317","485331","0.0-2.0-56.9-0.9","6245c8c532cdc22633ecbf3f","E1","batch5","","589","tol_tohand","","","","tol_peg_2","589","589","0","[[2,0,0],[0,0],[1]]","10","[[2,3,0],[1,0],[0]]","15","0","","","","","","7","","","","","","","","",""
"","","","","","single-stim-button","318","486105","0.0-2.0-56.9-1.9","6245c8c532cdc22633ecbf3f","E1","batch5","","773","tol_toboard","","","","tol_peg_1","773","773","0","[[2,3,0],[0,0],[1]]","10","[[2,3,0],[1,0],[0]]","15","0","","","","","","7","","","","","","","","",""
"","","","","","single-stim-button","319","486664","0.0-2.0-56.10-0.10","6245c8c532cdc22633ecbf3f","E1","batch5","","558","tol_tohand","","","","tol_peg_3","558","558","0","[[2,3,0],[0,0],[0]]","11","[[2,3,0],[1,0],[0]]","15","0","","","","","","7","","","","","","","","",""
"","","","","","single-stim-button","320","487313","0.0-2.0-56.10-1.10","6245c8c532cdc22633ecbf3f","E1","batch5","","648","tol_toboard","","","","tol_peg_2","648","648","0","[[2,3,0],[1,0],[0]]","11","[[2,3,0],[1,0],[0]]","15","0","","","","","","7","","","","","","","","",""
"","","","","","poldrack-single-stim","321","488318","0.0-2.0-57.0","6245c8c532cdc22633ecbf3f","E1","batch5","","-1","tol_feedback","","","true","","1000","1000","500","","","","","","-1","none","true","6948","15843","","","","","","","","","",""
"","","","","","html-button-response","322","489582","0.0-2.0-58.0","6245c8c532cdc22633ecbf3f","E1","batch5","","1262.7999999523163","tol_trial_num","<div class = centerbox><p class = center-block-text>problem <strong>17</strong> out of 25 problems</p></div>","0","","","","","","","","","","","","","","","","","","","","","","","","",""
"","","","","","single-stim-button","323","492431","0.0-2.0-59.0-0.0","6245c8c532cdc22633ecbf3f","E1","batch5","","2848","tol_tohand","","","","tol_peg_2","2848","2848","0","[[1,2,0],[0,0],[0]]","1","[[3,1,0],[2,0],[0]]","16","0","","","","","","5","","","","","","","","",""
"","","","","","single-stim-button","324","493541","0.0-2.0-59.0-1.0","6245c8c532cdc22633ecbf3f","E1","batch5","","1109","tol_toboard","","","","tol_peg_3","1109","1109","0","[[1,2,0],[0,0],[3]]","1","[[3,1,0],[2,0],[0]]","16","0","","","","","","5","","","","","","","","",""
"","","","","","single-stim-button","325","494486","0.0-2.0-59.1-0.1","6245c8c532cdc22633ecbf3f","E1","batch5","","944","tol_tohand","","","","tol_peg_1","944","944","0","[[1,0,0],[0,0],[3]]","2","[[3,1,0],[2,0],[0]]","16","0","","","","","","5","","","","","","","","",""
"","","","","","single-stim-button","326","495035","0.0-2.0-59.1-1.1","6245c8c532cdc22633ecbf3f","E1","batch5","","547","tol_toboard","","","","tol_peg_2","547","547","0","[[1,0,0],[2,0],[3]]","2","[[3,1,0],[2,0],[0]]","16","0","","","","","","5","","","","","","","","",""
"","","","","","single-stim-button","327","495541","0.0-2.0-59.2-0.2","6245c8c532cdc22633ecbf3f","E1","batch5","","506","tol_tohand","","","","tol_peg_1","506","506","0","[[0,0,0],[2,0],[3]]","3","[[3,1,0],[2,0],[0]]","16","0","","","","","","5","","","","","","","","",""
"","","","","","single-stim-button","328","496257","0.0-2.0-59.2-1.2","6245c8c532cdc22633ecbf3f","E1","batch5","","716","tol_toboard","","","","tol_peg_2","716","716","0","[[0,0,0],[2,1],[3]]","3","[[3,1,0],[2,0],[0]]","16","0","","","","","","5","","","","","","","","",""
"","","","","","single-stim-button","329","496842","0.0-2.0-59.3-0.3","6245c8c532cdc22633ecbf3f","E1","batch5","","584","tol_tohand","","","","tol_peg_3","584","584","0","[[0,0,0],[2,1],[0]]","4","[[3,1,0],[2,0],[0]]","16","0","","","","","","5","","","","","","","","",""
"","","","","","single-stim-button","330","497695","0.0-2.0-59.3-1.3","6245c8c532cdc22633ecbf3f","E1","batch5","","852","tol_toboard","","","","tol_peg_1","852","852","0","[[3,0,0],[2,1],[0]]","4","[[3,1,0],[2,0],[0]]","16","0","","","","","","5","","","","","","","","",""
"","","","","","single-stim-button","331","498285","0.0-2.0-59.4-0.4","6245c8c532cdc22633ecbf3f","E1","batch5","","588","tol_tohand","","","","tol_peg_2","588","588","0","[[3,0,0],[2,0],[0]]","5","[[3,1,0],[2,0],[0]]","16","0","","","","","","5","","","","","","","","",""
"","","","","","single-stim-button","332","498867","0.0-2.0-59.4-1.4","6245c8c532cdc22633ecbf3f","E1","batch5","","580","tol_toboard","","","","tol_peg_1","580","580","0","[[3,1,0],[2,0],[0]]","5","[[3,1,0],[2,0],[0]]","16","0","","","","","","5","","","","","","","","",""
"","","","","","poldrack-single-stim","333","499872","0.0-2.0-60.0","6245c8c532cdc22633ecbf3f","E1","batch5","","-1","tol_feedback","","","true","","1000","1000","500","","","","","","-1","none","true","2848","5470","","","","","","","","","",""
"","","","","","html-button-response","334","500598","0.0-2.0-61.0","6245c8c532cdc22633ecbf3f","E1","batch5","","724.2000000476837","tol_trial_num","<div class = centerbox><p class = center-block-text>problem <strong>18</strong> out of 25 problems</p></div>","0","","","","","","","","","","","","","","","","","","","","","","","","",""
"","","","","","single-stim-button","335","502730","0.0-2.0-62.0-0.0","6245c8c532cdc22633ecbf3f","E1","batch5","","2130","tol_tohand","","","","tol_peg_2","2130","2130","0","[[1,2,0],[0,0],[0]]","1","[[3,0,0],[2,0],[1]]","17","0","","","","","","5","","","","","","","","",""
"","","","","","single-stim-button","336","504671","0.0-2.0-62.0-1.0","6245c8c532cdc22633ecbf3f","E1","batch5","","1941","tol_toboard","","","","tol_peg_3","1941","1941","0","[[1,2,0],[0,0],[3]]","1","[[3,0,0],[2,0],[1]]","17","0","","","","","","5","","","","","","","","",""
"","","","","","single-stim-button","337","505695","0.0-2.0-62.1-0.1","6245c8c532cdc22633ecbf3f","E1","batch5","","1023","tol_tohand","","","","tol_peg_1","1023","1023","0","[[1,0,0],[0,0],[3]]","2","[[3,0,0],[2,0],[1]]","17","0","","","","","","5","","","","","","","","",""
"","","","","","single-stim-button","338","506541","0.0-2.0-62.1-1.1","6245c8c532cdc22633ecbf3f","E1","batch5","","845","tol_toboard","","","","tol_peg_2","845","845","0","[[1,0,0],[2,0],[3]]","2","[[3,0,0],[2,0],[1]]","17","0","","","","","","5","","","","","","","","",""
"","","","","","single-stim-button","339","507178","0.0-2.0-62.2-0.2","6245c8c532cdc22633ecbf3f","E1","batch5","","636","tol_tohand","","","","tol_peg_1","636","636","0","[[0,0,0],[2,0],[3]]","3","[[3,0,0],[2,0],[1]]","17","0","","","","","","5","","","","","","","","",""
"","","","","","single-stim-button","340","507704","0.0-2.0-62.2-1.2","6245c8c532cdc22633ecbf3f","E1","batch5","","525","tol_toboard","","","","tol_peg_2","525","525","0","[[0,0,0],[2,1],[3]]","3","[[3,0,0],[2,0],[1]]","17","0","","","","","","5","","","","","","","","",""
"","","","","","single-stim-button","341","508339","0.0-2.0-62.3-0.3","6245c8c532cdc22633ecbf3f","E1","batch5","","633","tol_tohand","","","","tol_peg_3","633","633","0","[[0,0,0],[2,1],[0]]","4","[[3,0,0],[2,0],[1]]","17","0","","","","","","5","","","","","","","","",""
"","","","","","single-stim-button","342","509034","0.0-2.0-62.3-1.3","6245c8c532cdc22633ecbf3f","E1","batch5","","694","tol_toboard","","","","tol_peg_1","694","694","0","[[3,0,0],[2,1],[0]]","4","[[3,0,0],[2,0],[1]]","17","0","","","","","","5","","","","","","","","",""
"","","","","","single-stim-button","343","509619","0.0-2.0-62.4-0.4","6245c8c532cdc22633ecbf3f","E1","batch5","","584","tol_tohand","","","","tol_peg_2","584","584","0","[[3,0,0],[2,0],[0]]","5","[[3,0,0],[2,0],[1]]","17","0","","","","","","5","","","","","","","","",""
"","","","","","single-stim-button","344","510310","0.0-2.0-62.4-1.4","6245c8c532cdc22633ecbf3f","E1","batch5","","690","tol_toboard","","","","tol_peg_3","690","690","0","[[3,0,0],[2,0],[1]]","5","[[3,0,0],[2,0],[1]]","17","0","","","","","","5","","","","","","","","",""
"","","","","","poldrack-single-stim","345","511313","0.0-2.0-63.0","6245c8c532cdc22633ecbf3f","E1","batch5","","-1","tol_feedback","","","true","","1000","1000","500","","","","","","-1","none","true","2130","5006","","","","","","","","","",""
"","","","","","html-button-response","346","512010","0.0-2.0-64.0","6245c8c532cdc22633ecbf3f","E1","batch5","","695.3000000715256","tol_trial_num","<div class = centerbox><p class = center-block-text>problem <strong>19</strong> out of 25 problems</p></div>","0","","","","","","","","","","","","","","","","","","","","","","","","",""
"","","","","","single-stim-button","347","514818","0.0-2.0-65.0-0.0","6245c8c532cdc22633ecbf3f","E1","batch5","","2807","tol_tohand","","","","tol_peg_1","2807","2807","0","[[1,0,0],[3,0],[0]]","1","[[0,0,0],[1,2],[3]]","18","0","","","","","","7","","","","","","","","",""
"","","","","","single-stim-button","348","515932","0.0-2.0-65.0-1.0","6245c8c532cdc22633ecbf3f","E1","batch5","","1112","tol_toboard","","","","tol_peg_2","1112","1112","0","[[1,0,0],[3,2],[0]]","1","[[0,0,0],[1,2],[3]]","18","0","","","","","","7","","","","","","","","",""
"","","","","","single-stim-button","349","520011","0.0-2.0-65.1-0.1","6245c8c532cdc22633ecbf3f","E1","batch5","","4077","tol_tohand","","","","tol_peg_2","4077","4077","0","[[1,0,0],[3,0],[0]]","2","[[0,0,0],[1,2],[3]]","18","0","","","","","","7","","","","","","","","",""
"","","","","","single-stim-button","350","521528","0.0-2.0-65.1-1.1","6245c8c532cdc22633ecbf3f","E1","batch5","","1517","tol_toboard","","","","tol_peg_3","1517","1517","0","[[1,0,0],[3,0],[2]]","2","[[0,0,0],[1,2],[3]]","18","0","","","","","","7","","","","","","","","",""
"","","","","","single-stim-button","351","523034","0.0-2.0-65.2-0.2","6245c8c532cdc22633ecbf3f","E1","batch5","","1505","tol_tohand","","","","tol_peg_1","1505","1505","0","[[0,0,0],[3,0],[2]]","3","[[0,0,0],[1,2],[3]]","18","0","","","","","","7","","","","","","","","",""
"","","","","","single-stim-button","352","523843","0.0-2.0-65.2-1.2","6245c8c532cdc22633ecbf3f","E1","batch5","","807","tol_toboard","","","","tol_peg_2","807","807","0","[[0,0,0],[3,1],[2]]","3","[[0,0,0],[1,2],[3]]","18","0","","","","","","7","","","","","","","","",""
"","","","","","single-stim-button","353","524555","0.0-2.0-65.3-0.3","6245c8c532cdc22633ecbf3f","E1","batch5","","712","tol_tohand","","","","tol_peg_3","712","712","0","[[0,0,0],[3,1],[0]]","4","[[0,0,0],[1,2],[3]]","18","0","","","","","","7","","","","","","","","",""
"","","","","","single-stim-button","354","525406","0.0-2.0-65.3-1.3","6245c8c532cdc22633ecbf3f","E1","batch5","","850","tol_toboard","","","","tol_peg_1","850","850","0","[[2,0,0],[3,1],[0]]","4","[[0,0,0],[1,2],[3]]","18","0","","","","","","7","","","","","","","","",""
"","","","","","single-stim-button","355","526406","0.0-2.0-65.4-0.4","6245c8c532cdc22633ecbf3f","E1","batch5","","999","tol_tohand","","","","tol_peg_2","999","999","0","[[2,0,0],[3,0],[0]]","5","[[0,0,0],[1,2],[3]]","18","0","","","","","","7","","","","","","","","",""
"","","","","","single-stim-button","356","527320","0.0-2.0-65.4-1.4","6245c8c532cdc22633ecbf3f","E1","batch5","","913","tol_toboard","","","","tol_peg_3","913","913","0","[[2,0,0],[3,0],[1]]","5","[[0,0,0],[1,2],[3]]","18","0","","","","","","7","","","","","","","","",""
