"success","timeout","failed_images","failed_audio","failed_video","trial_type","trial_index","time_elapsed","internal_node_id","subject_id","study_id","session_id","view_history","rt","stimulus","response","task","correct","answer","item","fiar_detect_rt","fiar_detect_correct","total_correct_fiar_detect","post_trial_gap","choices","spm_correct","spm_rt","mouse_click","stim_duration","block_duration","timing_post_trial","current_position","tol_num_moves_made","tol_target","tol_problem_id","tol_rt","key_press","possible_responses","tol_correct","preplanning","tol_rt_per_trial","tol_min_moves"
"true","false","[]","[]","[]","preload","0","83","0.0-0.0","6266bb112b25f2d6a4ebef7e","A3","batch1","","","","","","","","","","","","","","","","","","","","","","","","","","","","","",""
"true","","","","","fullscreen","1","3407","0.0-1.0-0.0","6266bb112b25f2d6a4ebef7e","A3","batch1","","","","","","","","","","","","","","","","","","","","","","","","","","","","","",""
"true","","","","","fullscreen","2","6304","0.0-2.0-0.0","6266bb112b25f2d6a4ebef7e","A3","batch1","","","","","","","","","","","","","","","","","","","","","","","","","","","","","",""
"","","","","","instructions","3","27154","0.0-2.0-1.0-0.0","6266bb112b25f2d6a4ebef7e","A3","batch1","[{""page_index"":0,""viewing_time"":16263},{""page_index"":1,""viewing_time"":4587}]","20850","","","","","","","","","","","","","","","","","","","","","","","","","","","",""
"","","","","","html-button-response","4","28318","0.0-2.0-1.0-1.0-0.0","6266bb112b25f2d6a4ebef7e","A3","batch1","","1164","<p class=block-text> Let's answer a few questions <br>","0","pattern_enter_quiz","","","","","","","","","","","","","","","","","","","","","","","","",""
"","","","","","html-button-response","5","30803","0.0-2.0-1.0-1.0-1.0","6266bb112b25f2d6a4ebef7e","A3","batch1","","2484.0000000000036","<p class = block-text>True or False: You will have as much time as you want to make each choice. <br></p>","1","pattern_quiz","true","","","","","","","","","","","","","","","","","","","","","","","",""
"","","","","","html-button-response","6","33004","0.0-2.0-1.0-1.0-2.0","6266bb112b25f2d6a4ebef7e","A3","batch1","","2200","<p class = block-text>Correct! You should make your choice <strong> as fast as you can</strong>.</p>","0","pattern_quiz_feedback","","","","","","","","","","","","","","","","","","","","","","","","",""
"","","","","","html-button-response","7","36003","0.0-2.0-1.0-1.0-3.0","6266bb112b25f2d6a4ebef7e","A3","batch1","","2999","<p class = block-text>True or False: You will look for 4 pieces in black or white color connected in a row either horizontally, vertically or diagonally. <br></p>","0","pattern_quiz","true","","","","","","","","","","","","","","","","","","","","","","","",""
"","","","","","html-button-response","8","37003","0.0-2.0-1.0-1.0-4.0","6266bb112b25f2d6a4ebef7e","A3","batch1","","999","<p class = block-text>Correct! </p>","0","pattern_quiz_feedback","","","","","","","","","","","","","","","","","","","","","","","","",""
"","","","","","html-button-response","9","38158","0.0-2.0-2.0","6266bb112b25f2d6a4ebef7e","A3","batch1","","1154","<p class=block-text> Now that you've understood the game, let's do a few practice trials before we start!<br> <br>","0","pattern_enter_practice","","","","","","","","","","","","","","","","","","","","","","","","",""
"","","","","","image-keyboard-response","10","40155","0.0-2.0-3.0-0.0","6266bb112b25f2d6a4ebef7e","A3","batch1","","1987","stim/prac_no_18_1.png","j","pattern_practice","true","j","","","","","","","","","","","","","","","","","","","","","","",""
"","","","","","html-keyboard-response","11","41158","0.0-2.0-3.0-1.0","6266bb112b25f2d6a4ebef7e","A3","batch1","","null","<p style=""font-size:30px;color:green;"">Correct!</p>","null","pattern_feedback","","","","","","","","","","","","","","","","","","","","","","","","",""
"","","","","","image-keyboard-response","12","43164","0.0-2.0-3.0-0.1","6266bb112b25f2d6a4ebef7e","A3","batch1","","1999","stim/prac_yes_20_dia_b1.png","f","pattern_practice","true","f","","","","","","","","","","","","","","","","","","","","","","",""
"","","","","","html-keyboard-response","13","44167","0.0-2.0-3.0-1.1","6266bb112b25f2d6a4ebef7e","A3","batch1","","null","<p style=""font-size:30px;color:green;"">Correct!</p>","null","pattern_feedback","","","","","","","","","","","","","","","","","","","","","","","","",""
"","","","","","image-keyboard-response","14","45354","0.0-2.0-3.0-0.2","6266bb112b25f2d6a4ebef7e","A3","batch1","","1180","stim/prac_yes_18_hor_w1.png","j","pattern_practice","false","f","","","","","","","","","","","","","","","","","","","","","","",""
"","","","","","html-keyboard-response","15","46356","0.0-2.0-3.0-1.2","6266bb112b25f2d6a4ebef7e","A3","batch1","","null","<p style=""font-size:30px;color:red;"">Wrong.</p>","null","pattern_feedback","","","","","","","","","","","","","","","","","","","","","","","","",""
"","","","","","image-keyboard-response","16","48404","0.0-2.0-3.0-0.3","6266bb112b25f2d6a4ebef7e","A3","batch1","","2041","stim/prac_no_16_1.png","j","pattern_practice","true","j","","","","","","","","","","","","","","","","","","","","","","",""
"","","","","","html-keyboard-response","17","49406","0.0-2.0-3.0-1.3","6266bb112b25f2d6a4ebef7e","A3","batch1","","null","<p style=""font-size:30px;color:green;"">Correct!</p>","null","pattern_feedback","","","","","","","","","","","","","","","","","","","","","","","","",""
"","","","","","image-keyboard-response","18","50165","0.0-2.0-3.0-0.4","6266bb112b25f2d6a4ebef7e","A3","batch1","","752","stim/prac_yes_16_ver_w1.png","f","pattern_practice","true","f","","","","","","","","","","","","","","","","","","","","","","",""
"","","","","","html-keyboard-response","19","51168","0.0-2.0-3.0-1.4","6266bb112b25f2d6a4ebef7e","A3","batch1","","null","<p style=""font-size:30px;color:green;"">Correct!</p>","null","pattern_feedback","","","","","","","","","","","","","","","","","","","","","","","","",""
"","","","","","html-button-response","20","53763","0.0-2.0-4.0","6266bb112b25f2d6a4ebef7e","A3","batch1","","2595.0000000000073","<p class=block-text> Good job! You are done with practice trials!<br>
        You responded correctly on 80% of the trials.<br>
        Press the button below to start official trials. Now you won't see any feedback about your response</p>","0","pattern_enter_official_trials","","","","","","","","","","","","","","","","","","","","","","","","",""
"","","","","","html-keyboard-response","21","54565","0.0-2.0-5.0-0.0","6266bb112b25f2d6a4ebef7e","A3","batch1","","null","<p class=block-text>Trial 1 out of 78</p>","null","pattern_show_trial_num","","","","","","","","","","","","","","","","","","","","","","","","",""
"","","","","","image-keyboard-response","22","55756","0.0-2.0-5.0-1.0","6266bb112b25f2d6a4ebef7e","A3","batch1","","1183.9999999999927","stim/yes_29_hor_b1_b.png","f","pattern_response","true","f","pattern_52","1183.9999999999927","true","1","","","","","","","","","","","","","","","","","","",""
"","","","","","html-keyboard-response","23","57058","0.0-2.0-5.0-0.1","6266bb112b25f2d6a4ebef7e","A3","batch1","","null","<p class=block-text>Trial 2 out of 78</p>","null","pattern_show_trial_num","","","","","","","","","","","","","","","","","","","","","","","","",""
"","","","","","image-keyboard-response","24","58254","0.0-2.0-5.0-1.1","6266bb112b25f2d6a4ebef7e","A3","batch1","","1189","stim/no_22_1_b.png","j","pattern_response","true","j","pattern_07","1189","true","2","","","","","","","","","","","","","","","","","","",""
"","","","","","html-keyboard-response","25","59557","0.0-2.0-5.0-0.2","6266bb112b25f2d6a4ebef7e","A3","batch1","","null","<p class=block-text>Trial 3 out of 78</p>","null","pattern_show_trial_num","","","","","","","","","","","","","","","","","","","","","","","","",""
"","","","","","image-keyboard-response","26","60605","0.0-2.0-5.0-1.2","6266bb112b25f2d6a4ebef7e","A3","batch1","","1041","stim/yes_15_dia_b1u_b.png","f","pattern_response","true","f","pattern_44","1041","true","3","","","","","","","","","","","","","","","","","","",""
"","","","","","html-keyboard-response","27","61907","0.0-2.0-5.0-0.3","6266bb112b25f2d6a4ebef7e","A3","batch1","","null","<p class=block-text>Trial 4 out of 78</p>","null","pattern_show_trial_num","","","","","","","","","","","","","","","","","","","","","","","","",""
"","","","","","image-keyboard-response","28","63255","0.0-2.0-5.0-1.3","6266bb112b25f2d6a4ebef7e","A3","batch1","","1342","stim/no_28_2.png","j","pattern_response","true","j","pattern_11","1342","true","4","","","","","","","","","","","","","","","","","","",""
"","","","","","html-keyboard-response","29","64558","0.0-2.0-5.0-0.4","6266bb112b25f2d6a4ebef7e","A3","batch1","","null","<p class=block-text>Trial 5 out of 78</p>","null","pattern_show_trial_num","","","","","","","","","","","","","","","","","","","","","","","","",""
"","","","","","image-keyboard-response","30","65704","0.0-2.0-5.0-1.4","6266bb112b25f2d6a4ebef7e","A3","batch1","","1140","stim/no_15_1_w.png","j","pattern_response","true","j","pattern_03","1140","true","5","","","","","","","","","","","","","","","","","","",""
"","","","","","html-keyboard-response","31","67007","0.0-2.0-5.0-0.5","6266bb112b25f2d6a4ebef7e","A3","batch1","","null","<p class=block-text>Trial 6 out of 78</p>","null","pattern_show_trial_num","","","","","","","","","","","","","","","","","","","","","","","","",""
"","","","","","image-keyboard-response","32","68504","0.0-2.0-5.0-1.5","6266bb112b25f2d6a4ebef7e","A3","batch1","","1490","stim/yes_33_dia_w1_w.png","j","pattern_response","false","f","pattern_56","1490","false","5","","","","","","","","","","","","","","","","","","",""
"","","","","","html-keyboard-response","33","69806","0.0-2.0-5.0-0.6","6266bb112b25f2d6a4ebef7e","A3","batch1","","null","<p class=block-text>Trial 7 out of 78</p>","null","pattern_show_trial_num","","","","","","","","","","","","","","","","","","","","","","","","",""
"","","","","","image-keyboard-response","34","71854","0.0-2.0-5.0-1.6","6266bb112b25f2d6a4ebef7e","A3","batch1","","2041","stim/yes_53_ver_b1_b.png","j","pattern_response","false","f","pattern_74","2041","false","5","","","","","","","","","","","","","","","","","","",""
"","","","","","html-keyboard-response","35","73156","0.0-2.0-5.0-0.7","6266bb112b25f2d6a4ebef7e","A3","batch1","","null","<p class=block-text>Trial 8 out of 78</p>","null","pattern_show_trial_num","","","","","","","","","","","","","","","","","","","","","","","","",""
"","","","","","image-keyboard-response","36","75155","0.0-2.0-5.0-1.7","6266bb112b25f2d6a4ebef7e","A3","batch1","","1992","stim/yes_30_ver_b1_b.png","f","pattern_response","true","f","pattern_54","1992","true","6","","","","","","","","","","","","","","","","","","",""
"","","","","","html-keyboard-response","37","76457","0.0-2.0-5.0-0.8","6266bb112b25f2d6a4ebef7e","A3","batch1","","null","<p class=block-text>Trial 9 out of 78</p>","null","pattern_show_trial_num","","","","","","","","","","","","","","","","","","","","","","","","",""
"","","","","","image-keyboard-response","38","77604","0.0-2.0-5.0-1.8","6266bb112b25f2d6a4ebef7e","A3","batch1","","1139","stim/no_12_1.png","j","pattern_response","true","j","pattern_01","1139","true","7","","","","","","","","","","","","","","","","","","",""
"","","","","","html-keyboard-response","39","78906","0.0-2.0-5.0-0.9","6266bb112b25f2d6a4ebef7e","A3","batch1","","null","<p class=block-text>Trial 10 out of 78</p>","null","pattern_show_trial_num","","","","","","","","","","","","","","","","","","","","","","","","",""
"","","","","","image-keyboard-response","40","81504","0.0-2.0-5.0-1.9","6266bb112b25f2d6a4ebef7e","A3","batch1","","2590","stim/no_47_1_b.png","j","pattern_response","true","j","pattern_27","2590","true","8","","","","","","","","","","","","","","","","","","",""
"","","","","","html-keyboard-response","41","82805","0.0-2.0-5.0-0.10","6266bb112b25f2d6a4ebef7e","A3","batch1","","null","<p class=block-text>Trial 11 out of 78</p>","null","pattern_show_trial_num","","","","","","","","","","","","","","","","","","","","","","","","",""
"","","","","","image-keyboard-response","42","84911","0.0-2.0-5.0-1.10","6266bb112b25f2d6a4ebef7e","A3","batch1","","2099.0000000000146","stim/no_43_2_b.png","j","pattern_response","true","j","pattern_23","2099.0000000000146","true","9","","","","","","","","","","","","","","","","","","",""
"","","","","","html-keyboard-response","43","86214","0.0-2.0-5.0-0.11","6266bb112b25f2d6a4ebef7e","A3","batch1","","null","<p class=block-text>Trial 12 out of 78</p>","null","pattern_show_trial_num","","","","","","","","","","","","","","","","","","","","","","","","",""
"","","","","","image-keyboard-response","44","87254","0.0-2.0-5.0-1.11","6266bb112b25f2d6a4ebef7e","A3","batch1","","1034","stim/yes_36_ver_w1_w.png","f","pattern_response","true","f","pattern_58","1034","true","10","","","","","","","","","","","","","","","","","","",""
"","","","","","html-keyboard-response","45","88556","0.0-2.0-5.0-0.12","6266bb112b25f2d6a4ebef7e","A3","batch1","","null","<p class=block-text>Trial 13 out of 78</p>","null","pattern_show_trial_num","","","","","","","","","","","","","","","","","","","","","","","","",""
"","","","","","image-keyboard-response","46","91104","0.0-2.0-5.0-1.12","6266bb112b25f2d6a4ebef7e","A3","batch1","","2541","stim/no_30_1_b.png","j","pattern_response","true","j","pattern_13","2541","true","11","","","","","","","","","","","","","","","","","","",""
"","","","","","html-keyboard-response","47","92407","0.0-2.0-5.0-0.13","6266bb112b25f2d6a4ebef7e","A3","batch1","","null","<p class=block-text>Trial 14 out of 78</p>","null","pattern_show_trial_num","","","","","","","","","","","","","","","","","","","","","","","","",""
"","","","","","image-keyboard-response","48","93254","0.0-2.0-5.0-1.13","6266bb112b25f2d6a4ebef7e","A3","batch1","","840","stim/yes_39_hor_w1_w.png","f","pattern_response","true","f","pattern_62","840","true","12","","","","","","","","","","","","","","","","","","",""
"","","","","","html-keyboard-response","49","94556","0.0-2.0-5.0-0.14","6266bb112b25f2d6a4ebef7e","A3","batch1","","null","<p class=block-text>Trial 15 out of 78</p>","null","pattern_show_trial_num","","","","","","","","","","","","","","","","","","","","","","","","",""
"","","","","","image-keyboard-response","50","95456","0.0-2.0-5.0-1.14","6266bb112b25f2d6a4ebef7e","A3","batch1","","893","stim/no_18_1_b.png","j","pattern_response","true","j","pattern_05","893","true","13","","","","","","","","","","","","","","","","","","",""
"","","","","","html-keyboard-response","51","96757","0.0-2.0-5.0-0.15","6266bb112b25f2d6a4ebef7e","A3","batch1","","null","<p class=block-text>Trial 16 out of 78</p>","null","pattern_show_trial_num","","","","","","","","","","","","","","","","","","","","","","","","",""
"","","","","","image-keyboard-response","52","100404","0.0-2.0-5.0-1.15","6266bb112b25f2d6a4ebef7e","A3","batch1","","3640","stim/no_39_1_w.png","j","pattern_response","true","j","pattern_21","3640","true","14","","","","","","","","","","","","","","","","","","",""
"","","","","","html-keyboard-response","53","101706","0.0-2.0-5.0-0.16","6266bb112b25f2d6a4ebef7e","A3","batch1","","null","<p class=block-text>Trial 17 out of 78</p>","null","pattern_show_trial_num","","","","","","","","","","","","","","","","","","","","","","","","",""
"","","","","","image-keyboard-response","54","103854","0.0-2.0-5.0-1.16","6266bb112b25f2d6a4ebef7e","A3","batch1","","2141","stim/no_37_2_w.png","j","pattern_response","true","j","pattern_19","2141","true","15","","","","","","","","","","","","","","","","","","",""
"","","","","","html-keyboard-response","55","105155","0.0-2.0-5.0-0.17","6266bb112b25f2d6a4ebef7e","A3","batch1","","null","<p class=block-text>Trial 18 out of 78</p>","null","pattern_show_trial_num","","","","","","","","","","","","","","","","","","","","","","","","",""
"","","","","","image-keyboard-response","56","108103","0.0-2.0-5.0-1.17","6266bb112b25f2d6a4ebef7e","A3","batch1","","2941","stim/no_45_1_w.png","j","pattern_response","true","j","pattern_25","2941","true","16","","","","","","","","","","","","","","","","","","",""
"","","","","","html-keyboard-response","57","109406","0.0-2.0-5.0-0.18","6266bb112b25f2d6a4ebef7e","A3","batch1","","null","<p class=block-text>Trial 19 out of 78</p>","null","pattern_show_trial_num","","","","","","","","","","","","","","","","","","","","","","","","",""
"","","","","","image-keyboard-response","58","110556","0.0-2.0-5.0-1.18","6266bb112b25f2d6a4ebef7e","A3","batch1","","1143","stim/yes_44_ver_w1_w.png","f","pattern_response","true","f","pattern_66","1143","true","17","","","","","","","","","","","","","","","","","","",""
"","","","","","html-keyboard-response","59","111858","0.0-2.0-5.0-0.19","6266bb112b25f2d6a4ebef7e","A3","batch1","","null","<p class=block-text>Trial 20 out of 78</p>","null","pattern_show_trial_num","","","","","","","","","","","","","","","","","","","","","","","","",""
"","","","","","image-keyboard-response","60","113770","0.0-2.0-5.0-1.19","6266bb112b25f2d6a4ebef7e","A3","batch1","","1905","stim/no_36_1_b.png","j","pattern_response","true","j","pattern_17","1905","true","18","","","","","","","","","","","","","","","","","","",""
"","","","","","html-keyboard-response","61","115072","0.0-2.0-5.0-0.20","6266bb112b25f2d6a4ebef7e","A3","batch1","","null","<p class=block-text>Trial 21 out of 78</p>","null","pattern_show_trial_num","","","","","","","","","","","","","","","","","","","","","","","","",""
"","","","","","image-keyboard-response","62","116904","0.0-2.0-5.0-1.20","6266bb112b25f2d6a4ebef7e","A3","batch1","","1824.9999999999854","stim/no_25_1_b.png","j","pattern_response","true","j","pattern_09","1824.9999999999854","true","19","","","","","","","","","","","","","","","","","","",""
"","","","","","html-keyboard-response","63","118205","0.0-2.0-5.0-0.21","6266bb112b25f2d6a4ebef7e","A3","batch1","","null","<p class=block-text>Trial 22 out of 78</p>","null","pattern_show_trial_num","","","","","","","","","","","","","","","","","","","","","","","","",""
"","","","","","image-keyboard-response","64","120954","0.0-2.0-5.0-1.21","6266bb112b25f2d6a4ebef7e","A3","batch1","","2742.0000000000146","stim/no_53_1_b.png","j","pattern_response","true","j","pattern_33","2742.0000000000146","true","20","","","","","","","","","","","","","","","","","","",""
"","","","","","html-keyboard-response","65","122255","0.0-2.0-5.0-0.22","6266bb112b25f2d6a4ebef7e","A3","batch1","","null","<p class=block-text>Trial 23 out of 78</p>","null","pattern_show_trial_num","","","","","","","","","","","","","","","","","","","","","","","","",""
"","","","","","image-keyboard-response","66","123204","0.0-2.0-5.0-1.22","6266bb112b25f2d6a4ebef7e","A3","batch1","","941.0000000000146","stim/yes_37_hor_w1_w.png","f","pattern_response","true","f","pattern_60","941.0000000000146","true","21","","","","","","","","","","","","","","","","","","",""
"","","","","","html-keyboard-response","67","124505","0.0-2.0-5.0-0.23","6266bb112b25f2d6a4ebef7e","A3","batch1","","null","<p class=block-text>Trial 24 out of 78</p>","null","pattern_show_trial_num","","","","","","","","","","","","","","","","","","","","","","","","",""
"","","","","","image-keyboard-response","68","126504","0.0-2.0-5.0-1.23","6266bb112b25f2d6a4ebef7e","A3","batch1","","1991","stim/yes_46_ver_b1_b.png","f","pattern_response","true","f","pattern_68","1991","true","22","","","","","","","","","","","","","","","","","","",""
"","","","","","html-keyboard-response","69","127806","0.0-2.0-5.0-0.24","6266bb112b25f2d6a4ebef7e","A3","batch1","","null","<p class=block-text>Trial 25 out of 78</p>","null","pattern_show_trial_num","","","","","","","","","","","","","","","","","","","","","","","","",""
"","","","","","image-keyboard-response","70","129111","0.0-2.0-5.0-1.24","6266bb112b25f2d6a4ebef7e","A3","batch1","","1298","stim/yes_49_hor_w1_b.png","f","pattern_response","true","f","pattern_70","1298","true","23","","","","","","","","","","","","","","","","","","",""
"","","","","","html-keyboard-response","71","130414","0.0-2.0-5.0-0.25","6266bb112b25f2d6a4ebef7e","A3","batch1","","null","<p class=block-text>Trial 26 out of 78</p>","null","pattern_show_trial_num","","","","","","","","","","","","","","","","","","","","","","","","",""
"","","","","","image-keyboard-response","72","132763","0.0-2.0-5.0-1.25","6266bb112b25f2d6a4ebef7e","A3","batch1","","2341.9999999999854","stim/no_58_1_w.png","j","pattern_response","true","j","pattern_35","2341.9999999999854","true","24","","","","","","","","","","","","","","","","","","",""
"","","","","","html-keyboard-response","73","134065","0.0-2.0-5.0-0.26","6266bb112b25f2d6a4ebef7e","A3","batch1","","null","<p class=block-text>Trial 27 out of 78</p>","null","pattern_show_trial_num","","","","","","","","","","","","","","","","","","","","","","","","",""
"","","","","","image-keyboard-response","74","138313","0.0-2.0-5.0-1.26","6266bb112b25f2d6a4ebef7e","A3","batch1","","4242","stim/yes_58_dia_w1_w.png","j","pattern_response","false","f","pattern_76","4242","false","24","","","","","","","","","","","","","","","","","","",""
"","","","","","html-keyboard-response","75","139616","0.0-2.0-5.0-0.27","6266bb112b25f2d6a4ebef7e","A3","batch1","","null","<p class=block-text>Trial 28 out of 78</p>","null","pattern_show_trial_num","","","","","","","","","","","","","","","","","","","","","","","","",""
"","","","","","image-keyboard-response","76","143514","0.0-2.0-5.0-1.27","6266bb112b25f2d6a4ebef7e","A3","batch1","","3891","stim/no_67_1.png","j","pattern_response","true","j","pattern_39","3891","true","25","","","","","","","","","","","","","","","","","","",""
"","","","","","html-keyboard-response","77","144816","0.0-2.0-5.0-0.28","6266bb112b25f2d6a4ebef7e","A3","batch1","","null","<p class=block-text>Trial 29 out of 78</p>","null","pattern_show_trial_num","","","","","","","","","","","","","","","","","","","","","","","","",""
"","","","","","image-keyboard-response","78","145911","0.0-2.0-5.0-1.28","6266bb112b25f2d6a4ebef7e","A3","batch1","","1088","stim/yes_26_dia_w2_w.png","f","pattern_response","true","f","pattern_50","1088","true","26","","","","","","","","","","","","","","","","","","",""
"","","","","","html-keyboard-response","79","147214","0.0-2.0-5.0-0.29","6266bb112b25f2d6a4ebef7e","A3","batch1","","null","<p class=block-text>Trial 30 out of 78</p>","null","pattern_show_trial_num","","","","","","","","","","","","","","","","","","","","","","","","",""
"","","","","","image-keyboard-response","80","150219","0.0-2.0-5.0-1.29","6266bb112b25f2d6a4ebef7e","A3","batch1","","2999","stim/no_49_2_b.png","j","pattern_response","true","j","pattern_29","2999","true","27","","","","","","","","","","","","","","","","","","",""
"","","","","","html-keyboard-response","81","151522","0.0-2.0-5.0-0.30","6266bb112b25f2d6a4ebef7e","A3","batch1","","null","<p class=block-text>Trial 31 out of 78</p>","null","pattern_show_trial_num","","","","","","","","","","","","","","","","","","","","","","","","",""
"","","","","","image-keyboard-response","82","152603","0.0-2.0-5.0-1.30","6266bb112b25f2d6a4ebef7e","A3","batch1","","1075","stim/yes_17_ver_b1_b.png","f","pattern_response","true","f","pattern_46","1075","true","28","","","","","","","","","","","","","","","","","","",""
"","","","","","html-keyboard-response","83","153906","0.0-2.0-5.0-0.31","6266bb112b25f2d6a4ebef7e","A3","batch1","","null","<p class=block-text>Trial 32 out of 78</p>","null","pattern_show_trial_num","","","","","","","","","","","","","","","","","","","","","","","","",""
"","","","","","image-keyboard-response","84","154853","0.0-2.0-5.0-1.31","6266bb112b25f2d6a4ebef7e","A3","batch1","","941","stim/yes_12_hor_w1_w.png","f","pattern_response","true","f","pattern_42","941","true","29","","","","","","","","","","","","","","","","","","",""
"","","","","","html-keyboard-response","85","156155","0.0-2.0-5.0-0.32","6266bb112b25f2d6a4ebef7e","A3","batch1","","null","<p class=block-text>Trial 33 out of 78</p>","null","pattern_show_trial_num","","","","","","","","","","","","","","","","","","","","","","","","",""
"","","","","","image-keyboard-response","86","157816","0.0-2.0-5.0-1.32","6266bb112b25f2d6a4ebef7e","A3","batch1","","1652","stim/yes_70_ver_b1.png","f","pattern_response","true","f","pattern_80","1652","true","30","","","","","","","","","","","","","","","","","","",""
"","","","","","html-keyboard-response","87","159118","0.0-2.0-5.0-0.33","6266bb112b25f2d6a4ebef7e","A3","batch1","","null","<p class=block-text>Trial 34 out of 78</p>","null","pattern_show_trial_num","","","","","","","","","","","","","","","","","","","","","","","","",""
"","","","","","image-keyboard-response","88","162304","0.0-2.0-5.0-1.33","6266bb112b25f2d6a4ebef7e","A3","batch1","","3179.999999999971","stim/yes_63_dia_b1.png","f","pattern_response","true","f","pattern_78","3179.999999999971","true","31","","","","","","","","","","","","","","","","","","",""
"","","","","","html-keyboard-response","89","163606","0.0-2.0-5.0-0.34","6266bb112b25f2d6a4ebef7e","A3","batch1","","null","<p class=block-text>Trial 35 out of 78</p>","null","pattern_show_trial_num","","","","","","","","","","","","","","","","","","","","","","","","",""
"","","","","","image-keyboard-response","90","166754","0.0-2.0-5.0-1.34","6266bb112b25f2d6a4ebef7e","A3","batch1","","3140","stim/yes_51_dia_b1.png","j","pattern_response","false","f","pattern_72","3140","false","31","","","","","","","","","","","","","","","","","","",""
"","","","","","html-keyboard-response","91","168055","0.0-2.0-5.0-0.35","6266bb112b25f2d6a4ebef7e","A3","batch1","","null","<p class=block-text>Trial 36 out of 78</p>","null","pattern_show_trial_num","","","","","","","","","","","","","","","","","","","","","","","","",""
"","","","","","image-keyboard-response","92","169603","0.0-2.0-5.0-1.35","6266bb112b25f2d6a4ebef7e","A3","batch1","","1541","stim/yes_23_ver_b1.png","f","pattern_response","true","f","pattern_48","1541","true","32","","","","","","","","","","","","","","","","","","",""
"","","","","","html-keyboard-response","93","170905","0.0-2.0-5.0-0.36","6266bb112b25f2d6a4ebef7e","A3","batch1","","null","<p class=block-text>Trial 37 out of 78</p>","null","pattern_show_trial_num","","","","","","","","","","","","","","","","","","","","","","","","",""
"","","","","","image-keyboard-response","94","172804","0.0-2.0-5.0-1.36","6266bb112b25f2d6a4ebef7e","A3","batch1","","1892","stim/no_33_1_b.png","j","pattern_response","true","j","pattern_15","1892","true","33","","","","","","","","","","","","","","","","","","",""
"","","","","","html-keyboard-response","95","174105","0.0-2.0-5.0-0.37","6266bb112b25f2d6a4ebef7e","A3","batch1","","null","<p class=block-text>Trial 38 out of 78</p>","null","pattern_show_trial_num","","","","","","","","","","","","","","","","","","","","","","","","",""
"","","","","","image-keyboard-response","96","176403","0.0-2.0-5.0-1.37","6266bb112b25f2d6a4ebef7e","A3","batch1","","2290.999999999971","stim/yes_42_dia_w1_w.png","j","pattern_response","false","f","pattern_64","2290.999999999971","false","33","","","","","","","","","","","","","","","","","","",""
"","","","","","html-keyboard-response","97","177705","0.0-2.0-5.0-0.38","6266bb112b25f2d6a4ebef7e","A3","batch1","","null","<p class=block-text>Trial 39 out of 78</p>","null","pattern_show_trial_num","","","","","","","","","","","","","","","","","","","","","","","","",""
"","","","","","image-keyboard-response","98","181203","0.0-2.0-5.0-1.38","6266bb112b25f2d6a4ebef7e","A3","batch1","","3491","stim/no_51_1.png","j","pattern_response","true","j","pattern_31","3491","true","34","","","","","","","","","","","","","","","","","","",""
"","","","","","image-keyboard-response","99","183315","0.0-2.0-6.0","6266bb112b25f2d6a4ebef7e","A3","batch1","","1604","stim/empty_board.png","j","attention_check","true","j","","","","","500","[""f"",""j""]","","","","","","","","","","","","","","","","",""
"","","","","","html-keyboard-response","100","184117","0.0-2.0-7.0-0.0","6266bb112b25f2d6a4ebef7e","A3","batch1","","null","<p class=block-text>Trial 40 out of 78</p>","null","pattern_show_trial_num","","","","","","","","","","","","","","","","","","","","","","","","",""
"","","","","","image-keyboard-response","101","185454","0.0-2.0-7.0-1.0","6266bb112b25f2d6a4ebef7e","A3","batch1","","1329.999999999971","stim/yes_43_ver_w1_w.png","f","pattern_response","true","f","pattern_65","1329.999999999971","true","35","","","","","","","","","","","","","","","","","","",""
"","","","","","html-keyboard-response","102","186757","0.0-2.0-7.0-0.1","6266bb112b25f2d6a4ebef7e","A3","batch1","","null","<p class=block-text>Trial 41 out of 78</p>","null","pattern_show_trial_num","","","","","","","","","","","","","","","","","","","","","","","","",""
"","","","","","image-keyboard-response","103","188103","0.0-2.0-7.0-1.1","6266bb112b25f2d6a4ebef7e","A3","batch1","","1339","stim/yes_38_hor_b1_b.png","j","pattern_response","false","f","pattern_61","1339","false","35","","","","","","","","","","","","","","","","","","",""
"","","","","","html-keyboard-response","104","189405","0.0-2.0-7.0-0.2","6266bb112b25f2d6a4ebef7e","A3","batch1","","null","<p class=block-text>Trial 42 out of 78</p>","null","pattern_show_trial_num","","","","","","","","","","","","","","","","","","","","","","","","",""
"","","","","","image-keyboard-response","105","191353","0.0-2.0-7.0-1.2","6266bb112b25f2d6a4ebef7e","A3","batch1","","1941","stim/no_29_1_b.png","j","pattern_response","true","j","pattern_12","1941","true","36","","","","","","","","","","","","","","","","","","",""
"","","","","","html-keyboard-response","106","192655","0.0-2.0-7.0-0.3","6266bb112b25f2d6a4ebef7e","A3","batch1","","null","<p class=block-text>Trial 43 out of 78</p>","null","pattern_show_trial_num","","","","","","","","","","","","","","","","","","","","","","","","",""
"","","","","","image-keyboard-response","107","195154","0.0-2.0-7.0-1.3","6266bb112b25f2d6a4ebef7e","A3","batch1","","2492.000000000029","stim/yes_40_dia_b1_b.png","j","pattern_response","false","f","pattern_63","2492.000000000029","false","36","","","","","","","","","","","","","","","","","","",""
"","","","","","html-keyboard-response","108","196455","0.0-2.0-7.0-0.4","6266bb112b25f2d6a4ebef7e","A3","batch1","","null","<p class=block-text>Trial 44 out of 78</p>","null","pattern_show_trial_num","","","","","","","","","","","","","","","","","","","","","","","","",""
"","","","","","image-keyboard-response","109","199253","0.0-2.0-7.0-1.4","6266bb112b25f2d6a4ebef7e","A3","batch1","","2791","stim/no_52_1.png","j","pattern_response","true","j","pattern_32","2791","true","37","","","","","","","","","","","","","","","","","","",""
"","","","","","html-keyboard-response","110","200555","0.0-2.0-7.0-0.5","6266bb112b25f2d6a4ebef7e","A3","batch1","","null","<p class=block-text>Trial 45 out of 78</p>","null","pattern_show_trial_num","","","","","","","","","","","","","","","","","","","","","","","","",""
"","","","","","image-keyboard-response","111","203453","0.0-2.0-7.0-1.5","6266bb112b25f2d6a4ebef7e","A3","batch1","","2892","stim/no_36_2_w.png","j","pattern_response","true","j","pattern_18","2892","true","38","","","","","","","","","","","","","","","","","","",""
"","","","","","html-keyboard-response","112","204755","0.0-2.0-7.0-0.6","6266bb112b25f2d6a4ebef7e","A3","batch1","","null","<p class=block-text>Trial 46 out of 78</p>","null","pattern_show_trial_num","","","","","","","","","","","","","","","","","","","","","","","","",""
"","","","","","image-keyboard-response","113","205754","0.0-2.0-7.0-1.6","6266bb112b25f2d6a4ebef7e","A3","batch1","","992","stim/no_17_1_w.png","j","pattern_response","true","j","pattern_04","992","true","39","","","","","","","","","","","","","","","","","","",""
"","","","","","html-keyboard-response","114","207056","0.0-2.0-7.0-0.7","6266bb112b25f2d6a4ebef7e","A3","batch1","","null","<p class=block-text>Trial 47 out of 78</p>","null","pattern_show_trial_num","","","","","","","","","","","","","","","","","","","","","","","","",""
"","","","","","image-keyboard-response","115","210303","0.0-2.0-7.0-1.7","6266bb112b25f2d6a4ebef7e","A3","batch1","","3240.000000000029","stim/yes_48_dia_w1_w.png","j","pattern_response","false","f","pattern_69","3240.000000000029","false","39","","","","","","","","","","","","","","","","","","",""
"","","","","","html-keyboard-response","116","211605","0.0-2.0-7.0-0.8","6266bb112b25f2d6a4ebef7e","A3","batch1","","null","<p class=block-text>Trial 48 out of 78</p>","null","pattern_show_trial_num","","","","","","","","","","","","","","","","","","","","","","","","",""
"","","","","","image-keyboard-response","117","217603","0.0-2.0-7.0-1.8","6266bb112b25f2d6a4ebef7e","A3","batch1","","5990","stim/no_62_1_w.png","j","pattern_response","true","j","pattern_36","5990","true","40","","","","","","","","","","","","","","","","","","",""
"","","","","","html-keyboard-response","118","218905","0.0-2.0-7.0-0.9","6266bb112b25f2d6a4ebef7e","A3","batch1","","null","<p class=block-text>Trial 49 out of 78</p>","null","pattern_show_trial_num","","","","","","","","","","","","","","","","","","","","","","","","",""
"","","","","","image-keyboard-response","119","220053","0.0-2.0-7.0-1.9","6266bb112b25f2d6a4ebef7e","A3","batch1","","1140.000000000029","stim/yes_55_hor_w1_w.png","f","pattern_response","true","f","pattern_75","1140.000000000029","true","41","","","","","","","","","","","","","","","","","","",""
"","","","","","html-keyboard-response","120","221355","0.0-2.0-7.0-0.10","6266bb112b25f2d6a4ebef7e","A3","batch1","","null","<p class=block-text>Trial 50 out of 78</p>","null","pattern_show_trial_num","","","","","","","","","","","","","","","","","","","","","","","","",""
"","","","","","image-keyboard-response","121","224003","0.0-2.0-7.0-1.10","6266bb112b25f2d6a4ebef7e","A3","batch1","","2640.999999999971","stim/no_46_1_b.png","j","pattern_response","true","j","pattern_26","2640.999999999971","true","42","","","","","","","","","","","","","","","","","","",""
"","","","","","html-keyboard-response","122","225305","0.0-2.0-7.0-0.11","6266bb112b25f2d6a4ebef7e","A3","batch1","","null","<p class=block-text>Trial 51 out of 78</p>","null","pattern_show_trial_num","","","","","","","","","","","","","","","","","","","","","","","","",""
"","","","","","image-keyboard-response","123","226953","0.0-2.0-7.0-1.11","6266bb112b25f2d6a4ebef7e","A3","batch1","","1641","stim/yes_28_ver_b1.png","f","pattern_response","true","f","pattern_51","1641","true","43","","","","","","","","","","","","","","","","","","",""
"","","","","","html-keyboard-response","124","228255","0.0-2.0-7.0-0.12","6266bb112b25f2d6a4ebef7e","A3","batch1","","null","<p class=block-text>Trial 52 out of 78</p>","null","pattern_show_trial_num","","","","","","","","","","","","","","","","","","","","","","","","",""
"","","","","","image-keyboard-response","125","230453","0.0-2.0-7.0-1.12","6266bb112b25f2d6a4ebef7e","A3","batch1","","2192","stim/yes_60_ver_b1_b.png","f","pattern_response","true","f","pattern_77","2192","true","44","","","","","","","","","","","","","","","","","","",""
"","","","","","html-keyboard-response","126","231756","0.0-2.0-7.0-0.13","6266bb112b25f2d6a4ebef7e","A3","batch1","","null","<p class=block-text>Trial 53 out of 78</p>","null","pattern_show_trial_num","","","","","","","","","","","","","","","","","","","","","","","","",""
"","","","","","image-keyboard-response","127","235203","0.0-2.0-7.0-1.13","6266bb112b25f2d6a4ebef7e","A3","batch1","","3440","stim/no_44_1.png","j","pattern_response","true","j","pattern_24","3440","true","45","","","","","","","","","","","","","","","","","","",""
"","","","","","html-keyboard-response","128","236505","0.0-2.0-7.0-0.14","6266bb112b25f2d6a4ebef7e","A3","batch1","","null","<p class=block-text>Trial 54 out of 78</p>","null","pattern_show_trial_num","","","","","","","","","","","","","","","","","","","","","","","","",""
"","","","","","image-keyboard-response","129","238353","0.0-2.0-7.0-1.14","6266bb112b25f2d6a4ebef7e","A3","batch1","","1841","stim/yes_29_ver_w1.png","f","pattern_response","true","f","pattern_53","1841","true","46","","","","","","","","","","","","","","","","","","",""
"","","","","","html-keyboard-response","130","239655","0.0-2.0-7.0-0.15","6266bb112b25f2d6a4ebef7e","A3","batch1","","null","<p class=block-text>Trial 55 out of 78</p>","null","pattern_show_trial_num","","","","","","","","","","","","","","","","","","","","","","","","",""
"","","","","","image-keyboard-response","131","242552","0.0-2.0-7.0-1.15","6266bb112b25f2d6a4ebef7e","A3","batch1","","2891.000000000029","stim/yes_37_dia_w1.png","j","pattern_response","false","f","pattern_59","2891.000000000029","false","46","","","","","","","","","","","","","","","","","","",""
"","","","","","html-keyboard-response","132","243855","0.0-2.0-7.0-0.16","6266bb112b25f2d6a4ebef7e","A3","batch1","","null","<p class=block-text>Trial 56 out of 78</p>","null","pattern_show_trial_num","","","","","","","","","","","","","","","","","","","","","","","","",""
"","","","","","image-keyboard-response","133","246702","0.0-2.0-7.0-1.16","6266bb112b25f2d6a4ebef7e","A3","batch1","","2840.999999999971","stim/yes_50_dia_w1.png","f","pattern_response","true","f","pattern_71","2840.999999999971","true","47","","","","","","","","","","","","","","","","","","",""
"","","","","","html-keyboard-response","134","248005","0.0-2.0-7.0-0.17","6266bb112b25f2d6a4ebef7e","A3","batch1","","null","<p class=block-text>Trial 57 out of 78</p>","null","pattern_show_trial_num","","","","","","","","","","","","","","","","","","","","","","","","",""
"","","","","","image-keyboard-response","135","249452","0.0-2.0-7.0-1.17","6266bb112b25f2d6a4ebef7e","A3","batch1","","1441","stim/no_20_1_w.png","j","pattern_response","true","j","pattern_06","1441","true","48","","","","","","","","","","","","","","","","","","",""
"","","","","","html-keyboard-response","136","250754","0.0-2.0-7.0-0.18","6266bb112b25f2d6a4ebef7e","A3","batch1","","null","<p class=block-text>Trial 58 out of 78</p>","null","pattern_show_trial_num","","","","","","","","","","","","","","","","","","","","","","","","",""
"","","","","","image-keyboard-response","137","252753","0.0-2.0-7.0-1.18","6266bb112b25f2d6a4ebef7e","A3","batch1","","1992","stim/no_26_1_w.png","j","pattern_response","true","j","pattern_10","1992","true","49","","","","","","","","","","","","","","","","","","",""
"","","","","","html-keyboard-response","138","254056","0.0-2.0-7.0-0.19","6266bb112b25f2d6a4ebef7e","A3","batch1","","null","<p class=block-text>Trial 59 out of 78</p>","null","pattern_show_trial_num","","","","","","","","","","","","","","","","","","","","","","","","",""
"","","","","","image-keyboard-response","139","256462","0.0-2.0-7.0-1.19","6266bb112b25f2d6a4ebef7e","A3","batch1","","2400","stim/yes_35_dia_b1.png","f","pattern_response","true","f","pattern_57","2400","true","50","","","","","","","","","","","","","","","","","","",""
"","","","","","html-keyboard-response","140","257764","0.0-2.0-7.0-0.20","6266bb112b25f2d6a4ebef7e","A3","batch1","","null","<p class=block-text>Trial 60 out of 78</p>","null","pattern_show_trial_num","","","","","","","","","","","","","","","","","","","","","","","","",""
"","","","","","image-keyboard-response","141","259802","0.0-2.0-7.0-1.20","6266bb112b25f2d6a4ebef7e","A3","batch1","","2031.000000000029","stim/no_34_1_b.png","j","pattern_response","true","j","pattern_16","2031.000000000029","true","51","","","","","","","","","","","","","","","","","","",""
"","","","","","html-keyboard-response","142","261104","0.0-2.0-7.0-0.21","6266bb112b25f2d6a4ebef7e","A3","batch1","","null","<p class=block-text>Trial 61 out of 78</p>","null","pattern_show_trial_num","","","","","","","","","","","","","","","","","","","","","","","","",""
"","","","","","image-keyboard-response","143","266703","0.0-2.0-7.0-1.21","6266bb112b25f2d6a4ebef7e","A3","batch1","","5592","stim/no_65_1_b.png","j","pattern_response","true","j","pattern_38","5592","true","52","","","","","","","","","","","","","","","","","","",""
"","","","","","html-keyboard-response","144","268005","0.0-2.0-7.0-0.22","6266bb112b25f2d6a4ebef7e","A3","batch1","","null","<p class=block-text>Trial 62 out of 78</p>","null","pattern_show_trial_num","","","","","","","","","","","","","","","","","","","","","","","","",""
"","","","","","image-keyboard-response","145","269902","0.0-2.0-7.0-1.22","6266bb112b25f2d6a4ebef7e","A3","batch1","","1891","stim/no_50_1.png","j","pattern_response","true","j","pattern_30","1891","true","53","","","","","","","","","","","","","","","","","","",""
"","","","","","html-keyboard-response","146","271205","0.0-2.0-7.0-0.23","6266bb112b25f2d6a4ebef7e","A3","batch1","","null","<p class=block-text>Trial 63 out of 78</p>","null","pattern_show_trial_num","","","","","","","","","","","","","","","","","","","","","","","","",""
"","","","","","image-keyboard-response","147","274111","0.0-2.0-7.0-1.23","6266bb112b25f2d6a4ebef7e","A3","batch1","","2900","stim/no_42_1_w.png","j","pattern_response","true","j","pattern_22","2900","true","54","","","","","","","","","","","","","","","","","","",""
"","","","","","html-keyboard-response","148","275413","0.0-2.0-7.0-0.24","6266bb112b25f2d6a4ebef7e","A3","batch1","","null","<p class=block-text>Trial 64 out of 78</p>","null","pattern_show_trial_num","","","","","","","","","","","","","","","","","","","","","","","","",""
"","","","","","image-keyboard-response","149","277356","0.0-2.0-7.0-1.24","6266bb112b25f2d6a4ebef7e","A3","batch1","","1936","stim/no_38_1_b.png","j","pattern_response","true","j","pattern_20","1936","true","55","","","","","","","","","","","","","","","","","","",""
"","","","","","html-keyboard-response","150","278659","0.0-2.0-7.0-0.25","6266bb112b25f2d6a4ebef7e","A3","batch1","","null","<p class=block-text>Trial 65 out of 78</p>","null","pattern_show_trial_num","","","","","","","","","","","","","","","","","","","","","","","","",""
"","","","","","image-keyboard-response","151","280252","0.0-2.0-7.0-1.25","6266bb112b25f2d6a4ebef7e","A3","batch1","","1587","stim/yes_31_hor_b1.png","j","pattern_response","false","f","pattern_55","1587","false","55","","","","","","","","","","","","","","","","","","",""
"","","","","","html-keyboard-response","152","281554","0.0-2.0-7.0-0.26","6266bb112b25f2d6a4ebef7e","A3","batch1","","null","<p class=block-text>Trial 66 out of 78</p>","null","pattern_show_trial_num","","","","","","","","","","","","","","","","","","","","","","","","",""
"","","","","","image-keyboard-response","153","284053","0.0-2.0-7.0-1.26","6266bb112b25f2d6a4ebef7e","A3","batch1","","2490.999999999942","stim/no_55_1_w.png","j","pattern_response","true","j","pattern_34","2490.999999999942","true","56","","","","","","","","","","","","","","","","","","",""
"","","","","","html-keyboard-response","154","285354","0.0-2.0-7.0-0.27","6266bb112b25f2d6a4ebef7e","A3","batch1","","null","<p class=block-text>Trial 67 out of 78</p>","null","pattern_show_trial_num","","","","","","","","","","","","","","","","","","","","","","","","",""
"","","","","","image-keyboard-response","155","288802","0.0-2.0-7.0-1.27","6266bb112b25f2d6a4ebef7e","A3","batch1","","3442","stim/no_48_1_w.png","j","pattern_response","true","j","pattern_28","3442","true","57","","","","","","","","","","","","","","","","","","",""
"","","","","","html-keyboard-response","156","290104","0.0-2.0-7.0-0.28","6266bb112b25f2d6a4ebef7e","A3","batch1","","null","<p class=block-text>Trial 68 out of 78</p>","null","pattern_show_trial_num","","","","","","","","","","","","","","","","","","","","","","","","",""
"","","","","","image-keyboard-response","157","293252","0.0-2.0-7.0-1.28","6266bb112b25f2d6a4ebef7e","A3","batch1","","3141","stim/no_70_2.png","j","pattern_response","true","j","pattern_40","3141","true","58","","","","","","","","","","","","","","","","","","",""
"","","","","","html-keyboard-response","158","294553","0.0-2.0-7.0-0.29","6266bb112b25f2d6a4ebef7e","A3","batch1","","null","<p class=block-text>Trial 69 out of 78</p>","null","pattern_show_trial_num","","","","","","","","","","","","","","","","","","","","","","","","",""
"","","","","","image-keyboard-response","159","296052","0.0-2.0-7.0-1.29","6266bb112b25f2d6a4ebef7e","A3","batch1","","1492","stim/no_32_1_w.png","j","pattern_response","true","j","pattern_14","1492","true","59","","","","","","","","","","","","","","","","","","",""
"","","","","","html-keyboard-response","160","297354","0.0-2.0-7.0-0.30","6266bb112b25f2d6a4ebef7e","A3","batch1","","null","<p class=block-text>Trial 70 out of 78</p>","null","pattern_show_trial_num","","","","","","","","","","","","","","","","","","","","","","","","",""
"","","","","","image-keyboard-response","161","299052","0.0-2.0-7.0-1.30","6266bb112b25f2d6a4ebef7e","A3","batch1","","1691","stim/yes_67_hor_b1.png","f","pattern_response","true","f","pattern_79","1691","true","60","","","","","","","","","","","","","","","","","","",""
"","","","","","html-keyboard-response","162","300354","0.0-2.0-7.0-0.31","6266bb112b25f2d6a4ebef7e","A3","batch1","","null","<p class=block-text>Trial 71 out of 78</p>","null","pattern_show_trial_num","","","","","","","","","","","","","","","","","","","","","","","","",""
"","","","","","image-keyboard-response","163","301952","0.0-2.0-7.0-1.31","6266bb112b25f2d6a4ebef7e","A3","batch1","","1591","stim/yes_52_ver_w1.png","f","pattern_response","true","f","pattern_73","1591","true","61","","","","","","","","","","","","","","","","","","",""
"","","","","","html-keyboard-response","164","303255","0.0-2.0-7.0-0.32","6266bb112b25f2d6a4ebef7e","A3","batch1","","null","<p class=block-text>Trial 72 out of 78</p>","null","pattern_show_trial_num","","","","","","","","","","","","","","","","","","","","","","","","",""
"","","","","","image-keyboard-response","165","304302","0.0-2.0-7.0-1.32","6266bb112b25f2d6a4ebef7e","A3","batch1","","1041","stim/no_23_1.png","j","pattern_response","true","j","pattern_08","1041","true","62","","","","","","","","","","","","","","","","","","",""
"","","","","","html-keyboard-response","166","305603","0.0-2.0-7.0-0.33","6266bb112b25f2d6a4ebef7e","A3","batch1","","null","<p class=block-text>Trial 73 out of 78</p>","null","pattern_show_trial_num","","","","","","","","","","","","","","","","","","","","","","","","",""
"","","","","","image-keyboard-response","167","306665","0.0-2.0-7.0-1.33","6266bb112b25f2d6a4ebef7e","A3","batch1","","1054","stim/yes_14_hor_b1_w.png","f","pattern_response","true","f","pattern_43","1054","true","63","","","","","","","","","","","","","","","","","","",""
"","","","","","html-keyboard-response","168","307966","0.0-2.0-7.0-0.34","6266bb112b25f2d6a4ebef7e","A3","batch1","","null","<p class=block-text>Trial 74 out of 78</p>","null","pattern_show_trial_num","","","","","","","","","","","","","","","","","","","","","","","","",""
"","","","","","image-keyboard-response","169","309113","0.0-2.0-7.0-1.34","6266bb112b25f2d6a4ebef7e","A3","batch1","","1140","stim/yes_22_ver_w1.png","f","pattern_response","true","f","pattern_47","1140","true","64","","","","","","","","","","","","","","","","","","",""
"","","","","","html-keyboard-response","170","310416","0.0-2.0-7.0-0.35","6266bb112b25f2d6a4ebef7e","A3","batch1","","null","<p class=block-text>Trial 75 out of 78</p>","null","pattern_show_trial_num","","","","","","","","","","","","","","","","","","","","","","","","",""
"","","","","","image-keyboard-response","171","311753","0.0-2.0-7.0-1.35","6266bb112b25f2d6a4ebef7e","A3","batch1","","1331","stim/yes_25_hor_b1_b.png","f","pattern_response","true","f","pattern_49","1331","true","65","","","","","","","","","","","","","","","","","","",""
"","","","","","html-keyboard-response","172","313056","0.0-2.0-7.0-0.36","6266bb112b25f2d6a4ebef7e","A3","batch1","","null","<p class=block-text>Trial 76 out of 78</p>","null","pattern_show_trial_num","","","","","","","","","","","","","","","","","","","","","","","","",""
"","","","","","image-keyboard-response","173","314403","0.0-2.0-7.0-1.36","6266bb112b25f2d6a4ebef7e","A3","batch1","","1340","stim/yes_17_dia_w1.png","f","pattern_response","true","f","pattern_45","1340","true","66","","","","","","","","","","","","","","","","","","",""
"","","","","","html-keyboard-response","174","315705","0.0-2.0-7.0-0.37","6266bb112b25f2d6a4ebef7e","A3","batch1","","null","<p class=block-text>Trial 77 out of 78</p>","null","pattern_show_trial_num","","","","","","","","","","","","","","","","","","","","","","","","",""
"","","","","","image-keyboard-response","175","317402","0.0-2.0-7.0-1.37","6266bb112b25f2d6a4ebef7e","A3","batch1","","1690","stim/yes_45_hor_b2_b.png","f","pattern_response","true","f","pattern_67","1690","true","67","","","","","","","","","","","","","","","","","","",""
"","","","","","html-keyboard-response","176","318703","0.0-2.0-7.0-0.38","6266bb112b25f2d6a4ebef7e","A3","batch1","","null","<p class=block-text>Trial 78 out of 78</p>","null","pattern_show_trial_num","","","","","","","","","","","","","","","","","","","","","","","","",""
"","","","","","image-keyboard-response","177","319852","0.0-2.0-7.0-1.38","6266bb112b25f2d6a4ebef7e","A3","batch1","","1141.9999999999418","stim/no_13_2_b.png","j","pattern_response","true","j","pattern_02","1141.9999999999418","true","68","","","","","","","","","","","","","","","","","","",""
"","","","","","html-button-response","178","323301","0.0-2.0-8.0","6266bb112b25f2d6a4ebef7e","A3","batch1","","2947","<p class = block-text>This concludes the 4-in-a-row detection game.Thank you for your responses!<br>
            You responded correctly on 87% of the trials.<br>
            When you are ready, press ""Continue"" button to continue </p>","0","","","","","","","","","","","","","","","","","","","","","","","","","",""
"true","","","","","fullscreen","179","326103","0.0-3.0-0.0","6266bb112b25f2d6a4ebef7e","A3","batch1","","","","","spm_fullscreen","","","","","","","","","","","","","","","","","","","","","","","","",""
"","","","","","html-button-response","180","335665","0.0-3.0-1.0","6266bb112b25f2d6a4ebef7e","A3","batch1","","9562","<p class = block-text><b>Instructions</b> <br>This is a widely used intelligence test in research. <br>In this test, a figure with a missing piece will be presented.<br>Below the figure are alternative pieces to complete the figure, only one of which is correct.<br> Different figures might involve different principles for obtaining the missing piece<br>Your job is to select the most logical piece to complete the figure.</p>","0","","","","","","","","","","","","","","","","","","","","","","","","","",""
"","","","","","html-keyboard-response","181","336466","0.0-3.0-2.0-0.0","6266bb112b25f2d6a4ebef7e","A3","batch1","","null","<p class=block-text>Trial 1 out of 60</p>","null","spm_show_trial_num","","","","","","","","","","","","","","","","","","","","","","","","",""
"","","","","","image-button-response","182","342352","0.0-3.0-2.0-1.0","6266bb112b25f2d6a4ebef7e","A3","batch1","","5882","img/question_1_1.jpeg","3","spm_respsonse","1","4","mat_01","","","","","","1","5882","","","","","","","","","","","","","","",""
"","","","","","html-keyboard-response","183","343404","0.0-3.0-2.0-0.1","6266bb112b25f2d6a4ebef7e","A3","batch1","","null","<p class=block-text>Trial 2 out of 60</p>","null","spm_show_trial_num","","","","","","","","","","","","","","","","","","","","","","","","",""
"","","","","","image-button-response","184","346701","0.0-3.0-2.0-1.1","6266bb112b25f2d6a4ebef7e","A3","batch1","","3293","img/question_1_2.jpeg","4","spm_respsonse","1","5","mat_02","","","","","","1","3293","","","","","","","","","","","","","","",""
"","","","","","html-keyboard-response","185","347753","0.0-3.0-2.0-0.2","6266bb112b25f2d6a4ebef7e","A3","batch1","","null","<p class=block-text>Trial 3 out of 60</p>","null","spm_show_trial_num","","","","","","","","","","","","","","","","","","","","","","","","",""
"","","","","","image-button-response","186","354801","0.0-3.0-2.0-1.2","6266bb112b25f2d6a4ebef7e","A3","batch1","","7045","img/question_1_3.jpeg","0","spm_respsonse","1","1","mat_03","","","","","","1","7045","","","","","","","","","","","","","","",""
"","","","","","html-keyboard-response","187","355853","0.0-3.0-2.0-0.3","6266bb112b25f2d6a4ebef7e","A3","batch1","","null","<p class=block-text>Trial 4 out of 60</p>","null","spm_show_trial_num","","","","","","","","","","","","","","","","","","","","","","","","",""
"","","","","","image-button-response","188","361501","0.0-3.0-2.0-1.3","6266bb112b25f2d6a4ebef7e","A3","batch1","","5644.000000000058","img/question_1_4.jpeg","1","spm_respsonse","1","2","mat_04","","","","","","1","5644.000000000058","","","","","","","","","","","","","","",""
"","","","","","html-keyboard-response","189","362552","0.0-3.0-2.0-0.4","6266bb112b25f2d6a4ebef7e","A3","batch1","","null","<p class=block-text>Trial 5 out of 60</p>","null","spm_show_trial_num","","","","","","","","","","","","","","","","","","","","","","","","",""
"","","","","","image-button-response","190","369903","0.0-3.0-2.0-1.4","6266bb112b25f2d6a4ebef7e","A3","batch1","","7348","img/question_1_5.jpeg","5","spm_respsonse","1","6","mat_05","","","","","","1","7348","","","","","","","","","","","","","","",""
"","","","","","html-keyboard-response","191","370955","0.0-3.0-2.0-0.5","6266bb112b25f2d6a4ebef7e","A3","batch1","","null","<p class=block-text>Trial 6 out of 60</p>","null","spm_show_trial_num","","","","","","","","","","","","","","","","","","","","","","","","",""
"","","","","","image-button-response","192","376751","0.0-3.0-2.0-1.5","6266bb112b25f2d6a4ebef7e","A3","batch1","","5792.000000000058","img/question_1_6.jpeg","2","spm_respsonse","1","3","mat_06","","","","","","1","5792.000000000058","","","","","","","","","","","","","","",""
"","","","","","html-keyboard-response","193","377802","0.0-3.0-2.0-0.6","6266bb112b25f2d6a4ebef7e","A3","batch1","","null","<p class=block-text>Trial 7 out of 60</p>","null","spm_show_trial_num","","","","","","","","","","","","","","","","","","","","","","","","",""
"","","","","","image-button-response","194","383901","0.0-3.0-2.0-1.6","6266bb112b25f2d6a4ebef7e","A3","batch1","","6095","img/question_1_7.jpeg","5","spm_respsonse","1","6","mat_07","","","","","","1","6095","","","","","","","","","","","","","","",""
"","","","","","html-keyboard-response","195","384953","0.0-3.0-2.0-0.7","6266bb112b25f2d6a4ebef7e","A3","batch1","","null","<p class=block-text>Trial 8 out of 60</p>","null","spm_show_trial_num","","","","","","","","","","","","","","","","","","","","","","","","",""
"","","","","","image-button-response","196","391251","0.0-3.0-2.0-1.7","6266bb112b25f2d6a4ebef7e","A3","batch1","","6294.000000000058","img/question_1_8.jpeg","1","spm_respsonse","1","2","mat_08","","","","","","1","6294.000000000058","","","","","","","","","","","","","","",""
"","","","","","html-keyboard-response","197","392302","0.0-3.0-2.0-0.8","6266bb112b25f2d6a4ebef7e","A3","batch1","","null","<p class=block-text>Trial 9 out of 60</p>","null","spm_show_trial_num","","","","","","","","","","","","","","","","","","","","","","","","",""
"","","","","","image-button-response","198","397601","0.0-3.0-2.0-1.8","6266bb112b25f2d6a4ebef7e","A3","batch1","","5295","img/question_1_9.jpeg","0","spm_respsonse","1","1","mat_09","","","","","","1","5295","","","","","","","","","","","","","","",""
"","","","","","html-keyboard-response","199","398652","0.0-3.0-2.0-0.9","6266bb112b25f2d6a4ebef7e","A3","batch1","","null","<p class=block-text>Trial 10 out of 60</p>","null","spm_show_trial_num","","","","","","","","","","","","","","","","","","","","","","","","",""
"","","","","","image-button-response","200","405451","0.0-3.0-2.0-1.9","6266bb112b25f2d6a4ebef7e","A3","batch1","","6795","img/question_1_10.jpeg","2","spm_respsonse","1","3","mat_10","","","","","","1","6795","","","","","","","","","","","","","","",""
"","","","","","html-keyboard-response","201","406502","0.0-3.0-2.0-0.10","6266bb112b25f2d6a4ebef7e","A3","batch1","","null","<p class=block-text>Trial 11 out of 60</p>","null","spm_show_trial_num","","","","","","","","","","","","","","","","","","","","","","","","",""
"","","","","","image-button-response","202","422951","0.0-3.0-2.0-1.10","6266bb112b25f2d6a4ebef7e","A3","batch1","","16446","img/question_1_11.jpeg","3","spm_respsonse","1","4","mat_11","","","","","","1","16446","","","","","","","","","","","","","","",""
"","","","","","html-keyboard-response","203","424003","0.0-3.0-2.0-0.11","6266bb112b25f2d6a4ebef7e","A3","batch1","","null","<p class=block-text>Trial 12 out of 60</p>","null","spm_show_trial_num","","","","","","","","","","","","","","","","","","","","","","","","",""
"","","","","","image-button-response","204","436151","0.0-3.0-2.0-1.11","6266bb112b25f2d6a4ebef7e","A3","batch1","","12145","img/question_1_12.jpeg","0","spm_respsonse","0","5","mat_12","","","","","","0","12145","","","","","","","","","","","","","","",""
"","","","","","html-keyboard-response","205","437203","0.0-3.0-2.0-0.12","6266bb112b25f2d6a4ebef7e","A3","batch1","","null","<p class=block-text>Trial 13 out of 60</p>","null","spm_show_trial_num","","","","","","","","","","","","","","","","","","","","","","","","",""
"","","","","","image-button-response","206","439701","0.0-3.0-2.0-1.12","6266bb112b25f2d6a4ebef7e","A3","batch1","","2495","img/question_2_1.jpeg","1","spm_respsonse","1","2","mat_13","","","","","","1","2495","","","","","","","","","","","","","","",""
"","","","","","html-keyboard-response","207","440753","0.0-3.0-2.0-0.13","6266bb112b25f2d6a4ebef7e","A3","batch1","","null","<p class=block-text>Trial 14 out of 60</p>","null","spm_show_trial_num","","","","","","","","","","","","","","","","","","","","","","","","",""
"","","","","","image-button-response","208","445150","0.0-3.0-2.0-1.13","6266bb112b25f2d6a4ebef7e","A3","batch1","","4394","img/question_2_2.jpeg","5","spm_respsonse","1","6","mat_14","","","","","","1","4394","","","","","","","","","","","","","","",""
"","","","","","html-keyboard-response","209","446201","0.0-3.0-2.0-0.14","6266bb112b25f2d6a4ebef7e","A3","batch1","","null","<p class=block-text>Trial 15 out of 60</p>","null","spm_show_trial_num","","","","","","","","","","","","","","","","","","","","","","","","",""
"","","","","","image-button-response","210","449201","0.0-3.0-2.0-1.14","6266bb112b25f2d6a4ebef7e","A3","batch1","","2996","img/question_2_3.jpeg","0","spm_respsonse","1","1","mat_15","","","","","","1","2996","","","","","","","","","","","","","","",""
"","","","","","html-keyboard-response","211","450253","0.0-3.0-2.0-0.15","6266bb112b25f2d6a4ebef7e","A3","batch1","","null","<p class=block-text>Trial 16 out of 60</p>","null","spm_show_trial_num","","","","","","","","","","","","","","","","","","","","","","","","",""
"","","","","","image-button-response","212","453151","0.0-3.0-2.0-1.15","6266bb112b25f2d6a4ebef7e","A3","batch1","","2893.999999999942","img/question_2_4.jpeg","1","spm_respsonse","1","2","mat_16","","","","","","1","2893.999999999942","","","","","","","","","","","","","","",""
"","","","","","html-keyboard-response","213","454202","0.0-3.0-2.0-0.16","6266bb112b25f2d6a4ebef7e","A3","batch1","","null","<p class=block-text>Trial 17 out of 60</p>","null","spm_show_trial_num","","","","","","","","","","","","","","","","","","","","","","","","",""
"","","","","","image-button-response","214","457252","0.0-3.0-2.0-1.16","6266bb112b25f2d6a4ebef7e","A3","batch1","","3046","img/question_2_5.jpeg","0","spm_respsonse","1","1","mat_17","","","","","","1","3046","","","","","","","","","","","","","","",""
"","","","","","html-keyboard-response","215","458303","0.0-3.0-2.0-0.17","6266bb112b25f2d6a4ebef7e","A3","batch1","","null","<p class=block-text>Trial 18 out of 60</p>","null","spm_show_trial_num","","","","","","","","","","","","","","","","","","","","","","","","",""
"","","","","","image-button-response","216","536050","0.0-3.0-2.0-1.17","6266bb112b25f2d6a4ebef7e","A3","batch1","","77744","img/question_2_6.jpeg","2","spm_respsonse","1","3","mat_18","","","","","","1","77744","","","","","","","","","","","","","","",""
"","","","","","html-keyboard-response","217","537101","0.0-3.0-2.0-0.18","6266bb112b25f2d6a4ebef7e","A3","batch1","","null","<p class=block-text>Trial 19 out of 60</p>","null","spm_show_trial_num","","","","","","","","","","","","","","","","","","","","","","","","",""
"","","","","","image-button-response","218","547850","0.0-3.0-2.0-1.18","6266bb112b25f2d6a4ebef7e","A3","batch1","","10745","img/question_2_7.jpeg","5","spm_respsonse","0","5","mat_19","","","","","","0","10745","","","","","","","","","","","","","","",""
"","","","","","html-keyboard-response","219","548902","0.0-3.0-2.0-0.19","6266bb112b25f2d6a4ebef7e","A3","batch1","","null","<p class=block-text>Trial 20 out of 60</p>","null","spm_show_trial_num","","","","","","","","","","","","","","","","","","","","","","","","",""
"","","","","","image-button-response","220","557100","0.0-3.0-2.0-1.19","6266bb112b25f2d6a4ebef7e","A3","batch1","","8195","img/question_2_8.jpeg","3","spm_respsonse","0","6","mat_20","","","","","","0","8195","","","","","","","","","","","","","","",""
"","","","","","html-keyboard-response","221","558152","0.0-3.0-2.0-0.20","6266bb112b25f2d6a4ebef7e","A3","batch1","","null","<p class=block-text>Trial 21 out of 60</p>","null","spm_show_trial_num","","","","","","","","","","","","","","","","","","","","","","","","",""
"","","","","","image-button-response","222","561500","0.0-3.0-2.0-1.20","6266bb112b25f2d6a4ebef7e","A3","batch1","","3345","img/question_2_9.jpeg","4","spm_respsonse","0","4","mat_21","","","","","","0","3345","","","","","","","","","","","","","","",""
"","","","","","html-keyboard-response","223","562552","0.0-3.0-2.0-0.21","6266bb112b25f2d6a4ebef7e","A3","batch1","","null","<p class=block-text>Trial 22 out of 60</p>","null","spm_show_trial_num","","","","","","","","","","","","","","","","","","","","","","","","",""
"","","","","","image-button-response","224","570100","0.0-3.0-2.0-1.21","6266bb112b25f2d6a4ebef7e","A3","batch1","","7545","img/question_2_10.jpeg","2","spm_respsonse","1","3","mat_22","","","","","","1","7545","","","","","","","","","","","","","","",""
"","","","","","html-keyboard-response","225","571152","0.0-3.0-2.0-0.22","6266bb112b25f2d6a4ebef7e","A3","batch1","","null","<p class=block-text>Trial 23 out of 60</p>","null","spm_show_trial_num","","","","","","","","","","","","","","","","","","","","","","","","",""
"","","","","","image-button-response","226","575949","0.0-3.0-2.0-1.22","6266bb112b25f2d6a4ebef7e","A3","batch1","","4793","img/question_2_11.jpeg","3","spm_respsonse","1","4","mat_23","","","","","","1","4793","","","","","","","","","","","","","","",""
"","","","","","html-keyboard-response","227","577001","0.0-3.0-2.0-0.23","6266bb112b25f2d6a4ebef7e","A3","batch1","","null","<p class=block-text>Trial 24 out of 60</p>","null","spm_show_trial_num","","","","","","","","","","","","","","","","","","","","","","","","",""
"","","","","","image-button-response","228","602503","0.0-3.0-2.0-1.23","6266bb112b25f2d6a4ebef7e","A3","batch1","","25499","img/question_2_12.jpeg","2","spm_respsonse","0","5","mat_24","","","","","","0","25499","","","","","","","","","","","","","","",""
"","","","","","html-button-response","229","604399","0.0-3.0-3.0","6266bb112b25f2d6a4ebef7e","A3","batch1","","1645","<p class = block-text>Attention check: Please choose 1<br></p>","0","attention_check","true","","","","","","","","","","","","","","","","","","","","","","","",""
"","","","","","html-keyboard-response","230","605200","0.0-3.0-4.0-0.0","6266bb112b25f2d6a4ebef7e","A3","batch1","","null","<p class=block-text>Trial 25 out of 60</p>","null","spm_show_trial_num","","","","","","","","","","","","","","","","","","","","","","","","",""
"","","","","","image-button-response","231","621899","0.0-3.0-4.0-1.0","6266bb112b25f2d6a4ebef7e","A3","batch1","","16695","img/question_3_1.jpeg","7","spm_respsonse","1","8","mat_25","","","","","","1","16695","","","","","","","","","","","","","","",""
"","","","","","html-keyboard-response","232","622952","0.0-3.0-4.0-0.1","6266bb112b25f2d6a4ebef7e","A3","batch1","","null","<p class=block-text>Trial 26 out of 60</p>","null","spm_show_trial_num","","","","","","","","","","","","","","","","","","","","","","","","",""
"","","","","","image-button-response","233","656900","0.0-3.0-4.0-1.1","6266bb112b25f2d6a4ebef7e","A3","batch1","","33946","img/question_3_2.jpeg","1","spm_respsonse","1","2","mat_26","","","","","","1","33946","","","","","","","","","","","","","","",""
"","","","","","html-keyboard-response","234","657952","0.0-3.0-4.0-0.2","6266bb112b25f2d6a4ebef7e","A3","batch1","","null","<p class=block-text>Trial 27 out of 60</p>","null","spm_show_trial_num","","","","","","","","","","","","","","","","","","","","","","","","",""
"","","","","","image-button-response","235","672349","0.0-3.0-4.0-1.2","6266bb112b25f2d6a4ebef7e","A3","batch1","","14394","img/question_3_3.jpeg","2","spm_respsonse","1","3","mat_27","","","","","","1","14394","","","","","","","","","","","","","","",""
"","","","","","html-keyboard-response","236","673402","0.0-3.0-4.0-0.3","6266bb112b25f2d6a4ebef7e","A3","batch1","","null","<p class=block-text>Trial 28 out of 60</p>","null","spm_show_trial_num","","","","","","","","","","","","","","","","","","","","","","","","",""
"","","","","","image-button-response","237","689449","0.0-3.0-4.0-1.3","6266bb112b25f2d6a4ebef7e","A3","batch1","","16043.999999999884","img/question_3_4.jpeg","7","spm_respsonse","1","8","mat_28","","","","","","1","16043.999999999884","","","","","","","","","","","","","","",""
"","","","","","html-keyboard-response","238","690500","0.0-3.0-4.0-0.4","6266bb112b25f2d6a4ebef7e","A3","batch1","","null","<p class=block-text>Trial 29 out of 60</p>","null","spm_show_trial_num","","","","","","","","","","","","","","","","","","","","","","","","",""
"","","","","","image-button-response","239","710199","0.0-3.0-4.0-1.4","6266bb112b25f2d6a4ebef7e","A3","batch1","","19695","img/question_3_5.jpeg","6","spm_respsonse","1","7","mat_29","","","","","","1","19695","","","","","","","","","","","","","","",""
"","","","","","html-keyboard-response","240","711251","0.0-3.0-4.0-0.5","6266bb112b25f2d6a4ebef7e","A3","batch1","","null","<p class=block-text>Trial 30 out of 60</p>","null","spm_show_trial_num","","","","","","","","","","","","","","","","","","","","","","","","",""
"","","","","","image-button-response","241","737448","0.0-3.0-4.0-1.5","6266bb112b25f2d6a4ebef7e","A3","batch1","","26194","img/question_3_6.jpeg","3","spm_respsonse","1","4","mat_30","","","","","","1","26194","","","","","","","","","","","","","","",""
"","","","","","html-keyboard-response","242","738500","0.0-3.0-4.0-0.6","6266bb112b25f2d6a4ebef7e","A3","batch1","","null","<p class=block-text>Trial 31 out of 60</p>","null","spm_show_trial_num","","","","","","","","","","","","","","","","","","","","","","","","",""
"","","","","","image-button-response","243","756298","0.0-3.0-4.0-1.6","6266bb112b25f2d6a4ebef7e","A3","batch1","","17794","img/question_3_7.jpeg","4","spm_respsonse","1","5","mat_31","","","","","","1","17794","","","","","","","","","","","","","","",""
"","","","","","html-keyboard-response","244","757351","0.0-3.0-4.0-0.7","6266bb112b25f2d6a4ebef7e","A3","batch1","","null","<p class=block-text>Trial 32 out of 60</p>","null","spm_show_trial_num","","","","","","","","","","","","","","","","","","","","","","","","",""
"","","","","","image-button-response","245","786898","0.0-3.0-4.0-1.7","6266bb112b25f2d6a4ebef7e","A3","batch1","","29545","img/question_3_8.jpeg","0","spm_respsonse","1","1","mat_32","","","","","","1","29545","","","","","","","","","","","","","","",""
"","","","","","html-keyboard-response","246","787951","0.0-3.0-4.0-0.8","6266bb112b25f2d6a4ebef7e","A3","batch1","","null","<p class=block-text>Trial 33 out of 60</p>","null","spm_show_trial_num","","","","","","","","","","","","","","","","","","","","","","","","",""
"","","","","","image-button-response","247","799598","0.0-3.0-4.0-1.8","6266bb112b25f2d6a4ebef7e","A3","batch1","","11643","img/question_3_9.jpeg","6","spm_respsonse","1","7","mat_33","","","","","","1","11643","","","","","","","","","","","","","","",""
"","","","","","html-keyboard-response","248","800648","0.0-3.0-4.0-0.9","6266bb112b25f2d6a4ebef7e","A3","batch1","","null","<p class=block-text>Trial 34 out of 60</p>","null","spm_show_trial_num","","","","","","","","","","","","","","","","","","","","","","","","",""
"","","","","","image-button-response","249","841798","0.0-3.0-4.0-1.9","6266bb112b25f2d6a4ebef7e","A3","batch1","","41146","img/question_3_10.jpeg","5","spm_respsonse","1","6","mat_34","","","","","","1","41146","","","","","","","","","","","","","","",""
"","","","","","html-keyboard-response","250","842850","0.0-3.0-4.0-0.10","6266bb112b25f2d6a4ebef7e","A3","batch1","","null","<p class=block-text>Trial 35 out of 60</p>","null","spm_show_trial_num","","","","","","","","","","","","","","","","","","","","","","","","",""
"","","","","","image-button-response","251","883247","0.0-3.0-4.0-1.10","6266bb112b25f2d6a4ebef7e","A3","batch1","","40393","img/question_3_11.jpeg","0","spm_respsonse","1","1","mat_35","","","","","","1","40393","","","","","","","","","","","","","","",""
"","","","","","html-keyboard-response","252","884299","0.0-3.0-4.0-0.11","6266bb112b25f2d6a4ebef7e","A3","batch1","","null","<p class=block-text>Trial 36 out of 60</p>","null","spm_show_trial_num","","","","","","","","","","","","","","","","","","","","","","","","",""
"","","","","","image-button-response","253","922497","0.0-3.0-4.0-1.11","6266bb112b25f2d6a4ebef7e","A3","batch1","","38194.99999999988","img/question_3_12.jpeg","1","spm_respsonse","1","2","mat_36","","","","","","1","38194.99999999988","","","","","","","","","","","","","","",""
"","","","","","html-keyboard-response","254","923550","0.0-3.0-4.0-0.12","6266bb112b25f2d6a4ebef7e","A3","batch1","","null","<p class=block-text>Trial 37 out of 60</p>","null","spm_show_trial_num","","","","","","","","","","","","","","","","","","","","","","","","",""
"","","","","","image-button-response","255","926947","0.0-3.0-4.0-1.12","6266bb112b25f2d6a4ebef7e","A3","batch1","","3394","img/question_4_1.jpeg","2","spm_respsonse","1","3","mat_37","","","","","","1","3394","","","","","","","","","","","","","","",""
"","","","","","html-keyboard-response","256","927998","0.0-3.0-4.0-0.13","6266bb112b25f2d6a4ebef7e","A3","batch1","","null","<p class=block-text>Trial 38 out of 60</p>","null","spm_show_trial_num","","","","","","","","","","","","","","","","","","","","","","","","",""
"","","","","","image-button-response","257","938647","0.0-3.0-4.0-1.13","6266bb112b25f2d6a4ebef7e","A3","batch1","","10646","img/question_4_2.jpeg","3","spm_respsonse","1","4","mat_38","","","","","","1","10646","","","","","","","","","","","","","","",""
"","","","","","html-keyboard-response","258","939697","0.0-3.0-4.0-0.14","6266bb112b25f2d6a4ebef7e","A3","batch1","","null","<p class=block-text>Trial 39 out of 60</p>","null","spm_show_trial_num","","","","","","","","","","","","","","","","","","","","","","","","",""
"","","","","","image-button-response","259","949297","0.0-3.0-4.0-1.14","6266bb112b25f2d6a4ebef7e","A3","batch1","","9597.000000000116","img/question_4_3.jpeg","2","spm_respsonse","1","3","mat_39","","","","","","1","9597.000000000116","","","","","","","","","","","","","","",""
"","","","","","html-keyboard-response","260","950349","0.0-3.0-4.0-0.15","6266bb112b25f2d6a4ebef7e","A3","batch1","","null","<p class=block-text>Trial 40 out of 60</p>","null","spm_show_trial_num","","","","","","","","","","","","","","","","","","","","","","","","",""
"","","","","","image-button-response","261","959397","0.0-3.0-4.0-1.15","6266bb112b25f2d6a4ebef7e","A3","batch1","","9045","img/question_4_4.jpeg","6","spm_respsonse","1","7","mat_40","","","","","","1","9045","","","","","","","","","","","","","","",""
"","","","","","html-keyboard-response","262","960449","0.0-3.0-4.0-0.16","6266bb112b25f2d6a4ebef7e","A3","batch1","","null","<p class=block-text>Trial 41 out of 60</p>","null","spm_show_trial_num","","","","","","","","","","","","","","","","","","","","","","","","",""
"","","","","","image-button-response","263","970247","0.0-3.0-4.0-1.16","6266bb112b25f2d6a4ebef7e","A3","batch1","","9794","img/question_4_5.jpeg","7","spm_respsonse","1","8","mat_41","","","","","","1","9794","","","","","","","","","","","","","","",""
"","","","","","html-keyboard-response","264","971299","0.0-3.0-4.0-0.17","6266bb112b25f2d6a4ebef7e","A3","batch1","","null","<p class=block-text>Trial 42 out of 60</p>","null","spm_show_trial_num","","","","","","","","","","","","","","","","","","","","","","","","",""
"","","","","","image-button-response","265","998447","0.0-3.0-4.0-1.17","6266bb112b25f2d6a4ebef7e","A3","batch1","","27142","img/question_4_6.jpeg","5","spm_respsonse","1","6","mat_42","","","","","","1","27142","","","","","","","","","","","","","","",""
"","","","","","html-keyboard-response","266","999499","0.0-3.0-4.0-0.18","6266bb112b25f2d6a4ebef7e","A3","batch1","","null","<p class=block-text>Trial 43 out of 60</p>","null","spm_show_trial_num","","","","","","","","","","","","","","","","","","","","","","","","",""
"","","","","","image-button-response","267","1012653","0.0-3.0-4.0-1.18","6266bb112b25f2d6a4ebef7e","A3","batch1","","13150.000000000116","img/question_4_7.jpeg","4","spm_respsonse","1","5","mat_43","","","","","","1","13150.000000000116","","","","","","","","","","","","","","",""
"","","","","","html-keyboard-response","268","1013705","0.0-3.0-4.0-0.19","6266bb112b25f2d6a4ebef7e","A3","batch1","","null","<p class=block-text>Trial 44 out of 60</p>","null","spm_show_trial_num","","","","","","","","","","","","","","","","","","","","","","","","",""
"","","","","","image-button-response","269","1026746","0.0-3.0-4.0-1.19","6266bb112b25f2d6a4ebef7e","A3","batch1","","13038.000000000116","img/question_4_8.jpeg","3","spm_respsonse","1","4","mat_44","","","","","","1","13038.000000000116","","","","","","","","","","","","","","",""
"","","","","","html-keyboard-response","270","1027799","0.0-3.0-4.0-0.20","6266bb112b25f2d6a4ebef7e","A3","batch1","","null","<p class=block-text>Trial 45 out of 60</p>","null","spm_show_trial_num","","","","","","","","","","","","","","","","","","","","","","","","",""
"","","","","","image-button-response","271","1059712","0.0-3.0-4.0-1.20","6266bb112b25f2d6a4ebef7e","A3","batch1","","31909.000000000116","img/question_4_9.jpeg","0","spm_respsonse","1","1","mat_45","","","","","","1","31909.000000000116","","","","","","","","","","","","","","",""
"","","","","","html-keyboard-response","272","1060763","0.0-3.0-4.0-0.21","6266bb112b25f2d6a4ebef7e","A3","batch1","","null","<p class=block-text>Trial 46 out of 60</p>","null","spm_show_trial_num","","","","","","","","","","","","","","","","","","","","","","","","",""
"","","","","","image-button-response","273","1081196","0.0-3.0-4.0-1.21","6266bb112b25f2d6a4ebef7e","A3","batch1","","20429","img/question_4_10.jpeg","1","spm_respsonse","1","2","mat_46","","","","","","1","20429","","","","","","","","","","","","","","",""
"","","","","","html-keyboard-response","274","1082248","0.0-3.0-4.0-0.22","6266bb112b25f2d6a4ebef7e","A3","batch1","","null","<p class=block-text>Trial 47 out of 60</p>","null","spm_show_trial_num","","","","","","","","","","","","","","","","","","","","","","","","",""
"","","","","","image-button-response","275","1105052","0.0-3.0-4.0-1.22","6266bb112b25f2d6a4ebef7e","A3","batch1","","22801","img/question_4_11.jpeg","4","spm_respsonse","1","5","mat_47","","","","","","1","22801","","","","","","","","","","","","","","",""
"","","","","","html-keyboard-response","276","1106104","0.0-3.0-4.0-0.23","6266bb112b25f2d6a4ebef7e","A3","batch1","","null","<p class=block-text>Trial 48 out of 60</p>","null","spm_show_trial_num","","","","","","","","","","","","","","","","","","","","","","","","",""
"","","","","","image-button-response","277","1146708","0.0-3.0-4.0-1.23","6266bb112b25f2d6a4ebef7e","A3","batch1","","40601","img/question_4_12.jpeg","7","spm_respsonse","0","6","mat_48","","","","","","0","40601","","","","","","","","","","","","","","",""
"","","","","","html-keyboard-response","278","1147760","0.0-3.0-4.0-0.24","6266bb112b25f2d6a4ebef7e","A3","batch1","","null","<p class=block-text>Trial 49 out of 60</p>","null","spm_show_trial_num","","","","","","","","","","","","","","","","","","","","","","","","",""
"","","","","","image-button-response","279","1158595","0.0-3.0-4.0-1.24","6266bb112b25f2d6a4ebef7e","A3","batch1","","10833","img/question_5_1.jpeg","6","spm_respsonse","1","7","mat_49","","","","","","1","10833","","","","","","","","","","","","","","",""
"","","","","","html-keyboard-response","280","1159647","0.0-3.0-4.0-0.25","6266bb112b25f2d6a4ebef7e","A3","batch1","","null","<p class=block-text>Trial 50 out of 60</p>","null","spm_show_trial_num","","","","","","","","","","","","","","","","","","","","","","","","",""
"","","","","","image-button-response","281","1184445","0.0-3.0-4.0-1.25","6266bb112b25f2d6a4ebef7e","A3","batch1","","24794","img/question_5_2.jpeg","5","spm_respsonse","1","6","mat_50","","","","","","1","24794","","","","","","","","","","","","","","",""
"","","","","","html-keyboard-response","282","1185496","0.0-3.0-4.0-0.26","6266bb112b25f2d6a4ebef7e","A3","batch1","","null","<p class=block-text>Trial 51 out of 60</p>","null","spm_show_trial_num","","","","","","","","","","","","","","","","","","","","","","","","",""
"","","","","","image-button-response","283","1206445","0.0-3.0-4.0-1.26","6266bb112b25f2d6a4ebef7e","A3","batch1","","20945","img/question_5_3.jpeg","7","spm_respsonse","1","8","mat_51","","","","","","1","20945","","","","","","","","","","","","","","",""
"","","","","","html-keyboard-response","284","1207497","0.0-3.0-4.0-0.27","6266bb112b25f2d6a4ebef7e","A3","batch1","","null","<p class=block-text>Trial 52 out of 60</p>","null","spm_show_trial_num","","","","","","","","","","","","","","","","","","","","","","","","",""
"","","","","","image-button-response","285","1221245","0.0-3.0-4.0-1.27","6266bb112b25f2d6a4ebef7e","A3","batch1","","13745.000000000233","img/question_5_4.jpeg","1","spm_respsonse","1","2","mat_52","","","","","","1","13745.000000000233","","","","","","","","","","","","","","",""
"","","","","","html-keyboard-response","286","1222297","0.0-3.0-4.0-0.28","6266bb112b25f2d6a4ebef7e","A3","batch1","","null","<p class=block-text>Trial 53 out of 60</p>","null","spm_show_trial_num","","","","","","","","","","","","","","","","","","","","","","","","",""
"","","","","","image-button-response","287","1229010","0.0-3.0-4.0-1.28","6266bb112b25f2d6a4ebef7e","A3","batch1","","6710","img/question_5_5.jpeg","0","spm_respsonse","1","1","mat_53","","","","","","1","6710","","","","","","","","","","","","","","",""
"","","","","","html-keyboard-response","288","1230063","0.0-3.0-4.0-0.29","6266bb112b25f2d6a4ebef7e","A3","batch1","","null","<p class=block-text>Trial 54 out of 60</p>","null","spm_show_trial_num","","","","","","","","","","","","","","","","","","","","","","","","",""
"","","","","","image-button-response","289","1281245","0.0-3.0-4.0-1.29","6266bb112b25f2d6a4ebef7e","A3","batch1","","51179.00000000023","img/question_5_6.jpeg","4","spm_respsonse","1","5","mat_54","","","","","","1","51179.00000000023","","","","","","","","","","","","","","",""
"","","","","","html-keyboard-response","290","1282297","0.0-3.0-4.0-0.30","6266bb112b25f2d6a4ebef7e","A3","batch1","","null","<p class=block-text>Trial 55 out of 60</p>","null","spm_show_trial_num","","","","","","","","","","","","","","","","","","","","","","","","",""
"","","","","","image-button-response","291","1307394","0.0-3.0-4.0-1.30","6266bb112b25f2d6a4ebef7e","A3","batch1","","25091.999999999767","img/question_5_7.jpeg","2","spm_respsonse","0","1","mat_55","","","","","","0","25091.999999999767","","","","","","","","","","","","","","",""
"","","","","","html-keyboard-response","292","1308446","0.0-3.0-4.0-0.31","6266bb112b25f2d6a4ebef7e","A3","batch1","","null","<p class=block-text>Trial 56 out of 60</p>","null","spm_show_trial_num","","","","","","","","","","","","","","","","","","","","","","","","",""
"","","","","","image-button-response","293","1338547","0.0-3.0-4.0-1.31","6266bb112b25f2d6a4ebef7e","A3","batch1","","30098","img/question_5_8.jpeg","5","spm_respsonse","1","6","mat_56","","","","","","1","30098","","","","","","","","","","","","","","",""
"","","","","","html-keyboard-response","294","1339599","0.0-3.0-4.0-0.32","6266bb112b25f2d6a4ebef7e","A3","batch1","","null","<p class=block-text>Trial 57 out of 60</p>","null","spm_show_trial_num","","","","","","","","","","","","","","","","","","","","","","","","",""
"","","","","","image-button-response","295","1367644","0.0-3.0-4.0-1.32","6266bb112b25f2d6a4ebef7e","A3","batch1","","28042","img/question_5_9.jpeg","2","spm_respsonse","1","3","mat_57","","","","","","1","28042","","","","","","","","","","","","","","",""
"","","","","","html-keyboard-response","296","1368695","0.0-3.0-4.0-0.33","6266bb112b25f2d6a4ebef7e","A3","batch1","","null","<p class=block-text>Trial 58 out of 60</p>","null","spm_show_trial_num","","","","","","","","","","","","","","","","","","","","","","","","",""
"","","","","","image-button-response","297","1397844","0.0-3.0-4.0-1.33","6266bb112b25f2d6a4ebef7e","A3","batch1","","29146","img/question_5_10.jpeg","3","spm_respsonse","0","2","mat_58","","","","","","0","29146","","","","","","","","","","","","","","",""
"","","","","","html-keyboard-response","298","1398896","0.0-3.0-4.0-0.34","6266bb112b25f2d6a4ebef7e","A3","batch1","","null","<p class=block-text>Trial 59 out of 60</p>","null","spm_show_trial_num","","","","","","","","","","","","","","","","","","","","","","","","",""
"","","","","","image-button-response","299","1430144","0.0-3.0-4.0-1.34","6266bb112b25f2d6a4ebef7e","A3","batch1","","31245","img/question_5_11.jpeg","5","spm_respsonse","0","4","mat_59","","","","","","0","31245","","","","","","","","","","","","","","",""
"","","","","","html-keyboard-response","300","1431195","0.0-3.0-4.0-0.35","6266bb112b25f2d6a4ebef7e","A3","batch1","","null","<p class=block-text>Trial 60 out of 60</p>","null","spm_show_trial_num","","","","","","","","","","","","","","","","","","","","","","","","",""
"","","","","","image-button-response","301","1460843","0.0-3.0-4.0-1.35","6266bb112b25f2d6a4ebef7e","A3","batch1","","29644","img/question_5_12.jpeg","1","spm_respsonse","0","5","mat_60","","","","","","0","29644","","","","","","","","","","","","","","",""
"","","","","","html-button-response","302","1462593","0.0-3.0-5.0","6266bb112b25f2d6a4ebef7e","A3","batch1","","1498","<p class= block-text>This concludes the Standard Progressive Matrix game. Thank you for your responses!<br> When you are ready, click the button continue</p>","0","spm_goodbye","","","","","","","","","","","","","","","","","","","","","","","","",""
"true","","","","","fullscreen","303","1464758","0.0-4.0-0.0","6266bb112b25f2d6a4ebef7e","A3","batch1","","","","","","","","","","","","","","","","","","","","","","","","","","","","","",""
"","","","","","instructions","304","1504942","0.0-4.0-1.0-0.0-0.0","6266bb112b25f2d6a4ebef7e","A3","batch1","[{""page_index"":0,""viewing_time"":7685},{""page_index"":1,""viewing_time"":5599},{""page_index"":2,""viewing_time"":1714},{""page_index"":3,""viewing_time"":12089},{""page_index"":4,""viewing_time"":6499},{""page_index"":5,""viewing_time"":4348},{""page_index"":6,""viewing_time"":2250}]","40184","","","tol-instructions","","","","","","","","","","","","","","","","","","","","","","","","",""
"","","","","","html-button-response","305","1505998","0.0-4.0-1.0-1.0-0.0","6266bb112b25f2d6a4ebef7e","A3","batch1","","1054","<p class=block-text> Let's answer a few questions <br>","0","tol_enter_quiz","","","","","","","","","","","","","","","","","","","","","","","","",""
"","","","","","html-button-response","306","1509305","0.0-4.0-1.0-1.0-1.0","6266bb112b25f2d6a4ebef7e","A3","batch1","","3306","<p class = block-text>True or False: You can only move the ball on top of a peg. <br></p>","0","tol_quiz","true","","","","","","","","","","","","","","","","","","","","","","","",""
"","","","","","html-button-response","307","1513092","0.0-4.0-1.0-1.0-2.0","6266bb112b25f2d6a4ebef7e","A3","batch1","","3787","<p class = block-text>Correct! You can only move the ball on top of a peg.</p>","0","tol_quiz_feedback","","","","","","","","","","","","","","","","","","","","","","","","",""
"","","","","","html-button-response","308","1515893","0.0-4.0-1.0-1.0-3.0","6266bb112b25f2d6a4ebef7e","A3","batch1","","2800","<p class = block-text>True or False: You should try to match your board with the target board with fewest moves possible. <br></p>","0","tol_quiz","true","","","","","","","","","","","","","","","","","","","","","","","",""
"","","","","","html-button-response","309","1522408","0.0-4.0-1.0-1.0-4.0","6266bb112b25f2d6a4ebef7e","A3","batch1","","6514","<p class = block-text>Correct! </p>","0","tol_quiz_feedback","","","","","","","","","","","","","","","","","","","","","","","","",""
"","","","","","html-button-response","310","1523443","0.0-4.0-2.0","6266bb112b25f2d6a4ebef7e","A3","batch1","","1034","<p class=block-text> Now that you've understood the game, let's practice a few easier examples before we start!<br> <br>","0","","","","","","","","","","","","","","","","","","","","","","","","","",""
"","","","","","single-stim-button","311","1532444","0.0-4.0-3.0-0.0","6266bb112b25f2d6a4ebef7e","A3","batch1","","8999","","","tol_practice","","","","","","","","","","","tol_peg_2","8999","8999","0","[[1,2,0],[0,0],[0]]","1","[[1,2,0],[0,0],[3]]","practice","8999","","","","","",""
"","","","","","single-stim-button","312","1535193","0.0-4.0-3.0-1.0","6266bb112b25f2d6a4ebef7e","A3","batch1","","2749","","","tol_practice","","","","","","","","","","","tol_peg_3","2749","2749","0","[[1,2,0],[0,0],[3]]","1","[[1,2,0],[0,0],[3]]","practice","2749","","","","","",""
"","","","","","poldrack-single-stim","313","1536196","0.0-4.0-4.0","6266bb112b25f2d6a4ebef7e","A3","batch1","","-1","","","tol_feedback","true","","","","","","","","","","","1000","1000","500","","","","","","-1","none","true","","0",""
"","","","","","single-stim-button","314","1545393","0.0-4.0-5.0-0.0","6266bb112b25f2d6a4ebef7e","A3","batch1","","9196","","","tol_practice","","","","","","","","","","","tol_peg_1","9196","9196","0","[[1,0,0],[3,0],[0]]","2","[[0,0,0],[3,1],[2]]","practice","9196","","","","","",""
"","","","","","single-stim-button","315","1549343","0.0-4.0-5.0-1.0","6266bb112b25f2d6a4ebef7e","A3","batch1","","3950","","","tol_practice","","","","","","","","","","","tol_peg_3","3950","3950","0","[[1,0,0],[3,0],[2]]","2","[[0,0,0],[3,1],[2]]","practice","3950","","","","","",""
"","","","","","single-stim-button","316","1551203","0.0-4.0-5.1-0.1","6266bb112b25f2d6a4ebef7e","A3","batch1","","1858","","","tol_practice","","","","","","","","","","","tol_peg_1","1858","1858","0","[[0,0,0],[3,0],[2]]","3","[[0,0,0],[3,1],[2]]","practice","1858","","","","","",""
"","","","","","single-stim-button","317","1553593","0.0-4.0-5.1-1.1","6266bb112b25f2d6a4ebef7e","A3","batch1","","2390","","","tol_practice","","","","","","","","","","","tol_peg_2","2390","2390","0","[[0,0,0],[3,1],[2]]","3","[[0,0,0],[3,1],[2]]","practice","2390","","","","","",""
"","","","","","poldrack-single-stim","318","1554594","0.0-4.0-6.0","6266bb112b25f2d6a4ebef7e","A3","batch1","","-1","","","tol_feedback","true","","","","","","","","","","","1000","1000","500","","","","","","-1","none","true","","0",""
"","","","","","single-stim-button","319","1556851","0.0-4.0-7.0-0.0","6266bb112b25f2d6a4ebef7e","A3","batch1","","2257","","","tol_practice","","","","","","","","","","","tol_peg_1","2257","2257","0","[[1,0,0],[3,0],[0]]","4","[[1,0,0],[2,0],[3]]","practice","2257","","","","","",""
"","","","","","single-stim-button","320","1563893","0.0-4.0-7.0-1.0","6266bb112b25f2d6a4ebef7e","A3","batch1","","7042","","","tol_practice","","","","","","","","","","","tol_peg_2","7042","7042","0","[[1,0,0],[3,2],[0]]","4","[[1,0,0],[2,0],[3]]","practice","7042","","","","","",""
"","","","","","single-stim-button","321","1569543","0.0-4.0-7.1-0.1","6266bb112b25f2d6a4ebef7e","A3","batch1","","5648","","","tol_practice","","","","","","","","","","","tol_peg_2","5648","5648","0","[[1,0,0],[3,0],[0]]","5","[[1,0,0],[2,0],[3]]","practice","5648","","","","","",""
"","","","","","single-stim-button","322","1573093","0.0-4.0-7.1-1.1","6266bb112b25f2d6a4ebef7e","A3","batch1","","3550","","","tol_practice","","","","","","","","","","","tol_peg_1","3550","3550","0","[[1,2,0],[3,0],[0]]","5","[[1,0,0],[2,0],[3]]","practice","3550","","","","","",""
"","","","","","single-stim-button","323","1574292","0.0-4.0-7.2-0.2","6266bb112b25f2d6a4ebef7e","A3","batch1","","1198","","","tol_practice","","","","","","","","","","","tol_peg_2","1198","1198","0","[[1,2,0],[0,0],[0]]","6","[[1,0,0],[2,0],[3]]","practice","1198","","","","","",""
"","","","","","single-stim-button","324","1576052","0.0-4.0-7.2-1.2","6266bb112b25f2d6a4ebef7e","A3","batch1","","1758","","","tol_practice","","","","","","","","","","","tol_peg_3","1758","1758","0","[[1,2,0],[0,0],[3]]","6","[[1,0,0],[2,0],[3]]","practice","1758","","","","","",""
"","","","","","single-stim-button","325","1577198","0.0-4.0-7.3-0.3","6266bb112b25f2d6a4ebef7e","A3","batch1","","1145","","","tol_practice","","","","","","","","","","","tol_peg_1","1145","1145","0","[[1,0,0],[0,0],[3]]","7","[[1,0,0],[2,0],[3]]","practice","1145","","","","","",""
"","","","","","single-stim-button","326","1578642","0.0-4.0-7.3-1.3","6266bb112b25f2d6a4ebef7e","A3","batch1","","1444","","","tol_practice","","","","","","","","","","","tol_peg_2","1444","1444","0","[[1,0,0],[2,0],[3]]","7","[[1,0,0],[2,0],[3]]","practice","1444","","","","","",""
"","","","","","poldrack-single-stim","327","1579644","0.0-4.0-8.0","6266bb112b25f2d6a4ebef7e","A3","batch1","","-1","","","tol_feedback","true","","","","","","","","","","","1000","1000","500","","","","","","-1","none","true","","0",""
"","","","","","html-button-response","328","1580992","0.0-4.0-9.0","6266bb112b25f2d6a4ebef7e","A3","batch1","","1347.0000000002328","<div class = centerbox><p class = center-block-text>Great job! You are done with practice trials<br>You are about to start official trials.<br> <br> Problem <strong>1</strong> out of 25 problems</p></div>","0","tol_instruction","","","","","","","","","","","","","","","","","","","","","","","","",""
"","","","","","single-stim-button","329","1585593","0.0-4.0-10.0-0.0","6266bb112b25f2d6a4ebef7e","A3","batch1","","3599","","","tol_tohand","","","","","","","","","","","tol_peg_1","3599","3599","0","[[1,0,0],[3,0],[0]]","1","[[1,3,0],[2,0],[0]]","0","0","","","","","","3"
"","","","","","single-stim-button","330","1587042","0.0-4.0-10.0-1.0","6266bb112b25f2d6a4ebef7e","A3","batch1","","1449","","","tol_toboard","","","","","","","","","","","tol_peg_3","1449","1449","0","[[1,0,0],[3,0],[2]]","1","[[1,3,0],[2,0],[0]]","0","0","","","","","","3"
"","","","","","single-stim-button","331","1588001","0.0-4.0-10.1-0.1","6266bb112b25f2d6a4ebef7e","A3","batch1","","958","","","tol_tohand","","","","","","","","","","","tol_peg_2","958","958","0","[[1,0,0],[0,0],[2]]","2","[[1,3,0],[2,0],[0]]","0","0","","","","","","3"
"","","","","","single-stim-button","332","1589592","0.0-4.0-10.1-1.1","6266bb112b25f2d6a4ebef7e","A3","batch1","","1590","","","tol_toboard","","","","","","","","","","","tol_peg_1","1590","1590","0","[[1,3,0],[0,0],[2]]","2","[[1,3,0],[2,0],[0]]","0","0","","","","","","3"
"","","","","","single-stim-button","333","1592992","0.0-4.0-10.2-0.2","6266bb112b25f2d6a4ebef7e","A3","batch1","","3399","","","tol_tohand","","","","","","","","","","","tol_peg_3","3399","3399","0","[[1,3,0],[0,0],[0]]","3","[[1,3,0],[2,0],[0]]","0","0","","","","","","3"
"","","","","","single-stim-button","334","1594352","0.0-4.0-10.2-1.2","6266bb112b25f2d6a4ebef7e","A3","batch1","","1359","","","tol_toboard","","","","","","","","","","","tol_peg_2","1359","1359","0","[[1,3,0],[2,0],[0]]","3","[[1,3,0],[2,0],[0]]","0","0","","","","","","3"
"","","","","","poldrack-single-stim","335","1595353","0.0-4.0-11.0","6266bb112b25f2d6a4ebef7e","A3","batch1","","-1","","","tol_feedback","true","","","","","","","","","","","1000","1000","500","","","","","","-1","none","true","3599","7956",""
"","","","","","html-button-response","336","1596592","0.0-4.0-12.0","6266bb112b25f2d6a4ebef7e","A3","batch1","","1238","<div class = centerbox><p class = center-block-text>problem <strong>2</strong> out of 25 problems</p></div>","0","tol_trial_num","","","","","","","","","","","","","","","","","","","","","","","","",""
"","","","","","single-stim-button","337","1601242","0.0-4.0-13.0-0.0","6266bb112b25f2d6a4ebef7e","A3","batch1","","4650","","","tol_tohand","","","","","","","","","","","tol_peg_1","4650","4650","0","[[1,0,0],[3,0],[0]]","1","[[2,1,3],[0,0],[0]]","1","0","","","","","","5"
"","","","","","single-stim-button","338","1602308","0.0-4.0-13.0-1.0","6266bb112b25f2d6a4ebef7e","A3","batch1","","1065","","","tol_toboard","","","","","","","","","","","tol_peg_3","1065","1065","0","[[1,0,0],[3,0],[2]]","1","[[2,1,3],[0,0],[0]]","1","0","","","","","","5"
"","","","","","single-stim-button","339","1605443","0.0-4.0-13.1-0.1","6266bb112b25f2d6a4ebef7e","A3","batch1","","3133","","","tol_tohand","","","","","","","","","","","tol_peg_1","3133","3133","0","[[0,0,0],[3,0],[2]]","2","[[2,1,3],[0,0],[0]]","1","0","","","","","","5"
"","","","","","single-stim-button","340","1606692","0.0-4.0-13.1-1.1","6266bb112b25f2d6a4ebef7e","A3","batch1","","1249","","","tol_toboard","","","","","","","","","","","tol_peg_2","1249","1249","0","[[0,0,0],[3,1],[2]]","2","[[2,1,3],[0,0],[0]]","1","0","","","","","","5"
"","","","","","single-stim-button","341","1607800","0.0-4.0-13.2-0.2","6266bb112b25f2d6a4ebef7e","A3","batch1","","1108","","","tol_tohand","","","","","","","","","","","tol_peg_3","1108","1108","0","[[0,0,0],[3,1],[0]]","3","[[2,1,3],[0,0],[0]]","1","0","","","","","","5"
"","","","","","single-stim-button","342","1609343","0.0-4.0-13.2-1.2","6266bb112b25f2d6a4ebef7e","A3","batch1","","1543","","","tol_toboard","","","","","","","","","","","tol_peg_1","1543","1543","0","[[2,0,0],[3,1],[0]]","3","[[2,1,3],[0,0],[0]]","1","0","","","","","","5"
"","","","","","single-stim-button","343","1610452","0.0-4.0-13.3-0.3","6266bb112b25f2d6a4ebef7e","A3","batch1","","1108","","","tol_tohand","","","","","","","","","","","tol_peg_2","1108","1108","0","[[2,0,0],[3,0],[0]]","4","[[2,1,3],[0,0],[0]]","1","0","","","","","","5"
"","","","","","single-stim-button","344","1611693","0.0-4.0-13.3-1.3","6266bb112b25f2d6a4ebef7e","A3","batch1","","1240","","","tol_toboard","","","","","","","","","","","tol_peg_1","1240","1240","0","[[2,1,0],[3,0],[0]]","4","[[2,1,3],[0,0],[0]]","1","0","","","","","","5"
"","","","","","single-stim-button","345","1612692","0.0-4.0-13.4-0.4","6266bb112b25f2d6a4ebef7e","A3","batch1","","999","","","tol_tohand","","","","","","","","","","","tol_peg_2","999","999","0","[[2,1,0],[0,0],[0]]","5","[[2,1,3],[0,0],[0]]","1","0","","","","","","5"
"","","","","","single-stim-button","346","1613792","0.0-4.0-13.4-1.4","6266bb112b25f2d6a4ebef7e","A3","batch1","","1100","","","tol_toboard","","","","","","","","","","","tol_peg_1","1100","1100","0","[[2,1,3],[0,0],[0]]","5","[[2,1,3],[0,0],[0]]","1","0","","","","","","5"
"","","","","","poldrack-single-stim","347","1614794","0.0-4.0-14.0","6266bb112b25f2d6a4ebef7e","A3","batch1","","-1","","","tol_feedback","true","","","","","","","","","","","1000","1000","500","","","","","","-1","none","true","4650","10998",""
"","","","","","html-button-response","348","1615892","0.0-4.0-15.0","6266bb112b25f2d6a4ebef7e","A3","batch1","","1097","<div class = centerbox><p class = center-block-text>problem <strong>3</strong> out of 25 problems</p></div>","0","tol_trial_num","","","","","","","","","","","","","","","","","","","","","","","","",""
"","","","","","single-stim-button","349","1621042","0.0-4.0-16.0-0.0","6266bb112b25f2d6a4ebef7e","A3","batch1","","5150","","","tol_tohand","","","","","","","","","","","tol_peg_1","5150","5150","0","[[2,0,0],[0,0],[1]]","1","[[1,2,0],[3,0],[0]]","2","0","","","","","","4"
"","","","","","single-stim-button","350","1622292","0.0-4.0-16.0-1.0","6266bb112b25f2d6a4ebef7e","A3","batch1","","1249","","","tol_toboard","","","","","","","","","","","tol_peg_2","1249","1249","0","[[2,0,0],[3,0],[1]]","1","[[1,2,0],[3,0],[0]]","2","0","","","","","","4"
"","","","","","single-stim-button","351","1623547","0.0-4.0-16.1-0.1","6266bb112b25f2d6a4ebef7e","A3","batch1","","1254","","","tol_tohand","","","","","","","","","","","tol_peg_1","1254","1254","0","[[0,0,0],[3,0],[1]]","2","[[1,2,0],[3,0],[0]]","2","0","","","","","","4"
"","","","","","single-stim-button","352","1626142","0.0-4.0-16.1-1.1","6266bb112b25f2d6a4ebef7e","A3","batch1","","2594","","","tol_toboard","","","","","","","","","","","tol_peg_2","2594","2594","0","[[0,0,0],[3,2],[1]]","2","[[1,2,0],[3,0],[0]]","2","0","","","","","","4"
"","","","","","single-stim-button","353","1627092","0.0-4.0-16.2-0.2","6266bb112b25f2d6a4ebef7e","A3","batch1","","949","","","tol_tohand","","","","","","","","","","","tol_peg_3","949","949","0","[[0,0,0],[3,2],[0]]","3","[[1,2,0],[3,0],[0]]","2","0","","","","","","4"
"","","","","","single-stim-button","354","1628500","0.0-4.0-16.2-1.2","6266bb112b25f2d6a4ebef7e","A3","batch1","","1407","","","tol_toboard","","","","","","","","","","","tol_peg_1","1407","1407","0","[[1,0,0],[3,2],[0]]","3","[[1,2,0],[3,0],[0]]","2","0","","","","","","4"
"","","","","","single-stim-button","355","1629442","0.0-4.0-16.3-0.3","6266bb112b25f2d6a4ebef7e","A3","batch1","","942","","","tol_tohand","","","","","","","","","","","tol_peg_2","942","942","0","[[1,0,0],[3,0],[0]]","4","[[1,2,0],[3,0],[0]]","2","0","","","","","","4"
"","","","","","single-stim-button","356","1630492","0.0-4.0-16.3-1.3","6266bb112b25f2d6a4ebef7e","A3","batch1","","1049","","","tol_toboard","","","","","","","","","","","tol_peg_1","1049","1049","0","[[1,2,0],[3,0],[0]]","4","[[1,2,0],[3,0],[0]]","2","0","","","","","","4"
