"success","timeout","failed_images","failed_audio","failed_video","trial_type","trial_index","time_elapsed","internal_node_id","subject_id","study_id","session_id","view_history","rt","task","stimulus","response","correct","mouse_click","stim_duration","block_duration","timing_post_trial","current_position","tol_num_moves_made","tol_target","tol_problem_id","tol_rt","key_press","possible_responses","tol_correct","preplanning","tol_rt_per_trial","tol_min_moves","answer","item","fiar_detect_rt","fiar_detect_correct","total_correct_fiar_detect","post_trial_gap","choices","spm_correct","spm_rt"
"true","false","[]","[]","[]","preload","0","6619","0.0-0.0","6268a3f5379f921275a284f1","B2","batch2","","","","","","","","","","","","","","","","","","","","","","","","","","","","","",""
"true","","","","","fullscreen","1","28582","0.0-1.0-0.0","6268a3f5379f921275a284f1","B2","batch2","","","","","","","","","","","","","","","","","","","","","","","","","","","","","",""
"true","","","","","fullscreen","2","34683","0.0-2.0-0.0","6268a3f5379f921275a284f1","B2","batch2","","","","","","","","","","","","","","","","","","","","","","","","","","","","","",""
"","","","","","instructions","3","139701","0.0-2.0-1.0-0.0-0.0","6268a3f5379f921275a284f1","B2","batch2","[{""page_index"":0,""viewing_time"":18579.09999999404},{""page_index"":1,""viewing_time"":9372.90000000596},{""page_index"":2,""viewing_time"":11059.199999988079},{""page_index"":3,""viewing_time"":22885.40000000596},{""page_index"":4,""viewing_time"":18573.79999998212},{""page_index"":5,""viewing_time"":18703},{""page_index"":6,""viewing_time"":5842.700000017881}]","105016.39999997616","tol-instructions","","","","","","","","","","","","","","","","","","","","","","","","","","",""
"","","","","","html-button-response","4","141302","0.0-2.0-1.0-1.0-0.0","6268a3f5379f921275a284f1","B2","batch2","","1599.7999999821186","tol_enter_quiz","<p class=block-text> Let's answer a few questions <br>","0","","","","","","","","","","","","","","","","","","","","","","","","",""
"","","","","","html-button-response","5","149273","0.0-2.0-1.0-1.0-1.0","6268a3f5379f921275a284f1","B2","batch2","","7969.200000017881","tol_quiz","<p class = block-text>True or False: You can only move the ball on top of a peg. <br></p>","0","true","","","","","","","","","","","","","","","","","","","","","","","",""
"","","","","","html-button-response","6","153357","0.0-2.0-1.0-1.0-2.0","6268a3f5379f921275a284f1","B2","batch2","","4082.100000023842","tol_quiz_feedback","<p class = block-text>Correct! You can only move the ball on top of a peg.</p>","0","","","","","","","","","","","","","","","","","","","","","","","","",""
"","","","","","html-button-response","7","157019","0.0-2.0-1.0-1.0-3.0","6268a3f5379f921275a284f1","B2","batch2","","3660.600000023842","tol_quiz","<p class = block-text>True or False: You should try to match your board with the target board with fewest moves possible. <br></p>","0","true","","","","","","","","","","","","","","","","","","","","","","","",""
"","","","","","html-button-response","8","158436","0.0-2.0-1.0-1.0-4.0","6268a3f5379f921275a284f1","B2","batch2","","1416.0999999940395","tol_quiz_feedback","<p class = block-text>Correct! </p>","0","","","","","","","","","","","","","","","","","","","","","","","","",""
"","","","","","html-button-response","9","161523","0.0-2.0-2.0","6268a3f5379f921275a284f1","B2","batch2","","3084.7000000178814","","<p class=block-text> Now that you've understood the game, let's practice a few easier examples before we start!<br> <br>","0","","","","","","","","","","","","","","","","","","","","","","","","",""
"","","","","","single-stim-button","10","164686","0.0-2.0-3.0-0.0","6268a3f5379f921275a284f1","B2","batch2","","3161","tol_practice","","","","tol_peg_2","3161","3161","0","[[1,2,0],[0,0],[0]]","1","[[1,2,0],[0,0],[3]]","practice","3161","","","","","","","","","","","","","","",""
"","","","","","single-stim-button","11","167505","0.0-2.0-3.0-1.0","6268a3f5379f921275a284f1","B2","batch2","","2817","tol_practice","","","","tol_peg_3","2817","2817","0","[[1,2,0],[0,0],[3]]","1","[[1,2,0],[0,0],[3]]","practice","2817","","","","","","","","","","","","","","",""
"","","","","","poldrack-single-stim","12","168513","0.0-2.0-4.0","6268a3f5379f921275a284f1","B2","batch2","","-1","tol_feedback","","","true","","1000","1000","500","","","","","","-1","none","true","","0","","","","","","","","","",""
"","","","","","single-stim-button","13","174000","0.0-2.0-5.0-0.0","6268a3f5379f921275a284f1","B2","batch2","","5486","tol_practice","","","","tol_peg_1","5486","5486","0","[[1,0,0],[3,0],[0]]","2","[[0,0,0],[3,1],[2]]","practice","5486","","","","","","","","","","","","","","",""
"","","","","","single-stim-button","14","175028","0.0-2.0-5.0-1.0","6268a3f5379f921275a284f1","B2","batch2","","1027","tol_practice","","","","tol_peg_3","1027","1027","0","[[1,0,0],[3,0],[2]]","2","[[0,0,0],[3,1],[2]]","practice","1027","","","","","","","","","","","","","","",""
"","","","","","single-stim-button","15","176015","0.0-2.0-5.1-0.1","6268a3f5379f921275a284f1","B2","batch2","","986","tol_practice","","","","tol_peg_1","986","986","0","[[0,0,0],[3,0],[2]]","3","[[0,0,0],[3,1],[2]]","practice","986","","","","","","","","","","","","","","",""
"","","","","","single-stim-button","16","177367","0.0-2.0-5.1-1.1","6268a3f5379f921275a284f1","B2","batch2","","1351","tol_practice","","","","tol_peg_2","1351","1351","0","[[0,0,0],[3,1],[2]]","3","[[0,0,0],[3,1],[2]]","practice","1351","","","","","","","","","","","","","","",""
"","","","","","poldrack-single-stim","17","178378","0.0-2.0-6.0","6268a3f5379f921275a284f1","B2","batch2","","-1","tol_feedback","","","true","","1000","1000","500","","","","","","-1","none","true","","0","","","","","","","","","",""
"","","","","","single-stim-button","18","182754","0.0-2.0-7.0-0.0","6268a3f5379f921275a284f1","B2","batch2","","4375","tol_practice","","","","tol_peg_2","4375","4375","0","[[1,2,0],[0,0],[0]]","4","[[1,0,0],[2,0],[3]]","practice","4375","","","","","","","","","","","","","","",""
"","","","","","single-stim-button","19","183544","0.0-2.0-7.0-1.0","6268a3f5379f921275a284f1","B2","batch2","","789","tol_practice","","","","tol_peg_3","789","789","0","[[1,2,0],[0,0],[3]]","4","[[1,0,0],[2,0],[3]]","practice","789","","","","","","","","","","","","","","",""
"","","","","","single-stim-button","20","185007","0.0-2.0-7.1-0.1","6268a3f5379f921275a284f1","B2","batch2","","1462","tol_practice","","","","tol_peg_1","1462","1462","0","[[1,0,0],[0,0],[3]]","5","[[1,0,0],[2,0],[3]]","practice","1462","","","","","","","","","","","","","","",""
"","","","","","single-stim-button","21","185658","0.0-2.0-7.1-1.1","6268a3f5379f921275a284f1","B2","batch2","","651","tol_practice","","","","tol_peg_2","651","651","0","[[1,0,0],[2,0],[3]]","5","[[1,0,0],[2,0],[3]]","practice","651","","","","","","","","","","","","","","",""
"","","","","","poldrack-single-stim","22","186671","0.0-2.0-8.0","6268a3f5379f921275a284f1","B2","batch2","","-1","tol_feedback","","","true","","1000","1000","500","","","","","","-1","none","true","","0","","","","","","","","","",""
"","","","","","html-button-response","23","190788","0.0-2.0-9.0","6268a3f5379f921275a284f1","B2","batch2","","4116.5999999940395","tol_instruction","<div class = centerbox><p class = center-block-text>Great job! You are done with practice trials<br>You are about to start official trials.<br> <br> Problem <strong>1</strong> out of 25 problems</p></div>","0","","","","","","","","","","","","","","","","","","","","","","","","",""
"","","","","","single-stim-button","24","202612","0.0-2.0-10.0-0.0","6268a3f5379f921275a284f1","B2","batch2","","10813","tol_tohand","","","","tol_peg_2","10813","10813","0","[[1,2,0],[0,0],[0]]","1","[[1,3,0],[2,0],[0]]","0","0","","","","","","3","","","","","","","","",""
"","","","","","single-stim-button","25","203455","0.0-2.0-10.0-1.0","6268a3f5379f921275a284f1","B2","batch2","","843","tol_toboard","","","","tol_peg_3","843","843","0","[[1,2,0],[0,0],[3]]","1","[[1,3,0],[2,0],[0]]","0","0","","","","","","3","","","","","","","","",""
"","","","","","single-stim-button","26","204397","0.0-2.0-10.1-0.1","6268a3f5379f921275a284f1","B2","batch2","","941","tol_tohand","","","","tol_peg_1","941","941","0","[[1,0,0],[0,0],[3]]","2","[[1,3,0],[2,0],[0]]","0","0","","","","","","3","","","","","","","","",""
"","","","","","single-stim-button","27","205069","0.0-2.0-10.1-1.1","6268a3f5379f921275a284f1","B2","batch2","","671","tol_toboard","","","","tol_peg_2","671","671","0","[[1,0,0],[2,0],[3]]","2","[[1,3,0],[2,0],[0]]","0","0","","","","","","3","","","","","","","","",""
"","","","","","single-stim-button","28","207004","0.0-2.0-10.2-0.2","6268a3f5379f921275a284f1","B2","batch2","","1934","tol_tohand","","","","tol_peg_3","1934","1934","0","[[1,0,0],[2,0],[0]]","3","[[1,3,0],[2,0],[0]]","0","0","","","","","","3","","","","","","","","",""
"","","","","","single-stim-button","29","207624","0.0-2.0-10.2-1.2","6268a3f5379f921275a284f1","B2","batch2","","619","tol_toboard","","","","tol_peg_1","619","619","0","[[1,3,0],[2,0],[0]]","3","[[1,3,0],[2,0],[0]]","0","0","","","","","","3","","","","","","","","",""
"","","","","","poldrack-single-stim","30","208635","0.0-2.0-11.0","6268a3f5379f921275a284f1","B2","batch2","","-1","tol_feedback","","","true","","1000","1000","500","","","","","","-1","none","true","10813","13688","","","","","","","","","",""
"","","","","","html-button-response","31","211187","0.0-2.0-12.0","6268a3f5379f921275a284f1","B2","batch2","","2551.2000000178814","tol_trial_num","<div class = centerbox><p class = center-block-text>problem <strong>2</strong> out of 25 problems</p></div>","0","","","","","","","","","","","","","","","","","","","","","","","","",""
"","","","","","single-stim-button","32","217065","0.0-2.0-13.0-0.0","6268a3f5379f921275a284f1","B2","batch2","","5876","tol_tohand","","","","tol_peg_1","5876","5876","0","[[1,0,0],[3,0],[0]]","1","[[2,1,3],[0,0],[0]]","1","0","","","","","","5","","","","","","","","",""
"","","","","","single-stim-button","33","217749","0.0-2.0-13.0-1.0","6268a3f5379f921275a284f1","B2","batch2","","684","tol_toboard","","","","tol_peg_3","684","684","0","[[1,0,0],[3,0],[2]]","1","[[2,1,3],[0,0],[0]]","1","0","","","","","","5","","","","","","","","",""
"","","","","","single-stim-button","34","220503","0.0-2.0-13.1-0.1","6268a3f5379f921275a284f1","B2","batch2","","2753","tol_tohand","","","","tol_peg_1","2753","2753","0","[[0,0,0],[3,0],[2]]","2","[[2,1,3],[0,0],[0]]","1","0","","","","","","5","","","","","","","","",""
"","","","","","single-stim-button","35","221097","0.0-2.0-13.1-1.1","6268a3f5379f921275a284f1","B2","batch2","","593","tol_toboard","","","","tol_peg_2","593","593","0","[[0,0,0],[3,1],[2]]","2","[[2,1,3],[0,0],[0]]","1","0","","","","","","5","","","","","","","","",""
"","","","","","single-stim-button","36","221794","0.0-2.0-13.2-0.2","6268a3f5379f921275a284f1","B2","batch2","","696","tol_tohand","","","","tol_peg_3","696","696","0","[[0,0,0],[3,1],[0]]","3","[[2,1,3],[0,0],[0]]","1","0","","","","","","5","","","","","","","","",""
"","","","","","single-stim-button","37","222532","0.0-2.0-13.2-1.2","6268a3f5379f921275a284f1","B2","batch2","","737","tol_toboard","","","","tol_peg_1","737","737","0","[[2,0,0],[3,1],[0]]","3","[[2,1,3],[0,0],[0]]","1","0","","","","","","5","","","","","","","","",""
"","","","","","single-stim-button","38","224199","0.0-2.0-13.3-0.3","6268a3f5379f921275a284f1","B2","batch2","","1667","tol_tohand","","","","tol_peg_2","1667","1667","0","[[2,0,0],[3,0],[0]]","4","[[2,1,3],[0,0],[0]]","1","0","","","","","","5","","","","","","","","",""
"","","","","","single-stim-button","39","224720","0.0-2.0-13.3-1.3","6268a3f5379f921275a284f1","B2","batch2","","521","tol_toboard","","","","tol_peg_3","521","521","0","[[2,0,0],[3,0],[1]]","4","[[2,1,3],[0,0],[0]]","1","0","","","","","","5","","","","","","","","",""
"","","","","","single-stim-button","40","225227","0.0-2.0-13.4-0.4","6268a3f5379f921275a284f1","B2","batch2","","506","tol_tohand","","","","tol_peg_2","506","506","0","[[2,0,0],[0,0],[1]]","5","[[2,1,3],[0,0],[0]]","1","0","","","","","","5","","","","","","","","",""
"","","","","","single-stim-button","41","226144","0.0-2.0-13.4-1.4","6268a3f5379f921275a284f1","B2","batch2","","916","tol_toboard","","","","tol_peg_1","916","916","0","[[2,3,0],[0,0],[1]]","5","[[2,1,3],[0,0],[0]]","1","0","","","","","","5","","","","","","","","",""
"","","","","","single-stim-button","42","227204","0.0-2.0-13.5-0.5","6268a3f5379f921275a284f1","B2","batch2","","1059","tol_tohand","","","","tol_peg_3","1059","1059","0","[[2,3,0],[0,0],[0]]","6","[[2,1,3],[0,0],[0]]","1","0","","","","","","5","","","","","","","","",""
"","","","","","single-stim-button","43","227863","0.0-2.0-13.5-1.5","6268a3f5379f921275a284f1","B2","batch2","","659","tol_toboard","","","","tol_peg_1","659","659","0","[[2,3,1],[0,0],[0]]","6","[[2,1,3],[0,0],[0]]","1","0","","","","","","5","","","","","","","","",""
"","","","","","single-stim-button","44","229675","0.0-2.0-13.6-0.6","6268a3f5379f921275a284f1","B2","batch2","","1811","tol_tohand","","","","tol_peg_1","1811","1811","0","[[2,3,0],[0,0],[0]]","7","[[2,1,3],[0,0],[0]]","1","0","","","","","","5","","","","","","","","",""
"","","","","","single-stim-button","45","230222","0.0-2.0-13.6-1.6","6268a3f5379f921275a284f1","B2","batch2","","546","tol_toboard","","","","tol_peg_2","546","546","0","[[2,3,0],[1,0],[0]]","7","[[2,1,3],[0,0],[0]]","1","0","","","","","","5","","","","","","","","",""
"","","","","","single-stim-button","46","230694","0.0-2.0-13.7-0.7","6268a3f5379f921275a284f1","B2","batch2","","471","tol_tohand","","","","tol_peg_1","471","471","0","[[2,0,0],[1,0],[0]]","8","[[2,1,3],[0,0],[0]]","1","0","","","","","","5","","","","","","","","",""
"","","","","","single-stim-button","47","231281","0.0-2.0-13.7-1.7","6268a3f5379f921275a284f1","B2","batch2","","586","tol_toboard","","","","tol_peg_3","586","586","0","[[2,0,0],[1,0],[3]]","8","[[2,1,3],[0,0],[0]]","1","0","","","","","","5","","","","","","","","",""
"","","","","","single-stim-button","48","232256","0.0-2.0-13.8-0.8","6268a3f5379f921275a284f1","B2","batch2","","974","tol_tohand","","","","tol_peg_2","974","974","0","[[2,0,0],[0,0],[3]]","9","[[2,1,3],[0,0],[0]]","1","0","","","","","","5","","","","","","","","",""
"","","","","","single-stim-button","49","232987","0.0-2.0-13.8-1.8","6268a3f5379f921275a284f1","B2","batch2","","730","tol_toboard","","","","tol_peg_1","730","730","0","[[2,1,0],[0,0],[3]]","9","[[2,1,3],[0,0],[0]]","1","0","","","","","","5","","","","","","","","",""
"","","","","","single-stim-button","50","233699","0.0-2.0-13.9-0.9","6268a3f5379f921275a284f1","B2","batch2","","711","tol_tohand","","","","tol_peg_3","711","711","0","[[2,1,0],[0,0],[0]]","10","[[2,1,3],[0,0],[0]]","1","0","","","","","","5","","","","","","","","",""
"","","","","","single-stim-button","51","234239","0.0-2.0-13.9-1.9","6268a3f5379f921275a284f1","B2","batch2","","540","tol_toboard","","","","tol_peg_1","540","540","0","[[2,1,3],[0,0],[0]]","10","[[2,1,3],[0,0],[0]]","1","0","","","","","","5","","","","","","","","",""
"","","","","","poldrack-single-stim","52","235253","0.0-2.0-14.0","6268a3f5379f921275a284f1","B2","batch2","","-1","tol_feedback","","","true","","1000","1000","500","","","","","","-1","none","true","5876","16524","","","","","","","","","",""
"","","","","","html-button-response","53","236190","0.0-2.0-15.0","6268a3f5379f921275a284f1","B2","batch2","","936.7000000178814","tol_trial_num","<div class = centerbox><p class = center-block-text>problem <strong>3</strong> out of 25 problems</p></div>","0","","","","","","","","","","","","","","","","","","","","","","","","",""
"","","","","","single-stim-button","54","239457","0.0-2.0-16.0-0.0","6268a3f5379f921275a284f1","B2","batch2","","3266","tol_tohand","","","","tol_peg_1","3266","3266","0","[[2,0,0],[0,0],[1]]","1","[[1,2,0],[3,0],[0]]","2","0","","","","","","4","","","","","","","","",""
"","","","","","single-stim-button","55","240022","0.0-2.0-16.0-1.0","6268a3f5379f921275a284f1","B2","batch2","","564","tol_toboard","","","","tol_peg_2","564","564","0","[[2,0,0],[3,0],[1]]","1","[[1,2,0],[3,0],[0]]","2","0","","","","","","4","","","","","","","","",""
"","","","","","single-stim-button","56","242098","0.0-2.0-16.1-0.1","6268a3f5379f921275a284f1","B2","batch2","","2076","tol_tohand","","","","tol_peg_1","2076","2076","0","[[0,0,0],[3,0],[1]]","2","[[1,2,0],[3,0],[0]]","2","0","","","","","","4","","","","","","","","",""
"","","","","","single-stim-button","57","243012","0.0-2.0-16.1-1.1","6268a3f5379f921275a284f1","B2","batch2","","914","tol_toboard","","","","tol_peg_2","914","914","0","[[0,0,0],[3,2],[1]]","2","[[1,2,0],[3,0],[0]]","2","0","","","","","","4","","","","","","","","",""
"","","","","","single-stim-button","58","244027","0.0-2.0-16.2-0.2","6268a3f5379f921275a284f1","B2","batch2","","1015","tol_tohand","","","","tol_peg_3","1015","1015","0","[[0,0,0],[3,2],[0]]","3","[[1,2,0],[3,0],[0]]","2","0","","","","","","4","","","","","","","","",""
"","","","","","single-stim-button","59","245332","0.0-2.0-16.2-1.2","6268a3f5379f921275a284f1","B2","batch2","","1304","tol_toboard","","","","tol_peg_1","1304","1304","0","[[1,0,0],[3,2],[0]]","3","[[1,2,0],[3,0],[0]]","2","0","","","","","","4","","","","","","","","",""
"","","","","","single-stim-button","60","246610","0.0-2.0-16.3-0.3","6268a3f5379f921275a284f1","B2","batch2","","1278","tol_tohand","","","","tol_peg_2","1278","1278","0","[[1,0,0],[3,0],[0]]","4","[[1,2,0],[3,0],[0]]","2","0","","","","","","4","","","","","","","","",""
"","","","","","single-stim-button","61","247223","0.0-2.0-16.3-1.3","6268a3f5379f921275a284f1","B2","batch2","","613","tol_toboard","","","","tol_peg_1","613","613","0","[[1,2,0],[3,0],[0]]","4","[[1,2,0],[3,0],[0]]","2","0","","","","","","4","","","","","","","","",""
"","","","","","poldrack-single-stim","62","248237","0.0-2.0-17.0","6268a3f5379f921275a284f1","B2","batch2","","-1","tol_feedback","","","true","","1000","1000","500","","","","","","-1","none","true","3266","7635","","","","","","","","","",""
"","","","","","html-button-response","63","249582","0.0-2.0-18.0","6268a3f5379f921275a284f1","B2","batch2","","1343.8999999761581","tol_trial_num","<div class = centerbox><p class = center-block-text>problem <strong>4</strong> out of 25 problems</p></div>","0","","","","","","","","","","","","","","","","","","","","","","","","",""
"","","","","","single-stim-button","64","254608","0.0-2.0-19.0-0.0","6268a3f5379f921275a284f1","B2","batch2","","5025","tol_tohand","","","","tol_peg_2","5025","5025","0","[[3,0,0],[2,0],[0]]","1","[[3,0,0],[1,0],[2]]","3","0","","","","","","3","","","","","","","","",""
"","","","","","single-stim-button","65","255683","0.0-2.0-19.0-1.0","6268a3f5379f921275a284f1","B2","batch2","","1075","tol_toboard","","","","tol_peg_3","1075","1075","0","[[3,0,0],[2,0],[1]]","1","[[3,0,0],[1,0],[2]]","3","0","","","","","","3","","","","","","","","",""
"","","","","","single-stim-button","66","256816","0.0-2.0-19.1-0.1","6268a3f5379f921275a284f1","B2","batch2","","1133","tol_tohand","","","","tol_peg_2","1133","1133","0","[[3,0,0],[0,0],[1]]","2","[[3,0,0],[1,0],[2]]","3","0","","","","","","3","","","","","","","","",""
"","","","","","single-stim-button","67","257369","0.0-2.0-19.1-1.1","6268a3f5379f921275a284f1","B2","batch2","","552","tol_toboard","","","","tol_peg_1","552","552","0","[[3,2,0],[0,0],[1]]","2","[[3,0,0],[1,0],[2]]","3","0","","","","","","3","","","","","","","","",""
"","","","","","single-stim-button","68","259366","0.0-2.0-19.2-0.2","6268a3f5379f921275a284f1","B2","batch2","","1997","tol_tohand","","","","tol_peg_3","1997","1997","0","[[3,2,0],[0,0],[0]]","3","[[3,0,0],[1,0],[2]]","3","0","","","","","","3","","","","","","","","",""
"","","","","","single-stim-button","69","259834","0.0-2.0-19.2-1.2","6268a3f5379f921275a284f1","B2","batch2","","468","tol_toboard","","","","tol_peg_2","468","468","0","[[3,2,0],[1,0],[0]]","3","[[3,0,0],[1,0],[2]]","3","0","","","","","","3","","","","","","","","",""
"","","","","","single-stim-button","70","262047","0.0-2.0-19.3-0.3","6268a3f5379f921275a284f1","B2","batch2","","2213","tol_tohand","","","","tol_peg_1","2213","2213","0","[[3,0,0],[1,0],[0]]","4","[[3,0,0],[1,0],[2]]","3","0","","","","","","3","","","","","","","","",""
"","","","","","single-stim-button","71","262614","0.0-2.0-19.3-1.3","6268a3f5379f921275a284f1","B2","batch2","","567","tol_toboard","","","","tol_peg_3","567","567","0","[[3,0,0],[1,0],[2]]","4","[[3,0,0],[1,0],[2]]","3","0","","","","","","3","","","","","","","","",""
"","","","","","poldrack-single-stim","72","263627","0.0-2.0-20.0","6268a3f5379f921275a284f1","B2","batch2","","-1","tol_feedback","","","true","","1000","1000","500","","","","","","-1","none","true","5025","10368","","","","","","","","","",""
"","","","","","html-button-response","73","264531","0.0-2.0-21.0","6268a3f5379f921275a284f1","B2","batch2","","903.5","tol_trial_num","<div class = centerbox><p class = center-block-text>problem <strong>5</strong> out of 25 problems</p></div>","0","","","","","","","","","","","","","","","","","","","","","","","","",""
"","","","","","single-stim-button","74","269531","0.0-2.0-22.0-0.0","6268a3f5379f921275a284f1","B2","batch2","","4999","tol_tohand","","","","tol_peg_2","4999","4999","0","[[1,0,0],[0,0],[3]]","1","[[0,0,0],[1,2],[3]]","4","0","","","","","","7","","","","","","","","",""
"","","","","","single-stim-button","75","271369","0.0-2.0-22.0-1.0","6268a3f5379f921275a284f1","B2","batch2","","1837","tol_toboard","","","","tol_peg_1","1837","1837","0","[[1,2,0],[0,0],[3]]","1","[[0,0,0],[1,2],[3]]","4","0","","","","","","7","","","","","","","","",""
"","","","","","single-stim-button","76","272991","0.0-2.0-22.1-0.1","6268a3f5379f921275a284f1","B2","batch2","","1622","tol_tohand","","","","tol_peg_3","1622","1622","0","[[1,2,0],[0,0],[0]]","2","[[0,0,0],[1,2],[3]]","4","0","","","","","","7","","","","","","","","",""
"","","","","","single-stim-button","77","273511","0.0-2.0-22.1-1.1","6268a3f5379f921275a284f1","B2","batch2","","520","tol_toboard","","","","tol_peg_2","520","520","0","[[1,2,0],[3,0],[0]]","2","[[0,0,0],[1,2],[3]]","4","0","","","","","","7","","","","","","","","",""
"","","","","","single-stim-button","78","274249","0.0-2.0-22.2-0.2","6268a3f5379f921275a284f1","B2","batch2","","738","tol_tohand","","","","tol_peg_1","738","738","0","[[1,0,0],[3,0],[0]]","3","[[0,0,0],[1,2],[3]]","4","0","","","","","","7","","","","","","","","",""
"","","","","","single-stim-button","79","274954","0.0-2.0-22.2-1.2","6268a3f5379f921275a284f1","B2","batch2","","705","tol_toboard","","","","tol_peg_3","705","705","0","[[1,0,0],[3,0],[2]]","3","[[0,0,0],[1,2],[3]]","4","0","","","","","","7","","","","","","","","",""
"","","","","","single-stim-button","80","276680","0.0-2.0-22.3-0.3","6268a3f5379f921275a284f1","B2","batch2","","1726","tol_tohand","","","","tol_peg_2","1726","1726","0","[[1,0,0],[0,0],[2]]","4","[[0,0,0],[1,2],[3]]","4","0","","","","","","7","","","","","","","","",""
"","","","","","single-stim-button","81","277965","0.0-2.0-22.3-1.3","6268a3f5379f921275a284f1","B2","batch2","","1285","tol_toboard","","","","tol_peg_1","1285","1285","0","[[1,3,0],[0,0],[2]]","4","[[0,0,0],[1,2],[3]]","4","0","","","","","","7","","","","","","","","",""
"","","","","","single-stim-button","82","281151","0.0-2.0-22.4-0.4","6268a3f5379f921275a284f1","B2","batch2","","3186","tol_tohand","","","","tol_peg_1","3186","3186","0","[[1,0,0],[0,0],[2]]","5","[[0,0,0],[1,2],[3]]","4","0","","","","","","7","","","","","","","","",""
"","","","","","single-stim-button","83","281652","0.0-2.0-22.4-1.4","6268a3f5379f921275a284f1","B2","batch2","","500","tol_toboard","","","","tol_peg_2","500","500","0","[[1,0,0],[3,0],[2]]","5","[[0,0,0],[1,2],[3]]","4","0","","","","","","7","","","","","","","","",""
"","","","","","single-stim-button","84","282205","0.0-2.0-22.5-0.5","6268a3f5379f921275a284f1","B2","batch2","","552","tol_tohand","","","","tol_peg_1","552","552","0","[[0,0,0],[3,0],[2]]","6","[[0,0,0],[1,2],[3]]","4","0","","","","","","7","","","","","","","","",""
"","","","","","single-stim-button","85","283508","0.0-2.0-22.5-1.5","6268a3f5379f921275a284f1","B2","batch2","","1303","tol_toboard","","","","tol_peg_2","1303","1303","0","[[0,0,0],[3,1],[2]]","6","[[0,0,0],[1,2],[3]]","4","0","","","","","","7","","","","","","","","",""
"","","","","","single-stim-button","86","284786","0.0-2.0-22.6-0.6","6268a3f5379f921275a284f1","B2","batch2","","1278","tol_tohand","","","","tol_peg_3","1278","1278","0","[[0,0,0],[3,1],[0]]","7","[[0,0,0],[1,2],[3]]","4","0","","","","","","7","","","","","","","","",""
"","","","","","single-stim-button","87","285459","0.0-2.0-22.6-1.6","6268a3f5379f921275a284f1","B2","batch2","","673","tol_toboard","","","","tol_peg_1","673","673","0","[[2,0,0],[3,1],[0]]","7","[[0,0,0],[1,2],[3]]","4","0","","","","","","7","","","","","","","","",""
"","","","","","single-stim-button","88","289536","0.0-2.0-22.7-0.7","6268a3f5379f921275a284f1","B2","batch2","","4076","tol_tohand","","","","tol_peg_2","4076","4076","0","[[2,0,0],[3,0],[0]]","8","[[0,0,0],[1,2],[3]]","4","0","","","","","","7","","","","","","","","",""
"","","","","","single-stim-button","89","290004","0.0-2.0-22.7-1.7","6268a3f5379f921275a284f1","B2","batch2","","468","tol_toboard","","","","tol_peg_1","468","468","0","[[2,1,0],[3,0],[0]]","8","[[0,0,0],[1,2],[3]]","4","0","","","","","","7","","","","","","","","",""
"","","","","","single-stim-button","90","290478","0.0-2.0-22.8-0.8","6268a3f5379f921275a284f1","B2","batch2","","474","tol_tohand","","","","tol_peg_2","474","474","0","[[2,1,0],[0,0],[0]]","9","[[0,0,0],[1,2],[3]]","4","0","","","","","","7","","","","","","","","",""
"","","","","","single-stim-button","91","290959","0.0-2.0-22.8-1.8","6268a3f5379f921275a284f1","B2","batch2","","481","tol_toboard","","","","tol_peg_3","481","481","0","[[2,1,0],[0,0],[3]]","9","[[0,0,0],[1,2],[3]]","4","0","","","","","","7","","","","","","","","",""
"","","","","","single-stim-button","92","291454","0.0-2.0-22.9-0.9","6268a3f5379f921275a284f1","B2","batch2","","495","tol_tohand","","","","tol_peg_1","495","495","0","[[2,0,0],[0,0],[3]]","10","[[0,0,0],[1,2],[3]]","4","0","","","","","","7","","","","","","","","",""
"","","","","","single-stim-button","93","291952","0.0-2.0-22.9-1.9","6268a3f5379f921275a284f1","B2","batch2","","498","tol_toboard","","","","tol_peg_2","498","498","0","[[2,0,0],[1,0],[3]]","10","[[0,0,0],[1,2],[3]]","4","0","","","","","","7","","","","","","","","",""
"","","","","","single-stim-button","94","293164","0.0-2.0-22.10-0.10","6268a3f5379f921275a284f1","B2","batch2","","1211","tol_tohand","","","","tol_peg_1","1211","1211","0","[[0,0,0],[1,0],[3]]","11","[[0,0,0],[1,2],[3]]","4","0","","","","","","7","","","","","","","","",""
"","","","","","single-stim-button","95","293659","0.0-2.0-22.10-1.10","6268a3f5379f921275a284f1","B2","batch2","","494","tol_toboard","","","","tol_peg_2","494","494","0","[[0,0,0],[1,2],[3]]","11","[[0,0,0],[1,2],[3]]","4","0","","","","","","7","","","","","","","","",""
"","","","","","poldrack-single-stim","96","294666","0.0-2.0-23.0","6268a3f5379f921275a284f1","B2","batch2","","-1","tol_feedback","","","true","","1000","1000","500","","","","","","-1","none","true","4999","20357","","","","","","","","","",""
"","","","","","html-button-response","97","295515","0.0-2.0-24.0","6268a3f5379f921275a284f1","B2","batch2","","847.8000000119209","tol_trial_num","<div class = centerbox><p class = center-block-text>problem <strong>6</strong> out of 25 problems</p></div>","0","","","","","","","","","","","","","","","","","","","","","","","","",""
"","","","","","single-stim-button","98","300607","0.0-2.0-25.0-0.0","6268a3f5379f921275a284f1","B2","batch2","","5091","tol_tohand","","","","tol_peg_2","5091","5091","0","[[0,0,0],[1,0],[3]]","1","[[1,0,0],[2,3],[0]]","5","0","","","","","","6","","","","","","","","",""
"","","","","","single-stim-button","99","301102","0.0-2.0-25.0-1.0","6268a3f5379f921275a284f1","B2","batch2","","494","tol_toboard","","","","tol_peg_1","494","494","0","[[2,0,0],[1,0],[3]]","1","[[1,0,0],[2,3],[0]]","5","0","","","","","","6","","","","","","","","",""
"","","","","","single-stim-button","100","304798","0.0-2.0-25.1-0.1","6268a3f5379f921275a284f1","B2","batch2","","3696","tol_tohand","","","","tol_peg_3","3696","3696","0","[[2,0,0],[1,0],[0]]","2","[[1,0,0],[2,3],[0]]","5","0","","","","","","6","","","","","","","","",""
"","","","","","single-stim-button","101","305760","0.0-2.0-25.1-1.1","6268a3f5379f921275a284f1","B2","batch2","","961","tol_toboard","","","","tol_peg_1","961","961","0","[[2,3,0],[1,0],[0]]","2","[[1,0,0],[2,3],[0]]","5","0","","","","","","6","","","","","","","","",""
"","","","","","single-stim-button","102","306642","0.0-2.0-25.2-0.2","6268a3f5379f921275a284f1","B2","batch2","","881","tol_tohand","","","","tol_peg_2","881","881","0","[[2,3,0],[0,0],[0]]","3","[[1,0,0],[2,3],[0]]","5","0","","","","","","6","","","","","","","","",""
"","","","","","single-stim-button","103","307137","0.0-2.0-25.2-1.2","6268a3f5379f921275a284f1","B2","batch2","","494","tol_toboard","","","","tol_peg_3","494","494","0","[[2,3,0],[0,0],[1]]","3","[[1,0,0],[2,3],[0]]","5","0","","","","","","6","","","","","","","","",""
"","","","","","single-stim-button","104","310003","0.0-2.0-25.3-0.3","6268a3f5379f921275a284f1","B2","batch2","","2865","tol_tohand","","","","tol_peg_1","2865","2865","0","[[2,0,0],[0,0],[1]]","4","[[1,0,0],[2,3],[0]]","5","0","","","","","","6","","","","","","","","",""
"","","","","","single-stim-button","105","310531","0.0-2.0-25.3-1.3","6268a3f5379f921275a284f1","B2","batch2","","527","tol_toboard","","","","tol_peg_2","527","527","0","[[2,0,0],[3,0],[1]]","4","[[1,0,0],[2,3],[0]]","5","0","","","","","","6","","","","","","","","",""
"","","","","","single-stim-button","106","311071","0.0-2.0-25.4-0.4","6268a3f5379f921275a284f1","B2","batch2","","540","tol_tohand","","","","tol_peg_1","540","540","0","[[0,0,0],[3,0],[1]]","5","[[1,0,0],[2,3],[0]]","5","0","","","","","","6","","","","","","","","",""
"","","","","","single-stim-button","107","311586","0.0-2.0-25.4-1.4","6268a3f5379f921275a284f1","B2","batch2","","515","tol_toboard","","","","tol_peg_2","515","515","0","[[0,0,0],[3,2],[1]]","5","[[1,0,0],[2,3],[0]]","5","0","","","","","","6","","","","","","","","",""
"","","","","","single-stim-button","108","313126","0.0-2.0-25.5-0.5","6268a3f5379f921275a284f1","B2","batch2","","1539","tol_tohand","","","","tol_peg_3","1539","1539","0","[[0,0,0],[3,2],[0]]","6","[[1,0,0],[2,3],[0]]","5","0","","","","","","6","","","","","","","","",""
"","","","","","single-stim-button","109","313668","0.0-2.0-25.5-1.5","6268a3f5379f921275a284f1","B2","batch2","","540","tol_toboard","","","","tol_peg_1","540","540","0","[[1,0,0],[3,2],[0]]","6","[[1,0,0],[2,3],[0]]","5","0","","","","","","6","","","","","","","","",""
"","","","","","single-stim-button","110","316077","0.0-2.0-25.6-0.6","6268a3f5379f921275a284f1","B2","batch2","","2409","tol_tohand","","","","tol_peg_2","2409","2409","0","[[1,0,0],[3,0],[0]]","7","[[1,0,0],[2,3],[0]]","5","0","","","","","","6","","","","","","","","",""
"","","","","","single-stim-button","111","316559","0.0-2.0-25.6-1.6","6268a3f5379f921275a284f1","B2","batch2","","480","tol_toboard","","","","tol_peg_3","480","480","0","[[1,0,0],[3,0],[2]]","7","[[1,0,0],[2,3],[0]]","5","0","","","","","","6","","","","","","","","",""
"","","","","","single-stim-button","112","317000","0.0-2.0-25.7-0.7","6268a3f5379f921275a284f1","B2","batch2","","441","tol_tohand","","","","tol_peg_2","441","441","0","[[1,0,0],[0,0],[2]]","8","[[1,0,0],[2,3],[0]]","5","0","","","","","","6","","","","","","","","",""
"","","","","","single-stim-button","113","317499","0.0-2.0-25.7-1.7","6268a3f5379f921275a284f1","B2","batch2","","499","tol_toboard","","","","tol_peg_1","499","499","0","[[1,3,0],[0,0],[2]]","8","[[1,0,0],[2,3],[0]]","5","0","","","","","","6","","","","","","","","",""
"","","","","","single-stim-button","114","319680","0.0-2.0-25.8-0.8","6268a3f5379f921275a284f1","B2","batch2","","2180","tol_tohand","","","","tol_peg_1","2180","2180","0","[[1,0,0],[0,0],[2]]","9","[[1,0,0],[2,3],[0]]","5","0","","","","","","6","","","","","","","","",""
"","","","","","single-stim-button","115","322487","0.0-2.0-25.8-1.8","6268a3f5379f921275a284f1","B2","batch2","","2807","tol_toboard","","","","tol_peg_2","2807","2807","0","[[1,0,0],[3,0],[2]]","9","[[1,0,0],[2,3],[0]]","5","0","","","","","","6","","","","","","","","",""
"","","","","","single-stim-button","116","323059","0.0-2.0-25.9-0.9","6268a3f5379f921275a284f1","B2","batch2","","571","tol_tohand","","","","tol_peg_2","571","571","0","[[1,0,0],[0,0],[2]]","10","[[1,0,0],[2,3],[0]]","5","0","","","","","","6","","","","","","","","",""
"","","","","","single-stim-button","117","323613","0.0-2.0-25.9-1.9","6268a3f5379f921275a284f1","B2","batch2","","554","tol_toboard","","","","tol_peg_1","554","554","0","[[1,3,0],[0,0],[2]]","10","[[1,0,0],[2,3],[0]]","5","0","","","","","","6","","","","","","","","",""
"","","","","","single-stim-button","118","324885","0.0-2.0-25.10-0.10","6268a3f5379f921275a284f1","B2","batch2","","1272","tol_tohand","","","","tol_peg_3","1272","1272","0","[[1,3,0],[0,0],[0]]","11","[[1,0,0],[2,3],[0]]","5","0","","","","","","6","","","","","","","","",""
"","","","","","single-stim-button","119","325373","0.0-2.0-25.10-1.10","6268a3f5379f921275a284f1","B2","batch2","","487","tol_toboard","","","","tol_peg_2","487","487","0","[[1,3,0],[2,0],[0]]","11","[[1,0,0],[2,3],[0]]","5","0","","","","","","6","","","","","","","","",""
"","","","","","single-stim-button","120","325875","0.0-2.0-25.11-0.11","6268a3f5379f921275a284f1","B2","batch2","","500","tol_tohand","","","","tol_peg_1","500","500","0","[[1,0,0],[2,0],[0]]","12","[[1,0,0],[2,3],[0]]","5","0","","","","","","6","","","","","","","","",""
"","","","","","single-stim-button","121","326296","0.0-2.0-25.11-1.11","6268a3f5379f921275a284f1","B2","batch2","","421","tol_toboard","","","","tol_peg_2","421","421","0","[[1,0,0],[2,3],[0]]","12","[[1,0,0],[2,3],[0]]","5","0","","","","","","6","","","","","","","","",""
"","","","","","poldrack-single-stim","122","327305","0.0-2.0-26.0","6268a3f5379f921275a284f1","B2","batch2","","-1","tol_feedback","","","true","","1000","1000","500","","","","","","-1","none","true","5091","21985","","","","","","","","","",""
"","","","","","html-button-response","123","328240","0.0-2.0-27.0","6268a3f5379f921275a284f1","B2","batch2","","934.1999999880791","tol_trial_num","<div class = centerbox><p class = center-block-text>problem <strong>7</strong> out of 25 problems</p></div>","0","","","","","","","","","","","","","","","","","","","","","","","","",""
"","","","","","single-stim-button","124","333999","0.0-2.0-28.0-0.0","6268a3f5379f921275a284f1","B2","batch2","","5758","tol_tohand","","","","tol_peg_1","5758","5758","0","[[2,0,0],[0,0],[3]]","1","[[1,2,0],[3,0],[0]]","6","0","","","","","","5","","","","","","","","",""
"","","","","","single-stim-button","125","334480","0.0-2.0-28.0-1.0","6268a3f5379f921275a284f1","B2","batch2","","480","tol_toboard","","","","tol_peg_2","480","480","0","[[2,0,0],[1,0],[3]]","1","[[1,2,0],[3,0],[0]]","6","0","","","","","","5","","","","","","","","",""
"","","","","","single-stim-button","126","338295","0.0-2.0-28.1-0.1","6268a3f5379f921275a284f1","B2","batch2","","3815","tol_tohand","","","","tol_peg_1","3815","3815","0","[[0,0,0],[1,0],[3]]","2","[[1,2,0],[3,0],[0]]","6","0","","","","","","5","","","","","","","","",""
"","","","","","single-stim-button","127","338750","0.0-2.0-28.1-1.1","6268a3f5379f921275a284f1","B2","batch2","","454","tol_toboard","","","","tol_peg_2","454","454","0","[[0,0,0],[1,2],[3]]","2","[[1,2,0],[3,0],[0]]","6","0","","","","","","5","","","","","","","","",""
"","","","","","single-stim-button","128","339264","0.0-2.0-28.2-0.2","6268a3f5379f921275a284f1","B2","batch2","","514","tol_tohand","","","","tol_peg_3","514","514","0","[[0,0,0],[1,2],[0]]","3","[[1,2,0],[3,0],[0]]","6","0","","","","","","5","","","","","","","","",""
"","","","","","single-stim-button","129","339712","0.0-2.0-28.2-1.2","6268a3f5379f921275a284f1","B2","batch2","","448","tol_toboard","","","","tol_peg_1","448","448","0","[[3,0,0],[1,2],[0]]","3","[[1,2,0],[3,0],[0]]","6","0","","","","","","5","","","","","","","","",""
"","","","","","single-stim-button","130","342091","0.0-2.0-28.3-0.3","6268a3f5379f921275a284f1","B2","batch2","","2379","tol_tohand","","","","tol_peg_2","2379","2379","0","[[3,0,0],[1,0],[0]]","4","[[1,2,0],[3,0],[0]]","6","0","","","","","","5","","","","","","","","",""
"","","","","","single-stim-button","131","342572","0.0-2.0-28.3-1.3","6268a3f5379f921275a284f1","B2","batch2","","481","tol_toboard","","","","tol_peg_3","481","481","0","[[3,0,0],[1,0],[2]]","4","[[1,2,0],[3,0],[0]]","6","0","","","","","","5","","","","","","","","",""
"","","","","","single-stim-button","132","346526","0.0-2.0-28.4-0.4","6268a3f5379f921275a284f1","B2","batch2","","3954","tol_tohand","","","","tol_peg_1","3954","3954","0","[[0,0,0],[1,0],[2]]","5","[[1,2,0],[3,0],[0]]","6","0","","","","","","5","","","","","","","","",""
"","","","","","single-stim-button","133","347548","0.0-2.0-28.4-1.4","6268a3f5379f921275a284f1","B2","batch2","","1022","tol_toboard","","","","tol_peg_2","1022","1022","0","[[0,0,0],[1,3],[2]]","5","[[1,2,0],[3,0],[0]]","6","0","","","","","","5","","","","","","","","",""
"","","","","","single-stim-button","134","348503","0.0-2.0-28.5-0.5","6268a3f5379f921275a284f1","B2","batch2","","954","tol_tohand","","","","tol_peg_2","954","954","0","[[0,0,0],[1,0],[2]]","6","[[1,2,0],[3,0],[0]]","6","0","","","","","","5","","","","","","","","",""
"","","","","","single-stim-button","135","348997","0.0-2.0-28.5-1.5","6268a3f5379f921275a284f1","B2","batch2","","494","tol_toboard","","","","tol_peg_1","494","494","0","[[3,0,0],[1,0],[2]]","6","[[1,2,0],[3,0],[0]]","6","0","","","","","","5","","","","","","","","",""
"","","","","","single-stim-button","136","350230","0.0-2.0-28.6-0.6","6268a3f5379f921275a284f1","B2","batch2","","1232","tol_tohand","","","","tol_peg_3","1232","1232","0","[[3,0,0],[1,0],[0]]","7","[[1,2,0],[3,0],[0]]","6","0","","","","","","5","","","","","","","","",""
"","","","","","single-stim-button","137","351660","0.0-2.0-28.6-1.6","6268a3f5379f921275a284f1","B2","batch2","","1430","tol_toboard","","","","tol_peg_2","1430","1430","0","[[3,0,0],[1,2],[0]]","7","[[1,2,0],[3,0],[0]]","6","0","","","","","","5","","","","","","","","",""
"","","","","","single-stim-button","138","352563","0.0-2.0-28.7-0.7","6268a3f5379f921275a284f1","B2","batch2","","903","tol_tohand","","","","tol_peg_2","903","903","0","[[3,0,0],[1,0],[0]]","8","[[1,2,0],[3,0],[0]]","6","0","","","","","","5","","","","","","","","",""
"","","","","","single-stim-button","139","353064","0.0-2.0-28.7-1.7","6268a3f5379f921275a284f1","B2","batch2","","501","tol_toboard","","","","tol_peg_1","501","501","0","[[3,2,0],[1,0],[0]]","8","[[1,2,0],[3,0],[0]]","6","0","","","","","","5","","","","","","","","",""
"","","","","","single-stim-button","140","353492","0.0-2.0-28.8-0.8","6268a3f5379f921275a284f1","B2","batch2","","428","tol_tohand","","","","tol_peg_2","428","428","0","[[3,2,0],[0,0],[0]]","9","[[1,2,0],[3,0],[0]]","6","0","","","","","","5","","","","","","","","",""
"","","","","","single-stim-button","141","353953","0.0-2.0-28.8-1.8","6268a3f5379f921275a284f1","B2","batch2","","461","tol_toboard","","","","tol_peg_3","461","461","0","[[3,2,0],[0,0],[1]]","9","[[1,2,0],[3,0],[0]]","6","0","","","","","","5","","","","","","","","",""
"","","","","","single-stim-button","142","355364","0.0-2.0-28.9-0.9","6268a3f5379f921275a284f1","B2","batch2","","1411","tol_tohand","","","","tol_peg_1","1411","1411","0","[[3,0,0],[0,0],[1]]","10","[[1,2,0],[3,0],[0]]","6","0","","","","","","5","","","","","","","","",""
"","","","","","single-stim-button","143","355825","0.0-2.0-28.9-1.9","6268a3f5379f921275a284f1","B2","batch2","","460","tol_toboard","","","","tol_peg_2","460","460","0","[[3,0,0],[2,0],[1]]","10","[[1,2,0],[3,0],[0]]","6","0","","","","","","5","","","","","","","","",""
"","","","","","single-stim-button","144","356410","0.0-2.0-28.10-0.10","6268a3f5379f921275a284f1","B2","batch2","","585","tol_tohand","","","","tol_peg_1","585","585","0","[[0,0,0],[2,0],[1]]","11","[[1,2,0],[3,0],[0]]","6","0","","","","","","5","","","","","","","","",""
"","","","","","single-stim-button","145","356950","0.0-2.0-28.10-1.10","6268a3f5379f921275a284f1","B2","batch2","","540","tol_toboard","","","","tol_peg_2","540","540","0","[[0,0,0],[2,3],[1]]","11","[[1,2,0],[3,0],[0]]","6","0","","","","","","5","","","","","","","","",""
"","","","","","single-stim-button","146","357998","0.0-2.0-28.11-0.11","6268a3f5379f921275a284f1","B2","batch2","","1047","tol_tohand","","","","tol_peg_3","1047","1047","0","[[0,0,0],[2,3],[0]]","12","[[1,2,0],[3,0],[0]]","6","0","","","","","","5","","","","","","","","",""
"","","","","","single-stim-button","147","358657","0.0-2.0-28.11-1.11","6268a3f5379f921275a284f1","B2","batch2","","658","tol_toboard","","","","tol_peg_1","658","658","0","[[1,0,0],[2,3],[0]]","12","[[1,2,0],[3,0],[0]]","6","0","","","","","","5","","","","","","","","",""
"","","","","","single-stim-button","148","359369","0.0-2.0-28.12-0.12","6268a3f5379f921275a284f1","B2","batch2","","711","tol_tohand","","","","tol_peg_2","711","711","0","[[1,0,0],[2,0],[0]]","13","[[1,2,0],[3,0],[0]]","6","0","","","","","","5","","","","","","","","",""
"","","","","","single-stim-button","149","360298","0.0-2.0-28.12-1.12","6268a3f5379f921275a284f1","B2","batch2","","928","tol_toboard","","","","tol_peg_3","928","928","0","[[1,0,0],[2,0],[3]]","13","[[1,2,0],[3,0],[0]]","6","0","","","","","","5","","","","","","","","",""
"","","","","","single-stim-button","150","361023","0.0-2.0-28.13-0.13","6268a3f5379f921275a284f1","B2","batch2","","725","tol_tohand","","","","tol_peg_2","725","725","0","[[1,0,0],[0,0],[3]]","14","[[1,2,0],[3,0],[0]]","6","0","","","","","","5","","","","","","","","",""
"","","","","","single-stim-button","151","361551","0.0-2.0-28.13-1.13","6268a3f5379f921275a284f1","B2","batch2","","527","tol_toboard","","","","tol_peg_1","527","527","0","[[1,2,0],[0,0],[3]]","14","[[1,2,0],[3,0],[0]]","6","0","","","","","","5","","","","","","","","",""
"","","","","","single-stim-button","152","362882","0.0-2.0-28.14-0.14","6268a3f5379f921275a284f1","B2","batch2","","1330","tol_tohand","","","","tol_peg_3","1330","1330","0","[[1,2,0],[0,0],[0]]","15","[[1,2,0],[3,0],[0]]","6","0","","","","","","5","","","","","","","","",""
"","","","","","single-stim-button","153","363323","0.0-2.0-28.14-1.14","6268a3f5379f921275a284f1","B2","batch2","","440","tol_toboard","","","","tol_peg_2","440","440","0","[[1,2,0],[3,0],[0]]","15","[[1,2,0],[3,0],[0]]","6","0","","","","","","5","","","","","","","","",""
"","","","","","poldrack-single-stim","154","364331","0.0-2.0-29.0","6268a3f5379f921275a284f1","B2","batch2","","-1","tol_feedback","","","true","","1000","1000","500","","","","","","-1","none","true","5758","25746","","","","","","","","","",""
"","","","","","html-button-response","155","365116","0.0-2.0-30.0","6268a3f5379f921275a284f1","B2","batch2","","783.5","tol_trial_num","<div class = centerbox><p class = center-block-text>problem <strong>8</strong> out of 25 problems</p></div>","0","","","","","","","","","","","","","","","","","","","","","","","","",""
"","","","","","single-stim-button","156","370268","0.0-2.0-31.0-0.0","6268a3f5379f921275a284f1","B2","batch2","","5151","tol_tohand","","","","tol_peg_3","5151","5151","0","[[0,0,0],[2,3],[0]]","1","[[1,2,0],[3,0],[0]]","7","0","","","","","","4","","","","","","","","",""
"","","","","","single-stim-button","157","371092","0.0-2.0-31.0-1.0","6268a3f5379f921275a284f1","B2","batch2","","823","tol_toboard","","","","tol_peg_1","823","823","0","[[1,0,0],[2,3],[0]]","1","[[1,2,0],[3,0],[0]]","7","0","","","","","","4","","","","","","","","",""
"","","","","","single-stim-button","158","373345","0.0-2.0-31.1-0.1","6268a3f5379f921275a284f1","B2","batch2","","2253","tol_tohand","","","","tol_peg_2","2253","2253","0","[[1,0,0],[2,0],[0]]","2","[[1,2,0],[3,0],[0]]","7","0","","","","","","4","","","","","","","","",""
"","","","","","single-stim-button","159","373918","0.0-2.0-31.1-1.1","6268a3f5379f921275a284f1","B2","batch2","","572","tol_toboard","","","","tol_peg_3","572","572","0","[[1,0,0],[2,0],[3]]","2","[[1,2,0],[3,0],[0]]","7","0","","","","","","4","","","","","","","","",""
"","","","","","single-stim-button","160","375099","0.0-2.0-31.2-0.2","6268a3f5379f921275a284f1","B2","batch2","","1180","tol_tohand","","","","tol_peg_2","1180","1180","0","[[1,0,0],[0,0],[3]]","3","[[1,2,0],[3,0],[0]]","7","0","","","","","","4","","","","","","","","",""
"","","","","","single-stim-button","161","375613","0.0-2.0-31.2-1.2","6268a3f5379f921275a284f1","B2","batch2","","513","tol_toboard","","","","tol_peg_1","513","513","0","[[1,2,0],[0,0],[3]]","3","[[1,2,0],[3,0],[0]]","7","0","","","","","","4","","","","","","","","",""
"","","","","","single-stim-button","162","376232","0.0-2.0-31.3-0.3","6268a3f5379f921275a284f1","B2","batch2","","618","tol_tohand","","","","tol_peg_3","618","618","0","[[1,2,0],[0,0],[0]]","4","[[1,2,0],[3,0],[0]]","7","0","","","","","","4","","","","","","","","",""
"","","","","","single-stim-button","163","376719","0.0-2.0-31.3-1.3","6268a3f5379f921275a284f1","B2","batch2","","487","tol_toboard","","","","tol_peg_2","487","487","0","[[1,2,0],[3,0],[0]]","4","[[1,2,0],[3,0],[0]]","7","0","","","","","","4","","","","","","","","",""
"","","","","","poldrack-single-stim","164","377732","0.0-2.0-32.0","6268a3f5379f921275a284f1","B2","batch2","","-1","tol_feedback","","","true","","1000","1000","500","","","","","","-1","none","true","5151","9202","","","","","","","","","",""
"","","","","","html-button-response","165","378472","0.0-2.0-33.0","6268a3f5379f921275a284f1","B2","batch2","","738.8000000119209","tol_trial_num","<div class = centerbox><p class = center-block-text>problem <strong>9</strong> out of 25 problems</p></div>","0","","","","","","","","","","","","","","","","","","","","","","","","",""
"","","","","","single-stim-button","166","383037","0.0-2.0-34.0-0.0","6268a3f5379f921275a284f1","B2","batch2","","4565","tol_tohand","","","","tol_peg_1","4565","4565","0","[[3,0,0],[0,0],[1]]","1","[[2,1,0],[3,0],[0]]","8","0","","","","","","6","","","","","","","","",""
"","","","","","single-stim-button","167","384447","0.0-2.0-34.0-1.0","6268a3f5379f921275a284f1","B2","batch2","","1408","tol_toboard","","","","tol_peg_2","1408","1408","0","[[3,0,0],[2,0],[1]]","1","[[2,1,0],[3,0],[0]]","8","0","","","","","","6","","","","","","","","",""
"","","","","","single-stim-button","168","388275","0.0-2.0-34.1-0.1","6268a3f5379f921275a284f1","B2","batch2","","3828","tol_tohand","","","","tol_peg_1","3828","3828","0","[[0,0,0],[2,0],[1]]","2","[[2,1,0],[3,0],[0]]","8","0","","","","","","6","","","","","","","","",""
"","","","","","single-stim-button","169","388776","0.0-2.0-34.1-1.1","6268a3f5379f921275a284f1","B2","batch2","","501","tol_toboard","","","","tol_peg_2","501","501","0","[[0,0,0],[2,3],[1]]","2","[[2,1,0],[3,0],[0]]","8","0","","","","","","6","","","","","","","","",""
"","","","","","single-stim-button","170","391188","0.0-2.0-34.2-0.2","6268a3f5379f921275a284f1","B2","batch2","","2411","tol_tohand","","","","tol_peg_3","2411","2411","0","[[0,0,0],[2,3],[0]]","3","[[2,1,0],[3,0],[0]]","8","0","","","","","","6","","","","","","","","",""
"","","","","","single-stim-button","171","391669","0.0-2.0-34.2-1.2","6268a3f5379f921275a284f1","B2","batch2","","481","tol_toboard","","","","tol_peg_1","481","481","0","[[1,0,0],[2,3],[0]]","3","[[2,1,0],[3,0],[0]]","8","0","","","","","","6","","","","","","","","",""
"","","","","","single-stim-button","172","392494","0.0-2.0-34.3-0.3","6268a3f5379f921275a284f1","B2","batch2","","824","tol_tohand","","","","tol_peg_2","824","824","0","[[1,0,0],[2,0],[0]]","4","[[2,1,0],[3,0],[0]]","8","0","","","","","","6","","","","","","","","",""
"","","","","","single-stim-button","173","392978","0.0-2.0-34.3-1.3","6268a3f5379f921275a284f1","B2","batch2","","483","tol_toboard","","","","tol_peg_3","483","483","0","[[1,0,0],[2,0],[3]]","4","[[2,1,0],[3,0],[0]]","8","0","","","","","","6","","","","","","","","",""
"","","","","","single-stim-button","174","395173","0.0-2.0-34.4-0.4","6268a3f5379f921275a284f1","B2","batch2","","2195","tol_tohand","","","","tol_peg_2","2195","2195","0","[[1,0,0],[0,0],[3]]","5","[[2,1,0],[3,0],[0]]","8","0","","","","","","6","","","","","","","","",""
"","","","","","single-stim-button","175","396089","0.0-2.0-34.4-1.4","6268a3f5379f921275a284f1","B2","batch2","","916","tol_toboard","","","","tol_peg_1","916","916","0","[[1,2,0],[0,0],[3]]","5","[[2,1,0],[3,0],[0]]","8","0","","","","","","6","","","","","","","","",""
"","","","","","single-stim-button","176","397716","0.0-2.0-34.5-0.5","6268a3f5379f921275a284f1","B2","batch2","","1627","tol_tohand","","","","tol_peg_1","1627","1627","0","[[1,0,0],[0,0],[3]]","6","[[2,1,0],[3,0],[0]]","8","0","","","","","","6","","","","","","","","",""
"","","","","","single-stim-button","177","398191","0.0-2.0-34.5-1.5","6268a3f5379f921275a284f1","B2","batch2","","475","tol_toboard","","","","tol_peg_2","475","475","0","[[1,0,0],[2,0],[3]]","6","[[2,1,0],[3,0],[0]]","8","0","","","","","","6","","","","","","","","",""
"","","","","","single-stim-button","178","398731","0.0-2.0-34.6-0.6","6268a3f5379f921275a284f1","B2","batch2","","540","tol_tohand","","","","tol_peg_1","540","540","0","[[0,0,0],[2,0],[3]]","7","[[2,1,0],[3,0],[0]]","8","0","","","","","","6","","","","","","","","",""
"","","","","","single-stim-button","179","399674","0.0-2.0-34.6-1.6","6268a3f5379f921275a284f1","B2","batch2","","943","tol_toboard","","","","tol_peg_2","943","943","0","[[0,0,0],[2,1],[3]]","7","[[2,1,0],[3,0],[0]]","8","0","","","","","","6","","","","","","","","",""
"","","","","","single-stim-button","180","403673","0.0-2.0-34.7-0.7","6268a3f5379f921275a284f1","B2","batch2","","3999","tol_tohand","","","","tol_peg_2","3999","3999","0","[[0,0,0],[2,0],[3]]","8","[[2,1,0],[3,0],[0]]","8","0","","","","","","6","","","","","","","","",""
"","","","","","single-stim-button","181","407270","0.0-2.0-34.7-1.7","6268a3f5379f921275a284f1","B2","batch2","","3595","tol_toboard","","","","tol_peg_1","3595","3595","0","[[1,0,0],[2,0],[3]]","8","[[2,1,0],[3,0],[0]]","8","0","","","","","","6","","","","","","","","",""
"","","","","","single-stim-button","182","409425","0.0-2.0-34.8-0.8","6268a3f5379f921275a284f1","B2","batch2","","2155","tol_tohand","","","","tol_peg_2","2155","2155","0","[[1,0,0],[0,0],[3]]","9","[[2,1,0],[3,0],[0]]","8","0","","","","","","6","","","","","","","","",""
"","","","","","single-stim-button","183","411059","0.0-2.0-34.8-1.8","6268a3f5379f921275a284f1","B2","batch2","","1633","tol_toboard","","","","tol_peg_1","1633","1633","0","[[1,2,0],[0,0],[3]]","9","[[2,1,0],[3,0],[0]]","8","0","","","","","","6","","","","","","","","",""
"","","","","","single-stim-button","184","415675","0.0-2.0-34.9-0.9","6268a3f5379f921275a284f1","B2","batch2","","4616","tol_tohand","","","","tol_peg_3","4616","4616","0","[[1,2,0],[0,0],[0]]","10","[[2,1,0],[3,0],[0]]","8","0","","","","","","6","","","","","","","","",""
"","","","","","single-stim-button","185","416143","0.0-2.0-34.9-1.9","6268a3f5379f921275a284f1","B2","batch2","","467","tol_toboard","","","","tol_peg_2","467","467","0","[[1,2,0],[3,0],[0]]","10","[[2,1,0],[3,0],[0]]","8","0","","","","","","6","","","","","","","","",""
"","","","","","single-stim-button","186","416572","0.0-2.0-34.10-0.10","6268a3f5379f921275a284f1","B2","batch2","","427","tol_tohand","","","","tol_peg_1","427","427","0","[[1,0,0],[3,0],[0]]","11","[[2,1,0],[3,0],[0]]","8","0","","","","","","6","","","","","","","","",""
"","","","","","single-stim-button","187","417144","0.0-2.0-34.10-1.10","6268a3f5379f921275a284f1","B2","batch2","","572","tol_toboard","","","","tol_peg_3","572","572","0","[[1,0,0],[3,0],[2]]","11","[[2,1,0],[3,0],[0]]","8","0","","","","","","6","","","","","","","","",""
"","","","","","single-stim-button","188","417877","0.0-2.0-34.11-0.11","6268a3f5379f921275a284f1","B2","batch2","","731","tol_tohand","","","","tol_peg_1","731","731","0","[[0,0,0],[3,0],[2]]","12","[[2,1,0],[3,0],[0]]","8","0","","","","","","6","","","","","","","","",""
"","","","","","single-stim-button","189","418365","0.0-2.0-34.11-1.11","6268a3f5379f921275a284f1","B2","batch2","","488","tol_toboard","","","","tol_peg_2","488","488","0","[[0,0,0],[3,1],[2]]","12","[[2,1,0],[3,0],[0]]","8","0","","","","","","6","","","","","","","","",""
"","","","","","single-stim-button","190","419161","0.0-2.0-34.12-0.12","6268a3f5379f921275a284f1","B2","batch2","","796","tol_tohand","","","","tol_peg_3","796","796","0","[[0,0,0],[3,1],[0]]","13","[[2,1,0],[3,0],[0]]","8","0","","","","","","6","","","","","","","","",""
"","","","","","single-stim-button","191","419663","0.0-2.0-34.12-1.12","6268a3f5379f921275a284f1","B2","batch2","","501","tol_toboard","","","","tol_peg_1","501","501","0","[[2,0,0],[3,1],[0]]","13","[[2,1,0],[3,0],[0]]","8","0","","","","","","6","","","","","","","","",""
"","","","","","single-stim-button","192","421013","0.0-2.0-34.13-0.13","6268a3f5379f921275a284f1","B2","batch2","","1349","tol_tohand","","","","tol_peg_2","1349","1349","0","[[2,0,0],[3,0],[0]]","14","[[2,1,0],[3,0],[0]]","8","0","","","","","","6","","","","","","","","",""
"","","","","","single-stim-button","193","421468","0.0-2.0-34.13-1.13","6268a3f5379f921275a284f1","B2","batch2","","455","tol_toboard","","","","tol_peg_1","455","455","0","[[2,1,0],[3,0],[0]]","14","[[2,1,0],[3,0],[0]]","8","0","","","","","","6","","","","","","","","",""
"","","","","","poldrack-single-stim","194","422474","0.0-2.0-35.0","6268a3f5379f921275a284f1","B2","batch2","","-1","tol_feedback","","","true","","1000","1000","500","","","","","","-1","none","true","4565","30063","","","","","","","","","",""
"","","","","","html-button-response","195","423115","0.0-2.0-36.0","6268a3f5379f921275a284f1","B2","batch2","","639.9000000059605","tol_trial_num","<div class = centerbox><p class = center-block-text>problem <strong>10</strong> out of 25 problems</p></div>","0","","","","","","","","","","","","","","","","","","","","","","","","",""
"","","","","","single-stim-button","196","429394","0.0-2.0-37.0-0.0","6268a3f5379f921275a284f1","B2","batch2","","6278","tol_tohand","","","","tol_peg_2","6278","6278","0","[[3,0,0],[0,0],[2]]","1","[[3,0,0],[2,1],[0]]","9","0","","","","","","3","","","","","","","","",""
"","","","","","single-stim-button","197","429835","0.0-2.0-37.0-1.0","6268a3f5379f921275a284f1","B2","batch2","","440","tol_toboard","","","","tol_peg_1","440","440","0","[[3,1,0],[0,0],[2]]","1","[[3,0,0],[2,1],[0]]","9","0","","","","","","3","","","","","","","","",""
"","","","","","single-stim-button","198","430633","0.0-2.0-37.1-0.1","6268a3f5379f921275a284f1","B2","batch2","","797","tol_tohand","","","","tol_peg_3","797","797","0","[[3,1,0],[0,0],[0]]","2","[[3,0,0],[2,1],[0]]","9","0","","","","","","3","","","","","","","","",""
"","","","","","single-stim-button","199","431140","0.0-2.0-37.1-1.1","6268a3f5379f921275a284f1","B2","batch2","","507","tol_toboard","","","","tol_peg_2","507","507","0","[[3,1,0],[2,0],[0]]","2","[[3,0,0],[2,1],[0]]","9","0","","","","","","3","","","","","","","","",""
"","","","","","single-stim-button","200","431588","0.0-2.0-37.2-0.2","6268a3f5379f921275a284f1","B2","batch2","","447","tol_tohand","","","","tol_peg_1","447","447","0","[[3,0,0],[2,0],[0]]","3","[[3,0,0],[2,1],[0]]","9","0","","","","","","3","","","","","","","","",""
"","","","","","single-stim-button","201","432090","0.0-2.0-37.2-1.2","6268a3f5379f921275a284f1","B2","batch2","","501","tol_toboard","","","","tol_peg_2","501","501","0","[[3,0,0],[2,1],[0]]","3","[[3,0,0],[2,1],[0]]","9","0","","","","","","3","","","","","","","","",""
"","","","","","poldrack-single-stim","202","433102","0.0-2.0-38.0","6268a3f5379f921275a284f1","B2","batch2","","-1","tol_feedback","","","true","","1000","1000","500","","","","","","-1","none","true","6278","7522","","","","","","","","","",""
"","","","","","html-button-response","203","434086","0.0-2.0-39.0","6268a3f5379f921275a284f1","B2","batch2","","983","tol_trial_num","<div class = centerbox><p class = center-block-text>problem <strong>11</strong> out of 25 problems</p></div>","0","","","","","","","","","","","","","","","","","","","","","","","","",""
"","","","","","single-stim-button","204","437103","0.0-2.0-40.0-0.0","6268a3f5379f921275a284f1","B2","batch2","","3016","tol_tohand","","","","tol_peg_1","3016","3016","0","[[1,0,0],[3,0],[0]]","1","[[2,0,0],[1,3],[0]]","10","0","","","","","","6","","","","","","","","",""
"","","","","","single-stim-button","205","437650","0.0-2.0-40.0-1.0","6268a3f5379f921275a284f1","B2","batch2","","547","tol_toboard","","","","tol_peg_3","547","547","0","[[1,0,0],[3,0],[2]]","1","[[2,0,0],[1,3],[0]]","10","0","","","","","","6","","","","","","","","",""
"","","","","","single-stim-button","206","438968","0.0-2.0-40.1-0.1","6268a3f5379f921275a284f1","B2","batch2","","1317","tol_tohand","","","","tol_peg_1","1317","1317","0","[[0,0,0],[3,0],[2]]","2","[[2,0,0],[1,3],[0]]","10","0","","","","","","6","","","","","","","","",""
"","","","","","single-stim-button","207","439410","0.0-2.0-40.1-1.1","6268a3f5379f921275a284f1","B2","batch2","","440","tol_toboard","","","","tol_peg_2","440","440","0","[[0,0,0],[3,1],[2]]","2","[[2,0,0],[1,3],[0]]","10","0","","","","","","6","","","","","","","","",""
"","","","","","single-stim-button","208","439878","0.0-2.0-40.2-0.2","6268a3f5379f921275a284f1","B2","batch2","","467","tol_tohand","","","","tol_peg_3","467","467","0","[[0,0,0],[3,1],[0]]","3","[[2,0,0],[1,3],[0]]","10","0","","","","","","6","","","","","","","","",""
"","","","","","single-stim-button","209","440455","0.0-2.0-40.2-1.2","6268a3f5379f921275a284f1","B2","batch2","","577","tol_toboard","","","","tol_peg_1","577","577","0","[[2,0,0],[3,1],[0]]","3","[[2,0,0],[1,3],[0]]","10","0","","","","","","6","","","","","","","","",""
"","","","","","single-stim-button","210","443144","0.0-2.0-40.3-0.3","6268a3f5379f921275a284f1","B2","batch2","","2688","tol_tohand","","","","tol_peg_2","2688","2688","0","[[2,0,0],[3,0],[0]]","4","[[2,0,0],[1,3],[0]]","10","0","","","","","","6","","","","","","","","",""
"","","","","","single-stim-button","211","443626","0.0-2.0-40.3-1.3","6268a3f5379f921275a284f1","B2","batch2","","481","tol_toboard","","","","tol_peg_3","481","481","0","[[2,0,0],[3,0],[1]]","4","[[2,0,0],[1,3],[0]]","10","0","","","","","","6","","","","","","","","",""
"","","","","","single-stim-button","212","445212","0.0-2.0-40.4-0.4","6268a3f5379f921275a284f1","B2","batch2","","1586","tol_tohand","","","","tol_peg_3","1586","1586","0","[[2,0,0],[3,0],[0]]","5","[[2,0,0],[1,3],[0]]","10","0","","","","","","6","","","","","","","","",""
"","","","","","single-stim-button","213","445714","0.0-2.0-40.4-1.4","6268a3f5379f921275a284f1","B2","batch2","","501","tol_toboard","","","","tol_peg_1","501","501","0","[[2,1,0],[3,0],[0]]","5","[[2,0,0],[1,3],[0]]","10","0","","","","","","6","","","","","","","","",""
"","","","","","single-stim-button","214","447005","0.0-2.0-40.5-0.5","6268a3f5379f921275a284f1","B2","batch2","","1290","tol_tohand","","","","tol_peg_1","1290","1290","0","[[2,0,0],[3,0],[0]]","6","[[2,0,0],[1,3],[0]]","10","0","","","","","","6","","","","","","","","",""
"","","","","","single-stim-button","215","447468","0.0-2.0-40.5-1.5","6268a3f5379f921275a284f1","B2","batch2","","461","tol_toboard","","","","tol_peg_3","461","461","0","[[2,0,0],[3,0],[1]]","6","[[2,0,0],[1,3],[0]]","10","0","","","","","","6","","","","","","","","",""
"","","","","","single-stim-button","216","447909","0.0-2.0-40.6-0.6","6268a3f5379f921275a284f1","B2","batch2","","440","tol_tohand","","","","tol_peg_2","440","440","0","[[2,0,0],[0,0],[1]]","7","[[2,0,0],[1,3],[0]]","10","0","","","","","","6","","","","","","","","",""
"","","","","","single-stim-button","217","448284","0.0-2.0-40.6-1.6","6268a3f5379f921275a284f1","B2","batch2","","375","tol_toboard","","","","tol_peg_1","375","375","0","[[2,3,0],[0,0],[1]]","7","[[2,0,0],[1,3],[0]]","10","0","","","","","","6","","","","","","","","",""
"","","","","","single-stim-button","218","449266","0.0-2.0-40.7-0.7","6268a3f5379f921275a284f1","B2","batch2","","981","tol_tohand","","","","tol_peg_3","981","981","0","[[2,3,0],[0,0],[0]]","8","[[2,0,0],[1,3],[0]]","10","0","","","","","","6","","","","","","","","",""
"","","","","","single-stim-button","219","449905","0.0-2.0-40.7-1.7","6268a3f5379f921275a284f1","B2","batch2","","638","tol_toboard","","","","tol_peg_2","638","638","0","[[2,3,0],[1,0],[0]]","8","[[2,0,0],[1,3],[0]]","10","0","","","","","","6","","","","","","","","",""
"","","","","","single-stim-button","220","450366","0.0-2.0-40.8-0.8","6268a3f5379f921275a284f1","B2","batch2","","460","tol_tohand","","","","tol_peg_1","460","460","0","[[2,0,0],[1,0],[0]]","9","[[2,0,0],[1,3],[0]]","10","0","","","","","","6","","","","","","","","",""
"","","","","","single-stim-button","221","450795","0.0-2.0-40.8-1.8","6268a3f5379f921275a284f1","B2","batch2","","428","tol_toboard","","","","tol_peg_2","428","428","0","[[2,0,0],[1,3],[0]]","9","[[2,0,0],[1,3],[0]]","10","0","","","","","","6","","","","","","","","",""
"","","","","","poldrack-single-stim","222","451811","0.0-2.0-41.0","6268a3f5379f921275a284f1","B2","batch2","","-1","tol_feedback","","","true","","1000","1000","500","","","","","","-1","none","true","3016","12245","","","","","","","","","",""
"","","","","","html-button-response","223","452585","0.0-2.0-42.0","6268a3f5379f921275a284f1","B2","batch2","","773.3000000119209","tol_trial_num","<div class = centerbox><p class = center-block-text>problem <strong>12</strong> out of 25 problems</p></div>","0","","","","","","","","","","","","","","","","","","","","","","","","",""
"","","","","","single-stim-button","224","455610","0.0-2.0-43.0-0.0","6268a3f5379f921275a284f1","B2","batch2","","3024","tol_tohand","","","","tol_peg_1","3024","3024","0","[[1,0,0],[3,0],[0]]","1","[[2,3,0],[0,0],[1]]","11","0","","","","","","4","","","","","","","","",""
"","","","","","single-stim-button","225","457480","0.0-2.0-43.0-1.0","6268a3f5379f921275a284f1","B2","batch2","","1869","tol_toboard","","","","tol_peg_2","1869","1869","0","[[1,0,0],[3,2],[0]]","1","[[2,3,0],[0,0],[1]]","11","0","","","","","","4","","","","","","","","",""
"","","","","","single-stim-button","226","458093","0.0-2.0-43.1-0.1","6268a3f5379f921275a284f1","B2","batch2","","612","tol_tohand","","","","tol_peg_1","612","612","0","[[0,0,0],[3,2],[0]]","2","[[2,3,0],[0,0],[1]]","11","0","","","","","","4","","","","","","","","",""
"","","","","","single-stim-button","227","458647","0.0-2.0-43.1-1.1","6268a3f5379f921275a284f1","B2","batch2","","553","tol_toboard","","","","tol_peg_3","553","553","0","[[0,0,0],[3,2],[1]]","2","[[2,3,0],[0,0],[1]]","11","0","","","","","","4","","","","","","","","",""
"","","","","","single-stim-button","228","460756","0.0-2.0-43.2-0.2","6268a3f5379f921275a284f1","B2","batch2","","2108","tol_tohand","","","","tol_peg_2","2108","2108","0","[[0,0,0],[3,0],[1]]","3","[[2,3,0],[0,0],[1]]","11","0","","","","","","4","","","","","","","","",""
"","","","","","single-stim-button","229","461327","0.0-2.0-43.2-1.2","6268a3f5379f921275a284f1","B2","batch2","","570","tol_toboard","","","","tol_peg_1","570","570","0","[[2,0,0],[3,0],[1]]","3","[[2,3,0],[0,0],[1]]","11","0","","","","","","4","","","","","","","","",""
"","","","","","single-stim-button","230","462408","0.0-2.0-43.3-0.3","6268a3f5379f921275a284f1","B2","batch2","","1081","tol_tohand","","","","tol_peg_2","1081","1081","0","[[2,0,0],[0,0],[1]]","4","[[2,3,0],[0,0],[1]]","11","0","","","","","","4","","","","","","","","",""
"","","","","","single-stim-button","231","463832","0.0-2.0-43.3-1.3","6268a3f5379f921275a284f1","B2","batch2","","1423","tol_toboard","","","","tol_peg_1","1423","1423","0","[[2,3,0],[0,0],[1]]","4","[[2,3,0],[0,0],[1]]","11","0","","","","","","4","","","","","","","","",""
"","","","","","poldrack-single-stim","232","464836","0.0-2.0-44.0","6268a3f5379f921275a284f1","B2","batch2","","-1","tol_feedback","","","true","","1000","1000","500","","","","","","-1","none","true","3024","6825","","","","","","","","","",""
"","","","","","html-button-response","233","465525","0.0-2.0-45.0","6268a3f5379f921275a284f1","B2","batch2","","689","tol_trial_num","<div class = centerbox><p class = center-block-text>problem <strong>13</strong> out of 25 problems</p></div>","0","","","","","","","","","","","","","","","","","","","","","","","","",""
"","","","","","single-stim-button","234","468029","0.0-2.0-46.0-0.0","6268a3f5379f921275a284f1","B2","batch2","","2503","tol_tohand","","","","tol_peg_1","2503","2503","0","[[1,0,0],[3,0],[0]]","1","[[0,0,0],[2,3],[1]]","12","0","","","","","","4","","","","","","","","",""
"","","","","","single-stim-button","235","468484","0.0-2.0-46.0-1.0","6268a3f5379f921275a284f1","B2","batch2","","454","tol_toboard","","","","tol_peg_2","454","454","0","[[1,0,0],[3,2],[0]]","1","[[0,0,0],[2,3],[1]]","12","0","","","","","","4","","","","","","","","",""
"","","","","","single-stim-button","236","468919","0.0-2.0-46.1-0.1","6268a3f5379f921275a284f1","B2","batch2","","434","tol_tohand","","","","tol_peg_1","434","434","0","[[0,0,0],[3,2],[0]]","2","[[0,0,0],[2,3],[1]]","12","0","","","","","","4","","","","","","","","",""
"","","","","","single-stim-button","237","469413","0.0-2.0-46.1-1.1","6268a3f5379f921275a284f1","B2","batch2","","493","tol_toboard","","","","tol_peg_3","493","493","0","[[0,0,0],[3,2],[1]]","2","[[0,0,0],[2,3],[1]]","12","0","","","","","","4","","","","","","","","",""
"","","","","","single-stim-button","238","473380","0.0-2.0-46.2-0.2","6268a3f5379f921275a284f1","B2","batch2","","3967","tol_tohand","","","","tol_peg_2","3967","3967","0","[[0,0,0],[3,0],[1]]","3","[[0,0,0],[2,3],[1]]","12","0","","","","","","4","","","","","","","","",""
"","","","","","single-stim-button","239","473834","0.0-2.0-46.2-1.2","6268a3f5379f921275a284f1","B2","batch2","","454","tol_toboard","","","","tol_peg_1","454","454","0","[[2,0,0],[3,0],[1]]","3","[[0,0,0],[2,3],[1]]","12","0","","","","","","4","","","","","","","","",""
"","","","","","single-stim-button","240","475686","0.0-2.0-46.3-0.3","6268a3f5379f921275a284f1","B2","batch2","","1852","tol_tohand","","","","tol_peg_2","1852","1852","0","[[2,0,0],[0,0],[1]]","4","[[0,0,0],[2,3],[1]]","12","0","","","","","","4","","","","","","","","",""
"","","","","","single-stim-button","241","476352","0.0-2.0-46.3-1.3","6268a3f5379f921275a284f1","B2","batch2","","666","tol_toboard","","","","tol_peg_1","666","666","0","[[2,3,0],[0,0],[1]]","4","[[0,0,0],[2,3],[1]]","12","0","","","","","","4","","","","","","","","",""
"","","","","","single-stim-button","242","477722","0.0-2.0-46.4-0.4","6268a3f5379f921275a284f1","B2","batch2","","1370","tol_tohand","","","","tol_peg_1","1370","1370","0","[[2,0,0],[0,0],[1]]","5","[[0,0,0],[2,3],[1]]","12","0","","","","","","4","","","","","","","","",""
"","","","","","single-stim-button","243","478995","0.0-2.0-46.4-1.4","6268a3f5379f921275a284f1","B2","batch2","","1273","tol_toboard","","","","tol_peg_1","1273","1273","0","[[2,3,0],[0,0],[1]]","5","[[0,0,0],[2,3],[1]]","12","0","","","","","","4","","","","","","","","",""
"","","","","","single-stim-button","244","480398","0.0-2.0-46.5-0.5","6268a3f5379f921275a284f1","B2","batch2","","1402","tol_tohand","","","","tol_peg_1","1402","1402","0","[[2,0,0],[0,0],[1]]","6","[[0,0,0],[2,3],[1]]","12","0","","","","","","4","","","","","","","","",""
"","","","","","single-stim-button","245","484338","0.0-2.0-46.5-1.5","6268a3f5379f921275a284f1","B2","batch2","","3940","tol_toboard","","","","tol_peg_2","3940","3940","0","[[2,0,0],[3,0],[1]]","6","[[0,0,0],[2,3],[1]]","12","0","","","","","","4","","","","","","","","",""
"","","","","","single-stim-button","246","485518","0.0-2.0-46.6-0.6","6268a3f5379f921275a284f1","B2","batch2","","1180","tol_tohand","","","","tol_peg_3","1180","1180","0","[[2,0,0],[3,0],[0]]","7","[[0,0,0],[2,3],[1]]","12","0","","","","","","4","","","","","","","","",""
"","","","","","single-stim-button","247","485990","0.0-2.0-46.6-1.6","6268a3f5379f921275a284f1","B2","batch2","","472","tol_toboard","","","","tol_peg_2","472","472","0","[[2,0,0],[3,1],[0]]","7","[[0,0,0],[2,3],[1]]","12","0","","","","","","4","","","","","","","","",""
"","","","","","single-stim-button","248","486491","0.0-2.0-46.7-0.7","6268a3f5379f921275a284f1","B2","batch2","","500","tol_tohand","","","","tol_peg_1","500","500","0","[[0,0,0],[3,1],[0]]","8","[[0,0,0],[2,3],[1]]","12","0","","","","","","4","","","","","","","","",""
"","","","","","single-stim-button","249","487032","0.0-2.0-46.7-1.7","6268a3f5379f921275a284f1","B2","batch2","","541","tol_toboard","","","","tol_peg_3","541","541","0","[[0,0,0],[3,1],[2]]","8","[[0,0,0],[2,3],[1]]","12","0","","","","","","4","","","","","","","","",""
"","","","","","single-stim-button","250","488225","0.0-2.0-46.8-0.8","6268a3f5379f921275a284f1","B2","batch2","","1193","tol_tohand","","","","tol_peg_2","1193","1193","0","[[0,0,0],[3,0],[2]]","9","[[0,0,0],[2,3],[1]]","12","0","","","","","","4","","","","","","","","",""
"","","","","","single-stim-button","251","488633","0.0-2.0-46.8-1.8","6268a3f5379f921275a284f1","B2","batch2","","407","tol_toboard","","","","tol_peg_1","407","407","0","[[1,0,0],[3,0],[2]]","9","[[0,0,0],[2,3],[1]]","12","0","","","","","","4","","","","","","","","",""
"","","","","","single-stim-button","252","491157","0.0-2.0-46.9-0.9","6268a3f5379f921275a284f1","B2","batch2","","2524","tol_tohand","","","","tol_peg_2","2524","2524","0","[[1,0,0],[0,0],[2]]","10","[[0,0,0],[2,3],[1]]","12","0","","","","","","4","","","","","","","","",""
"","","","","","single-stim-button","253","491565","0.0-2.0-46.9-1.9","6268a3f5379f921275a284f1","B2","batch2","","408","tol_toboard","","","","tol_peg_1","408","408","0","[[1,3,0],[0,0],[2]]","10","[[0,0,0],[2,3],[1]]","12","0","","","","","","4","","","","","","","","",""
"","","","","","single-stim-button","254","492117","0.0-2.0-46.10-0.10","6268a3f5379f921275a284f1","B2","batch2","","552","tol_tohand","","","","tol_peg_3","552","552","0","[[1,3,0],[0,0],[0]]","11","[[0,0,0],[2,3],[1]]","12","0","","","","","","4","","","","","","","","",""
"","","","","","single-stim-button","255","492546","0.0-2.0-46.10-1.10","6268a3f5379f921275a284f1","B2","batch2","","429","tol_toboard","","","","tol_peg_2","429","429","0","[[1,3,0],[2,0],[0]]","11","[[0,0,0],[2,3],[1]]","12","0","","","","","","4","","","","","","","","",""
"","","","","","single-stim-button","256","493581","0.0-2.0-46.11-0.11","6268a3f5379f921275a284f1","B2","batch2","","1034","tol_tohand","","","","tol_peg_1","1034","1034","0","[[1,0,0],[2,0],[0]]","12","[[0,0,0],[2,3],[1]]","12","0","","","","","","4","","","","","","","","",""
"","","","","","single-stim-button","257","494036","0.0-2.0-46.11-1.11","6268a3f5379f921275a284f1","B2","batch2","","455","tol_toboard","","","","tol_peg_2","455","455","0","[[1,0,0],[2,3],[0]]","12","[[0,0,0],[2,3],[1]]","12","0","","","","","","4","","","","","","","","",""
"","","","","","single-stim-button","258","495182","0.0-2.0-46.12-0.12","6268a3f5379f921275a284f1","B2","batch2","","1146","tol_tohand","","","","tol_peg_1","1146","1146","0","[[0,0,0],[2,3],[0]]","13","[[0,0,0],[2,3],[1]]","12","0","","","","","","4","","","","","","","","",""
"","","","","","single-stim-button","259","495644","0.0-2.0-46.12-1.12","6268a3f5379f921275a284f1","B2","batch2","","462","tol_toboard","","","","tol_peg_3","462","462","0","[[0,0,0],[2,3],[1]]","13","[[0,0,0],[2,3],[1]]","12","0","","","","","","4","","","","","","","","",""
"","","","","","poldrack-single-stim","260","496648","0.0-2.0-47.0","6268a3f5379f921275a284f1","B2","batch2","","-1","tol_feedback","","","true","","1000","1000","500","","","","","","-1","none","true","2503","19657","","","","","","","","","",""
"","","","","","html-button-response","261","500856","0.0-2.0-48.0","6268a3f5379f921275a284f1","B2","batch2","","4206.800000011921","attention_check","<p class = block-text>How many balls are in your board<br></p>","1","true","","","","","","","","","","","","","","","","","","","","","","","",""
"","","","","","html-button-response","262","502312","0.0-2.0-49.0","6268a3f5379f921275a284f1","B2","batch2","","1454.5","tol_trial_num","<div class = centerbox><p class = center-block-text>problem <strong>14</strong> out of 25 problems</p></div>","0","","","","","","","","","","","","","","","","","","","","","","","","",""
"","","","","","single-stim-button","263","506239","0.0-2.0-50.0-0.0","6268a3f5379f921275a284f1","B2","batch2","","3926","tol_tohand","","","","tol_peg_1","3926","3926","0","[[2,0,0],[3,0],[0]]","1","[[1,2,0],[3,0],[0]]","13","0","","","","","","4","","","","","","","","",""
"","","","","","single-stim-button","264","506964","0.0-2.0-50.0-1.0","6268a3f5379f921275a284f1","B2","batch2","","724","tol_toboard","","","","tol_peg_3","724","724","0","[[2,0,0],[3,0],[1]]","1","[[1,2,0],[3,0],[0]]","13","0","","","","","","4","","","","","","","","",""
"","","","","","single-stim-button","265","507439","0.0-2.0-50.1-0.1","6268a3f5379f921275a284f1","B2","batch2","","474","tol_tohand","","","","tol_peg_1","474","474","0","[[0,0,0],[3,0],[1]]","2","[[1,2,0],[3,0],[0]]","13","0","","","","","","4","","","","","","","","",""
"","","","","","single-stim-button","266","507907","0.0-2.0-50.1-1.1","6268a3f5379f921275a284f1","B2","batch2","","467","tol_toboard","","","","tol_peg_2","467","467","0","[[0,0,0],[3,2],[1]]","2","[[1,2,0],[3,0],[0]]","13","0","","","","","","4","","","","","","","","",""
"","","","","","single-stim-button","267","511248","0.0-2.0-50.2-0.2","6268a3f5379f921275a284f1","B2","batch2","","3340","tol_tohand","","","","tol_peg_3","3340","3340","0","[[0,0,0],[3,2],[0]]","3","[[1,2,0],[3,0],[0]]","13","0","","","","","","4","","","","","","","","",""
"","","","","","single-stim-button","268","511762","0.0-2.0-50.2-1.2","6268a3f5379f921275a284f1","B2","batch2","","513","tol_toboard","","","","tol_peg_1","513","513","0","[[1,0,0],[3,2],[0]]","3","[[1,2,0],[3,0],[0]]","13","0","","","","","","4","","","","","","","","",""
"","","","","","single-stim-button","269","512237","0.0-2.0-50.3-0.3","6268a3f5379f921275a284f1","B2","batch2","","474","tol_tohand","","","","tol_peg_2","474","474","0","[[1,0,0],[3,0],[0]]","4","[[1,2,0],[3,0],[0]]","13","0","","","","","","4","","","","","","","","",""
"","","","","","single-stim-button","270","512737","0.0-2.0-50.3-1.3","6268a3f5379f921275a284f1","B2","batch2","","499","tol_toboard","","","","tol_peg_1","499","499","0","[[1,2,0],[3,0],[0]]","4","[[1,2,0],[3,0],[0]]","13","0","","","","","","4","","","","","","","","",""
"","","","","","poldrack-single-stim","271","513740","0.0-2.0-51.0","6268a3f5379f921275a284f1","B2","batch2","","-1","tol_feedback","","","true","","1000","1000","500","","","","","","-1","none","true","3926","8214","","","","","","","","","",""
"","","","","","html-button-response","272","514312","0.0-2.0-52.0","6268a3f5379f921275a284f1","B2","batch2","","570.5","tol_trial_num","<div class = centerbox><p class = center-block-text>problem <strong>15</strong> out of 25 problems</p></div>","0","","","","","","","","","","","","","","","","","","","","","","","","",""
"","","","","","single-stim-button","273","517706","0.0-2.0-53.0-0.0","6268a3f5379f921275a284f1","B2","batch2","","3393","tol_tohand","","","","tol_peg_1","3393","3393","0","[[1,0,0],[3,0],[0]]","1","[[2,0,0],[3,0],[1]]","14","0","","","","","","3","","","","","","","","",""
"","","","","","single-stim-button","274","518167","0.0-2.0-53.0-1.0","6268a3f5379f921275a284f1","B2","batch2","","460","tol_toboard","","","","tol_peg_2","460","460","0","[[1,0,0],[3,2],[0]]","1","[[2,0,0],[3,0],[1]]","14","0","","","","","","3","","","","","","","","",""
"","","","","","single-stim-button","275","518609","0.0-2.0-53.1-0.1","6268a3f5379f921275a284f1","B2","batch2","","441","tol_tohand","","","","tol_peg_1","441","441","0","[[0,0,0],[3,2],[0]]","2","[[2,0,0],[3,0],[1]]","14","0","","","","","","3","","","","","","","","",""
"","","","","","single-stim-button","276","519505","0.0-2.0-53.1-1.1","6268a3f5379f921275a284f1","B2","batch2","","895","tol_toboard","","","","tol_peg_3","895","895","0","[[0,0,0],[3,2],[1]]","2","[[2,0,0],[3,0],[1]]","14","0","","","","","","3","","","","","","","","",""
"","","","","","single-stim-button","277","520171","0.0-2.0-53.2-0.2","6268a3f5379f921275a284f1","B2","batch2","","665","tol_tohand","","","","tol_peg_2","665","665","0","[[0,0,0],[3,0],[1]]","3","[[2,0,0],[3,0],[1]]","14","0","","","","","","3","","","","","","","","",""
"","","","","","single-stim-button","278","520777","0.0-2.0-53.2-1.2","6268a3f5379f921275a284f1","B2","batch2","","605","tol_toboard","","","","tol_peg_1","605","605","0","[[2,0,0],[3,0],[1]]","3","[[2,0,0],[3,0],[1]]","14","0","","","","","","3","","","","","","","","",""
"","","","","","poldrack-single-stim","279","521779","0.0-2.0-54.0","6268a3f5379f921275a284f1","B2","batch2","","-1","tol_feedback","","","true","","1000","1000","500","","","","","","-1","none","true","3393","4499","","","","","","","","","",""
"","","","","","html-button-response","280","522411","0.0-2.0-55.0","6268a3f5379f921275a284f1","B2","batch2","","630.6999999880791","tol_trial_num","<div class = centerbox><p class = center-block-text>problem <strong>16</strong> out of 25 problems</p></div>","0","","","","","","","","","","","","","","","","","","","","","","","","",""
"","","","","","single-stim-button","281","527079","0.0-2.0-56.0-0.0","6268a3f5379f921275a284f1","B2","batch2","","4668","tol_tohand","","","","tol_peg_2","4668","4668","0","[[0,0,0],[2,0],[1]]","1","[[2,3,0],[1,0],[0]]","15","0","","","","","","7","","","","","","","","",""
"","","","","","single-stim-button","282","527620","0.0-2.0-56.0-1.0","6268a3f5379f921275a284f1","B2","batch2","","540","tol_toboard","","","","tol_peg_1","540","540","0","[[3,0,0],[2,0],[1]]","1","[[2,3,0],[1,0],[0]]","15","0","","","","","","7","","","","","","","","",""
"","","","","","single-stim-button","283","528661","0.0-2.0-56.1-0.1","6268a3f5379f921275a284f1","B2","batch2","","1040","tol_tohand","","","","tol_peg_3","1040","1040","0","[[3,0,0],[2,0],[0]]","2","[[2,3,0],[1,0],[0]]","15","0","","","","","","7","","","","","","","","",""
"","","","","","single-stim-button","284","529083","0.0-2.0-56.1-1.1","6268a3f5379f921275a284f1","B2","batch2","","421","tol_toboard","","","","tol_peg_2","421","421","0","[[3,0,0],[2,1],[0]]","2","[[2,3,0],[1,0],[0]]","15","0","","","","","","7","","","","","","","","",""
"","","","","","single-stim-button","285","530164","0.0-2.0-56.2-0.2","6268a3f5379f921275a284f1","B2","batch2","","1080","tol_tohand","","","","tol_peg_1","1080","1080","0","[[0,0,0],[2,1],[0]]","3","[[2,3,0],[1,0],[0]]","15","0","","","","","","7","","","","","","","","",""
"","","","","","single-stim-button","286","530612","0.0-2.0-56.2-1.2","6268a3f5379f921275a284f1","B2","batch2","","447","tol_toboard","","","","tol_peg_3","447","447","0","[[0,0,0],[2,1],[3]]","3","[[2,3,0],[1,0],[0]]","15","0","","","","","","7","","","","","","","","",""
"","","","","","single-stim-button","287","534941","0.0-2.0-56.3-0.3","6268a3f5379f921275a284f1","B2","batch2","","4328","tol_tohand","","","","tol_peg_2","4328","4328","0","[[0,0,0],[2,0],[3]]","4","[[2,3,0],[1,0],[0]]","15","0","","","","","","7","","","","","","","","",""
"","","","","","single-stim-button","288","535350","0.0-2.0-56.3-1.3","6268a3f5379f921275a284f1","B2","batch2","","408","tol_toboard","","","","tol_peg_1","408","408","0","[[1,0,0],[2,0],[3]]","4","[[2,3,0],[1,0],[0]]","15","0","","","","","","7","","","","","","","","",""
"","","","","","single-stim-button","289","535976","0.0-2.0-56.4-0.4","6268a3f5379f921275a284f1","B2","batch2","","625","tol_tohand","","","","tol_peg_2","625","625","0","[[1,0,0],[0,0],[3]]","5","[[2,3,0],[1,0],[0]]","15","0","","","","","","7","","","","","","","","",""
"","","","","","single-stim-button","290","536899","0.0-2.0-56.4-1.4","6268a3f5379f921275a284f1","B2","batch2","","922","tol_toboard","","","","tol_peg_1","922","922","0","[[1,2,0],[0,0],[3]]","5","[[2,3,0],[1,0],[0]]","15","0","","","","","","7","","","","","","","","",""
"","","","","","single-stim-button","291","539712","0.0-2.0-56.5-0.5","6268a3f5379f921275a284f1","B2","batch2","","2812","tol_tohand","","","","tol_peg_3","2812","2812","0","[[1,2,0],[0,0],[0]]","6","[[2,3,0],[1,0],[0]]","15","0","","","","","","7","","","","","","","","",""
"","","","","","single-stim-button","292","540147","0.0-2.0-56.5-1.5","6268a3f5379f921275a284f1","B2","batch2","","434","tol_toboard","","","","tol_peg_2","434","434","0","[[1,2,0],[3,0],[0]]","6","[[2,3,0],[1,0],[0]]","15","0","","","","","","7","","","","","","","","",""
"","","","","","single-stim-button","293","540575","0.0-2.0-56.6-0.6","6268a3f5379f921275a284f1","B2","batch2","","427","tol_tohand","","","","tol_peg_1","427","427","0","[[1,0,0],[3,0],[0]]","7","[[2,3,0],[1,0],[0]]","15","0","","","","","","7","","","","","","","","",""
"","","","","","single-stim-button","294","540991","0.0-2.0-56.6-1.6","6268a3f5379f921275a284f1","B2","batch2","","415","tol_toboard","","","","tol_peg_3","415","415","0","[[1,0,0],[3,0],[2]]","7","[[2,3,0],[1,0],[0]]","15","0","","","","","","7","","","","","","","","",""
"","","","","","single-stim-button","295","542474","0.0-2.0-56.7-0.7","6268a3f5379f921275a284f1","B2","batch2","","1482","tol_tohand","","","","tol_peg_1","1482","1482","0","[[0,0,0],[3,0],[2]]","8","[[2,3,0],[1,0],[0]]","15","0","","","","","","7","","","","","","","","",""
"","","","","","single-stim-button","296","542955","0.0-2.0-56.7-1.7","6268a3f5379f921275a284f1","B2","batch2","","480","tol_toboard","","","","tol_peg_2","480","480","0","[[0,0,0],[3,1],[2]]","8","[[2,3,0],[1,0],[0]]","15","0","","","","","","7","","","","","","","","",""
"","","","","","single-stim-button","297","543627","0.0-2.0-56.8-0.8","6268a3f5379f921275a284f1","B2","batch2","","671","tol_tohand","","","","tol_peg_3","671","671","0","[[0,0,0],[3,1],[0]]","9","[[2,3,0],[1,0],[0]]","15","0","","","","","","7","","","","","","","","",""
"","","","","","single-stim-button","298","544023","0.0-2.0-56.8-1.8","6268a3f5379f921275a284f1","B2","batch2","","395","tol_toboard","","","","tol_peg_1","395","395","0","[[2,0,0],[3,1],[0]]","9","[[2,3,0],[1,0],[0]]","15","0","","","","","","7","","","","","","","","",""
"","","","","","single-stim-button","299","545426","0.0-2.0-56.9-0.9","6268a3f5379f921275a284f1","B2","batch2","","1402","tol_tohand","","","","tol_peg_2","1402","1402","0","[[2,0,0],[3,0],[0]]","10","[[2,3,0],[1,0],[0]]","15","0","","","","","","7","","","","","","","","",""
"","","","","","single-stim-button","300","545835","0.0-2.0-56.9-1.9","6268a3f5379f921275a284f1","B2","batch2","","408","tol_toboard","","","","tol_peg_3","408","408","0","[[2,0,0],[3,0],[1]]","10","[[2,3,0],[1,0],[0]]","15","0","","","","","","7","","","","","","","","",""
"","","","","","single-stim-button","301","546244","0.0-2.0-56.10-0.10","6268a3f5379f921275a284f1","B2","batch2","","408","tol_tohand","","","","tol_peg_2","408","408","0","[[2,0,0],[0,0],[1]]","11","[[2,3,0],[1,0],[0]]","15","0","","","","","","7","","","","","","","","",""
"","","","","","single-stim-button","302","546626","0.0-2.0-56.10-1.10","6268a3f5379f921275a284f1","B2","batch2","","381","tol_toboard","","","","tol_peg_1","381","381","0","[[2,3,0],[0,0],[1]]","11","[[2,3,0],[1,0],[0]]","15","0","","","","","","7","","","","","","","","",""
"","","","","","single-stim-button","303","547437","0.0-2.0-56.11-0.11","6268a3f5379f921275a284f1","B2","batch2","","810","tol_tohand","","","","tol_peg_3","810","810","0","[[2,3,0],[0,0],[0]]","12","[[2,3,0],[1,0],[0]]","15","0","","","","","","7","","","","","","","","",""
"","","","","","single-stim-button","304","547905","0.0-2.0-56.11-1.11","6268a3f5379f921275a284f1","B2","batch2","","467","tol_toboard","","","","tol_peg_2","467","467","0","[[2,3,0],[1,0],[0]]","12","[[2,3,0],[1,0],[0]]","15","0","","","","","","7","","","","","","","","",""
"","","","","","poldrack-single-stim","305","548908","0.0-2.0-57.0","6268a3f5379f921275a284f1","B2","batch2","","-1","tol_feedback","","","true","","1000","1000","500","","","","","","-1","none","true","4668","19753","","","","","","","","","",""
"","","","","","html-button-response","306","549611","0.0-2.0-58.0","6268a3f5379f921275a284f1","B2","batch2","","702.5","tol_trial_num","<div class = centerbox><p class = center-block-text>problem <strong>17</strong> out of 25 problems</p></div>","0","","","","","","","","","","","","","","","","","","","","","","","","",""
"","","","","","single-stim-button","307","553077","0.0-2.0-59.0-0.0","6268a3f5379f921275a284f1","B2","batch2","","3465","tol_tohand","","","","tol_peg_2","3465","3465","0","[[1,2,0],[0,0],[0]]","1","[[3,1,0],[2,0],[0]]","16","0","","","","","","5","","","","","","","","",""
"","","","","","single-stim-button","308","553545","0.0-2.0-59.0-1.0","6268a3f5379f921275a284f1","B2","batch2","","467","tol_toboard","","","","tol_peg_3","467","467","0","[[1,2,0],[0,0],[3]]","1","[[3,1,0],[2,0],[0]]","16","0","","","","","","5","","","","","","","","",""
"","","","","","single-stim-button","309","555415","0.0-2.0-59.1-0.1","6268a3f5379f921275a284f1","B2","batch2","","1870","tol_tohand","","","","tol_peg_1","1870","1870","0","[[1,0,0],[0,0],[3]]","2","[[3,1,0],[2,0],[0]]","16","0","","","","","","5","","","","","","","","",""
"","","","","","single-stim-button","310","556858","0.0-2.0-59.1-1.1","6268a3f5379f921275a284f1","B2","batch2","","1442","tol_toboard","","","","tol_peg_2","1442","1442","0","[[1,0,0],[2,0],[3]]","2","[[3,1,0],[2,0],[0]]","16","0","","","","","","5","","","","","","","","",""
"","","","","","single-stim-button","311","559480","0.0-2.0-59.2-0.2","6268a3f5379f921275a284f1","B2","batch2","","2622","tol_tohand","","","","tol_peg_1","2622","2622","0","[[0,0,0],[2,0],[3]]","3","[[3,1,0],[2,0],[0]]","16","0","","","","","","5","","","","","","","","",""
"","","","","","single-stim-button","312","559955","0.0-2.0-59.2-1.2","6268a3f5379f921275a284f1","B2","batch2","","474","tol_toboard","","","","tol_peg_2","474","474","0","[[0,0,0],[2,1],[3]]","3","[[3,1,0],[2,0],[0]]","16","0","","","","","","5","","","","","","","","",""
"","","","","","single-stim-button","313","561095","0.0-2.0-59.3-0.3","6268a3f5379f921275a284f1","B2","batch2","","1139","tol_tohand","","","","tol_peg_2","1139","1139","0","[[0,0,0],[2,0],[3]]","4","[[3,1,0],[2,0],[0]]","16","0","","","","","","5","","","","","","","","",""
"","","","","","single-stim-button","314","562156","0.0-2.0-59.3-1.3","6268a3f5379f921275a284f1","B2","batch2","","1060","tol_toboard","","","","tol_peg_2","1060","1060","0","[[0,0,0],[2,1],[3]]","4","[[3,1,0],[2,0],[0]]","16","0","","","","","","5","","","","","","","","",""
"","","","","","single-stim-button","315","562585","0.0-2.0-59.4-0.4","6268a3f5379f921275a284f1","B2","batch2","","429","tol_tohand","","","","tol_peg_3","429","429","0","[[0,0,0],[2,1],[0]]","5","[[3,1,0],[2,0],[0]]","16","0","","","","","","5","","","","","","","","",""
"","","","","","single-stim-button","316","563020","0.0-2.0-59.4-1.4","6268a3f5379f921275a284f1","B2","batch2","","434","tol_toboard","","","","tol_peg_1","434","434","0","[[3,0,0],[2,1],[0]]","5","[[3,1,0],[2,0],[0]]","16","0","","","","","","5","","","","","","","","",""
"","","","","","single-stim-button","317","563514","0.0-2.0-59.5-0.5","6268a3f5379f921275a284f1","B2","batch2","","493","tol_tohand","","","","tol_peg_2","493","493","0","[[3,0,0],[2,0],[0]]","6","[[3,1,0],[2,0],[0]]","16","0","","","","","","5","","","","","","","","",""
"","","","","","single-stim-button","318","563967","0.0-2.0-59.5-1.5","6268a3f5379f921275a284f1","B2","batch2","","452","tol_toboard","","","","tol_peg_3","452","452","0","[[3,0,0],[2,0],[1]]","6","[[3,1,0],[2,0],[0]]","16","0","","","","","","5","","","","","","","","",""
"","","","","","single-stim-button","319","564468","0.0-2.0-59.6-0.6","6268a3f5379f921275a284f1","B2","batch2","","501","tol_tohand","","","","tol_peg_1","501","501","0","[[0,0,0],[2,0],[1]]","7","[[3,1,0],[2,0],[0]]","16","0","","","","","","5","","","","","","","","",""
"","","","","","single-stim-button","320","564910","0.0-2.0-59.6-1.6","6268a3f5379f921275a284f1","B2","batch2","","441","tol_toboard","","","","tol_peg_2","441","441","0","[[0,0,0],[2,3],[1]]","7","[[3,1,0],[2,0],[0]]","16","0","","","","","","5","","","","","","","","",""
"","","","","","single-stim-button","321","568106","0.0-2.0-59.7-0.7","6268a3f5379f921275a284f1","B2","batch2","","3195","tol_tohand","","","","tol_peg_2","3195","3195","0","[[0,0,0],[2,0],[1]]","8","[[3,1,0],[2,0],[0]]","16","0","","","","","","5","","","","","","","","",""
"","","","","","single-stim-button","322","569463","0.0-2.0-59.7-1.7","6268a3f5379f921275a284f1","B2","batch2","","1356","tol_toboard","","","","tol_peg_2","1356","1356","0","[[0,0,0],[2,3],[1]]","8","[[3,1,0],[2,0],[0]]","16","0","","","","","","5","","","","","","","","",""
"","","","","","single-stim-button","323","570491","0.0-2.0-59.8-0.8","6268a3f5379f921275a284f1","B2","batch2","","1027","tol_tohand","","","","tol_peg_2","1027","1027","0","[[0,0,0],[2,0],[1]]","9","[[3,1,0],[2,0],[0]]","16","0","","","","","","5","","","","","","","","",""
"","","","","","single-stim-button","324","574235","0.0-2.0-59.8-1.8","6268a3f5379f921275a284f1","B2","batch2","","3744","tol_toboard","","","","tol_peg_1","3744","3744","0","[[3,0,0],[2,0],[1]]","9","[[3,1,0],[2,0],[0]]","16","0","","","","","","5","","","","","","","","",""
"","","","","","single-stim-button","325","575105","0.0-2.0-59.9-0.9","6268a3f5379f921275a284f1","B2","batch2","","869","tol_tohand","","","","tol_peg_3","869","869","0","[[3,0,0],[2,0],[0]]","10","[[3,1,0],[2,0],[0]]","16","0","","","","","","5","","","","","","","","",""
"","","","","","single-stim-button","326","575599","0.0-2.0-59.9-1.9","6268a3f5379f921275a284f1","B2","batch2","","493","tol_toboard","","","","tol_peg_2","493","493","0","[[3,0,0],[2,1],[0]]","10","[[3,1,0],[2,0],[0]]","16","0","","","","","","5","","","","","","","","",""
"","","","","","single-stim-button","327","576098","0.0-2.0-59.10-0.10","6268a3f5379f921275a284f1","B2","batch2","","498","tol_tohand","","","","tol_peg_1","498","498","0","[[0,0,0],[2,1],[0]]","11","[[3,1,0],[2,0],[0]]","16","0","","","","","","5","","","","","","","","",""
"","","","","","single-stim-button","328","576672","0.0-2.0-59.10-1.10","6268a3f5379f921275a284f1","B2","batch2","","573","tol_toboard","","","","tol_peg_3","573","573","0","[[0,0,0],[2,1],[3]]","11","[[3,1,0],[2,0],[0]]","16","0","","","","","","5","","","","","","","","",""
"","","","","","single-stim-button","329","580500","0.0-2.0-59.11-0.11","6268a3f5379f921275a284f1","B2","batch2","","3828","tol_tohand","","","","tol_peg_3","3828","3828","0","[[0,0,0],[2,1],[0]]","12","[[3,1,0],[2,0],[0]]","16","0","","","","","","5","","","","","","","","",""
"","","","","","single-stim-button","330","580972","0.0-2.0-59.11-1.11","6268a3f5379f921275a284f1","B2","batch2","","471","tol_toboard","","","","tol_peg_1","471","471","0","[[3,0,0],[2,1],[0]]","12","[[3,1,0],[2,0],[0]]","16","0","","","","","","5","","","","","","","","",""
"","","","","","single-stim-button","331","582737","0.0-2.0-59.12-0.12","6268a3f5379f921275a284f1","B2","batch2","","1764","tol_tohand","","","","tol_peg_2","1764","1764","0","[[3,0,0],[2,0],[0]]","13","[[3,1,0],[2,0],[0]]","16","0","","","","","","5","","","","","","","","",""
"","","","","","single-stim-button","332","585847","0.0-2.0-59.12-1.12","6268a3f5379f921275a284f1","B2","batch2","","3110","tol_toboard","","","","tol_peg_1","3110","3110","0","[[3,1,0],[2,0],[0]]","13","[[3,1,0],[2,0],[0]]","16","0","","","","","","5","","","","","","","","",""
"","","","","","poldrack-single-stim","333","586852","0.0-2.0-60.0","6268a3f5379f921275a284f1","B2","batch2","","-1","tol_feedback","","","true","","1000","1000","500","","","","","","-1","none","true","3465","21700","","","","","","","","","",""
"","","","","","html-button-response","334","588826","0.0-2.0-61.0","6268a3f5379f921275a284f1","B2","batch2","","1972.800000011921","tol_trial_num","<div class = centerbox><p class = center-block-text>problem <strong>18</strong> out of 25 problems</p></div>","0","","","","","","","","","","","","","","","","","","","","","","","","",""
"","","","","","single-stim-button","335","591989","0.0-2.0-62.0-0.0","6268a3f5379f921275a284f1","B2","batch2","","3162","tol_tohand","","","","tol_peg_2","3162","3162","0","[[1,2,0],[0,0],[0]]","1","[[3,0,0],[2,0],[1]]","17","0","","","","","","5","","","","","","","","",""
"","","","","","single-stim-button","336","592510","0.0-2.0-62.0-1.0","6268a3f5379f921275a284f1","B2","batch2","","521","tol_toboard","","","","tol_peg_3","521","521","0","[[1,2,0],[0,0],[3]]","1","[[3,0,0],[2,0],[1]]","17","0","","","","","","5","","","","","","","","",""
"","","","","","single-stim-button","337","593393","0.0-2.0-62.1-0.1","6268a3f5379f921275a284f1","B2","batch2","","882","tol_tohand","","","","tol_peg_1","882","882","0","[[1,0,0],[0,0],[3]]","2","[[3,0,0],[2,0],[1]]","17","0","","","","","","5","","","","","","","","",""
"","","","","","single-stim-button","338","593946","0.0-2.0-62.1-1.1","6268a3f5379f921275a284f1","B2","batch2","","552","tol_toboard","","","","tol_peg_2","552","552","0","[[1,0,0],[2,0],[3]]","2","[[3,0,0],[2,0],[1]]","17","0","","","","","","5","","","","","","","","",""
"","","","","","single-stim-button","339","595120","0.0-2.0-62.2-0.2","6268a3f5379f921275a284f1","B2","batch2","","1174","tol_tohand","","","","tol_peg_1","1174","1174","0","[[0,0,0],[2,0],[3]]","3","[[3,0,0],[2,0],[1]]","17","0","","","","","","5","","","","","","","","",""
"","","","","","single-stim-button","340","595917","0.0-2.0-62.2-1.2","6268a3f5379f921275a284f1","B2","batch2","","796","tol_toboard","","","","tol_peg_2","796","796","0","[[0,0,0],[2,1],[3]]","3","[[3,0,0],[2,0],[1]]","17","0","","","","","","5","","","","","","","","",""
"","","","","","single-stim-button","341","598236","0.0-2.0-62.3-0.3","6268a3f5379f921275a284f1","B2","batch2","","2318","tol_tohand","","","","tol_peg_3","2318","2318","0","[[0,0,0],[2,1],[0]]","4","[[3,0,0],[2,0],[1]]","17","0","","","","","","5","","","","","","","","",""
"","","","","","single-stim-button","342","598718","0.0-2.0-62.3-1.3","6268a3f5379f921275a284f1","B2","batch2","","481","tol_toboard","","","","tol_peg_1","481","481","0","[[3,0,0],[2,1],[0]]","4","[[3,0,0],[2,0],[1]]","17","0","","","","","","5","","","","","","","","",""
"","","","","","single-stim-button","343","599917","0.0-2.0-62.4-0.4","6268a3f5379f921275a284f1","B2","batch2","","1199","tol_tohand","","","","tol_peg_2","1199","1199","0","[[3,0,0],[2,0],[0]]","5","[[3,0,0],[2,0],[1]]","17","0","","","","","","5","","","","","","","","",""
"","","","","","single-stim-button","344","600550","0.0-2.0-62.4-1.4","6268a3f5379f921275a284f1","B2","batch2","","632","tol_toboard","","","","tol_peg_3","632","632","0","[[3,0,0],[2,0],[1]]","5","[[3,0,0],[2,0],[1]]","17","0","","","","","","5","","","","","","","","",""
"","","","","","poldrack-single-stim","345","601564","0.0-2.0-63.0","6268a3f5379f921275a284f1","B2","batch2","","-1","tol_feedback","","","true","","1000","1000","500","","","","","","-1","none","true","3162","8735","","","","","","","","","",""
"","","","","","html-button-response","346","602263","0.0-2.0-64.0","6268a3f5379f921275a284f1","B2","batch2","","697.5999999940395","tol_trial_num","<div class = centerbox><p class = center-block-text>problem <strong>19</strong> out of 25 problems</p></div>","0","","","","","","","","","","","","","","","","","","","","","","","","",""
"","","","","","single-stim-button","347","605703","0.0-2.0-65.0-0.0","6268a3f5379f921275a284f1","B2","batch2","","3440","tol_tohand","","","","tol_peg_2","3440","3440","0","[[1,2,0],[0,0],[0]]","1","[[0,0,0],[1,2],[3]]","18","0","","","","","","7","","","","","","","","",""
"","","","","","single-stim-button","348","608372","0.0-2.0-65.0-1.0","6268a3f5379f921275a284f1","B2","batch2","","2668","tol_toboard","","","","tol_peg_2","2668","2668","0","[[1,2,0],[3,0],[0]]","1","[[0,0,0],[1,2],[3]]","18","0","","","","","","7","","","","","","","","",""
"","","","","","single-stim-button","349","608978","0.0-2.0-65.1-0.1","6268a3f5379f921275a284f1","B2","batch2","","606","tol_tohand","","","","tol_peg_1","606","606","0","[[1,0,0],[3,0],[0]]","2","[[0,0,0],[1,2],[3]]","18","0","","","","","","7","","","","","","","","",""
"","","","","","single-stim-button","350","610013","0.0-2.0-65.1-1.1","6268a3f5379f921275a284f1","B2","batch2","","1034","tol_toboard","","","","tol_peg_3","1034","1034","0","[[1,0,0],[3,0],[2]]","2","[[0,0,0],[1,2],[3]]","18","0","","","","","","7","","","","","","","","",""
"","","","","","single-stim-button","351","613623","0.0-2.0-65.2-0.2","6268a3f5379f921275a284f1","B2","batch2","","3610","tol_tohand","","","","tol_peg_2","3610","3610","0","[[1,0,0],[0,0],[2]]","3","[[0,0,0],[1,2],[3]]","18","0","","","","","","7","","","","","","","","",""
"","","","","","single-stim-button","352","614935","0.0-2.0-65.2-1.2","6268a3f5379f921275a284f1","B2","batch2","","1312","tol_toboard","","","","tol_peg_1","1312","1312","0","[[1,3,0],[0,0],[2]]","3","[[0,0,0],[1,2],[3]]","18","0","","","","","","7","","","","","","","","",""
"","","","","","single-stim-button","353","616405","0.0-2.0-65.3-0.3","6268a3f5379f921275a284f1","B2","batch2","","1470","tol_tohand","","","","tol_peg_3","1470","1470","0","[[1,3,0],[0,0],[0]]","4","[[0,0,0],[1,2],[3]]","18","0","","","","","","7","","","","","","","","",""
"","","","","","single-stim-button","354","616831","0.0-2.0-65.3-1.3","6268a3f5379f921275a284f1","B2","batch2","","425","tol_toboard","","","","tol_peg_2","425","425","0","[[1,3,0],[2,0],[0]]","4","[[0,0,0],[1,2],[3]]","18","0","","","","","","7","","","","","","","","",""
"","","","","","single-stim-button","355","617267","0.0-2.0-65.4-0.4","6268a3f5379f921275a284f1","B2","batch2","","436","tol_tohand","","","","tol_peg_1","436","436","0","[[1,0,0],[2,0],[0]]","5","[[0,0,0],[1,2],[3]]","18","0","","","","","","7","","","","","","","","",""
"","","","","","single-stim-button","356","617708","0.0-2.0-65.4-1.4","6268a3f5379f921275a284f1","B2","batch2","","441","tol_toboard","","","","tol_peg_3","441","441","0","[[1,0,0],[2,0],[3]]","5","[[0,0,0],[1,2],[3]]","18","0","","","","","","7","","","","","","","","",""
