"success","timeout","failed_images","failed_audio","failed_video","trial_type","trial_index","time_elapsed","internal_node_id","subject_id","study_id","session_id","view_history","rt","task","stimulus","response","correct","mouse_click","stim_duration","block_duration","timing_post_trial","current_position","tol_num_moves_made","tol_target","tol_problem_id","tol_rt","key_press","possible_responses","tol_correct","preplanning","tol_rt_per_trial","tol_min_moves","answer","item","fiar_detect_rt","fiar_detect_correct","total_correct_fiar_detect","post_trial_gap","choices","spm_correct","spm_rt"
"true","false","[]","[]","[]","preload","0","67540","0.0-0.0","6276b88b3b4036b3f0ca289b","A3","batch1","","","","","","","","","","","","","","","","","","","","","","","","","","","","","",""
"true","","","","","fullscreen","1","237735","0.0-1.0-0.0","6276b88b3b4036b3f0ca289b","A3","batch1","","","","","","","","","","","","","","","","","","","","","","","","","","","","","",""
"true","","","","","fullscreen","2","242951","0.0-2.0-0.0","6276b88b3b4036b3f0ca289b","A3","batch1","","","","","","","","","","","","","","","","","","","","","","","","","","","","","",""
"","","","","","instructions","3","353074","0.0-2.0-1.0-0.0-0.0","6276b88b3b4036b3f0ca289b","A3","batch1","[{""page_index"":0,""viewing_time"":17847},{""page_index"":1,""viewing_time"":10409.399999999907},{""page_index"":2,""viewing_time"":9501.800000000047},{""page_index"":3,""viewing_time"":21914.5},{""page_index"":4,""viewing_time"":7980},{""page_index"":5,""viewing_time"":22286},{""page_index"":6,""viewing_time"":20183.90000000014}]","110122.80000000005","tol-instructions","","","","","","","","","","","","","","","","","","","","","","","","","","",""
"","","","","","html-button-response","4","354742","0.0-2.0-1.0-1.0-0.0","6276b88b3b4036b3f0ca289b","A3","batch1","","1666.6999999999534","tol_enter_quiz","<p class=block-text> Let's answer a few questions <br>","0","","","","","","","","","","","","","","","","","","","","","","","","",""
"","","","","","html-button-response","5","359172","0.0-2.0-1.0-1.0-1.0","6276b88b3b4036b3f0ca289b","A3","batch1","","4429","tol_quiz","<p class = block-text>True or False: You can only move the ball on top of a peg. <br></p>","0","true","","","","","","","","","","","","","","","","","","","","","","","",""
"","","","","","html-button-response","6","360764","0.0-2.0-1.0-1.0-2.0","6276b88b3b4036b3f0ca289b","A3","batch1","","1590.8000000000466","tol_quiz_feedback","<p class = block-text>Correct! You can only move the ball on top of a peg.</p>","0","","","","","","","","","","","","","","","","","","","","","","","","",""
"","","","","","html-button-response","7","364655","0.0-2.0-1.0-1.0-3.0","6276b88b3b4036b3f0ca289b","A3","batch1","","3890.4000000001397","tol_quiz","<p class = block-text>True or False: You should try to match your board with the target board with fewest moves possible. <br></p>","0","true","","","","","","","","","","","","","","","","","","","","","","","",""
"","","","","","html-button-response","8","365603","0.0-2.0-1.0-1.0-4.0","6276b88b3b4036b3f0ca289b","A3","batch1","","947.1999999999534","tol_quiz_feedback","<p class = block-text>Correct! </p>","0","","","","","","","","","","","","","","","","","","","","","","","","",""
"","","","","","html-button-response","9","369132","0.0-2.0-2.0","6276b88b3b4036b3f0ca289b","A3","batch1","","3527.600000000093","","<p class=block-text> Now that you've understood the game, let's practice a few easier examples before we start!<br> <br>","0","","","","","","","","","","","","","","","","","","","","","","","","",""
"","","","","","single-stim-button","10","379361","0.0-2.0-3.0-0.0","6276b88b3b4036b3f0ca289b","A3","batch1","","10228","tol_practice","","","","tol_peg_2","10228","10228","0","[[1,2,0],[0,0],[0]]","1","[[1,2,0],[0,0],[3]]","practice","10228","","","","","","","","","","","","","","",""
"","","","","","single-stim-button","11","382171","0.0-2.0-3.0-1.0","6276b88b3b4036b3f0ca289b","A3","batch1","","2809","tol_practice","","","","tol_peg_3","2809","2809","0","[[1,2,0],[0,0],[3]]","1","[[1,2,0],[0,0],[3]]","practice","2809","","","","","","","","","","","","","","",""
"","","","","","poldrack-single-stim","12","383186","0.0-2.0-4.0","6276b88b3b4036b3f0ca289b","A3","batch1","","-1","tol_feedback","","","true","","1000","1000","500","","","","","","-1","none","true","","0","","","","","","","","","",""
"","","","","","single-stim-button","13","391167","0.0-2.0-5.0-0.0","6276b88b3b4036b3f0ca289b","A3","batch1","","7980","tol_practice","","","","tol_peg_1","7980","7980","0","[[1,0,0],[3,0],[0]]","2","[[0,0,0],[3,1],[2]]","practice","7980","","","","","","","","","","","","","","",""
"","","","","","single-stim-button","14","392383","0.0-2.0-5.0-1.0","6276b88b3b4036b3f0ca289b","A3","batch1","","1215","tol_practice","","","","tol_peg_3","1215","1215","0","[[1,0,0],[3,0],[2]]","2","[[0,0,0],[3,1],[2]]","practice","1215","","","","","","","","","","","","","","",""
"","","","","","single-stim-button","15","393483","0.0-2.0-5.1-0.1","6276b88b3b4036b3f0ca289b","A3","batch1","","1099","tol_practice","","","","tol_peg_1","1099","1099","0","[[0,0,0],[3,0],[2]]","3","[[0,0,0],[3,1],[2]]","practice","1099","","","","","","","","","","","","","","",""
"","","","","","single-stim-button","16","394347","0.0-2.0-5.1-1.1","6276b88b3b4036b3f0ca289b","A3","batch1","","863","tol_practice","","","","tol_peg_2","863","863","0","[[0,0,0],[3,1],[2]]","3","[[0,0,0],[3,1],[2]]","practice","863","","","","","","","","","","","","","","",""
"","","","","","poldrack-single-stim","17","395352","0.0-2.0-6.0","6276b88b3b4036b3f0ca289b","A3","batch1","","-1","tol_feedback","","","true","","1000","1000","500","","","","","","-1","none","true","","0","","","","","","","","","",""
"","","","","","single-stim-button","18","401007","0.0-2.0-7.0-0.0","6276b88b3b4036b3f0ca289b","A3","batch1","","5654","tol_practice","","","","tol_peg_2","5654","5654","0","[[1,2,0],[0,0],[0]]","4","[[1,0,0],[2,0],[3]]","practice","5654","","","","","","","","","","","","","","",""
"","","","","","single-stim-button","19","402165","0.0-2.0-7.0-1.0","6276b88b3b4036b3f0ca289b","A3","batch1","","1157","tol_practice","","","","tol_peg_3","1157","1157","0","[[1,2,0],[0,0],[3]]","4","[[1,0,0],[2,0],[3]]","practice","1157","","","","","","","","","","","","","","",""
"","","","","","single-stim-button","20","403429","0.0-2.0-7.1-0.1","6276b88b3b4036b3f0ca289b","A3","batch1","","1264","tol_practice","","","","tol_peg_1","1264","1264","0","[[1,0,0],[0,0],[3]]","5","[[1,0,0],[2,0],[3]]","practice","1264","","","","","","","","","","","","","","",""
"","","","","","single-stim-button","21","404292","0.0-2.0-7.1-1.1","6276b88b3b4036b3f0ca289b","A3","batch1","","863","tol_practice","","","","tol_peg_2","863","863","0","[[1,0,0],[2,0],[3]]","5","[[1,0,0],[2,0],[3]]","practice","863","","","","","","","","","","","","","","",""
"","","","","","poldrack-single-stim","22","405303","0.0-2.0-8.0","6276b88b3b4036b3f0ca289b","A3","batch1","","-1","tol_feedback","","","true","","1000","1000","500","","","","","","-1","none","true","","0","","","","","","","","","",""
"","","","","","html-button-response","23","409889","0.0-2.0-9.0","6276b88b3b4036b3f0ca289b","A3","batch1","","4585.5","tol_instruction","<div class = centerbox><p class = center-block-text>Great job! You are done with practice trials<br>You are about to start official trials.<br> <br> Problem <strong>1</strong> out of 25 problems</p></div>","0","","","","","","","","","","","","","","","","","","","","","","","","",""
"","","","","","single-stim-button","24","423707","0.0-2.0-10.0-0.0","6276b88b3b4036b3f0ca289b","A3","batch1","","12813","tol_tohand","","","","tol_peg_2","12813","12813","0","[[1,2,0],[0,0],[0]]","1","[[1,3,0],[2,0],[0]]","0","0","","","","","","3","","","","","","","","",""
"","","","","","single-stim-button","25","424995","0.0-2.0-10.0-1.0","6276b88b3b4036b3f0ca289b","A3","batch1","","1288","tol_toboard","","","","tol_peg_3","1288","1288","0","[[1,2,0],[0,0],[3]]","1","[[1,3,0],[2,0],[0]]","0","0","","","","","","3","","","","","","","","",""
"","","","","","single-stim-button","26","426277","0.0-2.0-10.1-0.1","6276b88b3b4036b3f0ca289b","A3","batch1","","1281","tol_tohand","","","","tol_peg_1","1281","1281","0","[[1,0,0],[0,0],[3]]","2","[[1,3,0],[2,0],[0]]","0","0","","","","","","3","","","","","","","","",""
"","","","","","single-stim-button","27","427306","0.0-2.0-10.1-1.1","6276b88b3b4036b3f0ca289b","A3","batch1","","1029","tol_toboard","","","","tol_peg_2","1029","1029","0","[[1,0,0],[2,0],[3]]","2","[[1,3,0],[2,0],[0]]","0","0","","","","","","3","","","","","","","","",""
"","","","","","single-stim-button","28","428092","0.0-2.0-10.2-0.2","6276b88b3b4036b3f0ca289b","A3","batch1","","786","tol_tohand","","","","tol_peg_3","786","786","0","[[1,0,0],[2,0],[0]]","3","[[1,3,0],[2,0],[0]]","0","0","","","","","","3","","","","","","","","",""
"","","","","","single-stim-button","29","429015","0.0-2.0-10.2-1.2","6276b88b3b4036b3f0ca289b","A3","batch1","","923","tol_toboard","","","","tol_peg_1","923","923","0","[[1,3,0],[2,0],[0]]","3","[[1,3,0],[2,0],[0]]","0","0","","","","","","3","","","","","","","","",""
"","","","","","poldrack-single-stim","30","430017","0.0-2.0-11.0","6276b88b3b4036b3f0ca289b","A3","batch1","","-1","tol_feedback","","","true","","1000","1000","500","","","","","","-1","none","true","12813","14880","","","","","","","","","",""
"","","","","","html-button-response","31","431256","0.0-2.0-12.0","6276b88b3b4036b3f0ca289b","A3","batch1","","1237.6000000000931","tol_trial_num","<div class = centerbox><p class = center-block-text>problem <strong>2</strong> out of 25 problems</p></div>","0","","","","","","","","","","","","","","","","","","","","","","","","",""
"","","","","","single-stim-button","32","435726","0.0-2.0-13.0-0.0","6276b88b3b4036b3f0ca289b","A3","batch1","","4470","tol_tohand","","","","tol_peg_1","4470","4470","0","[[1,0,0],[3,0],[0]]","1","[[2,1,3],[0,0],[0]]","1","0","","","","","","5","","","","","","","","",""
"","","","","","single-stim-button","33","446009","0.0-2.0-13.0-1.0","6276b88b3b4036b3f0ca289b","A3","batch1","","10282","tol_toboard","","","","tol_peg_3","10282","10282","0","[[1,0,0],[3,0],[2]]","1","[[2,1,3],[0,0],[0]]","1","0","","","","","","5","","","","","","","","",""
"","","","","","single-stim-button","34","446677","0.0-2.0-13.1-0.1","6276b88b3b4036b3f0ca289b","A3","batch1","","667","tol_tohand","","","","tol_peg_1","667","667","0","[[0,0,0],[3,0],[2]]","2","[[2,1,3],[0,0],[0]]","1","0","","","","","","5","","","","","","","","",""
"","","","","","single-stim-button","35","447228","0.0-2.0-13.1-1.1","6276b88b3b4036b3f0ca289b","A3","batch1","","551","tol_toboard","","","","tol_peg_2","551","551","0","[[0,0,0],[3,1],[2]]","2","[[2,1,3],[0,0],[0]]","1","0","","","","","","5","","","","","","","","",""
"","","","","","single-stim-button","36","447900","0.0-2.0-13.2-0.2","6276b88b3b4036b3f0ca289b","A3","batch1","","672","tol_tohand","","","","tol_peg_3","672","672","0","[[0,0,0],[3,1],[0]]","3","[[2,1,3],[0,0],[0]]","1","0","","","","","","5","","","","","","","","",""
"","","","","","single-stim-button","37","449402","0.0-2.0-13.2-1.2","6276b88b3b4036b3f0ca289b","A3","batch1","","1502","tol_toboard","","","","tol_peg_1","1502","1502","0","[[2,0,0],[3,1],[0]]","3","[[2,1,3],[0,0],[0]]","1","0","","","","","","5","","","","","","","","",""
"","","","","","single-stim-button","38","450427","0.0-2.0-13.3-0.3","6276b88b3b4036b3f0ca289b","A3","batch1","","1025","tol_tohand","","","","tol_peg_2","1025","1025","0","[[2,0,0],[3,0],[0]]","4","[[2,1,3],[0,0],[0]]","1","0","","","","","","5","","","","","","","","",""
"","","","","","single-stim-button","39","451192","0.0-2.0-13.3-1.3","6276b88b3b4036b3f0ca289b","A3","batch1","","765","tol_toboard","","","","tol_peg_1","765","765","0","[[2,1,0],[3,0],[0]]","4","[[2,1,3],[0,0],[0]]","1","0","","","","","","5","","","","","","","","",""
"","","","","","single-stim-button","40","452077","0.0-2.0-13.4-0.4","6276b88b3b4036b3f0ca289b","A3","batch1","","885","tol_tohand","","","","tol_peg_2","885","885","0","[[2,1,0],[0,0],[0]]","5","[[2,1,3],[0,0],[0]]","1","0","","","","","","5","","","","","","","","",""
"","","","","","single-stim-button","41","452846","0.0-2.0-13.4-1.4","6276b88b3b4036b3f0ca289b","A3","batch1","","768","tol_toboard","","","","tol_peg_1","768","768","0","[[2,1,3],[0,0],[0]]","5","[[2,1,3],[0,0],[0]]","1","0","","","","","","5","","","","","","","","",""
"","","","","","poldrack-single-stim","42","453861","0.0-2.0-14.0","6276b88b3b4036b3f0ca289b","A3","batch1","","-1","tol_feedback","","","true","","1000","1000","500","","","","","","-1","none","true","4470","7719","","","","","","","","","",""
"","","","","","html-button-response","43","455076","0.0-2.0-15.0","6276b88b3b4036b3f0ca289b","A3","batch1","","1213.8999999999069","tol_trial_num","<div class = centerbox><p class = center-block-text>problem <strong>3</strong> out of 25 problems</p></div>","0","","","","","","","","","","","","","","","","","","","","","","","","",""
"","","","","","single-stim-button","44","460060","0.0-2.0-16.0-0.0","6276b88b3b4036b3f0ca289b","A3","batch1","","4984","tol_tohand","","","","tol_peg_1","4984","4984","0","[[2,0,0],[0,0],[1]]","1","[[1,2,0],[3,0],[0]]","2","0","","","","","","4","","","","","","","","",""
"","","","","","single-stim-button","45","461521","0.0-2.0-16.0-1.0","6276b88b3b4036b3f0ca289b","A3","batch1","","1461","tol_toboard","","","","tol_peg_2","1461","1461","0","[[2,0,0],[3,0],[1]]","1","[[1,2,0],[3,0],[0]]","2","0","","","","","","4","","","","","","","","",""
"","","","","","single-stim-button","46","463195","0.0-2.0-16.1-0.1","6276b88b3b4036b3f0ca289b","A3","batch1","","1674","tol_tohand","","","","tol_peg_1","1674","1674","0","[[0,0,0],[3,0],[1]]","2","[[1,2,0],[3,0],[0]]","2","0","","","","","","4","","","","","","","","",""
"","","","","","single-stim-button","47","464708","0.0-2.0-16.1-1.1","6276b88b3b4036b3f0ca289b","A3","batch1","","1513","tol_toboard","","","","tol_peg_2","1513","1513","0","[[0,0,0],[3,2],[1]]","2","[[1,2,0],[3,0],[0]]","2","0","","","","","","4","","","","","","","","",""
"","","","","","single-stim-button","48","465391","0.0-2.0-16.2-0.2","6276b88b3b4036b3f0ca289b","A3","batch1","","683","tol_tohand","","","","tol_peg_3","683","683","0","[[0,0,0],[3,2],[0]]","3","[[1,2,0],[3,0],[0]]","2","0","","","","","","4","","","","","","","","",""
"","","","","","single-stim-button","49","466217","0.0-2.0-16.2-1.2","6276b88b3b4036b3f0ca289b","A3","batch1","","826","tol_toboard","","","","tol_peg_1","826","826","0","[[1,0,0],[3,2],[0]]","3","[[1,2,0],[3,0],[0]]","2","0","","","","","","4","","","","","","","","",""
"","","","","","single-stim-button","50","466773","0.0-2.0-16.3-0.3","6276b88b3b4036b3f0ca289b","A3","batch1","","556","tol_tohand","","","","tol_peg_2","556","556","0","[[1,0,0],[3,0],[0]]","4","[[1,2,0],[3,0],[0]]","2","0","","","","","","4","","","","","","","","",""
"","","","","","single-stim-button","51","467455","0.0-2.0-16.3-1.3","6276b88b3b4036b3f0ca289b","A3","batch1","","682","tol_toboard","","","","tol_peg_1","682","682","0","[[1,2,0],[3,0],[0]]","4","[[1,2,0],[3,0],[0]]","2","0","","","","","","4","","","","","","","","",""
"","","","","","poldrack-single-stim","52","468457","0.0-2.0-17.0","6276b88b3b4036b3f0ca289b","A3","batch1","","-1","tol_feedback","","","true","","1000","1000","500","","","","","","-1","none","true","4984","7897","","","","","","","","","",""
"","","","","","html-button-response","53","469271","0.0-2.0-18.0","6276b88b3b4036b3f0ca289b","A3","batch1","","813.2000000001863","tol_trial_num","<div class = centerbox><p class = center-block-text>problem <strong>4</strong> out of 25 problems</p></div>","0","","","","","","","","","","","","","","","","","","","","","","","","",""
"","","","","","single-stim-button","54","472221","0.0-2.0-19.0-0.0","6276b88b3b4036b3f0ca289b","A3","batch1","","2950","tol_tohand","","","","tol_peg_2","2950","2950","0","[[3,0,0],[2,0],[0]]","1","[[3,0,0],[1,0],[2]]","3","0","","","","","","3","","","","","","","","",""
"","","","","","single-stim-button","55","472944","0.0-2.0-19.0-1.0","6276b88b3b4036b3f0ca289b","A3","batch1","","723","tol_toboard","","","","tol_peg_1","723","723","0","[[3,1,0],[2,0],[0]]","1","[[3,0,0],[1,0],[2]]","3","0","","","","","","3","","","","","","","","",""
"","","","","","single-stim-button","56","473615","0.0-2.0-19.1-0.1","6276b88b3b4036b3f0ca289b","A3","batch1","","671","tol_tohand","","","","tol_peg_2","671","671","0","[[3,1,0],[0,0],[0]]","2","[[3,0,0],[1,0],[2]]","3","0","","","","","","3","","","","","","","","",""
"","","","","","single-stim-button","57","474453","0.0-2.0-19.1-1.1","6276b88b3b4036b3f0ca289b","A3","batch1","","838","tol_toboard","","","","tol_peg_3","838","838","0","[[3,1,0],[0,0],[2]]","2","[[3,0,0],[1,0],[2]]","3","0","","","","","","3","","","","","","","","",""
"","","","","","single-stim-button","58","475402","0.0-2.0-19.2-0.2","6276b88b3b4036b3f0ca289b","A3","batch1","","948","tol_tohand","","","","tol_peg_1","948","948","0","[[3,0,0],[0,0],[2]]","3","[[3,0,0],[1,0],[2]]","3","0","","","","","","3","","","","","","","","",""
"","","","","","single-stim-button","59","476286","0.0-2.0-19.2-1.2","6276b88b3b4036b3f0ca289b","A3","batch1","","884","tol_toboard","","","","tol_peg_2","884","884","0","[[3,0,0],[1,0],[2]]","3","[[3,0,0],[1,0],[2]]","3","0","","","","","","3","","","","","","","","",""
"","","","","","poldrack-single-stim","60","477287","0.0-2.0-20.0","6276b88b3b4036b3f0ca289b","A3","batch1","","-1","tol_feedback","","","true","","1000","1000","500","","","","","","-1","none","true","2950","4569","","","","","","","","","",""
"","","","","","html-button-response","61","478116","0.0-2.0-21.0","6276b88b3b4036b3f0ca289b","A3","batch1","","828.6000000000931","tol_trial_num","<div class = centerbox><p class = center-block-text>problem <strong>5</strong> out of 25 problems</p></div>","0","","","","","","","","","","","","","","","","","","","","","","","","",""
"","","","","","single-stim-button","62","485555","0.0-2.0-22.0-0.0","6276b88b3b4036b3f0ca289b","A3","batch1","","7439","tol_tohand","","","","tol_peg_3","7439","7439","0","[[1,0,0],[2,0],[0]]","1","[[0,0,0],[1,2],[3]]","4","0","","","","","","7","","","","","","","","",""
"","","","","","single-stim-button","63","491855","0.0-2.0-22.0-1.0","6276b88b3b4036b3f0ca289b","A3","batch1","","6300","tol_toboard","","","","tol_peg_1","6300","6300","0","[[1,3,0],[2,0],[0]]","1","[[0,0,0],[1,2],[3]]","4","0","","","","","","7","","","","","","","","",""
"","","","","","single-stim-button","64","495980","0.0-2.0-22.1-0.1","6276b88b3b4036b3f0ca289b","A3","batch1","","4123","tol_tohand","","","","tol_peg_1","4123","4123","0","[[1,0,0],[2,0],[0]]","2","[[0,0,0],[1,2],[3]]","4","0","","","","","","7","","","","","","","","",""
"","","","","","single-stim-button","65","497163","0.0-2.0-22.1-1.1","6276b88b3b4036b3f0ca289b","A3","batch1","","1183","tol_toboard","","","","tol_peg_1","1183","1183","0","[[1,3,0],[2,0],[0]]","2","[[0,0,0],[1,2],[3]]","4","0","","","","","","7","","","","","","","","",""
"","","","","","single-stim-button","66","497953","0.0-2.0-22.2-0.2","6276b88b3b4036b3f0ca289b","A3","batch1","","789","tol_tohand","","","","tol_peg_1","789","789","0","[[1,0,0],[2,0],[0]]","3","[[0,0,0],[1,2],[3]]","4","0","","","","","","7","","","","","","","","",""
"","","","","","single-stim-button","67","499472","0.0-2.0-22.2-1.2","6276b88b3b4036b3f0ca289b","A3","batch1","","1519","tol_toboard","","","","tol_peg_3","1519","1519","0","[[1,0,0],[2,0],[3]]","3","[[0,0,0],[1,2],[3]]","4","0","","","","","","7","","","","","","","","",""
"","","","","","single-stim-button","68","501466","0.0-2.0-22.3-0.3","6276b88b3b4036b3f0ca289b","A3","batch1","","1993","tol_tohand","","","","tol_peg_1","1993","1993","0","[[0,0,0],[2,0],[3]]","4","[[0,0,0],[1,2],[3]]","4","0","","","","","","7","","","","","","","","",""
"","","","","","single-stim-button","69","504072","0.0-2.0-22.3-1.3","6276b88b3b4036b3f0ca289b","A3","batch1","","2606","tol_toboard","","","","tol_peg_2","2606","2606","0","[[0,0,0],[2,1],[3]]","4","[[0,0,0],[1,2],[3]]","4","0","","","","","","7","","","","","","","","",""
"","","","","","single-stim-button","70","506618","0.0-2.0-22.4-0.4","6276b88b3b4036b3f0ca289b","A3","batch1","","2546","tol_tohand","","","","tol_peg_3","2546","2546","0","[[0,0,0],[2,1],[0]]","5","[[0,0,0],[1,2],[3]]","4","0","","","","","","7","","","","","","","","",""
"","","","","","single-stim-button","71","509423","0.0-2.0-22.4-1.4","6276b88b3b4036b3f0ca289b","A3","batch1","","2805","tol_toboard","","","","tol_peg_1","2805","2805","0","[[3,0,0],[2,1],[0]]","5","[[0,0,0],[1,2],[3]]","4","0","","","","","","7","","","","","","","","",""
"","","","","","single-stim-button","72","511280","0.0-2.0-22.5-0.5","6276b88b3b4036b3f0ca289b","A3","batch1","","1857","tol_tohand","","","","tol_peg_2","1857","1857","0","[[3,0,0],[2,0],[0]]","6","[[0,0,0],[1,2],[3]]","4","0","","","","","","7","","","","","","","","",""
"","","","","","single-stim-button","73","515264","0.0-2.0-22.5-1.5","6276b88b3b4036b3f0ca289b","A3","batch1","","3984","tol_toboard","","","","tol_peg_3","3984","3984","0","[[3,0,0],[2,0],[1]]","6","[[0,0,0],[1,2],[3]]","4","0","","","","","","7","","","","","","","","",""
"","","","","","single-stim-button","74","516768","0.0-2.0-22.6-0.6","6276b88b3b4036b3f0ca289b","A3","batch1","","1503","tol_tohand","","","","tol_peg_3","1503","1503","0","[[3,0,0],[2,0],[0]]","7","[[0,0,0],[1,2],[3]]","4","0","","","","","","7","","","","","","","","",""
"","","","","","single-stim-button","75","520502","0.0-2.0-22.6-1.6","6276b88b3b4036b3f0ca289b","A3","batch1","","3734","tol_toboard","","","","tol_peg_1","3734","3734","0","[[3,1,0],[2,0],[0]]","7","[[0,0,0],[1,2],[3]]","4","0","","","","","","7","","","","","","","","",""
"","","","","","single-stim-button","76","521314","0.0-2.0-22.7-0.7","6276b88b3b4036b3f0ca289b","A3","batch1","","811","tol_tohand","","","","tol_peg_2","811","811","0","[[3,1,0],[0,0],[0]]","8","[[0,0,0],[1,2],[3]]","4","0","","","","","","7","","","","","","","","",""
"","","","","","single-stim-button","77","522070","0.0-2.0-22.7-1.7","6276b88b3b4036b3f0ca289b","A3","batch1","","756","tol_toboard","","","","tol_peg_3","756","756","0","[[3,1,0],[0,0],[2]]","8","[[0,0,0],[1,2],[3]]","4","0","","","","","","7","","","","","","","","",""
"","","","","","single-stim-button","78","522853","0.0-2.0-22.8-0.8","6276b88b3b4036b3f0ca289b","A3","batch1","","782","tol_tohand","","","","tol_peg_1","782","782","0","[[3,0,0],[0,0],[2]]","9","[[0,0,0],[1,2],[3]]","4","0","","","","","","7","","","","","","","","",""
"","","","","","single-stim-button","79","523684","0.0-2.0-22.8-1.8","6276b88b3b4036b3f0ca289b","A3","batch1","","830","tol_toboard","","","","tol_peg_2","830","830","0","[[3,0,0],[1,0],[2]]","9","[[0,0,0],[1,2],[3]]","4","0","","","","","","7","","","","","","","","",""
"","","","","","single-stim-button","80","524422","0.0-2.0-22.9-0.9","6276b88b3b4036b3f0ca289b","A3","batch1","","738","tol_tohand","","","","tol_peg_3","738","738","0","[[3,0,0],[1,0],[0]]","10","[[0,0,0],[1,2],[3]]","4","0","","","","","","7","","","","","","","","",""
"","","","","","single-stim-button","81","525236","0.0-2.0-22.9-1.9","6276b88b3b4036b3f0ca289b","A3","batch1","","814","tol_toboard","","","","tol_peg_2","814","814","0","[[3,0,0],[1,2],[0]]","10","[[0,0,0],[1,2],[3]]","4","0","","","","","","7","","","","","","","","",""
"","","","","","single-stim-button","82","525878","0.0-2.0-22.10-0.10","6276b88b3b4036b3f0ca289b","A3","batch1","","642","tol_tohand","","","","tol_peg_1","642","642","0","[[0,0,0],[1,2],[0]]","11","[[0,0,0],[1,2],[3]]","4","0","","","","","","7","","","","","","","","",""
"","","","","","single-stim-button","83","526655","0.0-2.0-22.10-1.10","6276b88b3b4036b3f0ca289b","A3","batch1","","777","tol_toboard","","","","tol_peg_3","777","777","0","[[0,0,0],[1,2],[3]]","11","[[0,0,0],[1,2],[3]]","4","0","","","","","","7","","","","","","","","",""
"","","","","","poldrack-single-stim","84","527656","0.0-2.0-23.0","6276b88b3b4036b3f0ca289b","A3","batch1","","-1","tol_feedback","","","true","","1000","1000","500","","","","","","-1","none","true","7439","23223","","","","","","","","","",""
"","","","","","html-button-response","85","528658","0.0-2.0-24.0","6276b88b3b4036b3f0ca289b","A3","batch1","","1000.5999999998603","tol_trial_num","<div class = centerbox><p class = center-block-text>problem <strong>6</strong> out of 25 problems</p></div>","0","","","","","","","","","","","","","","","","","","","","","","","","",""
"","","","","","single-stim-button","86","539065","0.0-2.0-25.0-0.0","6276b88b3b4036b3f0ca289b","A3","batch1","","10407","tol_tohand","","","","tol_peg_3","10407","10407","0","[[0,0,0],[1,2],[0]]","1","[[1,0,0],[2,3],[0]]","5","0","","","","","","6","","","","","","","","",""
"","","","","","single-stim-button","87","540225","0.0-2.0-25.0-1.0","6276b88b3b4036b3f0ca289b","A3","batch1","","1160","tol_toboard","","","","tol_peg_1","1160","1160","0","[[3,0,0],[1,2],[0]]","1","[[1,0,0],[2,3],[0]]","5","0","","","","","","6","","","","","","","","",""
"","","","","","single-stim-button","88","541739","0.0-2.0-25.1-0.1","6276b88b3b4036b3f0ca289b","A3","batch1","","1514","tol_tohand","","","","tol_peg_2","1514","1514","0","[[3,0,0],[1,0],[0]]","2","[[1,0,0],[2,3],[0]]","5","0","","","","","","6","","","","","","","","",""
"","","","","","single-stim-button","89","542502","0.0-2.0-25.1-1.1","6276b88b3b4036b3f0ca289b","A3","batch1","","763","tol_toboard","","","","tol_peg_3","763","763","0","[[3,0,0],[1,0],[2]]","2","[[1,0,0],[2,3],[0]]","5","0","","","","","","6","","","","","","","","",""
"","","","","","single-stim-button","90","543177","0.0-2.0-25.2-0.2","6276b88b3b4036b3f0ca289b","A3","batch1","","675","tol_tohand","","","","tol_peg_3","675","675","0","[[3,0,0],[1,0],[0]]","3","[[1,0,0],[2,3],[0]]","5","0","","","","","","6","","","","","","","","",""
"","","","","","single-stim-button","91","552208","0.0-2.0-25.2-1.2","6276b88b3b4036b3f0ca289b","A3","batch1","","9031","tol_toboard","","","","tol_peg_1","9031","9031","0","[[3,2,0],[1,0],[0]]","3","[[1,0,0],[2,3],[0]]","5","0","","","","","","6","","","","","","","","",""
"","","","","","single-stim-button","92","552844","0.0-2.0-25.3-0.3","6276b88b3b4036b3f0ca289b","A3","batch1","","636","tol_tohand","","","","tol_peg_2","636","636","0","[[3,2,0],[0,0],[0]]","4","[[1,0,0],[2,3],[0]]","5","0","","","","","","6","","","","","","","","",""
"","","","","","single-stim-button","93","553569","0.0-2.0-25.3-1.3","6276b88b3b4036b3f0ca289b","A3","batch1","","725","tol_toboard","","","","tol_peg_3","725","725","0","[[3,2,0],[0,0],[1]]","4","[[1,0,0],[2,3],[0]]","5","0","","","","","","6","","","","","","","","",""
"","","","","","single-stim-button","94","554271","0.0-2.0-25.4-0.4","6276b88b3b4036b3f0ca289b","A3","batch1","","702","tol_tohand","","","","tol_peg_1","702","702","0","[[3,0,0],[0,0],[1]]","5","[[1,0,0],[2,3],[0]]","5","0","","","","","","6","","","","","","","","",""
"","","","","","single-stim-button","95","555218","0.0-2.0-25.4-1.4","6276b88b3b4036b3f0ca289b","A3","batch1","","946","tol_toboard","","","","tol_peg_2","946","946","0","[[3,0,0],[2,0],[1]]","5","[[1,0,0],[2,3],[0]]","5","0","","","","","","6","","","","","","","","",""
"","","","","","single-stim-button","96","557483","0.0-2.0-25.5-0.5","6276b88b3b4036b3f0ca289b","A3","batch1","","2264","tol_tohand","","","","tol_peg_1","2264","2264","0","[[0,0,0],[2,0],[1]]","6","[[1,0,0],[2,3],[0]]","5","0","","","","","","6","","","","","","","","",""
"","","","","","single-stim-button","97","558188","0.0-2.0-25.5-1.5","6276b88b3b4036b3f0ca289b","A3","batch1","","705","tol_toboard","","","","tol_peg_2","705","705","0","[[0,0,0],[2,3],[1]]","6","[[1,0,0],[2,3],[0]]","5","0","","","","","","6","","","","","","","","",""
"","","","","","single-stim-button","98","558744","0.0-2.0-25.6-0.6","6276b88b3b4036b3f0ca289b","A3","batch1","","556","tol_tohand","","","","tol_peg_3","556","556","0","[[0,0,0],[2,3],[0]]","7","[[1,0,0],[2,3],[0]]","5","0","","","","","","6","","","","","","","","",""
"","","","","","single-stim-button","99","559523","0.0-2.0-25.6-1.6","6276b88b3b4036b3f0ca289b","A3","batch1","","779","tol_toboard","","","","tol_peg_1","779","779","0","[[1,0,0],[2,3],[0]]","7","[[1,0,0],[2,3],[0]]","5","0","","","","","","6","","","","","","","","",""
"","","","","","poldrack-single-stim","100","560524","0.0-2.0-26.0","6276b88b3b4036b3f0ca289b","A3","batch1","","-1","tol_feedback","","","true","","1000","1000","500","","","","","","-1","none","true","10407","16754","","","","","","","","","",""
"","","","","","html-button-response","101","561447","0.0-2.0-27.0","6276b88b3b4036b3f0ca289b","A3","batch1","","921.7999999998137","tol_trial_num","<div class = centerbox><p class = center-block-text>problem <strong>7</strong> out of 25 problems</p></div>","0","","","","","","","","","","","","","","","","","","","","","","","","",""
"","","","","","single-stim-button","102","563948","0.0-2.0-28.0-0.0","6276b88b3b4036b3f0ca289b","A3","batch1","","2501","tol_tohand","","","","tol_peg_3","2501","2501","0","[[2,1,0],[0,0],[0]]","1","[[1,2,0],[3,0],[0]]","6","0","","","","","","5","","","","","","","","",""
"","","","","","single-stim-button","103","564937","0.0-2.0-28.0-1.0","6276b88b3b4036b3f0ca289b","A3","batch1","","989","tol_toboard","","","","tol_peg_2","989","989","0","[[2,1,0],[3,0],[0]]","1","[[1,2,0],[3,0],[0]]","6","0","","","","","","5","","","","","","","","",""
"","","","","","single-stim-button","104","568087","0.0-2.0-28.1-0.1","6276b88b3b4036b3f0ca289b","A3","batch1","","3149","tol_tohand","","","","tol_peg_1","3149","3149","0","[[2,0,0],[3,0],[0]]","2","[[1,2,0],[3,0],[0]]","6","0","","","","","","5","","","","","","","","",""
"","","","","","single-stim-button","105","568961","0.0-2.0-28.1-1.1","6276b88b3b4036b3f0ca289b","A3","batch1","","874","tol_toboard","","","","tol_peg_3","874","874","0","[[2,0,0],[3,0],[1]]","2","[[1,2,0],[3,0],[0]]","6","0","","","","","","5","","","","","","","","",""
"","","","","","single-stim-button","106","573561","0.0-2.0-28.2-0.2","6276b88b3b4036b3f0ca289b","A3","batch1","","4600","tol_tohand","","","","tol_peg_1","4600","4600","0","[[0,0,0],[3,0],[1]]","3","[[1,2,0],[3,0],[0]]","6","0","","","","","","5","","","","","","","","",""
"","","","","","single-stim-button","107","574182","0.0-2.0-28.2-1.2","6276b88b3b4036b3f0ca289b","A3","batch1","","620","tol_toboard","","","","tol_peg_2","620","620","0","[[0,0,0],[3,2],[1]]","3","[[1,2,0],[3,0],[0]]","6","0","","","","","","5","","","","","","","","",""
"","","","","","single-stim-button","108","574877","0.0-2.0-28.3-0.3","6276b88b3b4036b3f0ca289b","A3","batch1","","695","tol_tohand","","","","tol_peg_3","695","695","0","[[0,0,0],[3,2],[0]]","4","[[1,2,0],[3,0],[0]]","6","0","","","","","","5","","","","","","","","",""
"","","","","","single-stim-button","109","575740","0.0-2.0-28.3-1.3","6276b88b3b4036b3f0ca289b","A3","batch1","","863","tol_toboard","","","","tol_peg_1","863","863","0","[[1,0,0],[3,2],[0]]","4","[[1,2,0],[3,0],[0]]","6","0","","","","","","5","","","","","","","","",""
"","","","","","single-stim-button","110","576504","0.0-2.0-28.4-0.4","6276b88b3b4036b3f0ca289b","A3","batch1","","763","tol_tohand","","","","tol_peg_2","763","763","0","[[1,0,0],[3,0],[0]]","5","[[1,2,0],[3,0],[0]]","6","0","","","","","","5","","","","","","","","",""
"","","","","","single-stim-button","111","577157","0.0-2.0-28.4-1.4","6276b88b3b4036b3f0ca289b","A3","batch1","","653","tol_toboard","","","","tol_peg_1","653","653","0","[[1,2,0],[3,0],[0]]","5","[[1,2,0],[3,0],[0]]","6","0","","","","","","5","","","","","","","","",""
"","","","","","poldrack-single-stim","112","578174","0.0-2.0-29.0","6276b88b3b4036b3f0ca289b","A3","batch1","","-1","tol_feedback","","","true","","1000","1000","500","","","","","","-1","none","true","2501","11708","","","","","","","","","",""
"","","","","","html-button-response","113","578892","0.0-2.0-30.0","6276b88b3b4036b3f0ca289b","A3","batch1","","716.8000000000466","tol_trial_num","<div class = centerbox><p class = center-block-text>problem <strong>8</strong> out of 25 problems</p></div>","0","","","","","","","","","","","","","","","","","","","","","","","","",""
"","","","","","single-stim-button","114","585166","0.0-2.0-31.0-0.0","6276b88b3b4036b3f0ca289b","A3","batch1","","6274","tol_tohand","","","","tol_peg_3","6274","6274","0","[[0,0,0],[2,3],[0]]","1","[[1,2,0],[3,0],[0]]","7","0","","","","","","4","","","","","","","","",""
"","","","","","single-stim-button","115","585989","0.0-2.0-31.0-1.0","6276b88b3b4036b3f0ca289b","A3","batch1","","823","tol_toboard","","","","tol_peg_1","823","823","0","[[1,0,0],[2,3],[0]]","1","[[1,2,0],[3,0],[0]]","7","0","","","","","","4","","","","","","","","",""
"","","","","","single-stim-button","116","587014","0.0-2.0-31.1-0.1","6276b88b3b4036b3f0ca289b","A3","batch1","","1024","tol_tohand","","","","tol_peg_2","1024","1024","0","[[1,0,0],[2,0],[0]]","2","[[1,2,0],[3,0],[0]]","7","0","","","","","","4","","","","","","","","",""
"","","","","","single-stim-button","117","587798","0.0-2.0-31.1-1.1","6276b88b3b4036b3f0ca289b","A3","batch1","","784","tol_toboard","","","","tol_peg_1","784","784","0","[[1,3,0],[2,0],[0]]","2","[[1,2,0],[3,0],[0]]","7","0","","","","","","4","","","","","","","","",""
"","","","","","single-stim-button","118","588651","0.0-2.0-31.2-0.2","6276b88b3b4036b3f0ca289b","A3","batch1","","853","tol_tohand","","","","tol_peg_2","853","853","0","[[1,3,0],[0,0],[0]]","3","[[1,2,0],[3,0],[0]]","7","0","","","","","","4","","","","","","","","",""
"","","","","","single-stim-button","119","590000","0.0-2.0-31.2-1.2","6276b88b3b4036b3f0ca289b","A3","batch1","","1349","tol_toboard","","","","tol_peg_3","1349","1349","0","[[1,3,0],[0,0],[2]]","3","[[1,2,0],[3,0],[0]]","7","0","","","","","","4","","","","","","","","",""
"","","","","","single-stim-button","120","590732","0.0-2.0-31.3-0.3","6276b88b3b4036b3f0ca289b","A3","batch1","","732","tol_tohand","","","","tol_peg_1","732","732","0","[[1,0,0],[0,0],[2]]","4","[[1,2,0],[3,0],[0]]","7","0","","","","","","4","","","","","","","","",""
"","","","","","single-stim-button","121","591722","0.0-2.0-31.3-1.3","6276b88b3b4036b3f0ca289b","A3","batch1","","990","tol_toboard","","","","tol_peg_2","990","990","0","[[1,0,0],[3,0],[2]]","4","[[1,2,0],[3,0],[0]]","7","0","","","","","","4","","","","","","","","",""
"","","","","","single-stim-button","122","592370","0.0-2.0-31.4-0.4","6276b88b3b4036b3f0ca289b","A3","batch1","","647","tol_tohand","","","","tol_peg_3","647","647","0","[[1,0,0],[3,0],[0]]","5","[[1,2,0],[3,0],[0]]","7","0","","","","","","4","","","","","","","","",""
"","","","","","single-stim-button","123","593236","0.0-2.0-31.4-1.4","6276b88b3b4036b3f0ca289b","A3","batch1","","866","tol_toboard","","","","tol_peg_1","866","866","0","[[1,2,0],[3,0],[0]]","5","[[1,2,0],[3,0],[0]]","7","0","","","","","","4","","","","","","","","",""
"","","","","","poldrack-single-stim","124","594251","0.0-2.0-32.0","6276b88b3b4036b3f0ca289b","A3","batch1","","-1","tol_feedback","","","true","","1000","1000","500","","","","","","-1","none","true","6274","9530","","","","","","","","","",""
"","","","","","html-button-response","125","594932","0.0-2.0-33.0","6276b88b3b4036b3f0ca289b","A3","batch1","","680.3000000000466","tol_trial_num","<div class = centerbox><p class = center-block-text>problem <strong>9</strong> out of 25 problems</p></div>","0","","","","","","","","","","","","","","","","","","","","","","","","",""
"","","","","","single-stim-button","126","604174","0.0-2.0-34.0-0.0","6276b88b3b4036b3f0ca289b","A3","batch1","","9242","tol_tohand","","","","tol_peg_1","9242","9242","0","[[3,0,0],[0,0],[1]]","1","[[2,1,0],[3,0],[0]]","8","0","","","","","","6","","","","","","","","",""
"","","","","","single-stim-button","127","604854","0.0-2.0-34.0-1.0","6276b88b3b4036b3f0ca289b","A3","batch1","","680","tol_toboard","","","","tol_peg_2","680","680","0","[[3,0,0],[2,0],[1]]","1","[[2,1,0],[3,0],[0]]","8","0","","","","","","6","","","","","","","","",""
"","","","","","single-stim-button","128","605913","0.0-2.0-34.1-0.1","6276b88b3b4036b3f0ca289b","A3","batch1","","1059","tol_tohand","","","","tol_peg_1","1059","1059","0","[[0,0,0],[2,0],[1]]","2","[[2,1,0],[3,0],[0]]","8","0","","","","","","6","","","","","","","","",""
"","","","","","single-stim-button","129","618929","0.0-2.0-34.1-1.1","6276b88b3b4036b3f0ca289b","A3","batch1","","13016","tol_toboard","","","","tol_peg_1","13016","13016","0","[[3,0,0],[2,0],[1]]","2","[[2,1,0],[3,0],[0]]","8","0","","","","","","6","","","","","","","","",""
"","","","","","single-stim-button","130","627371","0.0-2.0-34.2-0.2","6276b88b3b4036b3f0ca289b","A3","batch1","","8442","tol_tohand","","","","tol_peg_3","8442","8442","0","[[3,0,0],[2,0],[0]]","3","[[2,1,0],[3,0],[0]]","8","0","","","","","","6","","","","","","","","",""
"","","","","","single-stim-button","131","628335","0.0-2.0-34.2-1.2","6276b88b3b4036b3f0ca289b","A3","batch1","","964","tol_toboard","","","","tol_peg_2","964","964","0","[[3,0,0],[2,1],[0]]","3","[[2,1,0],[3,0],[0]]","8","0","","","","","","6","","","","","","","","",""
"","","","","","single-stim-button","132","632768","0.0-2.0-34.3-0.3","6276b88b3b4036b3f0ca289b","A3","batch1","","4433","tol_tohand","","","","tol_peg_1","4433","4433","0","[[0,0,0],[2,1],[0]]","4","[[2,1,0],[3,0],[0]]","8","0","","","","","","6","","","","","","","","",""
"","","","","","single-stim-button","133","637917","0.0-2.0-34.3-1.3","6276b88b3b4036b3f0ca289b","A3","batch1","","5149","tol_toboard","","","","tol_peg_3","5149","5149","0","[[0,0,0],[2,1],[3]]","4","[[2,1,0],[3,0],[0]]","8","0","","","","","","6","","","","","","","","",""
"","","","","","single-stim-button","134","640637","0.0-2.0-34.4-0.4","6276b88b3b4036b3f0ca289b","A3","batch1","","2720","tol_tohand","","","","tol_peg_2","2720","2720","0","[[0,0,0],[2,0],[3]]","5","[[2,1,0],[3,0],[0]]","8","0","","","","","","6","","","","","","","","",""
"","","","","","single-stim-button","135","641956","0.0-2.0-34.4-1.4","6276b88b3b4036b3f0ca289b","A3","batch1","","1319","tol_toboard","","","","tol_peg_1","1319","1319","0","[[1,0,0],[2,0],[3]]","5","[[2,1,0],[3,0],[0]]","8","0","","","","","","6","","","","","","","","",""
"","","","","","single-stim-button","136","643379","0.0-2.0-34.5-0.5","6276b88b3b4036b3f0ca289b","A3","batch1","","1422","tol_tohand","","","","tol_peg_2","1422","1422","0","[[1,0,0],[0,0],[3]]","6","[[2,1,0],[3,0],[0]]","8","0","","","","","","6","","","","","","","","",""
"","","","","","single-stim-button","137","644756","0.0-2.0-34.5-1.5","6276b88b3b4036b3f0ca289b","A3","batch1","","1377","tol_toboard","","","","tol_peg_1","1377","1377","0","[[1,2,0],[0,0],[3]]","6","[[2,1,0],[3,0],[0]]","8","0","","","","","","6","","","","","","","","",""
"","","","","","single-stim-button","138","646313","0.0-2.0-34.6-0.6","6276b88b3b4036b3f0ca289b","A3","batch1","","1557","tol_tohand","","","","tol_peg_3","1557","1557","0","[[1,2,0],[0,0],[0]]","7","[[2,1,0],[3,0],[0]]","8","0","","","","","","6","","","","","","","","",""
"","","","","","single-stim-button","139","647082","0.0-2.0-34.6-1.6","6276b88b3b4036b3f0ca289b","A3","batch1","","769","tol_toboard","","","","tol_peg_2","769","769","0","[[1,2,0],[3,0],[0]]","7","[[2,1,0],[3,0],[0]]","8","0","","","","","","6","","","","","","","","",""
"","","","","","single-stim-button","140","650655","0.0-2.0-34.7-0.7","6276b88b3b4036b3f0ca289b","A3","batch1","","3573","tol_tohand","","","","tol_peg_1","3573","3573","0","[[1,0,0],[3,0],[0]]","8","[[2,1,0],[3,0],[0]]","8","0","","","","","","6","","","","","","","","",""
"","","","","","single-stim-button","141","651491","0.0-2.0-34.7-1.7","6276b88b3b4036b3f0ca289b","A3","batch1","","836","tol_toboard","","","","tol_peg_3","836","836","0","[[1,0,0],[3,0],[2]]","8","[[2,1,0],[3,0],[0]]","8","0","","","","","","6","","","","","","","","",""
"","","","","","single-stim-button","142","652175","0.0-2.0-34.8-0.8","6276b88b3b4036b3f0ca289b","A3","batch1","","684","tol_tohand","","","","tol_peg_1","684","684","0","[[0,0,0],[3,0],[2]]","9","[[2,1,0],[3,0],[0]]","8","0","","","","","","6","","","","","","","","",""
"","","","","","single-stim-button","143","654443","0.0-2.0-34.8-1.8","6276b88b3b4036b3f0ca289b","A3","batch1","","2268","tol_toboard","","","","tol_peg_2","2268","2268","0","[[0,0,0],[3,1],[2]]","9","[[2,1,0],[3,0],[0]]","8","0","","","","","","6","","","","","","","","",""
"","","","","","single-stim-button","144","655092","0.0-2.0-34.9-0.9","6276b88b3b4036b3f0ca289b","A3","batch1","","649","tol_tohand","","","","tol_peg_3","649","649","0","[[0,0,0],[3,1],[0]]","10","[[2,1,0],[3,0],[0]]","8","0","","","","","","6","","","","","","","","",""
"","","","","","single-stim-button","145","656195","0.0-2.0-34.9-1.9","6276b88b3b4036b3f0ca289b","A3","batch1","","1103","tol_toboard","","","","tol_peg_1","1103","1103","0","[[2,0,0],[3,1],[0]]","10","[[2,1,0],[3,0],[0]]","8","0","","","","","","6","","","","","","","","",""
"","","","","","single-stim-button","146","656909","0.0-2.0-34.10-0.10","6276b88b3b4036b3f0ca289b","A3","batch1","","714","tol_tohand","","","","tol_peg_2","714","714","0","[[2,0,0],[3,0],[0]]","11","[[2,1,0],[3,0],[0]]","8","0","","","","","","6","","","","","","","","",""
"","","","","","single-stim-button","147","657452","0.0-2.0-34.10-1.10","6276b88b3b4036b3f0ca289b","A3","batch1","","543","tol_toboard","","","","tol_peg_1","543","543","0","[[2,1,0],[3,0],[0]]","11","[[2,1,0],[3,0],[0]]","8","0","","","","","","6","","","","","","","","",""
"","","","","","poldrack-single-stim","148","658457","0.0-2.0-35.0","6276b88b3b4036b3f0ca289b","A3","batch1","","-1","tol_feedback","","","true","","1000","1000","500","","","","","","-1","none","true","9242","34495","","","","","","","","","",""
"","","","","","html-button-response","149","659169","0.0-2.0-36.0","6276b88b3b4036b3f0ca289b","A3","batch1","","710.6999999999534","tol_trial_num","<div class = centerbox><p class = center-block-text>problem <strong>10</strong> out of 25 problems</p></div>","0","","","","","","","","","","","","","","","","","","","","","","","","",""
"","","","","","single-stim-button","150","665218","0.0-2.0-37.0-0.0","6276b88b3b4036b3f0ca289b","A3","batch1","","6049","tol_tohand","","","","tol_peg_2","6049","6049","0","[[3,0,0],[0,0],[2]]","1","[[3,0,0],[2,1],[0]]","9","0","","","","","","3","","","","","","","","",""
"","","","","","single-stim-button","151","666245","0.0-2.0-37.0-1.0","6276b88b3b4036b3f0ca289b","A3","batch1","","1027","tol_toboard","","","","tol_peg_1","1027","1027","0","[[3,1,0],[0,0],[2]]","1","[[3,0,0],[2,1],[0]]","9","0","","","","","","3","","","","","","","","",""
"","","","","","single-stim-button","152","666838","0.0-2.0-37.1-0.1","6276b88b3b4036b3f0ca289b","A3","batch1","","593","tol_tohand","","","","tol_peg_3","593","593","0","[[3,1,0],[0,0],[0]]","2","[[3,0,0],[2,1],[0]]","9","0","","","","","","3","","","","","","","","",""
"","","","","","single-stim-button","153","667478","0.0-2.0-37.1-1.1","6276b88b3b4036b3f0ca289b","A3","batch1","","640","tol_toboard","","","","tol_peg_2","640","640","0","[[3,1,0],[2,0],[0]]","2","[[3,0,0],[2,1],[0]]","9","0","","","","","","3","","","","","","","","",""
"","","","","","single-stim-button","154","668165","0.0-2.0-37.2-0.2","6276b88b3b4036b3f0ca289b","A3","batch1","","687","tol_tohand","","","","tol_peg_1","687","687","0","[[3,0,0],[2,0],[0]]","3","[[3,0,0],[2,1],[0]]","9","0","","","","","","3","","","","","","","","",""
"","","","","","single-stim-button","155","668905","0.0-2.0-37.2-1.2","6276b88b3b4036b3f0ca289b","A3","batch1","","740","tol_toboard","","","","tol_peg_2","740","740","0","[[3,0,0],[2,1],[0]]","3","[[3,0,0],[2,1],[0]]","9","0","","","","","","3","","","","","","","","",""
"","","","","","poldrack-single-stim","156","669906","0.0-2.0-38.0","6276b88b3b4036b3f0ca289b","A3","batch1","","-1","tol_feedback","","","true","","1000","1000","500","","","","","","-1","none","true","6049","7329","","","","","","","","","",""
"","","","","","html-button-response","157","670562","0.0-2.0-39.0","6276b88b3b4036b3f0ca289b","A3","batch1","","654.6999999999534","tol_trial_num","<div class = centerbox><p class = center-block-text>problem <strong>11</strong> out of 25 problems</p></div>","0","","","","","","","","","","","","","","","","","","","","","","","","",""
"","","","","","single-stim-button","158","679656","0.0-2.0-40.0-0.0","6276b88b3b4036b3f0ca289b","A3","batch1","","9094","tol_tohand","","","","tol_peg_1","9094","9094","0","[[1,0,0],[3,0],[0]]","1","[[2,0,0],[1,3],[0]]","10","0","","","","","","6","","","","","","","","",""
"","","","","","single-stim-button","159","680285","0.0-2.0-40.0-1.0","6276b88b3b4036b3f0ca289b","A3","batch1","","628","tol_toboard","","","","tol_peg_2","628","628","0","[[1,0,0],[3,2],[0]]","1","[[2,0,0],[1,3],[0]]","10","0","","","","","","6","","","","","","","","",""
"","","","","","single-stim-button","160","681748","0.0-2.0-40.1-0.1","6276b88b3b4036b3f0ca289b","A3","batch1","","1463","tol_tohand","","","","tol_peg_1","1463","1463","0","[[0,0,0],[3,2],[0]]","2","[[2,0,0],[1,3],[0]]","10","0","","","","","","6","","","","","","","","",""
"","","","","","single-stim-button","161","682563","0.0-2.0-40.1-1.1","6276b88b3b4036b3f0ca289b","A3","batch1","","815","tol_toboard","","","","tol_peg_3","815","815","0","[[0,0,0],[3,2],[1]]","2","[[2,0,0],[1,3],[0]]","10","0","","","","","","6","","","","","","","","",""
"","","","","","single-stim-button","162","683260","0.0-2.0-40.2-0.2","6276b88b3b4036b3f0ca289b","A3","batch1","","695","tol_tohand","","","","tol_peg_2","695","695","0","[[0,0,0],[3,0],[1]]","3","[[2,0,0],[1,3],[0]]","10","0","","","","","","6","","","","","","","","",""
"","","","","","single-stim-button","163","683955","0.0-2.0-40.2-1.2","6276b88b3b4036b3f0ca289b","A3","batch1","","695","tol_toboard","","","","tol_peg_1","695","695","0","[[2,0,0],[3,0],[1]]","3","[[2,0,0],[1,3],[0]]","10","0","","","","","","6","","","","","","","","",""
"","","","","","single-stim-button","164","684561","0.0-2.0-40.3-0.3","6276b88b3b4036b3f0ca289b","A3","batch1","","606","tol_tohand","","","","tol_peg_2","606","606","0","[[2,0,0],[0,0],[1]]","4","[[2,0,0],[1,3],[0]]","10","0","","","","","","6","","","","","","","","",""
"","","","","","single-stim-button","165","685197","0.0-2.0-40.3-1.3","6276b88b3b4036b3f0ca289b","A3","batch1","","636","tol_toboard","","","","tol_peg_1","636","636","0","[[2,3,0],[0,0],[1]]","4","[[2,0,0],[1,3],[0]]","10","0","","","","","","6","","","","","","","","",""
"","","","","","single-stim-button","166","685842","0.0-2.0-40.4-0.4","6276b88b3b4036b3f0ca289b","A3","batch1","","645","tol_tohand","","","","tol_peg_3","645","645","0","[[2,3,0],[0,0],[0]]","5","[[2,0,0],[1,3],[0]]","10","0","","","","","","6","","","","","","","","",""
"","","","","","single-stim-button","167","686463","0.0-2.0-40.4-1.4","6276b88b3b4036b3f0ca289b","A3","batch1","","621","tol_toboard","","","","tol_peg_2","621","621","0","[[2,3,0],[1,0],[0]]","5","[[2,0,0],[1,3],[0]]","10","0","","","","","","6","","","","","","","","",""
"","","","","","single-stim-button","168","687027","0.0-2.0-40.5-0.5","6276b88b3b4036b3f0ca289b","A3","batch1","","564","tol_tohand","","","","tol_peg_1","564","564","0","[[2,0,0],[1,0],[0]]","6","[[2,0,0],[1,3],[0]]","10","0","","","","","","6","","","","","","","","",""
"","","","","","single-stim-button","169","687573","0.0-2.0-40.5-1.5","6276b88b3b4036b3f0ca289b","A3","batch1","","546","tol_toboard","","","","tol_peg_2","546","546","0","[[2,0,0],[1,3],[0]]","6","[[2,0,0],[1,3],[0]]","10","0","","","","","","6","","","","","","","","",""
"","","","","","poldrack-single-stim","170","688580","0.0-2.0-41.0","6276b88b3b4036b3f0ca289b","A3","batch1","","-1","tol_feedback","","","true","","1000","1000","500","","","","","","-1","none","true","9094","13067","","","","","","","","","",""
"","","","","","html-button-response","171","689185","0.0-2.0-42.0","6276b88b3b4036b3f0ca289b","A3","batch1","","604.5","tol_trial_num","<div class = centerbox><p class = center-block-text>problem <strong>12</strong> out of 25 problems</p></div>","0","","","","","","","","","","","","","","","","","","","","","","","","",""
"","","","","","single-stim-button","172","693216","0.0-2.0-43.0-0.0","6276b88b3b4036b3f0ca289b","A3","batch1","","4031","tol_tohand","","","","tol_peg_1","4031","4031","0","[[1,0,0],[3,0],[0]]","1","[[2,3,0],[0,0],[1]]","11","0","","","","","","4","","","","","","","","",""
"","","","","","single-stim-button","173","698062","0.0-2.0-43.0-1.0","6276b88b3b4036b3f0ca289b","A3","batch1","","4846","tol_toboard","","","","tol_peg_1","4846","4846","0","[[1,2,0],[3,0],[0]]","1","[[2,3,0],[0,0],[1]]","11","0","","","","","","4","","","","","","","","",""
"","","","","","single-stim-button","174","698754","0.0-2.0-43.1-0.1","6276b88b3b4036b3f0ca289b","A3","batch1","","692","tol_tohand","","","","tol_peg_2","692","692","0","[[1,2,0],[0,0],[0]]","2","[[2,3,0],[0,0],[1]]","11","0","","","","","","4","","","","","","","","",""
"","","","","","single-stim-button","175","699820","0.0-2.0-43.1-1.1","6276b88b3b4036b3f0ca289b","A3","batch1","","1066","tol_toboard","","","","tol_peg_3","1066","1066","0","[[1,2,0],[0,0],[3]]","2","[[2,3,0],[0,0],[1]]","11","0","","","","","","4","","","","","","","","",""
"","","","","","single-stim-button","176","700535","0.0-2.0-43.2-0.2","6276b88b3b4036b3f0ca289b","A3","batch1","","715","tol_tohand","","","","tol_peg_1","715","715","0","[[1,0,0],[0,0],[3]]","3","[[2,3,0],[0,0],[1]]","11","0","","","","","","4","","","","","","","","",""
"","","","","","single-stim-button","177","703348","0.0-2.0-43.2-1.2","6276b88b3b4036b3f0ca289b","A3","batch1","","2813","tol_toboard","","","","tol_peg_2","2813","2813","0","[[1,0,0],[2,0],[3]]","3","[[2,3,0],[0,0],[1]]","11","0","","","","","","4","","","","","","","","",""
"","","","","","single-stim-button","178","704067","0.0-2.0-43.3-0.3","6276b88b3b4036b3f0ca289b","A3","batch1","","718","tol_tohand","","","","tol_peg_1","718","718","0","[[0,0,0],[2,0],[3]]","4","[[2,3,0],[0,0],[1]]","11","0","","","","","","4","","","","","","","","",""
"","","","","","single-stim-button","179","704936","0.0-2.0-43.3-1.3","6276b88b3b4036b3f0ca289b","A3","batch1","","868","tol_toboard","","","","tol_peg_2","868","868","0","[[0,0,0],[2,1],[3]]","4","[[2,3,0],[0,0],[1]]","11","0","","","","","","4","","","","","","","","",""
"","","","","","single-stim-button","180","705598","0.0-2.0-43.4-0.4","6276b88b3b4036b3f0ca289b","A3","batch1","","661","tol_tohand","","","","tol_peg_3","661","661","0","[[0,0,0],[2,1],[0]]","5","[[2,3,0],[0,0],[1]]","11","0","","","","","","4","","","","","","","","",""
"","","","","","single-stim-button","181","711338","0.0-2.0-43.4-1.4","6276b88b3b4036b3f0ca289b","A3","batch1","","5739","tol_toboard","","","","tol_peg_3","5739","5739","0","[[0,0,0],[2,1],[3]]","5","[[2,3,0],[0,0],[1]]","11","0","","","","","","4","","","","","","","","",""
"","","","","","single-stim-button","182","718660","0.0-2.0-43.5-0.5","6276b88b3b4036b3f0ca289b","A3","batch1","","7322","tol_tohand","","","","tol_peg_3","7322","7322","0","[[0,0,0],[2,1],[0]]","6","[[2,3,0],[0,0],[1]]","11","0","","","","","","4","","","","","","","","",""
"","","","","","single-stim-button","183","719324","0.0-2.0-43.5-1.5","6276b88b3b4036b3f0ca289b","A3","batch1","","663","tol_toboard","","","","tol_peg_1","663","663","0","[[3,0,0],[2,1],[0]]","6","[[2,3,0],[0,0],[1]]","11","0","","","","","","4","","","","","","","","",""
"","","","","","single-stim-button","184","719934","0.0-2.0-43.6-0.6","6276b88b3b4036b3f0ca289b","A3","batch1","","609","tol_tohand","","","","tol_peg_2","609","609","0","[[3,0,0],[2,0],[0]]","7","[[2,3,0],[0,0],[1]]","11","0","","","","","","4","","","","","","","","",""
"","","","","","single-stim-button","185","729233","0.0-2.0-43.6-1.6","6276b88b3b4036b3f0ca289b","A3","batch1","","9298","tol_toboard","","","","tol_peg_2","9298","9298","0","[[3,0,0],[2,1],[0]]","7","[[2,3,0],[0,0],[1]]","11","0","","","","","","4","","","","","","","","",""
"","","","","","single-stim-button","186","735562","0.0-2.0-43.7-0.7","6276b88b3b4036b3f0ca289b","A3","batch1","","6328","tol_tohand","","","","tol_peg_2","6328","6328","0","[[3,0,0],[2,0],[0]]","8","[[2,3,0],[0,0],[1]]","11","0","","","","","","4","","","","","","","","",""
"","","","","","single-stim-button","187","736195","0.0-2.0-43.7-1.7","6276b88b3b4036b3f0ca289b","A3","batch1","","632","tol_toboard","","","","tol_peg_1","632","632","0","[[3,1,0],[2,0],[0]]","8","[[2,3,0],[0,0],[1]]","11","0","","","","","","4","","","","","","","","",""
"","","","","","single-stim-button","188","736743","0.0-2.0-43.8-0.8","6276b88b3b4036b3f0ca289b","A3","batch1","","547","tol_tohand","","","","tol_peg_2","547","547","0","[[3,1,0],[0,0],[0]]","9","[[2,3,0],[0,0],[1]]","11","0","","","","","","4","","","","","","","","",""
"","","","","","single-stim-button","189","737722","0.0-2.0-43.8-1.8","6276b88b3b4036b3f0ca289b","A3","batch1","","978","tol_toboard","","","","tol_peg_3","978","978","0","[[3,1,0],[0,0],[2]]","9","[[2,3,0],[0,0],[1]]","11","0","","","","","","4","","","","","","","","",""
"","","","","","single-stim-button","190","738479","0.0-2.0-43.9-0.9","6276b88b3b4036b3f0ca289b","A3","batch1","","756","tol_tohand","","","","tol_peg_1","756","756","0","[[3,0,0],[0,0],[2]]","10","[[2,3,0],[0,0],[1]]","11","0","","","","","","4","","","","","","","","",""
"","","","","","single-stim-button","191","739166","0.0-2.0-43.9-1.9","6276b88b3b4036b3f0ca289b","A3","batch1","","686","tol_toboard","","","","tol_peg_2","686","686","0","[[3,0,0],[1,0],[2]]","10","[[2,3,0],[0,0],[1]]","11","0","","","","","","4","","","","","","","","",""
"","","","","","single-stim-button","192","740398","0.0-2.0-43.10-0.10","6276b88b3b4036b3f0ca289b","A3","batch1","","1231","tol_tohand","","","","tol_peg_1","1231","1231","0","[[0,0,0],[1,0],[2]]","11","[[2,3,0],[0,0],[1]]","11","0","","","","","","4","","","","","","","","",""
"","","","","","single-stim-button","193","741103","0.0-2.0-43.10-1.10","6276b88b3b4036b3f0ca289b","A3","batch1","","704","tol_toboard","","","","tol_peg_2","704","704","0","[[0,0,0],[1,3],[2]]","11","[[2,3,0],[0,0],[1]]","11","0","","","","","","4","","","","","","","","",""
"","","","","","single-stim-button","194","741682","0.0-2.0-43.11-0.11","6276b88b3b4036b3f0ca289b","A3","batch1","","578","tol_tohand","","","","tol_peg_3","578","578","0","[[0,0,0],[1,3],[0]]","12","[[2,3,0],[0,0],[1]]","11","0","","","","","","4","","","","","","","","",""
"","","","","","single-stim-button","195","742543","0.0-2.0-43.11-1.11","6276b88b3b4036b3f0ca289b","A3","batch1","","861","tol_toboard","","","","tol_peg_1","861","861","0","[[2,0,0],[1,3],[0]]","12","[[2,3,0],[0,0],[1]]","11","0","","","","","","4","","","","","","","","",""
"","","","","","single-stim-button","196","743355","0.0-2.0-43.12-0.12","6276b88b3b4036b3f0ca289b","A3","batch1","","811","tol_tohand","","","","tol_peg_2","811","811","0","[[2,0,0],[1,0],[0]]","13","[[2,3,0],[0,0],[1]]","11","0","","","","","","4","","","","","","","","",""
"","","","","","single-stim-button","197","744958","0.0-2.0-43.12-1.12","6276b88b3b4036b3f0ca289b","A3","batch1","","1601","tol_toboard","","","","tol_peg_1","1601","1601","0","[[2,3,0],[1,0],[0]]","13","[[2,3,0],[0,0],[1]]","11","0","","","","","","4","","","","","","","","",""
"","","","","","single-stim-button","198","745524","0.0-2.0-43.13-0.13","6276b88b3b4036b3f0ca289b","A3","batch1","","565","tol_tohand","","","","tol_peg_2","565","565","0","[[2,3,0],[0,0],[0]]","14","[[2,3,0],[0,0],[1]]","11","0","","","","","","4","","","","","","","","",""
"","","","","","single-stim-button","199","746168","0.0-2.0-43.13-1.13","6276b88b3b4036b3f0ca289b","A3","batch1","","643","tol_toboard","","","","tol_peg_3","643","643","0","[[2,3,0],[0,0],[1]]","14","[[2,3,0],[0,0],[1]]","11","0","","","","","","4","","","","","","","","",""
"","","","","","poldrack-single-stim","200","747169","0.0-2.0-44.0","6276b88b3b4036b3f0ca289b","A3","batch1","","-1","tol_feedback","","","true","","1000","1000","500","","","","","","-1","none","true","4031","25564","","","","","","","","","",""
"","","","","","html-button-response","201","748009","0.0-2.0-45.0","6276b88b3b4036b3f0ca289b","A3","batch1","","838.5","tol_trial_num","<div class = centerbox><p class = center-block-text>problem <strong>13</strong> out of 25 problems</p></div>","0","","","","","","","","","","","","","","","","","","","","","","","","",""
"","","","","","single-stim-button","202","752161","0.0-2.0-46.0-0.0","6276b88b3b4036b3f0ca289b","A3","batch1","","4151","tol_tohand","","","","tol_peg_2","4151","4151","0","[[1,2,0],[0,0],[0]]","1","[[0,0,0],[2,3],[1]]","12","0","","","","","","4","","","","","","","","",""
"","","","","","single-stim-button","203","752839","0.0-2.0-46.0-1.0","6276b88b3b4036b3f0ca289b","A3","batch1","","676","tol_toboard","","","","tol_peg_3","676","676","0","[[1,2,0],[0,0],[3]]","1","[[0,0,0],[2,3],[1]]","12","0","","","","","","4","","","","","","","","",""
"","","","","","single-stim-button","204","753608","0.0-2.0-46.1-0.1","6276b88b3b4036b3f0ca289b","A3","batch1","","768","tol_tohand","","","","tol_peg_1","768","768","0","[[1,0,0],[0,0],[3]]","2","[[0,0,0],[2,3],[1]]","12","0","","","","","","4","","","","","","","","",""
"","","","","","single-stim-button","205","754223","0.0-2.0-46.1-1.1","6276b88b3b4036b3f0ca289b","A3","batch1","","615","tol_toboard","","","","tol_peg_2","615","615","0","[[1,0,0],[2,0],[3]]","2","[[0,0,0],[2,3],[1]]","12","0","","","","","","4","","","","","","","","",""
"","","","","","single-stim-button","206","754717","0.0-2.0-46.2-0.2","6276b88b3b4036b3f0ca289b","A3","batch1","","493","tol_tohand","","","","tol_peg_3","493","493","0","[[1,0,0],[2,0],[0]]","3","[[0,0,0],[2,3],[1]]","12","0","","","","","","4","","","","","","","","",""
"","","","","","single-stim-button","207","755732","0.0-2.0-46.2-1.2","6276b88b3b4036b3f0ca289b","A3","batch1","","1013","tol_toboard","","","","tol_peg_2","1013","1013","0","[[1,0,0],[2,3],[0]]","3","[[0,0,0],[2,3],[1]]","12","0","","","","","","4","","","","","","","","",""
"","","","","","single-stim-button","208","756227","0.0-2.0-46.3-0.3","6276b88b3b4036b3f0ca289b","A3","batch1","","495","tol_tohand","","","","tol_peg_1","495","495","0","[[0,0,0],[2,3],[0]]","4","[[0,0,0],[2,3],[1]]","12","0","","","","","","4","","","","","","","","",""
"","","","","","single-stim-button","209","756867","0.0-2.0-46.3-1.3","6276b88b3b4036b3f0ca289b","A3","batch1","","639","tol_toboard","","","","tol_peg_3","639","639","0","[[0,0,0],[2,3],[1]]","4","[[0,0,0],[2,3],[1]]","12","0","","","","","","4","","","","","","","","",""
"","","","","","poldrack-single-stim","210","757869","0.0-2.0-47.0","6276b88b3b4036b3f0ca289b","A3","batch1","","-1","tol_feedback","","","true","","1000","1000","500","","","","","","-1","none","true","4151","5907","","","","","","","","","",""
"","","","","","html-button-response","211","768498","0.0-2.0-48.0","6276b88b3b4036b3f0ca289b","A3","batch1","","10628","attention_check","<p class = block-text>How many balls are in your board<br></p>","1","true","","","","","","","","","","","","","","","","","","","","","","","",""
"","","","","","html-button-response","212","770893","0.0-2.0-49.0","6276b88b3b4036b3f0ca289b","A3","batch1","","2393.9000000001397","tol_trial_num","<div class = centerbox><p class = center-block-text>problem <strong>14</strong> out of 25 problems</p></div>","0","","","","","","","","","","","","","","","","","","","","","","","","",""
"","","","","","single-stim-button","213","776518","0.0-2.0-50.0-0.0","6276b88b3b4036b3f0ca289b","A3","batch1","","5625","tol_tohand","","","","tol_peg_1","5625","5625","0","[[2,0,0],[3,0],[0]]","1","[[1,2,0],[3,0],[0]]","13","0","","","","","","4","","","","","","","","",""
"","","","","","single-stim-button","214","777313","0.0-2.0-50.0-1.0","6276b88b3b4036b3f0ca289b","A3","batch1","","795","tol_toboard","","","","tol_peg_3","795","795","0","[[2,0,0],[3,0],[1]]","1","[[1,2,0],[3,0],[0]]","13","0","","","","","","4","","","","","","","","",""
"","","","","","single-stim-button","215","778346","0.0-2.0-50.1-0.1","6276b88b3b4036b3f0ca289b","A3","batch1","","1033","tol_tohand","","","","tol_peg_1","1033","1033","0","[[0,0,0],[3,0],[1]]","2","[[1,2,0],[3,0],[0]]","13","0","","","","","","4","","","","","","","","",""
"","","","","","single-stim-button","216","778952","0.0-2.0-50.1-1.1","6276b88b3b4036b3f0ca289b","A3","batch1","","606","tol_toboard","","","","tol_peg_2","606","606","0","[[0,0,0],[3,2],[1]]","2","[[1,2,0],[3,0],[0]]","13","0","","","","","","4","","","","","","","","",""
"","","","","","single-stim-button","217","779453","0.0-2.0-50.2-0.2","6276b88b3b4036b3f0ca289b","A3","batch1","","500","tol_tohand","","","","tol_peg_3","500","500","0","[[0,0,0],[3,2],[0]]","3","[[1,2,0],[3,0],[0]]","13","0","","","","","","4","","","","","","","","",""
"","","","","","single-stim-button","218","780234","0.0-2.0-50.2-1.2","6276b88b3b4036b3f0ca289b","A3","batch1","","780","tol_toboard","","","","tol_peg_1","780","780","0","[[1,0,0],[3,2],[0]]","3","[[1,2,0],[3,0],[0]]","13","0","","","","","","4","","","","","","","","",""
"","","","","","single-stim-button","219","780688","0.0-2.0-50.3-0.3","6276b88b3b4036b3f0ca289b","A3","batch1","","454","tol_tohand","","","","tol_peg_2","454","454","0","[[1,0,0],[3,0],[0]]","4","[[1,2,0],[3,0],[0]]","13","0","","","","","","4","","","","","","","","",""
"","","","","","single-stim-button","220","781221","0.0-2.0-50.3-1.3","6276b88b3b4036b3f0ca289b","A3","batch1","","533","tol_toboard","","","","tol_peg_1","533","533","0","[[1,2,0],[3,0],[0]]","4","[[1,2,0],[3,0],[0]]","13","0","","","","","","4","","","","","","","","",""
"","","","","","poldrack-single-stim","221","782222","0.0-2.0-51.0","6276b88b3b4036b3f0ca289b","A3","batch1","","-1","tol_feedback","","","true","","1000","1000","500","","","","","","-1","none","true","5625","7612","","","","","","","","","",""
"","","","","","html-button-response","222","785207","0.0-2.0-52.0","6276b88b3b4036b3f0ca289b","A3","batch1","","2984","tol_trial_num","<div class = centerbox><p class = center-block-text>problem <strong>15</strong> out of 25 problems</p></div>","0","","","","","","","","","","","","","","","","","","","","","","","","",""
"","","","","","single-stim-button","223","791137","0.0-2.0-53.0-0.0","6276b88b3b4036b3f0ca289b","A3","batch1","","5930","tol_tohand","","","","tol_peg_1","5930","5930","0","[[1,0,0],[3,0],[0]]","1","[[2,0,0],[3,0],[1]]","14","0","","","","","","3","","","","","","","","",""
"","","","","","single-stim-button","224","792043","0.0-2.0-53.0-1.0","6276b88b3b4036b3f0ca289b","A3","batch1","","905","tol_toboard","","","","tol_peg_2","905","905","0","[[1,0,0],[3,2],[0]]","1","[[2,0,0],[3,0],[1]]","14","0","","","","","","3","","","","","","","","",""
"","","","","","single-stim-button","225","792565","0.0-2.0-53.1-0.1","6276b88b3b4036b3f0ca289b","A3","batch1","","521","tol_tohand","","","","tol_peg_1","521","521","0","[[0,0,0],[3,2],[0]]","2","[[2,0,0],[3,0],[1]]","14","0","","","","","","3","","","","","","","","",""
"","","","","","single-stim-button","226","793207","0.0-2.0-53.1-1.1","6276b88b3b4036b3f0ca289b","A3","batch1","","642","tol_toboard","","","","tol_peg_3","642","642","0","[[0,0,0],[3,2],[1]]","2","[[2,0,0],[3,0],[1]]","14","0","","","","","","3","","","","","","","","",""
"","","","","","single-stim-button","227","799629","0.0-2.0-53.2-0.2","6276b88b3b4036b3f0ca289b","A3","batch1","","6421","tol_tohand","","","","tol_peg_2","6421","6421","0","[[0,0,0],[3,0],[1]]","3","[[2,0,0],[3,0],[1]]","14","0","","","","","","3","","","","","","","","",""
"","","","","","single-stim-button","228","800339","0.0-2.0-53.2-1.2","6276b88b3b4036b3f0ca289b","A3","batch1","","710","tol_toboard","","","","tol_peg_1","710","710","0","[[2,0,0],[3,0],[1]]","3","[[2,0,0],[3,0],[1]]","14","0","","","","","","3","","","","","","","","",""
"","","","","","poldrack-single-stim","229","801341","0.0-2.0-54.0","6276b88b3b4036b3f0ca289b","A3","batch1","","-1","tol_feedback","","","true","","1000","1000","500","","","","","","-1","none","true","5930","12872","","","","","","","","","",""
"","","","","","html-button-response","230","802057","0.0-2.0-55.0","6276b88b3b4036b3f0ca289b","A3","batch1","","714.4000000001397","tol_trial_num","<div class = centerbox><p class = center-block-text>problem <strong>16</strong> out of 25 problems</p></div>","0","","","","","","","","","","","","","","","","","","","","","","","","",""
"","","","","","single-stim-button","231","810622","0.0-2.0-56.0-0.0","6276b88b3b4036b3f0ca289b","A3","batch1","","8565","tol_tohand","","","","tol_peg_3","8565","8565","0","[[0,0,0],[2,3],[0]]","1","[[2,3,0],[1,0],[0]]","15","0","","","","","","7","","","","","","","","",""
"","","","","","single-stim-button","232","812706","0.0-2.0-56.0-1.0","6276b88b3b4036b3f0ca289b","A3","batch1","","2084","tol_toboard","","","","tol_peg_1","2084","2084","0","[[1,0,0],[2,3],[0]]","1","[[2,3,0],[1,0],[0]]","15","0","","","","","","7","","","","","","","","",""
"","","","","","single-stim-button","233","825497","0.0-2.0-56.1-0.1","6276b88b3b4036b3f0ca289b","A3","batch1","","12791","tol_tohand","","","","tol_peg_1","12791","12791","0","[[0,0,0],[2,3],[0]]","2","[[2,3,0],[1,0],[0]]","15","0","","","","","","7","","","","","","","","",""
"","","","","","single-stim-button","234","831019","0.0-2.0-56.1-1.1","6276b88b3b4036b3f0ca289b","A3","batch1","","5521","tol_toboard","","","","tol_peg_1","5521","5521","0","[[1,0,0],[2,3],[0]]","2","[[2,3,0],[1,0],[0]]","15","0","","","","","","7","","","","","","","","",""
"","","","","","single-stim-button","235","831794","0.0-2.0-56.2-0.2","6276b88b3b4036b3f0ca289b","A3","batch1","","774","tol_tohand","","","","tol_peg_2","774","774","0","[[1,0,0],[2,0],[0]]","3","[[2,3,0],[1,0],[0]]","15","0","","","","","","7","","","","","","","","",""
"","","","","","single-stim-button","236","832310","0.0-2.0-56.2-1.2","6276b88b3b4036b3f0ca289b","A3","batch1","","515","tol_toboard","","","","tol_peg_1","515","515","0","[[1,3,0],[2,0],[0]]","3","[[2,3,0],[1,0],[0]]","15","0","","","","","","7","","","","","","","","",""
"","","","","","single-stim-button","237","832858","0.0-2.0-56.3-0.3","6276b88b3b4036b3f0ca289b","A3","batch1","","546","tol_tohand","","","","tol_peg_2","546","546","0","[[1,3,0],[0,0],[0]]","4","[[2,3,0],[1,0],[0]]","15","0","","","","","","7","","","","","","","","",""
"","","","","","single-stim-button","238","833548","0.0-2.0-56.3-1.3","6276b88b3b4036b3f0ca289b","A3","batch1","","690","tol_toboard","","","","tol_peg_3","690","690","0","[[1,3,0],[0,0],[2]]","4","[[2,3,0],[1,0],[0]]","15","0","","","","","","7","","","","","","","","",""
"","","","","","single-stim-button","239","834164","0.0-2.0-56.4-0.4","6276b88b3b4036b3f0ca289b","A3","batch1","","615","tol_tohand","","","","tol_peg_1","615","615","0","[[1,0,0],[0,0],[2]]","5","[[2,3,0],[1,0],[0]]","15","0","","","","","","7","","","","","","","","",""
"","","","","","single-stim-button","240","836291","0.0-2.0-56.4-1.4","6276b88b3b4036b3f0ca289b","A3","batch1","","2126","tol_toboard","","","","tol_peg_2","2126","2126","0","[[1,0,0],[3,0],[2]]","5","[[2,3,0],[1,0],[0]]","15","0","","","","","","7","","","","","","","","",""
"","","","","","single-stim-button","241","836821","0.0-2.0-56.5-0.5","6276b88b3b4036b3f0ca289b","A3","batch1","","530","tol_tohand","","","","tol_peg_1","530","530","0","[[0,0,0],[3,0],[2]]","6","[[2,3,0],[1,0],[0]]","15","0","","","","","","7","","","","","","","","",""
"","","","","","single-stim-button","242","837470","0.0-2.0-56.5-1.5","6276b88b3b4036b3f0ca289b","A3","batch1","","648","tol_toboard","","","","tol_peg_2","648","648","0","[[0,0,0],[3,1],[2]]","6","[[2,3,0],[1,0],[0]]","15","0","","","","","","7","","","","","","","","",""
"","","","","","single-stim-button","243","838016","0.0-2.0-56.6-0.6","6276b88b3b4036b3f0ca289b","A3","batch1","","545","tol_tohand","","","","tol_peg_3","545","545","0","[[0,0,0],[3,1],[0]]","7","[[2,3,0],[1,0],[0]]","15","0","","","","","","7","","","","","","","","",""
"","","","","","single-stim-button","244","839177","0.0-2.0-56.6-1.6","6276b88b3b4036b3f0ca289b","A3","batch1","","1161","tol_toboard","","","","tol_peg_1","1161","1161","0","[[2,0,0],[3,1],[0]]","7","[[2,3,0],[1,0],[0]]","15","0","","","","","","7","","","","","","","","",""
"","","","","","single-stim-button","245","839890","0.0-2.0-56.7-0.7","6276b88b3b4036b3f0ca289b","A3","batch1","","712","tol_tohand","","","","tol_peg_2","712","712","0","[[2,0,0],[3,0],[0]]","8","[[2,3,0],[1,0],[0]]","15","0","","","","","","7","","","","","","","","",""
"","","","","","single-stim-button","246","840557","0.0-2.0-56.7-1.7","6276b88b3b4036b3f0ca289b","A3","batch1","","665","tol_toboard","","","","tol_peg_3","665","665","0","[[2,0,0],[3,0],[1]]","8","[[2,3,0],[1,0],[0]]","15","0","","","","","","7","","","","","","","","",""
"","","","","","single-stim-button","247","841121","0.0-2.0-56.8-0.8","6276b88b3b4036b3f0ca289b","A3","batch1","","564","tol_tohand","","","","tol_peg_2","564","564","0","[[2,0,0],[0,0],[1]]","9","[[2,3,0],[1,0],[0]]","15","0","","","","","","7","","","","","","","","",""
"","","","","","single-stim-button","248","841713","0.0-2.0-56.8-1.8","6276b88b3b4036b3f0ca289b","A3","batch1","","591","tol_toboard","","","","tol_peg_1","591","591","0","[[2,3,0],[0,0],[1]]","9","[[2,3,0],[1,0],[0]]","15","0","","","","","","7","","","","","","","","",""
"","","","","","single-stim-button","249","842585","0.0-2.0-56.9-0.9","6276b88b3b4036b3f0ca289b","A3","batch1","","871","tol_tohand","","","","tol_peg_3","871","871","0","[[2,3,0],[0,0],[0]]","10","[[2,3,0],[1,0],[0]]","15","0","","","","","","7","","","","","","","","",""
"","","","","","single-stim-button","250","843101","0.0-2.0-56.9-1.9","6276b88b3b4036b3f0ca289b","A3","batch1","","515","tol_toboard","","","","tol_peg_2","515","515","0","[[2,3,0],[1,0],[0]]","10","[[2,3,0],[1,0],[0]]","15","0","","","","","","7","","","","","","","","",""
"","","","","","poldrack-single-stim","251","844102","0.0-2.0-57.0","6276b88b3b4036b3f0ca289b","A3","batch1","","-1","tol_feedback","","","true","","1000","1000","500","","","","","","-1","none","true","8565","26513","","","","","","","","","",""
"","","","","","html-button-response","252","845343","0.0-2.0-58.0","6276b88b3b4036b3f0ca289b","A3","batch1","","1240.2000000001863","tol_trial_num","<div class = centerbox><p class = center-block-text>problem <strong>17</strong> out of 25 problems</p></div>","0","","","","","","","","","","","","","","","","","","","","","","","","",""
"","","","","","single-stim-button","253","859276","0.0-2.0-59.0-0.0","6276b88b3b4036b3f0ca289b","A3","batch1","","13931","tol_tohand","","","","tol_peg_1","13931","13931","0","[[1,0,0],[3,0],[0]]","1","[[3,1,0],[2,0],[0]]","16","0","","","","","","5","","","","","","","","",""
"","","","","","single-stim-button","254","860375","0.0-2.0-59.0-1.0","6276b88b3b4036b3f0ca289b","A3","batch1","","1099","tol_toboard","","","","tol_peg_2","1099","1099","0","[[1,0,0],[3,2],[0]]","1","[[3,1,0],[2,0],[0]]","16","0","","","","","","5","","","","","","","","",""
"","","","","","single-stim-button","255","861738","0.0-2.0-59.1-0.1","6276b88b3b4036b3f0ca289b","A3","batch1","","1362","tol_tohand","","","","tol_peg_1","1362","1362","0","[[0,0,0],[3,2],[0]]","2","[[3,1,0],[2,0],[0]]","16","0","","","","","","5","","","","","","","","",""
"","","","","","single-stim-button","256","862412","0.0-2.0-59.1-1.1","6276b88b3b4036b3f0ca289b","A3","batch1","","673","tol_toboard","","","","tol_peg_3","673","673","0","[[0,0,0],[3,2],[1]]","2","[[3,1,0],[2,0],[0]]","16","0","","","","","","5","","","","","","","","",""
"","","","","","single-stim-button","257","866898","0.0-2.0-59.2-0.2","6276b88b3b4036b3f0ca289b","A3","batch1","","4485","tol_tohand","","","","tol_peg_3","4485","4485","0","[[0,0,0],[3,2],[0]]","3","[[3,1,0],[2,0],[0]]","16","0","","","","","","5","","","","","","","","",""
"","","","","","single-stim-button","258","867664","0.0-2.0-59.2-1.2","6276b88b3b4036b3f0ca289b","A3","batch1","","765","tol_toboard","","","","tol_peg_1","765","765","0","[[1,0,0],[3,2],[0]]","3","[[3,1,0],[2,0],[0]]","16","0","","","","","","5","","","","","","","","",""
"","","","","","single-stim-button","259","868310","0.0-2.0-59.3-0.3","6276b88b3b4036b3f0ca289b","A3","batch1","","645","tol_tohand","","","","tol_peg_2","645","645","0","[[1,0,0],[3,0],[0]]","4","[[3,1,0],[2,0],[0]]","16","0","","","","","","5","","","","","","","","",""
"","","","","","single-stim-button","260","870500","0.0-2.0-59.3-1.3","6276b88b3b4036b3f0ca289b","A3","batch1","","2189","tol_toboard","","","","tol_peg_3","2189","2189","0","[[1,0,0],[3,0],[2]]","4","[[3,1,0],[2,0],[0]]","16","0","","","","","","5","","","","","","","","",""
"","","","","","single-stim-button","261","875905","0.0-2.0-59.4-0.4","6276b88b3b4036b3f0ca289b","A3","batch1","","5404","tol_tohand","","","","tol_peg_2","5404","5404","0","[[1,0,0],[0,0],[2]]","5","[[3,1,0],[2,0],[0]]","16","0","","","","","","5","","","","","","","","",""
"","","","","","single-stim-button","262","876490","0.0-2.0-59.4-1.4","6276b88b3b4036b3f0ca289b","A3","batch1","","584","tol_toboard","","","","tol_peg_1","584","584","0","[[1,3,0],[0,0],[2]]","5","[[3,1,0],[2,0],[0]]","16","0","","","","","","5","","","","","","","","",""
"","","","","","single-stim-button","263","877175","0.0-2.0-59.5-0.5","6276b88b3b4036b3f0ca289b","A3","batch1","","684","tol_tohand","","","","tol_peg_3","684","684","0","[[1,3,0],[0,0],[0]]","6","[[3,1,0],[2,0],[0]]","16","0","","","","","","5","","","","","","","","",""
"","","","","","single-stim-button","264","877893","0.0-2.0-59.5-1.5","6276b88b3b4036b3f0ca289b","A3","batch1","","718","tol_toboard","","","","tol_peg_2","718","718","0","[[1,3,0],[2,0],[0]]","6","[[3,1,0],[2,0],[0]]","16","0","","","","","","5","","","","","","","","",""
"","","","","","single-stim-button","265","881418","0.0-2.0-59.6-0.6","6276b88b3b4036b3f0ca289b","A3","batch1","","3524","tol_tohand","","","","tol_peg_1","3524","3524","0","[[1,0,0],[2,0],[0]]","7","[[3,1,0],[2,0],[0]]","16","0","","","","","","5","","","","","","","","",""
"","","","","","single-stim-button","266","882565","0.0-2.0-59.6-1.6","6276b88b3b4036b3f0ca289b","A3","batch1","","1146","tol_toboard","","","","tol_peg_2","1146","1146","0","[[1,0,0],[2,3],[0]]","7","[[3,1,0],[2,0],[0]]","16","0","","","","","","5","","","","","","","","",""
"","","","","","single-stim-button","267","883879","0.0-2.0-59.7-0.7","6276b88b3b4036b3f0ca289b","A3","batch1","","1313","tol_tohand","","","","tol_peg_1","1313","1313","0","[[0,0,0],[2,3],[0]]","8","[[3,1,0],[2,0],[0]]","16","0","","","","","","5","","","","","","","","",""
"","","","","","single-stim-button","268","884524","0.0-2.0-59.7-1.7","6276b88b3b4036b3f0ca289b","A3","batch1","","644","tol_toboard","","","","tol_peg_3","644","644","0","[[0,0,0],[2,3],[1]]","8","[[3,1,0],[2,0],[0]]","16","0","","","","","","5","","","","","","","","",""
"","","","","","single-stim-button","269","885023","0.0-2.0-59.8-0.8","6276b88b3b4036b3f0ca289b","A3","batch1","","498","tol_tohand","","","","tol_peg_2","498","498","0","[[0,0,0],[2,0],[1]]","9","[[3,1,0],[2,0],[0]]","16","0","","","","","","5","","","","","","","","",""
"","","","","","single-stim-button","270","885701","0.0-2.0-59.8-1.8","6276b88b3b4036b3f0ca289b","A3","batch1","","677","tol_toboard","","","","tol_peg_1","677","677","0","[[3,0,0],[2,0],[1]]","9","[[3,1,0],[2,0],[0]]","16","0","","","","","","5","","","","","","","","",""
"","","","","","single-stim-button","271","886503","0.0-2.0-59.9-0.9","6276b88b3b4036b3f0ca289b","A3","batch1","","801","tol_tohand","","","","tol_peg_3","801","801","0","[[3,0,0],[2,0],[0]]","10","[[3,1,0],[2,0],[0]]","16","0","","","","","","5","","","","","","","","",""
"","","","","","single-stim-button","272","887116","0.0-2.0-59.9-1.9","6276b88b3b4036b3f0ca289b","A3","batch1","","613","tol_toboard","","","","tol_peg_1","613","613","0","[[3,1,0],[2,0],[0]]","10","[[3,1,0],[2,0],[0]]","16","0","","","","","","5","","","","","","","","",""
"","","","","","poldrack-single-stim","273","888123","0.0-2.0-60.0","6276b88b3b4036b3f0ca289b","A3","batch1","","-1","tol_feedback","","","true","","1000","1000","500","","","","","","-1","none","true","13931","32647","","","","","","","","","",""
"","","","","","html-button-response","274","888822","0.0-2.0-61.0","6276b88b3b4036b3f0ca289b","A3","batch1","","698.5","tol_trial_num","<div class = centerbox><p class = center-block-text>problem <strong>18</strong> out of 25 problems</p></div>","0","","","","","","","","","","","","","","","","","","","","","","","","",""
"","","","","","single-stim-button","275","894424","0.0-2.0-62.0-0.0","6276b88b3b4036b3f0ca289b","A3","batch1","","5601","tol_tohand","","","","tol_peg_1","5601","5601","0","[[1,0,0],[3,0],[0]]","1","[[3,0,0],[2,0],[1]]","17","0","","","","","","5","","","","","","","","",""
"","","","","","single-stim-button","276","898547","0.0-2.0-62.0-1.0","6276b88b3b4036b3f0ca289b","A3","batch1","","4122","tol_toboard","","","","tol_peg_2","4122","4122","0","[[1,0,0],[3,2],[0]]","1","[[3,0,0],[2,0],[1]]","17","0","","","","","","5","","","","","","","","",""
"","","","","","single-stim-button","277","904457","0.0-2.0-62.1-0.1","6276b88b3b4036b3f0ca289b","A3","batch1","","5909","tol_tohand","","","","tol_peg_1","5909","5909","0","[[0,0,0],[3,2],[0]]","2","[[3,0,0],[2,0],[1]]","17","0","","","","","","5","","","","","","","","",""
"","","","","","single-stim-button","278","905565","0.0-2.0-62.1-1.1","6276b88b3b4036b3f0ca289b","A3","batch1","","1108","tol_toboard","","","","tol_peg_3","1108","1108","0","[[0,0,0],[3,2],[1]]","2","[[3,0,0],[2,0],[1]]","17","0","","","","","","5","","","","","","","","",""
"","","","","","single-stim-button","279","911596","0.0-2.0-62.2-0.2","6276b88b3b4036b3f0ca289b","A3","batch1","","6031","tol_tohand","","","","tol_peg_3","6031","6031","0","[[0,0,0],[3,2],[0]]","3","[[3,0,0],[2,0],[1]]","17","0","","","","","","5","","","","","","","","",""
"","","","","","single-stim-button","280","912389","0.0-2.0-62.2-1.2","6276b88b3b4036b3f0ca289b","A3","batch1","","792","tol_toboard","","","","tol_peg_1","792","792","0","[[1,0,0],[3,2],[0]]","3","[[3,0,0],[2,0],[1]]","17","0","","","","","","5","","","","","","","","",""
"","","","","","single-stim-button","281","918782","0.0-2.0-62.3-0.3","6276b88b3b4036b3f0ca289b","A3","batch1","","6391","tol_tohand","","","","tol_peg_2","6391","6391","0","[[1,0,0],[3,0],[0]]","4","[[3,0,0],[2,0],[1]]","17","0","","","","","","5","","","","","","","","",""
"","","","","","single-stim-button","282","919369","0.0-2.0-62.3-1.3","6276b88b3b4036b3f0ca289b","A3","batch1","","586","tol_toboard","","","","tol_peg_1","586","586","0","[[1,2,0],[3,0],[0]]","4","[[3,0,0],[2,0],[1]]","17","0","","","","","","5","","","","","","","","",""
"","","","","","single-stim-button","283","920281","0.0-2.0-62.4-0.4","6276b88b3b4036b3f0ca289b","A3","batch1","","912","tol_tohand","","","","tol_peg_2","912","912","0","[[1,2,0],[0,0],[0]]","5","[[3,0,0],[2,0],[1]]","17","0","","","","","","5","","","","","","","","",""
"","","","","","single-stim-button","284","920816","0.0-2.0-62.4-1.4","6276b88b3b4036b3f0ca289b","A3","batch1","","534","tol_toboard","","","","tol_peg_3","534","534","0","[[1,2,0],[0,0],[3]]","5","[[3,0,0],[2,0],[1]]","17","0","","","","","","5","","","","","","","","",""
"","","","","","single-stim-button","285","921366","0.0-2.0-62.5-0.5","6276b88b3b4036b3f0ca289b","A3","batch1","","548","tol_tohand","","","","tol_peg_1","548","548","0","[[1,0,0],[0,0],[3]]","6","[[3,0,0],[2,0],[1]]","17","0","","","","","","5","","","","","","","","",""
"","","","","","single-stim-button","286","922055","0.0-2.0-62.5-1.5","6276b88b3b4036b3f0ca289b","A3","batch1","","688","tol_toboard","","","","tol_peg_2","688","688","0","[[1,0,0],[2,0],[3]]","6","[[3,0,0],[2,0],[1]]","17","0","","","","","","5","","","","","","","","",""
"","","","","","single-stim-button","287","924396","0.0-2.0-62.6-0.6","6276b88b3b4036b3f0ca289b","A3","batch1","","2340","tol_tohand","","","","tol_peg_3","2340","2340","0","[[1,0,0],[2,0],[0]]","7","[[3,0,0],[2,0],[1]]","17","0","","","","","","5","","","","","","","","",""
"","","","","","single-stim-button","288","925005","0.0-2.0-62.6-1.6","6276b88b3b4036b3f0ca289b","A3","batch1","","608","tol_toboard","","","","tol_peg_2","608","608","0","[[1,0,0],[2,3],[0]]","7","[[3,0,0],[2,0],[1]]","17","0","","","","","","5","","","","","","","","",""
"","","","","","single-stim-button","289","925469","0.0-2.0-62.7-0.7","6276b88b3b4036b3f0ca289b","A3","batch1","","463","tol_tohand","","","","tol_peg_1","463","463","0","[[0,0,0],[2,3],[0]]","8","[[3,0,0],[2,0],[1]]","17","0","","","","","","5","","","","","","","","",""
"","","","","","single-stim-button","290","926210","0.0-2.0-62.7-1.7","6276b88b3b4036b3f0ca289b","A3","batch1","","740","tol_toboard","","","","tol_peg_3","740","740","0","[[0,0,0],[2,3],[1]]","8","[[3,0,0],[2,0],[1]]","17","0","","","","","","5","","","","","","","","",""
"","","","","","single-stim-button","291","926794","0.0-2.0-62.8-0.8","6276b88b3b4036b3f0ca289b","A3","batch1","","584","tol_tohand","","","","tol_peg_2","584","584","0","[[0,0,0],[2,0],[1]]","9","[[3,0,0],[2,0],[1]]","17","0","","","","","","5","","","","","","","","",""
"","","","","","single-stim-button","292","927456","0.0-2.0-62.8-1.8","6276b88b3b4036b3f0ca289b","A3","batch1","","660","tol_toboard","","","","tol_peg_1","660","660","0","[[3,0,0],[2,0],[1]]","9","[[3,0,0],[2,0],[1]]","17","0","","","","","","5","","","","","","","","",""
"","","","","","poldrack-single-stim","293","928462","0.0-2.0-63.0","6276b88b3b4036b3f0ca289b","A3","batch1","","-1","tol_feedback","","","true","","1000","1000","500","","","","","","-1","none","true","5601","28779","","","","","","","","","",""
"","","","","","html-button-response","294","929244","0.0-2.0-64.0","6276b88b3b4036b3f0ca289b","A3","batch1","","780.6000000000931","tol_trial_num","<div class = centerbox><p class = center-block-text>problem <strong>19</strong> out of 25 problems</p></div>","0","","","","","","","","","","","","","","","","","","","","","","","","",""
"","","","","","single-stim-button","295","932770","0.0-2.0-65.0-0.0","6276b88b3b4036b3f0ca289b","A3","batch1","","3526","tol_tohand","","","","tol_peg_2","3526","3526","0","[[1,2,0],[0,0],[0]]","1","[[0,0,0],[1,2],[3]]","18","0","","","","","","7","","","","","","","","",""
"","","","","","single-stim-button","296","933351","0.0-2.0-65.0-1.0","6276b88b3b4036b3f0ca289b","A3","batch1","","581","tol_toboard","","","","tol_peg_3","581","581","0","[[1,2,0],[0,0],[3]]","1","[[0,0,0],[1,2],[3]]","18","0","","","","","","7","","","","","","","","",""
"","","","","","single-stim-button","297","936799","0.0-2.0-65.1-0.1","6276b88b3b4036b3f0ca289b","A3","batch1","","3446","tol_tohand","","","","tol_peg_3","3446","3446","0","[[1,2,0],[0,0],[0]]","2","[[0,0,0],[1,2],[3]]","18","0","","","","","","7","","","","","","","","",""
"","","","","","single-stim-button","298","937483","0.0-2.0-65.1-1.1","6276b88b3b4036b3f0ca289b","A3","batch1","","683","tol_toboard","","","","tol_peg_2","683","683","0","[[1,2,0],[3,0],[0]]","2","[[0,0,0],[1,2],[3]]","18","0","","","","","","7","","","","","","","","",""
"","","","","","single-stim-button","299","938196","0.0-2.0-65.2-0.2","6276b88b3b4036b3f0ca289b","A3","batch1","","713","tol_tohand","","","","tol_peg_1","713","713","0","[[1,0,0],[3,0],[0]]","3","[[0,0,0],[1,2],[3]]","18","0","","","","","","7","","","","","","","","",""
"","","","","","single-stim-button","300","938792","0.0-2.0-65.2-1.2","6276b88b3b4036b3f0ca289b","A3","batch1","","594","tol_toboard","","","","tol_peg_2","594","594","0","[[1,0,0],[3,2],[0]]","3","[[0,0,0],[1,2],[3]]","18","0","","","","","","7","","","","","","","","",""
"","","","","","single-stim-button","301","941668","0.0-2.0-65.3-0.3","6276b88b3b4036b3f0ca289b","A3","batch1","","2875","tol_tohand","","","","tol_peg_1","2875","2875","0","[[0,0,0],[3,2],[0]]","4","[[0,0,0],[1,2],[3]]","18","0","","","","","","7","","","","","","","","",""
"","","","","","single-stim-button","302","944403","0.0-2.0-65.3-1.3","6276b88b3b4036b3f0ca289b","A3","batch1","","2734","tol_toboard","","","","tol_peg_3","2734","2734","0","[[0,0,0],[3,2],[1]]","4","[[0,0,0],[1,2],[3]]","18","0","","","","","","7","","","","","","","","",""
"","","","","","single-stim-button","303","944968","0.0-2.0-65.4-0.4","6276b88b3b4036b3f0ca289b","A3","batch1","","564","tol_tohand","","","","tol_peg_2","564","564","0","[[0,0,0],[3,0],[1]]","5","[[0,0,0],[1,2],[3]]","18","0","","","","","","7","","","","","","","","",""
"","","","","","single-stim-button","304","946559","0.0-2.0-65.4-1.4","6276b88b3b4036b3f0ca289b","A3","batch1","","1591","tol_toboard","","","","tol_peg_1","1591","1591","0","[[2,0,0],[3,0],[1]]","5","[[0,0,0],[1,2],[3]]","18","0","","","","","","7","","","","","","","","",""
"","","","","","single-stim-button","305","947076","0.0-2.0-65.5-0.5","6276b88b3b4036b3f0ca289b","A3","batch1","","515","tol_tohand","","","","tol_peg_2","515","515","0","[[2,0,0],[0,0],[1]]","6","[[0,0,0],[1,2],[3]]","18","0","","","","","","7","","","","","","","","",""
"","","","","","single-stim-button","306","948085","0.0-2.0-65.5-1.5","6276b88b3b4036b3f0ca289b","A3","batch1","","1009","tol_toboard","","","","tol_peg_1","1009","1009","0","[[2,3,0],[0,0],[1]]","6","[[0,0,0],[1,2],[3]]","18","0","","","","","","7","","","","","","","","",""
"","","","","","single-stim-button","307","948709","0.0-2.0-65.6-0.6","6276b88b3b4036b3f0ca289b","A3","batch1","","622","tol_tohand","","","","tol_peg_3","622","622","0","[[2,3,0],[0,0],[0]]","7","[[0,0,0],[1,2],[3]]","18","0","","","","","","7","","","","","","","","",""
"","","","","","single-stim-button","308","949600","0.0-2.0-65.6-1.6","6276b88b3b4036b3f0ca289b","A3","batch1","","891","tol_toboard","","","","tol_peg_2","891","891","0","[[2,3,0],[1,0],[0]]","7","[[0,0,0],[1,2],[3]]","18","0","","","","","","7","","","","","","","","",""
"","","","","","single-stim-button","309","950217","0.0-2.0-65.7-0.7","6276b88b3b4036b3f0ca289b","A3","batch1","","617","tol_tohand","","","","tol_peg_1","617","617","0","[[2,0,0],[1,0],[0]]","8","[[0,0,0],[1,2],[3]]","18","0","","","","","","7","","","","","","","","",""
"","","","","","single-stim-button","310","951005","0.0-2.0-65.7-1.7","6276b88b3b4036b3f0ca289b","A3","batch1","","787","tol_toboard","","","","tol_peg_3","787","787","0","[[2,0,0],[1,0],[3]]","8","[[0,0,0],[1,2],[3]]","18","0","","","","","","7","","","","","","","","",""
"","","","","","single-stim-button","311","951572","0.0-2.0-65.8-0.8","6276b88b3b4036b3f0ca289b","A3","batch1","","567","tol_tohand","","","","tol_peg_1","567","567","0","[[0,0,0],[1,0],[3]]","9","[[0,0,0],[1,2],[3]]","18","0","","","","","","7","","","","","","","","",""
"","","","","","single-stim-button","312","952269","0.0-2.0-65.8-1.8","6276b88b3b4036b3f0ca289b","A3","batch1","","696","tol_toboard","","","","tol_peg_2","696","696","0","[[0,0,0],[1,2],[3]]","9","[[0,0,0],[1,2],[3]]","18","0","","","","","","7","","","","","","","","",""
"","","","","","poldrack-single-stim","313","953272","0.0-2.0-66.0","6276b88b3b4036b3f0ca289b","A3","batch1","","-1","tol_feedback","","","true","","1000","1000","500","","","","","","-1","none","true","3526","13445","","","","","","","","","",""
"","","","","","html-button-response","314","953952","0.0-2.0-67.0","6276b88b3b4036b3f0ca289b","A3","batch1","","678.5","tol_trial_num","<div class = centerbox><p class = center-block-text>problem <strong>20</strong> out of 25 problems</p></div>","0","","","","","","","","","","","","","","","","","","","","","","","","",""
"","","","","","single-stim-button","315","955759","0.0-2.0-68.0-0.0","6276b88b3b4036b3f0ca289b","A3","batch1","","1807","tol_tohand","","","","tol_peg_2","1807","1807","0","[[1,2,0],[0,0],[0]]","1","[[2,1,0],[0,0],[3]]","19","0","","","","","","5","","","","","","","","",""
"","","","","","single-stim-button","316","956421","0.0-2.0-68.0-1.0","6276b88b3b4036b3f0ca289b","A3","batch1","","661","tol_toboard","","","","tol_peg_3","661","661","0","[[1,2,0],[0,0],[3]]","1","[[2,1,0],[0,0],[3]]","19","0","","","","","","5","","","","","","","","",""
"","","","","","single-stim-button","317","960917","0.0-2.0-68.1-0.1","6276b88b3b4036b3f0ca289b","A3","batch1","","4495","tol_tohand","","","","tol_peg_3","4495","4495","0","[[1,2,0],[0,0],[0]]","2","[[2,1,0],[0,0],[3]]","19","0","","","","","","5","","","","","","","","",""
"","","","","","single-stim-button","318","961617","0.0-2.0-68.1-1.1","6276b88b3b4036b3f0ca289b","A3","batch1","","699","tol_toboard","","","","tol_peg_2","699","699","0","[[1,2,0],[3,0],[0]]","2","[[2,1,0],[0,0],[3]]","19","0","","","","","","5","","","","","","","","",""
"","","","","","single-stim-button","319","962599","0.0-2.0-68.2-0.2","6276b88b3b4036b3f0ca289b","A3","batch1","","982","tol_tohand","","","","tol_peg_1","982","982","0","[[1,0,0],[3,0],[0]]","3","[[2,1,0],[0,0],[3]]","19","0","","","","","","5","","","","","","","","",""
"","","","","","single-stim-button","320","964760","0.0-2.0-68.2-1.2","6276b88b3b4036b3f0ca289b","A3","batch1","","2160","tol_toboard","","","","tol_peg_2","2160","2160","0","[[1,0,0],[3,2],[0]]","3","[[2,1,0],[0,0],[3]]","19","0","","","","","","5","","","","","","","","",""
"","","","","","single-stim-button","321","965975","0.0-2.0-68.3-0.3","6276b88b3b4036b3f0ca289b","A3","batch1","","1214","tol_tohand","","","","tol_peg_1","1214","1214","0","[[0,0,0],[3,2],[0]]","4","[[2,1,0],[0,0],[3]]","19","0","","","","","","5","","","","","","","","",""
"","","","","","single-stim-button","322","966632","0.0-2.0-68.3-1.3","6276b88b3b4036b3f0ca289b","A3","batch1","","656","tol_toboard","","","","tol_peg_3","656","656","0","[[0,0,0],[3,2],[1]]","4","[[2,1,0],[0,0],[3]]","19","0","","","","","","5","","","","","","","","",""
"","","","","","single-stim-button","323","967115","0.0-2.0-68.4-0.4","6276b88b3b4036b3f0ca289b","A3","batch1","","482","tol_tohand","","","","tol_peg_2","482","482","0","[[0,0,0],[3,0],[1]]","5","[[2,1,0],[0,0],[3]]","19","0","","","","","","5","","","","","","","","",""
"","","","","","single-stim-button","324","968136","0.0-2.0-68.4-1.4","6276b88b3b4036b3f0ca289b","A3","batch1","","1021","tol_toboard","","","","tol_peg_1","1021","1021","0","[[2,0,0],[3,0],[1]]","5","[[2,1,0],[0,0],[3]]","19","0","","","","","","5","","","","","","","","",""
"","","","","","single-stim-button","325","968760","0.0-2.0-68.5-0.5","6276b88b3b4036b3f0ca289b","A3","batch1","","624","tol_tohand","","","","tol_peg_3","624","624","0","[[2,0,0],[3,0],[0]]","6","[[2,1,0],[0,0],[3]]","19","0","","","","","","5","","","","","","","","",""
"","","","","","single-stim-button","326","969673","0.0-2.0-68.5-1.5","6276b88b3b4036b3f0ca289b","A3","batch1","","913","tol_toboard","","","","tol_peg_1","913","913","0","[[2,1,0],[3,0],[0]]","6","[[2,1,0],[0,0],[3]]","19","0","","","","","","5","","","","","","","","",""
"","","","","","single-stim-button","327","970185","0.0-2.0-68.6-0.6","6276b88b3b4036b3f0ca289b","A3","batch1","","510","tol_tohand","","","","tol_peg_2","510","510","0","[[2,1,0],[0,0],[0]]","7","[[2,1,0],[0,0],[3]]","19","0","","","","","","5","","","","","","","","",""
"","","","","","single-stim-button","328","970850","0.0-2.0-68.6-1.6","6276b88b3b4036b3f0ca289b","A3","batch1","","664","tol_toboard","","","","tol_peg_3","664","664","0","[[2,1,0],[0,0],[3]]","7","[[2,1,0],[0,0],[3]]","19","0","","","","","","5","","","","","","","","",""
"","","","","","poldrack-single-stim","329","971857","0.0-2.0-69.0","6276b88b3b4036b3f0ca289b","A3","batch1","","-1","tol_feedback","","","true","","1000","1000","500","","","","","","-1","none","true","1807","10114","","","","","","","","","",""
"","","","","","html-button-response","330","972579","0.0-2.0-70.0","6276b88b3b4036b3f0ca289b","A3","batch1","","720.6999999999534","tol_trial_num","<div class = centerbox><p class = center-block-text>problem <strong>21</strong> out of 25 problems</p></div>","0","","","","","","","","","","","","","","","","","","","","","","","","",""
"","","","","","single-stim-button","331","980678","0.0-2.0-71.0-0.0","6276b88b3b4036b3f0ca289b","A3","batch1","","8099","tol_tohand","","","","tol_peg_2","8099","8099","0","[[1,2,0],[0,0],[0]]","1","[[3,2,0],[0,0],[1]]","20","0","","","","","","6","","","","","","","","",""
"","","","","","single-stim-button","332","981412","0.0-2.0-71.0-1.0","6276b88b3b4036b3f0ca289b","A3","batch1","","733","tol_toboard","","","","tol_peg_3","733","733","0","[[1,2,0],[0,0],[3]]","1","[[3,2,0],[0,0],[1]]","20","0","","","","","","6","","","","","","","","",""
"","","","","","single-stim-button","333","983171","0.0-2.0-71.1-0.1","6276b88b3b4036b3f0ca289b","A3","batch1","","1758","tol_tohand","","","","tol_peg_3","1758","1758","0","[[1,2,0],[0,0],[0]]","2","[[3,2,0],[0,0],[1]]","20","0","","","","","","6","","","","","","","","",""
"","","","","","single-stim-button","334","983785","0.0-2.0-71.1-1.1","6276b88b3b4036b3f0ca289b","A3","batch1","","613","tol_toboard","","","","tol_peg_2","613","613","0","[[1,2,0],[3,0],[0]]","2","[[3,2,0],[0,0],[1]]","20","0","","","","","","6","","","","","","","","",""
"","","","","","single-stim-button","335","984531","0.0-2.0-71.2-0.2","6276b88b3b4036b3f0ca289b","A3","batch1","","746","tol_tohand","","","","tol_peg_1","746","746","0","[[1,0,0],[3,0],[0]]","3","[[3,2,0],[0,0],[1]]","20","0","","","","","","6","","","","","","","","",""
"","","","","","single-stim-button","336","985665","0.0-2.0-71.2-1.2","6276b88b3b4036b3f0ca289b","A3","batch1","","1133","tol_toboard","","","","tol_peg_2","1133","1133","0","[[1,0,0],[3,2],[0]]","3","[[3,2,0],[0,0],[1]]","20","0","","","","","","6","","","","","","","","",""
"","","","","","single-stim-button","337","986181","0.0-2.0-71.3-0.3","6276b88b3b4036b3f0ca289b","A3","batch1","","515","tol_tohand","","","","tol_peg_1","515","515","0","[[0,0,0],[3,2],[0]]","4","[[3,2,0],[0,0],[1]]","20","0","","","","","","6","","","","","","","","",""
"","","","","","single-stim-button","338","989026","0.0-2.0-71.3-1.3","6276b88b3b4036b3f0ca289b","A3","batch1","","2845","tol_toboard","","","","tol_peg_3","2845","2845","0","[[0,0,0],[3,2],[1]]","4","[[3,2,0],[0,0],[1]]","20","0","","","","","","6","","","","","","","","",""
"","","","","","single-stim-button","339","993388","0.0-2.0-71.4-0.4","6276b88b3b4036b3f0ca289b","A3","batch1","","4361","tol_tohand","","","","tol_peg_3","4361","4361","0","[[0,0,0],[3,2],[0]]","5","[[3,2,0],[0,0],[1]]","20","0","","","","","","6","","","","","","","","",""
"","","","","","single-stim-button","340","994044","0.0-2.0-71.4-1.4","6276b88b3b4036b3f0ca289b","A3","batch1","","656","tol_toboard","","","","tol_peg_1","656","656","0","[[1,0,0],[3,2],[0]]","5","[[3,2,0],[0,0],[1]]","20","0","","","","","","6","","","","","","","","",""
"","","","","","single-stim-button","341","995954","0.0-2.0-71.5-0.5","6276b88b3b4036b3f0ca289b","A3","batch1","","1910","tol_tohand","","","","tol_peg_2","1910","1910","0","[[1,0,0],[3,0],[0]]","6","[[3,2,0],[0,0],[1]]","20","0","","","","","","6","","","","","","","","",""
"","","","","","single-stim-button","342","996477","0.0-2.0-71.5-1.5","6276b88b3b4036b3f0ca289b","A3","batch1","","523","tol_toboard","","","","tol_peg_1","523","523","0","[[1,2,0],[3,0],[0]]","6","[[3,2,0],[0,0],[1]]","20","0","","","","","","6","","","","","","","","",""
"","","","","","single-stim-button","343","996983","0.0-2.0-71.6-0.6","6276b88b3b4036b3f0ca289b","A3","batch1","","505","tol_tohand","","","","tol_peg_2","505","505","0","[[1,2,0],[0,0],[0]]","7","[[3,2,0],[0,0],[1]]","20","0","","","","","","6","","","","","","","","",""
"","","","","","single-stim-button","344","997776","0.0-2.0-71.6-1.6","6276b88b3b4036b3f0ca289b","A3","batch1","","792","tol_toboard","","","","tol_peg_3","792","792","0","[[1,2,0],[0,0],[3]]","7","[[3,2,0],[0,0],[1]]","20","0","","","","","","6","","","","","","","","",""
"","","","","","single-stim-button","345","998762","0.0-2.0-71.7-0.7","6276b88b3b4036b3f0ca289b","A3","batch1","","985","tol_tohand","","","","tol_peg_1","985","985","0","[[1,0,0],[0,0],[3]]","8","[[3,2,0],[0,0],[1]]","20","0","","","","","","6","","","","","","","","",""
"","","","","","single-stim-button","346","999452","0.0-2.0-71.7-1.7","6276b88b3b4036b3f0ca289b","A3","batch1","","689","tol_toboard","","","","tol_peg_2","689","689","0","[[1,0,0],[2,0],[3]]","8","[[3,2,0],[0,0],[1]]","20","0","","","","","","6","","","","","","","","",""
"","","","","","single-stim-button","347","999923","0.0-2.0-71.8-0.8","6276b88b3b4036b3f0ca289b","A3","batch1","","470","tol_tohand","","","","tol_peg_1","470","470","0","[[0,0,0],[2,0],[3]]","9","[[3,2,0],[0,0],[1]]","20","0","","","","","","6","","","","","","","","",""
"","","","","","single-stim-button","348","1001015","0.0-2.0-71.8-1.8","6276b88b3b4036b3f0ca289b","A3","batch1","","1092","tol_toboard","","","","tol_peg_2","1092","1092","0","[[0,0,0],[2,1],[3]]","9","[[3,2,0],[0,0],[1]]","20","0","","","","","","6","","","","","","","","",""
"","","","","","single-stim-button","349","1001548","0.0-2.0-71.9-0.9","6276b88b3b4036b3f0ca289b","A3","batch1","","532","tol_tohand","","","","tol_peg_3","532","532","0","[[0,0,0],[2,1],[0]]","10","[[3,2,0],[0,0],[1]]","20","0","","","","","","6","","","","","","","","",""
"","","","","","single-stim-button","350","1003046","0.0-2.0-71.9-1.9","6276b88b3b4036b3f0ca289b","A3","batch1","","1498","tol_toboard","","","","tol_peg_1","1498","1498","0","[[3,0,0],[2,1],[0]]","10","[[3,2,0],[0,0],[1]]","20","0","","","","","","6","","","","","","","","",""
"","","","","","single-stim-button","351","1003661","0.0-2.0-71.10-0.10","6276b88b3b4036b3f0ca289b","A3","batch1","","615","tol_tohand","","","","tol_peg_2","615","615","0","[[3,0,0],[2,0],[0]]","11","[[3,2,0],[0,0],[1]]","20","0","","","","","","6","","","","","","","","",""
"","","","","","single-stim-button","352","1004385","0.0-2.0-71.10-1.10","6276b88b3b4036b3f0ca289b","A3","batch1","","723","tol_toboard","","","","tol_peg_3","723","723","0","[[3,0,0],[2,0],[1]]","11","[[3,2,0],[0,0],[1]]","20","0","","","","","","6","","","","","","","","",""
"","","","","","single-stim-button","353","1004868","0.0-2.0-71.11-0.11","6276b88b3b4036b3f0ca289b","A3","batch1","","482","tol_tohand","","","","tol_peg_2","482","482","0","[[3,0,0],[0,0],[1]]","12","[[3,2,0],[0,0],[1]]","20","0","","","","","","6","","","","","","","","",""
"","","","","","single-stim-button","354","1005416","0.0-2.0-71.11-1.11","6276b88b3b4036b3f0ca289b","A3","batch1","","547","tol_toboard","","","","tol_peg_1","547","547","0","[[3,2,0],[0,0],[1]]","12","[[3,2,0],[0,0],[1]]","20","0","","","","","","6","","","","","","","","",""
"","","","","","poldrack-single-stim","355","1006417","0.0-2.0-72.0","6276b88b3b4036b3f0ca289b","A3","batch1","","-1","tol_feedback","","","true","","1000","1000","500","","","","","","-1","none","true","8099","20978","","","","","","","","","",""
"","","","","","html-button-response","356","1007248","0.0-2.0-73.0","6276b88b3b4036b3f0ca289b","A3","batch1","","829.5","tol_trial_num","<div class = centerbox><p class = center-block-text>problem <strong>22</strong> out of 25 problems</p></div>","0","","","","","","","","","","","","","","","","","","","","","","","","",""
