"success","timeout","failed_images","failed_audio","failed_video","trial_type","trial_index","time_elapsed","internal_node_id","subject_id","study_id","session_id","task","rt","stimulus","response","item","answer","correct","spm_correct","spm_rt","view_history","fiar_detect_rt","fiar_detect_correct","total_correct_fiar_detect","post_trial_gap","choices","mouse_click","stim_duration","block_duration","timing_post_trial","current_position","tol_num_moves_made","tol_target","tol_problem_id","tol_rt","key_press","possible_responses","tol_correct","preplanning","tol_rt_per_trial","tol_min_moves"
"true","false","[]","[]","[]","preload","0","4961","0.0-0.0","6277cd4fea5f69868617658b","E1","batch5","","","","","","","","","","","","","","","","","","","","","","","","","","","","","",""
"true","","","","","fullscreen","1","8381","0.0-1.0-0.0","6277cd4fea5f69868617658b","E1","batch5","","","","","","","","","","","","","","","","","","","","","","","","","","","","","",""
"true","","","","","fullscreen","2","10812","0.0-2.0-0.0","6277cd4fea5f69868617658b","E1","batch5","spm_fullscreen","","","","","","","","","","","","","","","","","","","","","","","","","","","","",""
"","","","","","html-button-response","3","14481","0.0-2.0-1.0","6277cd4fea5f69868617658b","E1","batch5","","3665.800000011921","<p class = block-text><b>Instructions</b> <br>This is a widely used intelligence test in research. <br>In this test, a figure with a missing piece will be presented.<br>Below the figure are alternative pieces to complete the figure, only one of which is correct.<br> Different figures might involve different principles for obtaining the missing piece<br>Your job is to select the most logical piece to complete the figure.</p>","0","","","","","","","","","","","","","","","","","","","","","","","","","",""
"","","","","","html-keyboard-response","4","15288","0.0-2.0-2.0-0.0","6277cd4fea5f69868617658b","E1","batch5","spm_show_trial_num","null","<p class=block-text>Trial 1 out of 60</p>","null","","","","","","","","","","","","","","","","","","","","","","","","","",""
"","","","","","image-button-response","5","21092","0.0-2.0-2.0-1.0","6277cd4fea5f69868617658b","E1","batch5","spm_respsonse","5781.4000000059605","img/question_1_1.jpeg","3","mat_01","4","1","1","5781.4000000059605","","","","","","","","","","","","","","","","","","","","",""
"","","","","","html-keyboard-response","6","22164","0.0-2.0-2.0-0.1","6277cd4fea5f69868617658b","E1","batch5","spm_show_trial_num","null","<p class=block-text>Trial 2 out of 60</p>","null","","","","","","","","","","","","","","","","","","","","","","","","","",""
"","","","","","image-button-response","7","24242","0.0-2.0-2.0-1.1","6277cd4fea5f69868617658b","E1","batch5","spm_respsonse","2075","img/question_1_2.jpeg","4","mat_02","5","1","1","2075","","","","","","","","","","","","","","","","","","","","",""
"","","","","","html-keyboard-response","8","25312","0.0-2.0-2.0-0.2","6277cd4fea5f69868617658b","E1","batch5","spm_show_trial_num","null","<p class=block-text>Trial 3 out of 60</p>","null","","","","","","","","","","","","","","","","","","","","","","","","","",""
"","","","","","image-button-response","9","28020","0.0-2.0-2.0-1.2","6277cd4fea5f69868617658b","E1","batch5","spm_respsonse","2705.5","img/question_1_3.jpeg","3","mat_03","1","0","0","2705.5","","","","","","","","","","","","","","","","","","","","",""
"","","","","","html-keyboard-response","10","29090","0.0-2.0-2.0-0.3","6277cd4fea5f69868617658b","E1","batch5","spm_show_trial_num","null","<p class=block-text>Trial 4 out of 60</p>","null","","","","","","","","","","","","","","","","","","","","","","","","","",""
"","","","","","image-button-response","11","31175","0.0-2.0-2.0-1.3","6277cd4fea5f69868617658b","E1","batch5","spm_respsonse","2082","img/question_1_4.jpeg","1","mat_04","2","1","1","2082","","","","","","","","","","","","","","","","","","","","",""
"","","","","","html-keyboard-response","12","32246","0.0-2.0-2.0-0.4","6277cd4fea5f69868617658b","E1","batch5","spm_show_trial_num","null","<p class=block-text>Trial 5 out of 60</p>","null","","","","","","","","","","","","","","","","","","","","","","","","","",""
"","","","","","image-button-response","13","34938","0.0-2.0-2.0-1.4","6277cd4fea5f69868617658b","E1","batch5","spm_respsonse","2689","img/question_1_5.jpeg","5","mat_05","6","1","1","2689","","","","","","","","","","","","","","","","","","","","",""
"","","","","","html-keyboard-response","14","36009","0.0-2.0-2.0-0.5","6277cd4fea5f69868617658b","E1","batch5","spm_show_trial_num","null","<p class=block-text>Trial 6 out of 60</p>","null","","","","","","","","","","","","","","","","","","","","","","","","","",""
"","","","","","image-button-response","15","40869","0.0-2.0-2.0-1.5","6277cd4fea5f69868617658b","E1","batch5","spm_respsonse","4857.799999982119","img/question_1_6.jpeg","2","mat_06","3","1","1","4857.799999982119","","","","","","","","","","","","","","","","","","","","",""
"","","","","","html-keyboard-response","16","41940","0.0-2.0-2.0-0.6","6277cd4fea5f69868617658b","E1","batch5","spm_show_trial_num","null","<p class=block-text>Trial 7 out of 60</p>","null","","","","","","","","","","","","","","","","","","","","","","","","","",""
"","","","","","image-button-response","17","46024","0.0-2.0-2.0-1.6","6277cd4fea5f69868617658b","E1","batch5","spm_respsonse","4081.5999999940395","img/question_1_7.jpeg","5","mat_07","6","1","1","4081.5999999940395","","","","","","","","","","","","","","","","","","","","",""
"","","","","","html-keyboard-response","18","47096","0.0-2.0-2.0-0.7","6277cd4fea5f69868617658b","E1","batch5","spm_show_trial_num","null","<p class=block-text>Trial 8 out of 60</p>","null","","","","","","","","","","","","","","","","","","","","","","","","","",""
"","","","","","image-button-response","19","51915","0.0-2.0-2.0-1.7","6277cd4fea5f69868617658b","E1","batch5","spm_respsonse","4817.0999999940395","img/question_1_8.jpeg","1","mat_08","2","1","1","4817.0999999940395","","","","","","","","","","","","","","","","","","","","",""
"","","","","","html-keyboard-response","20","52986","0.0-2.0-2.0-0.8","6277cd4fea5f69868617658b","E1","batch5","spm_show_trial_num","null","<p class=block-text>Trial 9 out of 60</p>","null","","","","","","","","","","","","","","","","","","","","","","","","","",""
"","","","","","image-button-response","21","58120","0.0-2.0-2.0-1.8","6277cd4fea5f69868617658b","E1","batch5","spm_respsonse","5131.299999982119","img/question_1_9.jpeg","0","mat_09","1","1","1","5131.299999982119","","","","","","","","","","","","","","","","","","","","",""
"","","","","","html-keyboard-response","22","59189","0.0-2.0-2.0-0.9","6277cd4fea5f69868617658b","E1","batch5","spm_show_trial_num","null","<p class=block-text>Trial 10 out of 60</p>","null","","","","","","","","","","","","","","","","","","","","","","","","","",""
"","","","","","image-button-response","23","63774","0.0-2.0-2.0-1.9","6277cd4fea5f69868617658b","E1","batch5","spm_respsonse","4582","img/question_1_10.jpeg","2","mat_10","3","1","1","4582","","","","","","","","","","","","","","","","","","","","",""
"","","","","","html-keyboard-response","24","64846","0.0-2.0-2.0-0.10","6277cd4fea5f69868617658b","E1","batch5","spm_show_trial_num","null","<p class=block-text>Trial 11 out of 60</p>","null","","","","","","","","","","","","","","","","","","","","","","","","","",""
"","","","","","image-button-response","25","72900","0.0-2.0-2.0-1.10","6277cd4fea5f69868617658b","E1","batch5","spm_respsonse","8050.9000000059605","img/question_1_11.jpeg","3","mat_11","4","1","1","8050.9000000059605","","","","","","","","","","","","","","","","","","","","",""
"","","","","","html-keyboard-response","26","73972","0.0-2.0-2.0-0.11","6277cd4fea5f69868617658b","E1","batch5","spm_show_trial_num","null","<p class=block-text>Trial 12 out of 60</p>","null","","","","","","","","","","","","","","","","","","","","","","","","","",""
"","","","","","image-button-response","27","79657","0.0-2.0-2.0-1.11","6277cd4fea5f69868617658b","E1","batch5","spm_respsonse","5681.9000000059605","img/question_1_12.jpeg","3","mat_12","5","0","0","5681.9000000059605","","","","","","","","","","","","","","","","","","","","",""
"","","","","","html-keyboard-response","28","80725","0.0-2.0-2.0-0.12","6277cd4fea5f69868617658b","E1","batch5","spm_show_trial_num","null","<p class=block-text>Trial 13 out of 60</p>","null","","","","","","","","","","","","","","","","","","","","","","","","","",""
"","","","","","image-button-response","29","83468","0.0-2.0-2.0-1.12","6277cd4fea5f69868617658b","E1","batch5","spm_respsonse","2739.5999999940395","img/question_2_1.jpeg","1","mat_13","2","1","1","2739.5999999940395","","","","","","","","","","","","","","","","","","","","",""
"","","","","","html-keyboard-response","30","84553","0.0-2.0-2.0-0.13","6277cd4fea5f69868617658b","E1","batch5","spm_show_trial_num","null","<p class=block-text>Trial 14 out of 60</p>","null","","","","","","","","","","","","","","","","","","","","","","","","","",""
"","","","","","image-button-response","31","88045","0.0-2.0-2.0-1.13","6277cd4fea5f69868617658b","E1","batch5","spm_respsonse","3488.5","img/question_2_2.jpeg","5","mat_14","6","1","1","3488.5","","","","","","","","","","","","","","","","","","","","",""
"","","","","","html-keyboard-response","32","89113","0.0-2.0-2.0-0.14","6277cd4fea5f69868617658b","E1","batch5","spm_show_trial_num","null","<p class=block-text>Trial 15 out of 60</p>","null","","","","","","","","","","","","","","","","","","","","","","","","","",""
"","","","","","image-button-response","33","93180","0.0-2.0-2.0-1.14","6277cd4fea5f69868617658b","E1","batch5","spm_respsonse","4065.5999999940395","img/question_2_3.jpeg","0","mat_15","1","1","1","4065.5999999940395","","","","","","","","","","","","","","","","","","","","",""
"","","","","","html-keyboard-response","34","94250","0.0-2.0-2.0-0.15","6277cd4fea5f69868617658b","E1","batch5","spm_show_trial_num","null","<p class=block-text>Trial 16 out of 60</p>","null","","","","","","","","","","","","","","","","","","","","","","","","","",""
"","","","","","image-button-response","35","96530","0.0-2.0-2.0-1.15","6277cd4fea5f69868617658b","E1","batch5","spm_respsonse","2276.9000000059605","img/question_2_4.jpeg","1","mat_16","2","1","1","2276.9000000059605","","","","","","","","","","","","","","","","","","","","",""
"","","","","","html-keyboard-response","36","97601","0.0-2.0-2.0-0.16","6277cd4fea5f69868617658b","E1","batch5","spm_show_trial_num","null","<p class=block-text>Trial 17 out of 60</p>","null","","","","","","","","","","","","","","","","","","","","","","","","","",""
"","","","","","image-button-response","37","101972","0.0-2.0-2.0-1.16","6277cd4fea5f69868617658b","E1","batch5","spm_respsonse","4368.4000000059605","img/question_2_5.jpeg","0","mat_17","1","1","1","4368.4000000059605","","","","","","","","","","","","","","","","","","","","",""
"","","","","","html-keyboard-response","38","103044","0.0-2.0-2.0-0.17","6277cd4fea5f69868617658b","E1","batch5","spm_show_trial_num","null","<p class=block-text>Trial 18 out of 60</p>","null","","","","","","","","","","","","","","","","","","","","","","","","","",""
"","","","","","image-button-response","39","110776","0.0-2.0-2.0-1.17","6277cd4fea5f69868617658b","E1","batch5","spm_respsonse","7729.4000000059605","img/question_2_6.jpeg","2","mat_18","3","1","1","7729.4000000059605","","","","","","","","","","","","","","","","","","","","",""
"","","","","","html-keyboard-response","40","111842","0.0-2.0-2.0-0.18","6277cd4fea5f69868617658b","E1","batch5","spm_show_trial_num","null","<p class=block-text>Trial 19 out of 60</p>","null","","","","","","","","","","","","","","","","","","","","","","","","","",""
"","","","","","image-button-response","41","116650","0.0-2.0-2.0-1.18","6277cd4fea5f69868617658b","E1","batch5","spm_respsonse","4804.300000011921","img/question_2_7.jpeg","4","mat_19","5","1","1","4804.300000011921","","","","","","","","","","","","","","","","","","","","",""
"","","","","","html-keyboard-response","42","117719","0.0-2.0-2.0-0.19","6277cd4fea5f69868617658b","E1","batch5","spm_show_trial_num","null","<p class=block-text>Trial 20 out of 60</p>","null","","","","","","","","","","","","","","","","","","","","","","","","","",""
"","","","","","image-button-response","43","131099","0.0-2.0-2.0-1.19","6277cd4fea5f69868617658b","E1","batch5","spm_respsonse","13377.700000017881","img/question_2_8.jpeg","2","mat_20","6","0","0","13377.700000017881","","","","","","","","","","","","","","","","","","","","",""
"","","","","","html-keyboard-response","44","132172","0.0-2.0-2.0-0.20","6277cd4fea5f69868617658b","E1","batch5","spm_show_trial_num","null","<p class=block-text>Trial 21 out of 60</p>","null","","","","","","","","","","","","","","","","","","","","","","","","","",""
"","","","","","image-button-response","45","137802","0.0-2.0-2.0-1.20","6277cd4fea5f69868617658b","E1","batch5","spm_respsonse","5627.700000017881","img/question_2_9.jpeg","3","mat_21","4","1","1","5627.700000017881","","","","","","","","","","","","","","","","","","","","",""
"","","","","","html-keyboard-response","46","138868","0.0-2.0-2.0-0.21","6277cd4fea5f69868617658b","E1","batch5","spm_show_trial_num","null","<p class=block-text>Trial 22 out of 60</p>","null","","","","","","","","","","","","","","","","","","","","","","","","","",""
"","","","","","image-button-response","47","143371","0.0-2.0-2.0-1.21","6277cd4fea5f69868617658b","E1","batch5","spm_respsonse","4500.299999982119","img/question_2_10.jpeg","2","mat_22","3","1","1","4500.299999982119","","","","","","","","","","","","","","","","","","","","",""
"","","","","","html-keyboard-response","48","144441","0.0-2.0-2.0-0.22","6277cd4fea5f69868617658b","E1","batch5","spm_show_trial_num","null","<p class=block-text>Trial 23 out of 60</p>","null","","","","","","","","","","","","","","","","","","","","","","","","","",""
"","","","","","image-button-response","49","151461","0.0-2.0-2.0-1.22","6277cd4fea5f69868617658b","E1","batch5","spm_respsonse","7016.700000017881","img/question_2_11.jpeg","0","mat_23","4","0","0","7016.700000017881","","","","","","","","","","","","","","","","","","","","",""
"","","","","","html-keyboard-response","50","152522","0.0-2.0-2.0-0.23","6277cd4fea5f69868617658b","E1","batch5","spm_show_trial_num","null","<p class=block-text>Trial 24 out of 60</p>","null","","","","","","","","","","","","","","","","","","","","","","","","","",""
"","","","","","image-button-response","51","159019","0.0-2.0-2.0-1.23","6277cd4fea5f69868617658b","E1","batch5","spm_respsonse","6494.0999999940395","img/question_2_12.jpeg","5","mat_24","5","0","0","6494.0999999940395","","","","","","","","","","","","","","","","","","","","",""
"","","","","","html-button-response","52","160721","0.0-2.0-3.0","6277cd4fea5f69868617658b","E1","batch5","attention_check","1443.5999999940395","<p class = block-text>Attention check: Please choose 1<br></p>","0","","","true","","","","","","","","","","","","","","","","","","","","","","",""
"","","","","","html-keyboard-response","53","161531","0.0-2.0-4.0-0.0","6277cd4fea5f69868617658b","E1","batch5","spm_show_trial_num","null","<p class=block-text>Trial 25 out of 60</p>","null","","","","","","","","","","","","","","","","","","","","","","","","","",""
"","","","","","image-button-response","54","166383","0.0-2.0-4.0-1.0","6277cd4fea5f69868617658b","E1","batch5","spm_respsonse","4848.5","img/question_3_1.jpeg","7","mat_25","8","1","1","4848.5","","","","","","","","","","","","","","","","","","","","",""
"","","","","","html-keyboard-response","55","167456","0.0-2.0-4.0-0.1","6277cd4fea5f69868617658b","E1","batch5","spm_show_trial_num","null","<p class=block-text>Trial 26 out of 60</p>","null","","","","","","","","","","","","","","","","","","","","","","","","","",""
"","","","","","image-button-response","56","176440","0.0-2.0-4.0-1.1","6277cd4fea5f69868617658b","E1","batch5","spm_respsonse","8981.59999999404","img/question_3_2.jpeg","1","mat_26","2","1","1","8981.59999999404","","","","","","","","","","","","","","","","","","","","",""
"","","","","","html-keyboard-response","57","177499","0.0-2.0-4.0-0.2","6277cd4fea5f69868617658b","E1","batch5","spm_show_trial_num","null","<p class=block-text>Trial 27 out of 60</p>","null","","","","","","","","","","","","","","","","","","","","","","","","","",""
"","","","","","image-button-response","58","182657","0.0-2.0-4.0-1.2","6277cd4fea5f69868617658b","E1","batch5","spm_respsonse","5154.200000017881","img/question_3_3.jpeg","2","mat_27","3","1","1","5154.200000017881","","","","","","","","","","","","","","","","","","","","",""
"","","","","","html-keyboard-response","59","183723","0.0-2.0-4.0-0.3","6277cd4fea5f69868617658b","E1","batch5","spm_show_trial_num","null","<p class=block-text>Trial 28 out of 60</p>","null","","","","","","","","","","","","","","","","","","","","","","","","","",""
"","","","","","image-button-response","60","189903","0.0-2.0-4.0-1.3","6277cd4fea5f69868617658b","E1","batch5","spm_respsonse","6176.699999988079","img/question_3_4.jpeg","7","mat_28","8","1","1","6176.699999988079","","","","","","","","","","","","","","","","","","","","",""
"","","","","","html-keyboard-response","61","190975","0.0-2.0-4.0-0.4","6277cd4fea5f69868617658b","E1","batch5","spm_show_trial_num","null","<p class=block-text>Trial 29 out of 60</p>","null","","","","","","","","","","","","","","","","","","","","","","","","","",""
"","","","","","image-button-response","62","196493","0.0-2.0-4.0-1.4","6277cd4fea5f69868617658b","E1","batch5","spm_respsonse","5513.699999988079","img/question_3_5.jpeg","6","mat_29","7","1","1","5513.699999988079","","","","","","","","","","","","","","","","","","","","",""
"","","","","","html-keyboard-response","63","197554","0.0-2.0-4.0-0.5","6277cd4fea5f69868617658b","E1","batch5","spm_show_trial_num","null","<p class=block-text>Trial 30 out of 60</p>","null","","","","","","","","","","","","","","","","","","","","","","","","","",""
"","","","","","image-button-response","64","204572","0.0-2.0-4.0-1.5","6277cd4fea5f69868617658b","E1","batch5","spm_respsonse","7014","img/question_3_6.jpeg","3","mat_30","4","1","1","7014","","","","","","","","","","","","","","","","","","","","",""
"","","","","","html-keyboard-response","65","205640","0.0-2.0-4.0-0.6","6277cd4fea5f69868617658b","E1","batch5","spm_show_trial_num","null","<p class=block-text>Trial 31 out of 60</p>","null","","","","","","","","","","","","","","","","","","","","","","","","","",""
"","","","","","image-button-response","66","215906","0.0-2.0-4.0-1.6","6277cd4fea5f69868617658b","E1","batch5","spm_respsonse","10261.90000000596","img/question_3_7.jpeg","4","mat_31","5","1","1","10261.90000000596","","","","","","","","","","","","","","","","","","","","",""
"","","","","","html-keyboard-response","67","216980","0.0-2.0-4.0-0.7","6277cd4fea5f69868617658b","E1","batch5","spm_show_trial_num","null","<p class=block-text>Trial 32 out of 60</p>","null","","","","","","","","","","","","","","","","","","","","","","","","","",""
"","","","","","image-button-response","68","232765","0.0-2.0-4.0-1.7","6277cd4fea5f69868617658b","E1","batch5","spm_respsonse","15781.40000000596","img/question_3_8.jpeg","6","mat_32","1","0","0","15781.40000000596","","","","","","","","","","","","","","","","","","","","",""
"","","","","","html-keyboard-response","69","233832","0.0-2.0-4.0-0.8","6277cd4fea5f69868617658b","E1","batch5","spm_show_trial_num","null","<p class=block-text>Trial 33 out of 60</p>","null","","","","","","","","","","","","","","","","","","","","","","","","","",""
"","","","","","image-button-response","70","246811","0.0-2.0-4.0-1.8","6277cd4fea5f69868617658b","E1","batch5","spm_respsonse","12975.09999999404","img/question_3_9.jpeg","5","mat_33","7","0","0","12975.09999999404","","","","","","","","","","","","","","","","","","","","",""
"","","","","","html-keyboard-response","71","247871","0.0-2.0-4.0-0.9","6277cd4fea5f69868617658b","E1","batch5","spm_show_trial_num","null","<p class=block-text>Trial 34 out of 60</p>","null","","","","","","","","","","","","","","","","","","","","","","","","","",""
"","","","","","image-button-response","72","256622","0.0-2.0-4.0-1.9","6277cd4fea5f69868617658b","E1","batch5","spm_respsonse","8747.699999988079","img/question_3_10.jpeg","7","mat_34","6","0","0","8747.699999988079","","","","","","","","","","","","","","","","","","","","",""
"","","","","","html-keyboard-response","73","257692","0.0-2.0-4.0-0.10","6277cd4fea5f69868617658b","E1","batch5","spm_show_trial_num","null","<p class=block-text>Trial 35 out of 60</p>","null","","","","","","","","","","","","","","","","","","","","","","","","","",""
"","","","","","image-button-response","74","288184","0.0-2.0-4.0-1.10","6277cd4fea5f69868617658b","E1","batch5","spm_respsonse","30488.80000001192","img/question_3_11.jpeg","5","mat_35","1","0","0","30488.80000001192","","","","","","","","","","","","","","","","","","","","",""
"","","","","","html-keyboard-response","75","289251","0.0-2.0-4.0-0.11","6277cd4fea5f69868617658b","E1","batch5","spm_show_trial_num","null","<p class=block-text>Trial 36 out of 60</p>","null","","","","","","","","","","","","","","","","","","","","","","","","","",""
"","","","","","image-button-response","76","308143","0.0-2.0-4.0-1.11","6277cd4fea5f69868617658b","E1","batch5","spm_respsonse","18889.40000000596","img/question_3_12.jpeg","4","mat_36","2","0","0","18889.40000000596","","","","","","","","","","","","","","","","","","","","",""
"","","","","","html-keyboard-response","77","309225","0.0-2.0-4.0-0.12","6277cd4fea5f69868617658b","E1","batch5","spm_show_trial_num","null","<p class=block-text>Trial 37 out of 60</p>","null","","","","","","","","","","","","","","","","","","","","","","","","","",""
"","","","","","image-button-response","78","313318","0.0-2.0-4.0-1.12","6277cd4fea5f69868617658b","E1","batch5","spm_respsonse","4089.4000000059605","img/question_4_1.jpeg","2","mat_37","3","1","1","4089.4000000059605","","","","","","","","","","","","","","","","","","","","",""
"","","","","","html-keyboard-response","79","314387","0.0-2.0-4.0-0.13","6277cd4fea5f69868617658b","E1","batch5","spm_show_trial_num","null","<p class=block-text>Trial 38 out of 60</p>","null","","","","","","","","","","","","","","","","","","","","","","","","","",""
"","","","","","image-button-response","80","321431","0.0-2.0-4.0-1.13","6277cd4fea5f69868617658b","E1","batch5","spm_respsonse","7040.699999988079","img/question_4_2.jpeg","3","mat_38","4","1","1","7040.699999988079","","","","","","","","","","","","","","","","","","","","",""
"","","","","","html-keyboard-response","81","322500","0.0-2.0-4.0-0.14","6277cd4fea5f69868617658b","E1","batch5","spm_show_trial_num","null","<p class=block-text>Trial 39 out of 60</p>","null","","","","","","","","","","","","","","","","","","","","","","","","","",""
"","","","","","image-button-response","82","332369","0.0-2.0-4.0-1.14","6277cd4fea5f69868617658b","E1","batch5","spm_respsonse","9866","img/question_4_3.jpeg","2","mat_39","3","1","1","9866","","","","","","","","","","","","","","","","","","","","",""
"","","","","","html-keyboard-response","83","333442","0.0-2.0-4.0-0.15","6277cd4fea5f69868617658b","E1","batch5","spm_show_trial_num","null","<p class=block-text>Trial 40 out of 60</p>","null","","","","","","","","","","","","","","","","","","","","","","","","","",""
"","","","","","image-button-response","84","339834","0.0-2.0-4.0-1.15","6277cd4fea5f69868617658b","E1","batch5","spm_respsonse","6389.299999982119","img/question_4_4.jpeg","1","mat_40","7","0","0","6389.299999982119","","","","","","","","","","","","","","","","","","","","",""
"","","","","","html-keyboard-response","85","340904","0.0-2.0-4.0-0.16","6277cd4fea5f69868617658b","E1","batch5","spm_show_trial_num","null","<p class=block-text>Trial 41 out of 60</p>","null","","","","","","","","","","","","","","","","","","","","","","","","","",""
"","","","","","image-button-response","86","347127","0.0-2.0-4.0-1.16","6277cd4fea5f69868617658b","E1","batch5","spm_respsonse","6220.199999988079","img/question_4_5.jpeg","0","mat_41","8","0","0","6220.199999988079","","","","","","","","","","","","","","","","","","","","",""
"","","","","","html-keyboard-response","87","348202","0.0-2.0-4.0-0.17","6277cd4fea5f69868617658b","E1","batch5","spm_show_trial_num","null","<p class=block-text>Trial 42 out of 60</p>","null","","","","","","","","","","","","","","","","","","","","","","","","","",""
"","","","","","image-button-response","88","364587","0.0-2.0-4.0-1.17","6277cd4fea5f69868617658b","E1","batch5","spm_respsonse","16381.90000000596","img/question_4_6.jpeg","5","mat_42","6","1","1","16381.90000000596","","","","","","","","","","","","","","","","","","","","",""
"","","","","","html-keyboard-response","89","365654","0.0-2.0-4.0-0.18","6277cd4fea5f69868617658b","E1","batch5","spm_show_trial_num","null","<p class=block-text>Trial 43 out of 60</p>","null","","","","","","","","","","","","","","","","","","","","","","","","","",""
"","","","","","image-button-response","90","386153","0.0-2.0-4.0-1.18","6277cd4fea5f69868617658b","E1","batch5","spm_respsonse","20495.09999999404","img/question_4_7.jpeg","6","mat_43","5","0","0","20495.09999999404","","","","","","","","","","","","","","","","","","","","",""
"","","","","","html-keyboard-response","91","387215","0.0-2.0-4.0-0.19","6277cd4fea5f69868617658b","E1","batch5","spm_show_trial_num","null","<p class=block-text>Trial 44 out of 60</p>","null","","","","","","","","","","","","","","","","","","","","","","","","","",""
"","","","","","image-button-response","92","452938","0.0-2.0-4.0-1.19","6277cd4fea5f69868617658b","E1","batch5","spm_respsonse","65718.29999998212","img/question_4_8.jpeg","3","mat_44","4","1","1","65718.29999998212","","","","","","","","","","","","","","","","","","","","",""
"","","","","","html-keyboard-response","93","454010","0.0-2.0-4.0-0.20","6277cd4fea5f69868617658b","E1","batch5","spm_show_trial_num","null","<p class=block-text>Trial 45 out of 60</p>","null","","","","","","","","","","","","","","","","","","","","","","","","","",""
"","","","","","image-button-response","94","464415","0.0-2.0-4.0-1.20","6277cd4fea5f69868617658b","E1","batch5","spm_respsonse","10402.300000011921","img/question_4_9.jpeg","3","mat_45","1","0","0","10402.300000011921","","","","","","","","","","","","","","","","","","","","",""
"","","","","","html-keyboard-response","95","465485","0.0-2.0-4.0-0.21","6277cd4fea5f69868617658b","E1","batch5","spm_show_trial_num","null","<p class=block-text>Trial 46 out of 60</p>","null","","","","","","","","","","","","","","","","","","","","","","","","","",""
"","","","","","image-button-response","96","474455","0.0-2.0-4.0-1.21","6277cd4fea5f69868617658b","E1","batch5","spm_respsonse","8965.59999999404","img/question_4_10.jpeg","7","mat_46","2","0","0","8965.59999999404","","","","","","","","","","","","","","","","","","","","",""
"","","","","","html-keyboard-response","97","475527","0.0-2.0-4.0-0.22","6277cd4fea5f69868617658b","E1","batch5","spm_show_trial_num","null","<p class=block-text>Trial 47 out of 60</p>","null","","","","","","","","","","","","","","","","","","","","","","","","","",""
"","","","","","image-button-response","98","487967","0.0-2.0-4.0-1.22","6277cd4fea5f69868617658b","E1","batch5","spm_respsonse","12436.200000017881","img/question_4_11.jpeg","7","mat_47","5","0","0","12436.200000017881","","","","","","","","","","","","","","","","","","","","",""
"","","","","","html-keyboard-response","99","489038","0.0-2.0-4.0-0.23","6277cd4fea5f69868617658b","E1","batch5","spm_show_trial_num","null","<p class=block-text>Trial 48 out of 60</p>","null","","","","","","","","","","","","","","","","","","","","","","","","","",""
"","","","","","image-button-response","100","500487","0.0-2.0-4.0-1.23","6277cd4fea5f69868617658b","E1","batch5","spm_respsonse","11446.300000011921","img/question_4_12.jpeg","6","mat_48","6","0","0","11446.300000011921","","","","","","","","","","","","","","","","","","","","",""
"","","","","","html-keyboard-response","101","501555","0.0-2.0-4.0-0.24","6277cd4fea5f69868617658b","E1","batch5","spm_show_trial_num","null","<p class=block-text>Trial 49 out of 60</p>","null","","","","","","","","","","","","","","","","","","","","","","","","","",""
"","","","","","image-button-response","102","510785","0.0-2.0-4.0-1.24","6277cd4fea5f69868617658b","E1","batch5","spm_respsonse","9227.09999999404","img/question_5_1.jpeg","1","mat_49","7","0","0","9227.09999999404","","","","","","","","","","","","","","","","","","","","",""
"","","","","","html-keyboard-response","103","511859","0.0-2.0-4.0-0.25","6277cd4fea5f69868617658b","E1","batch5","spm_show_trial_num","null","<p class=block-text>Trial 50 out of 60</p>","null","","","","","","","","","","","","","","","","","","","","","","","","","",""
"","","","","","image-button-response","104","520823","0.0-2.0-4.0-1.25","6277cd4fea5f69868617658b","E1","batch5","spm_respsonse","8960.800000011921","img/question_5_2.jpeg","2","mat_50","6","0","0","8960.800000011921","","","","","","","","","","","","","","","","","","","","",""
"","","","","","html-keyboard-response","105","521892","0.0-2.0-4.0-0.26","6277cd4fea5f69868617658b","E1","batch5","spm_show_trial_num","null","<p class=block-text>Trial 51 out of 60</p>","null","","","","","","","","","","","","","","","","","","","","","","","","","",""
"","","","","","image-button-response","106","529433","0.0-2.0-4.0-1.26","6277cd4fea5f69868617658b","E1","batch5","spm_respsonse","7537.300000011921","img/question_5_3.jpeg","1","mat_51","8","0","0","7537.300000011921","","","","","","","","","","","","","","","","","","","","",""
"","","","","","html-keyboard-response","107","530505","0.0-2.0-4.0-0.27","6277cd4fea5f69868617658b","E1","batch5","spm_show_trial_num","null","<p class=block-text>Trial 52 out of 60</p>","null","","","","","","","","","","","","","","","","","","","","","","","","","",""
"","","","","","image-button-response","108","537897","0.0-2.0-4.0-1.27","6277cd4fea5f69868617658b","E1","batch5","spm_respsonse","7387.4000000059605","img/question_5_4.jpeg","2","mat_52","2","0","0","7387.4000000059605","","","","","","","","","","","","","","","","","","","","",""
"","","","","","html-keyboard-response","109","538970","0.0-2.0-4.0-0.28","6277cd4fea5f69868617658b","E1","batch5","spm_show_trial_num","null","<p class=block-text>Trial 53 out of 60</p>","null","","","","","","","","","","","","","","","","","","","","","","","","","",""
"","","","","","image-button-response","110","557181","0.0-2.0-4.0-1.28","6277cd4fea5f69868617658b","E1","batch5","spm_respsonse","18207.80000001192","img/question_5_5.jpeg","6","mat_53","1","0","0","18207.80000001192","","","","","","","","","","","","","","","","","","","","",""
"","","","","","html-keyboard-response","111","558252","0.0-2.0-4.0-0.29","6277cd4fea5f69868617658b","E1","batch5","spm_show_trial_num","null","<p class=block-text>Trial 54 out of 60</p>","null","","","","","","","","","","","","","","","","","","","","","","","","","",""
"","","","","","image-button-response","112","568950","0.0-2.0-4.0-1.29","6277cd4fea5f69868617658b","E1","batch5","spm_respsonse","10694.90000000596","img/question_5_6.jpeg","3","mat_54","5","0","0","10694.90000000596","","","","","","","","","","","","","","","","","","","","",""
"","","","","","html-keyboard-response","113","570022","0.0-2.0-4.0-0.30","6277cd4fea5f69868617658b","E1","batch5","spm_show_trial_num","null","<p class=block-text>Trial 55 out of 60</p>","null","","","","","","","","","","","","","","","","","","","","","","","","","",""
"","","","","","image-button-response","114","577387","0.0-2.0-4.0-1.30","6277cd4fea5f69868617658b","E1","batch5","spm_respsonse","7362.0999999940395","img/question_5_7.jpeg","6","mat_55","1","0","0","7362.0999999940395","","","","","","","","","","","","","","","","","","","","",""
"","","","","","html-keyboard-response","115","578458","0.0-2.0-4.0-0.31","6277cd4fea5f69868617658b","E1","batch5","spm_show_trial_num","null","<p class=block-text>Trial 56 out of 60</p>","null","","","","","","","","","","","","","","","","","","","","","","","","","",""
"","","","","","image-button-response","116","588473","0.0-2.0-4.0-1.31","6277cd4fea5f69868617658b","E1","batch5","spm_respsonse","10011.699999988079","img/question_5_8.jpeg","4","mat_56","6","0","0","10011.699999988079","","","","","","","","","","","","","","","","","","","","",""
"","","","","","html-keyboard-response","117","589544","0.0-2.0-4.0-0.32","6277cd4fea5f69868617658b","E1","batch5","spm_show_trial_num","null","<p class=block-text>Trial 57 out of 60</p>","null","","","","","","","","","","","","","","","","","","","","","","","","","",""
"","","","","","image-button-response","118","607783","0.0-2.0-4.0-1.32","6277cd4fea5f69868617658b","E1","batch5","spm_respsonse","18234.69999998808","img/question_5_9.jpeg","0","mat_57","3","0","0","18234.69999998808","","","","","","","","","","","","","","","","","","","","",""
"","","","","","html-keyboard-response","119","608855","0.0-2.0-4.0-0.33","6277cd4fea5f69868617658b","E1","batch5","spm_show_trial_num","null","<p class=block-text>Trial 58 out of 60</p>","null","","","","","","","","","","","","","","","","","","","","","","","","","",""
"","","","","","image-button-response","120","614196","0.0-2.0-4.0-1.33","6277cd4fea5f69868617658b","E1","batch5","spm_respsonse","5338.799999982119","img/question_5_10.jpeg","7","mat_58","2","0","0","5338.799999982119","","","","","","","","","","","","","","","","","","","","",""
"","","","","","html-keyboard-response","121","615268","0.0-2.0-4.0-0.34","6277cd4fea5f69868617658b","E1","batch5","spm_show_trial_num","null","<p class=block-text>Trial 59 out of 60</p>","null","","","","","","","","","","","","","","","","","","","","","","","","","",""
"","","","","","image-button-response","122","621518","0.0-2.0-4.0-1.34","6277cd4fea5f69868617658b","E1","batch5","spm_respsonse","6246","img/question_5_11.jpeg","6","mat_59","4","0","0","6246","","","","","","","","","","","","","","","","","","","","",""
"","","","","","html-keyboard-response","123","622591","0.0-2.0-4.0-0.35","6277cd4fea5f69868617658b","E1","batch5","spm_show_trial_num","null","<p class=block-text>Trial 60 out of 60</p>","null","","","","","","","","","","","","","","","","","","","","","","","","","",""
"","","","","","image-button-response","124","631420","0.0-2.0-4.0-1.35","6277cd4fea5f69868617658b","E1","batch5","spm_respsonse","8825.700000017881","img/question_5_12.jpeg","0","mat_60","5","0","0","8825.700000017881","","","","","","","","","","","","","","","","","","","","",""
"","","","","","html-button-response","125","632899","0.0-2.0-5.0","6277cd4fea5f69868617658b","E1","batch5","spm_goodbye","1215.9000000059605","<p class= block-text>This concludes the Standard Progressive Matrix game. Thank you for your responses!<br> When you are ready, click the button continue</p>","0","","","","","","","","","","","","","","","","","","","","","","","","","",""
"true","","","","","fullscreen","126","636116","0.0-3.0-0.0","6277cd4fea5f69868617658b","E1","batch5","","","","","","","","","","","","","","","","","","","","","","","","","","","","","",""
"","","","","","instructions","127","646005","0.0-3.0-1.0-0.0","6277cd4fea5f69868617658b","E1","batch5","","9888.40000000596","","","","","","","","[{""page_index"":0,""viewing_time"":8014.800000011921},{""page_index"":1,""viewing_time"":1873}]","","","","","","","","","","","","","","","","","","","",""
"","","","","","html-button-response","128","648830","0.0-3.0-1.0-1.0-0.0","6277cd4fea5f69868617658b","E1","batch5","pattern_enter_quiz","2823.300000011921","<p class=block-text> Let's answer a few questions <br>","0","","","","","","","","","","","","","","","","","","","","","","","","","",""
"","","","","","html-button-response","129","653154","0.0-3.0-1.0-1.0-1.0","6277cd4fea5f69868617658b","E1","batch5","pattern_quiz","4322.299999982119","<p class = block-text>True or False: You will have as much time as you want to make each choice. <br></p>","1","","","true","","","","","","","","","","","","","","","","","","","","","","",""
"","","","","","html-button-response","130","654495","0.0-3.0-1.0-1.0-2.0","6277cd4fea5f69868617658b","E1","batch5","pattern_quiz_feedback","1337.199999988079","<p class = block-text>Correct! You should make your choice <strong> as fast as you can</strong>.</p>","0","","","","","","","","","","","","","","","","","","","","","","","","","",""
"","","","","","html-button-response","131","657403","0.0-3.0-1.0-1.0-3.0","6277cd4fea5f69868617658b","E1","batch5","pattern_quiz","2906.800000011921","<p class = block-text>True or False: You will look for 4 pieces in black or white color connected in a row either horizontally, vertically or diagonally. <br></p>","0","","","true","","","","","","","","","","","","","","","","","","","","","","",""
"","","","","","html-button-response","132","658674","0.0-3.0-1.0-1.0-4.0","6277cd4fea5f69868617658b","E1","batch5","pattern_quiz_feedback","1268.699999988079","<p class = block-text>Correct! </p>","0","","","","","","","","","","","","","","","","","","","","","","","","","",""
"","","","","","html-button-response","133","660069","0.0-3.0-2.0","6277cd4fea5f69868617658b","E1","batch5","pattern_enter_practice","1391.699999988079","<p class=block-text> Now that you've understood the game, let's do a few practice trials before we start!<br> <br>","0","","","","","","","","","","","","","","","","","","","","","","","","","",""
"","","","","","image-keyboard-response","134","661601","0.0-3.0-3.0-0.0","6277cd4fea5f69868617658b","E1","batch5","pattern_practice","1529.0999999940395","stim/prac_yes_16_ver_w1.png","f","","f","true","","","","","","","","","","","","","","","","","","","","","","",""
"","","","","","html-keyboard-response","135","662615","0.0-3.0-3.0-1.0","6277cd4fea5f69868617658b","E1","batch5","pattern_feedback","null","<p style=""font-size:30px;color:green;"">Correct!</p>","null","","","","","","","","","","","","","","","","","","","","","","","","","",""
"","","","","","image-keyboard-response","136","663699","0.0-3.0-3.0-0.1","6277cd4fea5f69868617658b","E1","batch5","pattern_practice","1082.699999988079","stim/prac_yes_20_dia_b1.png","f","","f","true","","","","","","","","","","","","","","","","","","","","","","",""
"","","","","","html-keyboard-response","137","664714","0.0-3.0-3.0-1.1","6277cd4fea5f69868617658b","E1","batch5","pattern_feedback","null","<p style=""font-size:30px;color:green;"">Correct!</p>","null","","","","","","","","","","","","","","","","","","","","","","","","","",""
"","","","","","image-keyboard-response","138","667775","0.0-3.0-3.0-0.2","6277cd4fea5f69868617658b","E1","batch5","pattern_practice","3058.2000000178814","stim/prac_no_18_1.png","j","","j","true","","","","","","","","","","","","","","","","","","","","","","",""
"","","","","","html-keyboard-response","139","668805","0.0-3.0-3.0-1.2","6277cd4fea5f69868617658b","E1","batch5","pattern_feedback","null","<p style=""font-size:30px;color:green;"">Correct!</p>","null","","","","","","","","","","","","","","","","","","","","","","","","","",""
"","","","","","image-keyboard-response","140","670867","0.0-3.0-3.0-0.3","6277cd4fea5f69868617658b","E1","batch5","pattern_practice","2059.0999999940395","stim/prac_no_16_1.png","j","","j","true","","","","","","","","","","","","","","","","","","","","","","",""
"","","","","","html-keyboard-response","141","671896","0.0-3.0-3.0-1.3","6277cd4fea5f69868617658b","E1","batch5","pattern_feedback","null","<p style=""font-size:30px;color:green;"">Correct!</p>","null","","","","","","","","","","","","","","","","","","","","","","","","","",""
"","","","","","image-keyboard-response","142","672895","0.0-3.0-3.0-0.4","6277cd4fea5f69868617658b","E1","batch5","pattern_practice","996.6000000238419","stim/prac_yes_18_hor_w1.png","f","","f","true","","","","","","","","","","","","","","","","","","","","","","",""
"","","","","","html-keyboard-response","143","673919","0.0-3.0-3.0-1.4","6277cd4fea5f69868617658b","E1","batch5","pattern_feedback","null","<p style=""font-size:30px;color:green;"">Correct!</p>","null","","","","","","","","","","","","","","","","","","","","","","","","","",""
"","","","","","html-button-response","144","676356","0.0-3.0-4.0","6277cd4fea5f69868617658b","E1","batch5","pattern_enter_official_trials","2434.300000011921","<p class=block-text> Good job! You are done with practice trials!<br>
        You responded correctly on 100% of the trials.<br>
        Press the button below to start official trials. Now you won't see any feedback about your response</p>","0","","","","","","","","","","","","","","","","","","","","","","","","","",""
"","","","","","html-keyboard-response","145","677172","0.0-3.0-5.0-0.0","6277cd4fea5f69868617658b","E1","batch5","pattern_show_trial_num","null","<p class=block-text>Trial 1 out of 78</p>","null","","","","","","","","","","","","","","","","","","","","","","","","","",""
"","","","","","image-keyboard-response","146","678681","0.0-3.0-5.0-1.0","6277cd4fea5f69868617658b","E1","batch5","pattern_response","1505.4000000059605","stim/yes_46_ver_b1_b.png","f","pattern_68","f","true","","","","1505.4000000059605","true","1","","","","","","","","","","","","","","","","",""
"","","","","","html-keyboard-response","147","679992","0.0-3.0-5.0-0.1","6277cd4fea5f69868617658b","E1","batch5","pattern_show_trial_num","null","<p class=block-text>Trial 2 out of 78</p>","null","","","","","","","","","","","","","","","","","","","","","","","","","",""
"","","","","","image-keyboard-response","148","681489","0.0-3.0-5.0-1.1","6277cd4fea5f69868617658b","E1","batch5","pattern_response","1494.7000000178814","stim/no_30_1_b.png","f","pattern_13","j","false","","","","1494.7000000178814","false","1","","","","","","","","","","","","","","","","",""
"","","","","","html-keyboard-response","149","682807","0.0-3.0-5.0-0.2","6277cd4fea5f69868617658b","E1","batch5","pattern_show_trial_num","null","<p class=block-text>Trial 3 out of 78</p>","null","","","","","","","","","","","","","","","","","","","","","","","","","",""
"","","","","","image-keyboard-response","150","683936","0.0-3.0-5.0-1.2","6277cd4fea5f69868617658b","E1","batch5","pattern_response","1127.300000011921","stim/yes_49_hor_w1_b.png","f","pattern_70","f","true","","","","1127.300000011921","true","2","","","","","","","","","","","","","","","","",""
"","","","","","html-keyboard-response","151","685248","0.0-3.0-5.0-0.3","6277cd4fea5f69868617658b","E1","batch5","pattern_show_trial_num","null","<p class=block-text>Trial 4 out of 78</p>","null","","","","","","","","","","","","","","","","","","","","","","","","","",""
"","","","","","image-keyboard-response","152","685876","0.0-3.0-5.0-1.3","6277cd4fea5f69868617658b","E1","batch5","pattern_response","625.5999999940395","stim/no_12_1.png","j","pattern_01","j","true","","","","625.5999999940395","true","3","","","","","","","","","","","","","","","","",""
"","","","","","html-keyboard-response","153","687223","0.0-3.0-5.0-0.4","6277cd4fea5f69868617658b","E1","batch5","pattern_show_trial_num","null","<p class=block-text>Trial 5 out of 78</p>","null","","","","","","","","","","","","","","","","","","","","","","","","","",""
"","","","","","image-keyboard-response","154","687943","0.0-3.0-5.0-1.4","6277cd4fea5f69868617658b","E1","batch5","pattern_response","718.5","stim/yes_12_hor_w1_w.png","f","pattern_42","f","true","","","","718.5","true","4","","","","","","","","","","","","","","","","",""
"","","","","","html-keyboard-response","155","689272","0.0-3.0-5.0-0.5","6277cd4fea5f69868617658b","E1","batch5","pattern_show_trial_num","null","<p class=block-text>Trial 6 out of 78</p>","null","","","","","","","","","","","","","","","","","","","","","","","","","",""
"","","","","","image-keyboard-response","156","691366","0.0-3.0-5.0-1.5","6277cd4fea5f69868617658b","E1","batch5","pattern_response","2092.199999988079","stim/yes_33_dia_w1_w.png","j","pattern_56","f","false","","","","2092.199999988079","false","4","","","","","","","","","","","","","","","","",""
"","","","","","html-keyboard-response","157","692680","0.0-3.0-5.0-0.6","6277cd4fea5f69868617658b","E1","batch5","pattern_show_trial_num","null","<p class=block-text>Trial 7 out of 78</p>","null","","","","","","","","","","","","","","","","","","","","","","","","","",""
"","","","","","image-keyboard-response","158","693555","0.0-3.0-5.0-1.6","6277cd4fea5f69868617658b","E1","batch5","pattern_response","873.0999999940395","stim/yes_26_dia_w2_w.png","f","pattern_50","f","true","","","","873.0999999940395","true","5","","","","","","","","","","","","","","","","",""
"","","","","","html-keyboard-response","159","694875","0.0-3.0-5.0-0.7","6277cd4fea5f69868617658b","E1","batch5","pattern_show_trial_num","null","<p class=block-text>Trial 8 out of 78</p>","null","","","","","","","","","","","","","","","","","","","","","","","","","",""
"","","","","","image-keyboard-response","160","696470","0.0-3.0-5.0-1.7","6277cd4fea5f69868617658b","E1","batch5","pattern_response","1592.8999999761581","stim/no_22_1_b.png","j","pattern_07","j","true","","","","1592.8999999761581","true","6","","","","","","","","","","","","","","","","",""
"","","","","","html-keyboard-response","161","697785","0.0-3.0-5.0-0.8","6277cd4fea5f69868617658b","E1","batch5","pattern_show_trial_num","null","<p class=block-text>Trial 9 out of 78</p>","null","","","","","","","","","","","","","","","","","","","","","","","","","",""
"","","","","","image-keyboard-response","162","699692","0.0-3.0-5.0-1.8","6277cd4fea5f69868617658b","E1","batch5","pattern_response","1904.4000000059605","stim/no_39_1_w.png","j","pattern_21","j","true","","","","1904.4000000059605","true","7","","","","","","","","","","","","","","","","",""
"","","","","","html-keyboard-response","163","701016","0.0-3.0-5.0-0.9","6277cd4fea5f69868617658b","E1","batch5","pattern_show_trial_num","null","<p class=block-text>Trial 10 out of 78</p>","null","","","","","","","","","","","","","","","","","","","","","","","","","",""
"","","","","","image-keyboard-response","164","702075","0.0-3.0-5.0-1.9","6277cd4fea5f69868617658b","E1","batch5","pattern_response","1057.800000011921","stim/no_18_1_b.png","j","pattern_05","j","true","","","","1057.800000011921","true","8","","","","","","","","","","","","","","","","",""
"","","","","","html-keyboard-response","165","703394","0.0-3.0-5.0-0.10","6277cd4fea5f69868617658b","E1","batch5","pattern_show_trial_num","null","<p class=block-text>Trial 11 out of 78</p>","null","","","","","","","","","","","","","","","","","","","","","","","","","",""
"","","","","","image-keyboard-response","166","709578","0.0-3.0-5.0-1.10","6277cd4fea5f69868617658b","E1","batch5","pattern_response","6181.0999999940395","stim/no_58_1_w.png","j","pattern_35","j","true","","","","6181.0999999940395","true","9","","","","","","","","","","","","","","","","",""
"","","","","","html-keyboard-response","167","710889","0.0-3.0-5.0-0.11","6277cd4fea5f69868617658b","E1","batch5","pattern_show_trial_num","null","<p class=block-text>Trial 12 out of 78</p>","null","","","","","","","","","","","","","","","","","","","","","","","","","",""
"","","","","","image-keyboard-response","168","714955","0.0-3.0-5.0-1.11","6277cd4fea5f69868617658b","E1","batch5","pattern_response","4063.5","stim/yes_42_dia_w1_w.png","j","pattern_64","f","false","","","","4063.5","false","9","","","","","","","","","","","","","","","","",""
"","","","","","html-keyboard-response","169","716271","0.0-3.0-5.0-0.12","6277cd4fea5f69868617658b","E1","batch5","pattern_show_trial_num","null","<p class=block-text>Trial 13 out of 78</p>","null","","","","","","","","","","","","","","","","","","","","","","","","","",""
"","","","","","image-keyboard-response","170","719499","0.0-3.0-5.0-1.12","6277cd4fea5f69868617658b","E1","batch5","pattern_response","3224.800000011921","stim/no_33_1_b.png","j","pattern_15","j","true","","","","3224.800000011921","true","10","","","","","","","","","","","","","","","","",""
"","","","","","html-keyboard-response","171","720813","0.0-3.0-5.0-0.13","6277cd4fea5f69868617658b","E1","batch5","pattern_show_trial_num","null","<p class=block-text>Trial 14 out of 78</p>","null","","","","","","","","","","","","","","","","","","","","","","","","","",""
"","","","","","image-keyboard-response","172","723593","0.0-3.0-5.0-1.13","6277cd4fea5f69868617658b","E1","batch5","pattern_response","2776.9000000059605","stim/no_28_2.png","j","pattern_11","j","true","","","","2776.9000000059605","true","11","","","","","","","","","","","","","","","","",""
"","","","","","html-keyboard-response","173","724904","0.0-3.0-5.0-0.14","6277cd4fea5f69868617658b","E1","batch5","pattern_show_trial_num","null","<p class=block-text>Trial 15 out of 78</p>","null","","","","","","","","","","","","","","","","","","","","","","","","","",""
"","","","","","image-keyboard-response","174","727648","0.0-3.0-5.0-1.14","6277cd4fea5f69868617658b","E1","batch5","pattern_response","2741.300000011921","stim/yes_44_ver_w1_w.png","j","pattern_66","f","false","","","","2741.300000011921","false","11","","","","","","","","","","","","","","","","",""
"","","","","","html-keyboard-response","175","728983","0.0-3.0-5.0-0.15","6277cd4fea5f69868617658b","E1","batch5","pattern_show_trial_num","null","<p class=block-text>Trial 16 out of 78</p>","null","","","","","","","","","","","","","","","","","","","","","","","","","",""
"","","","","","image-keyboard-response","176","737907","0.0-3.0-5.0-1.15","6277cd4fea5f69868617658b","E1","batch5","pattern_response","8921.700000017881","stim/no_67_1.png","j","pattern_39","j","true","","","","8921.700000017881","true","12","","","","","","","","","","","","","","","","",""
"","","","","","html-keyboard-response","177","739223","0.0-3.0-5.0-0.16","6277cd4fea5f69868617658b","E1","batch5","pattern_show_trial_num","null","<p class=block-text>Trial 17 out of 78</p>","null","","","","","","","","","","","","","","","","","","","","","","","","","",""
"","","","","","image-keyboard-response","178","742945","0.0-3.0-5.0-1.16","6277cd4fea5f69868617658b","E1","batch5","pattern_response","3719.5999999940395","stim/no_49_2_b.png","j","pattern_29","j","true","","","","3719.5999999940395","true","13","","","","","","","","","","","","","","","","",""
"","","","","","html-keyboard-response","179","744268","0.0-3.0-5.0-0.17","6277cd4fea5f69868617658b","E1","batch5","pattern_show_trial_num","null","<p class=block-text>Trial 18 out of 78</p>","null","","","","","","","","","","","","","","","","","","","","","","","","","",""
"","","","","","image-keyboard-response","180","748150","0.0-3.0-5.0-1.17","6277cd4fea5f69868617658b","E1","batch5","pattern_response","3879.2999999821186","stim/no_36_1_b.png","j","pattern_17","j","true","","","","3879.2999999821186","true","14","","","","","","","","","","","","","","","","",""
"","","","","","html-keyboard-response","181","749463","0.0-3.0-5.0-0.18","6277cd4fea5f69868617658b","E1","batch5","pattern_show_trial_num","null","<p class=block-text>Trial 19 out of 78</p>","null","","","","","","","","","","","","","","","","","","","","","","","","","",""
"","","","","","image-keyboard-response","182","752487","0.0-3.0-5.0-1.18","6277cd4fea5f69868617658b","E1","batch5","pattern_response","3020.2999999821186","stim/no_25_1_b.png","j","pattern_09","j","true","","","","3020.2999999821186","true","15","","","","","","","","","","","","","","","","",""
"","","","","","html-keyboard-response","183","753820","0.0-3.0-5.0-0.19","6277cd4fea5f69868617658b","E1","batch5","pattern_show_trial_num","null","<p class=block-text>Trial 20 out of 78</p>","null","","","","","","","","","","","","","","","","","","","","","","","","","",""
"","","","","","image-keyboard-response","184","754789","0.0-3.0-5.0-1.19","6277cd4fea5f69868617658b","E1","batch5","pattern_response","966.5999999940395","stim/yes_37_hor_w1_w.png","f","pattern_60","f","true","","","","966.5999999940395","true","16","","","","","","","","","","","","","","","","",""
"","","","","","html-keyboard-response","185","756105","0.0-3.0-5.0-0.20","6277cd4fea5f69868617658b","E1","batch5","pattern_show_trial_num","null","<p class=block-text>Trial 21 out of 78</p>","null","","","","","","","","","","","","","","","","","","","","","","","","","",""
"","","","","","image-keyboard-response","186","757292","0.0-3.0-5.0-1.20","6277cd4fea5f69868617658b","E1","batch5","pattern_response","1185","stim/yes_70_ver_b1.png","f","pattern_80","f","true","","","","1185","true","17","","","","","","","","","","","","","","","","",""
"","","","","","html-keyboard-response","187","758611","0.0-3.0-5.0-0.21","6277cd4fea5f69868617658b","E1","batch5","pattern_show_trial_num","null","<p class=block-text>Trial 22 out of 78</p>","null","","","","","","","","","","","","","","","","","","","","","","","","","",""
"","","","","","image-keyboard-response","188","764288","0.0-3.0-5.0-1.21","6277cd4fea5f69868617658b","E1","batch5","pattern_response","5674.0999999940395","stim/yes_58_dia_w1_w.png","j","pattern_76","f","false","","","","5674.0999999940395","false","17","","","","","","","","","","","","","","","","",""
"","","","","","html-keyboard-response","189","765612","0.0-3.0-5.0-0.22","6277cd4fea5f69868617658b","E1","batch5","pattern_show_trial_num","null","<p class=block-text>Trial 23 out of 78</p>","null","","","","","","","","","","","","","","","","","","","","","","","","","",""
"","","","","","image-keyboard-response","190","766457","0.0-3.0-5.0-1.22","6277cd4fea5f69868617658b","E1","batch5","pattern_response","841.4000000059605","stim/yes_23_ver_b1.png","f","pattern_48","f","true","","","","841.4000000059605","true","18","","","","","","","","","","","","","","","","",""
"","","","","","html-keyboard-response","191","767773","0.0-3.0-5.0-0.23","6277cd4fea5f69868617658b","E1","batch5","pattern_show_trial_num","null","<p class=block-text>Trial 24 out of 78</p>","null","","","","","","","","","","","","","","","","","","","","","","","","","",""
"","","","","","image-keyboard-response","192","769600","0.0-3.0-5.0-1.23","6277cd4fea5f69868617658b","E1","batch5","pattern_response","1826.199999988079","stim/yes_53_ver_b1_b.png","f","pattern_74","f","true","","","","1826.199999988079","true","19","","","","","","","","","","","","","","","","",""
"","","","","","html-keyboard-response","193","770915","0.0-3.0-5.0-0.24","6277cd4fea5f69868617658b","E1","batch5","pattern_show_trial_num","null","<p class=block-text>Trial 25 out of 78</p>","null","","","","","","","","","","","","","","","","","","","","","","","","","",""
"","","","","","image-keyboard-response","194","775472","0.0-3.0-5.0-1.24","6277cd4fea5f69868617658b","E1","batch5","pattern_response","4554.200000017881","stim/yes_51_dia_b1.png","j","pattern_72","f","false","","","","4554.200000017881","false","19","","","","","","","","","","","","","","","","",""
"","","","","","html-keyboard-response","195","776785","0.0-3.0-5.0-0.25","6277cd4fea5f69868617658b","E1","batch5","pattern_show_trial_num","null","<p class=block-text>Trial 26 out of 78</p>","null","","","","","","","","","","","","","","","","","","","","","","","","","",""
"","","","","","image-keyboard-response","196","780343","0.0-3.0-5.0-1.25","6277cd4fea5f69868617658b","E1","batch5","pattern_response","3555.2000000178814","stim/no_43_2_b.png","j","pattern_23","j","true","","","","3555.2000000178814","true","20","","","","","","","","","","","","","","","","",""
"","","","","","html-keyboard-response","197","781653","0.0-3.0-5.0-0.26","6277cd4fea5f69868617658b","E1","batch5","pattern_show_trial_num","null","<p class=block-text>Trial 27 out of 78</p>","null","","","","","","","","","","","","","","","","","","","","","","","","","",""
"","","","","","image-keyboard-response","198","782476","0.0-3.0-5.0-1.26","6277cd4fea5f69868617658b","E1","batch5","pattern_response","821","stim/yes_30_ver_b1_b.png","f","pattern_54","f","true","","","","821","true","21","","","","","","","","","","","","","","","","",""
"","","","","","html-keyboard-response","199","783782","0.0-3.0-5.0-0.27","6277cd4fea5f69868617658b","E1","batch5","pattern_show_trial_num","null","<p class=block-text>Trial 28 out of 78</p>","null","","","","","","","","","","","","","","","","","","","","","","","","","",""
"","","","","","image-keyboard-response","200","784565","0.0-3.0-5.0-1.27","6277cd4fea5f69868617658b","E1","batch5","pattern_response","780.8000000119209","stim/yes_29_hor_b1_b.png","f","pattern_52","f","true","","","","780.8000000119209","true","22","","","","","","","","","","","","","","","","",""
"","","","","","html-keyboard-response","201","785884","0.0-3.0-5.0-0.28","6277cd4fea5f69868617658b","E1","batch5","pattern_show_trial_num","null","<p class=block-text>Trial 29 out of 78</p>","null","","","","","","","","","","","","","","","","","","","","","","","","","",""
"","","","","","image-keyboard-response","202","786873","0.0-3.0-5.0-1.28","6277cd4fea5f69868617658b","E1","batch5","pattern_response","988","stim/no_15_1_w.png","j","pattern_03","j","true","","","","988","true","23","","","","","","","","","","","","","","","","",""
"","","","","","html-keyboard-response","203","788194","0.0-3.0-5.0-0.29","6277cd4fea5f69868617658b","E1","batch5","pattern_show_trial_num","null","<p class=block-text>Trial 30 out of 78</p>","null","","","","","","","","","","","","","","","","","","","","","","","","","",""
"","","","","","image-keyboard-response","204","791007","0.0-3.0-5.0-1.29","6277cd4fea5f69868617658b","E1","batch5","pattern_response","2810.7999999821186","stim/no_47_1_b.png","j","pattern_27","j","true","","","","2810.7999999821186","true","24","","","","","","","","","","","","","","","","",""
"","","","","","html-keyboard-response","205","792334","0.0-3.0-5.0-0.30","6277cd4fea5f69868617658b","E1","batch5","pattern_show_trial_num","null","<p class=block-text>Trial 31 out of 78</p>","null","","","","","","","","","","","","","","","","","","","","","","","","","",""
"","","","","","image-keyboard-response","206","796319","0.0-3.0-5.0-1.30","6277cd4fea5f69868617658b","E1","batch5","pattern_response","3982.9000000059605","stim/no_45_1_w.png","j","pattern_25","j","true","","","","3982.9000000059605","true","25","","","","","","","","","","","","","","","","",""
"","","","","","html-keyboard-response","207","797631","0.0-3.0-5.0-0.31","6277cd4fea5f69868617658b","E1","batch5","pattern_show_trial_num","null","<p class=block-text>Trial 32 out of 78</p>","null","","","","","","","","","","","","","","","","","","","","","","","","","",""
"","","","","","image-keyboard-response","208","799389","0.0-3.0-5.0-1.31","6277cd4fea5f69868617658b","E1","batch5","pattern_response","1754.699999988079","stim/no_37_2_w.png","j","pattern_19","j","true","","","","1754.699999988079","true","26","","","","","","","","","","","","","","","","",""
"","","","","","html-keyboard-response","209","800700","0.0-3.0-5.0-0.32","6277cd4fea5f69868617658b","E1","batch5","pattern_show_trial_num","null","<p class=block-text>Trial 33 out of 78</p>","null","","","","","","","","","","","","","","","","","","","","","","","","","",""
"","","","","","image-keyboard-response","210","801317","0.0-3.0-5.0-1.32","6277cd4fea5f69868617658b","E1","batch5","pattern_response","614.6000000238419","stim/yes_39_hor_w1_w.png","f","pattern_62","f","true","","","","614.6000000238419","true","27","","","","","","","","","","","","","","","","",""
"","","","","","html-keyboard-response","211","802637","0.0-3.0-5.0-0.33","6277cd4fea5f69868617658b","E1","batch5","pattern_show_trial_num","null","<p class=block-text>Trial 34 out of 78</p>","null","","","","","","","","","","","","","","","","","","","","","","","","","",""
"","","","","","image-keyboard-response","212","808116","0.0-3.0-5.0-1.33","6277cd4fea5f69868617658b","E1","batch5","pattern_response","5477.300000011921","stim/no_53_1_b.png","j","pattern_33","j","true","","","","5477.300000011921","true","28","","","","","","","","","","","","","","","","",""
"","","","","","html-keyboard-response","213","809436","0.0-3.0-5.0-0.34","6277cd4fea5f69868617658b","E1","batch5","pattern_show_trial_num","null","<p class=block-text>Trial 35 out of 78</p>","null","","","","","","","","","","","","","","","","","","","","","","","","","",""
"","","","","","image-keyboard-response","214","810164","0.0-3.0-5.0-1.34","6277cd4fea5f69868617658b","E1","batch5","pattern_response","724.6999999880791","stim/yes_17_ver_b1_b.png","f","pattern_46","f","true","","","","724.6999999880791","true","29","","","","","","","","","","","","","","","","",""
"","","","","","html-keyboard-response","215","811475","0.0-3.0-5.0-0.35","6277cd4fea5f69868617658b","E1","batch5","pattern_show_trial_num","null","<p class=block-text>Trial 36 out of 78</p>","null","","","","","","","","","","","","","","","","","","","","","","","","","",""
"","","","","","image-keyboard-response","216","813024","0.0-3.0-5.0-1.35","6277cd4fea5f69868617658b","E1","batch5","pattern_response","1547.7999999821186","stim/yes_63_dia_b1.png","f","pattern_78","f","true","","","","1547.7999999821186","true","30","","","","","","","","","","","","","","","","",""
"","","","","","html-keyboard-response","217","814336","0.0-3.0-5.0-0.36","6277cd4fea5f69868617658b","E1","batch5","pattern_show_trial_num","null","<p class=block-text>Trial 37 out of 78</p>","null","","","","","","","","","","","","","","","","","","","","","","","","","",""
"","","","","","image-keyboard-response","218","820306","0.0-3.0-5.0-1.36","6277cd4fea5f69868617658b","E1","batch5","pattern_response","5968.700000017881","stim/no_51_1.png","j","pattern_31","j","true","","","","5968.700000017881","true","31","","","","","","","","","","","","","","","","",""
"","","","","","html-keyboard-response","219","821622","0.0-3.0-5.0-0.37","6277cd4fea5f69868617658b","E1","batch5","pattern_show_trial_num","null","<p class=block-text>Trial 38 out of 78</p>","null","","","","","","","","","","","","","","","","","","","","","","","","","",""
"","","","","","image-keyboard-response","220","822343","0.0-3.0-5.0-1.37","6277cd4fea5f69868617658b","E1","batch5","pattern_response","717.6000000238419","stim/yes_36_ver_w1_w.png","f","pattern_58","f","true","","","","717.6000000238419","true","32","","","","","","","","","","","","","","","","",""
"","","","","","html-keyboard-response","221","823659","0.0-3.0-5.0-0.38","6277cd4fea5f69868617658b","E1","batch5","pattern_show_trial_num","null","<p class=block-text>Trial 39 out of 78</p>","null","","","","","","","","","","","","","","","","","","","","","","","","","",""
"","","","","","image-keyboard-response","222","824482","0.0-3.0-5.0-1.38","6277cd4fea5f69868617658b","E1","batch5","pattern_response","820.6999999880791","stim/yes_15_dia_b1u_b.png","f","pattern_44","f","true","","","","820.6999999880791","true","33","","","","","","","","","","","","","","","","",""
"","","","","","image-keyboard-response","223","827481","0.0-3.0-6.0","6277cd4fea5f69868617658b","E1","batch5","attention_check","2496.4000000059605","stim/empty_board.png","j","","j","true","","","","","","","500","[""f"",""j""]","","","","","","","","","","","","","","",""
"","","","","","html-keyboard-response","224","828297","0.0-3.0-7.0-0.0","6277cd4fea5f69868617658b","E1","batch5","pattern_show_trial_num","null","<p class=block-text>Trial 40 out of 78</p>","null","","","","","","","","","","","","","","","","","","","","","","","","","",""
"","","","","","image-keyboard-response","225","842115","0.0-3.0-7.0-1.0","6277cd4fea5f69868617658b","E1","batch5","pattern_response","13815","stim/no_70_2.png","j","pattern_40","j","true","","","","13815","true","34","","","","","","","","","","","","","","","","",""
"","","","","","html-keyboard-response","226","843436","0.0-3.0-7.0-0.1","6277cd4fea5f69868617658b","E1","batch5","pattern_show_trial_num","null","<p class=block-text>Trial 41 out of 78</p>","null","","","","","","","","","","","","","","","","","","","","","","","","","",""
"","","","","","image-keyboard-response","227","844660","0.0-3.0-7.0-1.1","6277cd4fea5f69868617658b","E1","batch5","pattern_response","1221.3999999761581","stim/no_36_2_w.png","f","pattern_18","j","false","","","","1221.3999999761581","false","34","","","","","","","","","","","","","","","","",""
"","","","","","html-keyboard-response","228","845976","0.0-3.0-7.0-0.2","6277cd4fea5f69868617658b","E1","batch5","pattern_show_trial_num","null","<p class=block-text>Trial 42 out of 78</p>","null","","","","","","","","","","","","","","","","","","","","","","","","","",""
"","","","","","image-keyboard-response","229","846669","0.0-3.0-7.0-1.2","6277cd4fea5f69868617658b","E1","batch5","pattern_response","691.3000000119209","stim/no_26_1_w.png","f","pattern_10","j","false","","","","691.3000000119209","false","34","","","","","","","","","","","","","","","","",""
"","","","","","html-keyboard-response","230","847996","0.0-3.0-7.0-0.3","6277cd4fea5f69868617658b","E1","batch5","pattern_show_trial_num","null","<p class=block-text>Trial 43 out of 78</p>","null","","","","","","","","","","","","","","","","","","","","","","","","","",""
"","","","","","image-keyboard-response","231","855991","0.0-3.0-7.0-1.3","6277cd4fea5f69868617658b","E1","batch5","pattern_response","7978.199999988079","stim/no_62_1_w.png","j","pattern_36","j","true","","","","7978.199999988079","true","35","","","","","","","","","","","","","","","","",""
"","","","","","html-keyboard-response","232","857305","0.0-3.0-7.0-0.4","6277cd4fea5f69868617658b","E1","batch5","pattern_show_trial_num","null","<p class=block-text>Trial 44 out of 78</p>","null","","","","","","","","","","","","","","","","","","","","","","","","","",""
"","","","","","image-keyboard-response","233","859197","0.0-3.0-7.0-1.4","6277cd4fea5f69868617658b","E1","batch5","pattern_response","1889.800000011921","stim/yes_25_hor_b1_b.png","j","pattern_49","f","false","","","","1889.800000011921","false","35","","","","","","","","","","","","","","","","",""
"","","","","","html-keyboard-response","234","860520","0.0-3.0-7.0-0.5","6277cd4fea5f69868617658b","E1","batch5","pattern_show_trial_num","null","<p class=block-text>Trial 45 out of 78</p>","null","","","","","","","","","","","","","","","","","","","","","","","","","",""
"","","","","","image-keyboard-response","235","865159","0.0-3.0-7.0-1.5","6277cd4fea5f69868617658b","E1","batch5","pattern_response","4636.9000000059605","stim/yes_48_dia_w1_w.png","f","pattern_69","f","true","","","","4636.9000000059605","true","36","","","","","","","","","","","","","","","","",""
"","","","","","html-keyboard-response","236","866469","0.0-3.0-7.0-0.6","6277cd4fea5f69868617658b","E1","batch5","pattern_show_trial_num","null","<p class=block-text>Trial 46 out of 78</p>","null","","","","","","","","","","","","","","","","","","","","","","","","","",""
"","","","","","image-keyboard-response","237","870250","0.0-3.0-7.0-1.6","6277cd4fea5f69868617658b","E1","batch5","pattern_response","3778.899999976158","stim/yes_40_dia_b1_b.png","j","pattern_63","f","false","","","","3778.899999976158","false","36","","","","","","","","","","","","","","","","",""
"","","","","","html-keyboard-response","238","871562","0.0-3.0-7.0-0.7","6277cd4fea5f69868617658b","E1","batch5","pattern_show_trial_num","null","<p class=block-text>Trial 47 out of 78</p>","null","","","","","","","","","","","","","","","","","","","","","","","","","",""
"","","","","","image-keyboard-response","239","878002","0.0-3.0-7.0-1.7","6277cd4fea5f69868617658b","E1","batch5","pattern_response","6437.699999988079","stim/no_50_1.png","j","pattern_30","j","true","","","","6437.699999988079","true","37","","","","","","","","","","","","","","","","",""
"","","","","","html-keyboard-response","240","879318","0.0-3.0-7.0-0.8","6277cd4fea5f69868617658b","E1","batch5","pattern_show_trial_num","null","<p class=block-text>Trial 48 out of 78</p>","null","","","","","","","","","","","","","","","","","","","","","","","","","",""
"","","","","","image-keyboard-response","241","880209","0.0-3.0-7.0-1.8","6277cd4fea5f69868617658b","E1","batch5","pattern_response","888","stim/no_20_1_w.png","j","pattern_06","j","true","","","","888","true","38","","","","","","","","","","","","","","","","",""
"","","","","","html-keyboard-response","242","881529","0.0-3.0-7.0-0.9","6277cd4fea5f69868617658b","E1","batch5","pattern_show_trial_num","null","<p class=block-text>Trial 49 out of 78</p>","null","","","","","","","","","","","","","","","","","","","","","","","","","",""
"","","","","","image-keyboard-response","243","888018","0.0-3.0-7.0-1.9","6277cd4fea5f69868617658b","E1","batch5","pattern_response","6486.9000000059605","stim/no_52_1.png","j","pattern_32","j","true","","","","6486.9000000059605","true","39","","","","","","","","","","","","","","","","",""
"","","","","","html-keyboard-response","244","889340","0.0-3.0-7.0-0.10","6277cd4fea5f69868617658b","E1","batch5","pattern_show_trial_num","null","<p class=block-text>Trial 50 out of 78</p>","null","","","","","","","","","","","","","","","","","","","","","","","","","",""
"","","","","","image-keyboard-response","245","890412","0.0-3.0-7.0-1.10","6277cd4fea5f69868617658b","E1","batch5","pattern_response","1069.7000000178814","stim/no_13_2_b.png","j","pattern_02","j","true","","","","1069.7000000178814","true","40","","","","","","","","","","","","","","","","",""
"","","","","","html-keyboard-response","246","891738","0.0-3.0-7.0-0.11","6277cd4fea5f69868617658b","E1","batch5","pattern_show_trial_num","null","<p class=block-text>Trial 51 out of 78</p>","null","","","","","","","","","","","","","","","","","","","","","","","","","",""
"","","","","","image-keyboard-response","247","893267","0.0-3.0-7.0-1.11","6277cd4fea5f69868617658b","E1","batch5","pattern_response","1527.699999988079","stim/yes_45_hor_b2_b.png","f","pattern_67","f","true","","","","1527.699999988079","true","41","","","","","","","","","","","","","","","","",""
"","","","","","html-keyboard-response","248","894587","0.0-3.0-7.0-0.12","6277cd4fea5f69868617658b","E1","batch5","pattern_show_trial_num","null","<p class=block-text>Trial 52 out of 78</p>","null","","","","","","","","","","","","","","","","","","","","","","","","","",""
"","","","","","image-keyboard-response","249","896694","0.0-3.0-7.0-1.12","6277cd4fea5f69868617658b","E1","batch5","pattern_response","2105.5999999940395","stim/yes_38_hor_b1_b.png","j","pattern_61","f","false","","","","2105.5999999940395","false","41","","","","","","","","","","","","","","","","",""
"","","","","","html-keyboard-response","250","898013","0.0-3.0-7.0-0.13","6277cd4fea5f69868617658b","E1","batch5","pattern_show_trial_num","null","<p class=block-text>Trial 53 out of 78</p>","null","","","","","","","","","","","","","","","","","","","","","","","","","",""
"","","","","","image-keyboard-response","251","903788","0.0-3.0-7.0-1.13","6277cd4fea5f69868617658b","E1","batch5","pattern_response","5772.5","stim/no_46_1_b.png","j","pattern_26","j","true","","","","5772.5","true","42","","","","","","","","","","","","","","","","",""
"","","","","","html-keyboard-response","252","905111","0.0-3.0-7.0-0.14","6277cd4fea5f69868617658b","E1","batch5","pattern_show_trial_num","null","<p class=block-text>Trial 54 out of 78</p>","null","","","","","","","","","","","","","","","","","","","","","","","","","",""
"","","","","","image-keyboard-response","253","909781","0.0-3.0-7.0-1.14","6277cd4fea5f69868617658b","E1","batch5","pattern_response","4667","stim/yes_50_dia_w1.png","f","pattern_71","f","true","","","","4667","true","43","","","","","","","","","","","","","","","","",""
"","","","","","html-keyboard-response","254","911103","0.0-3.0-7.0-0.15","6277cd4fea5f69868617658b","E1","batch5","pattern_show_trial_num","null","<p class=block-text>Trial 55 out of 78</p>","null","","","","","","","","","","","","","","","","","","","","","","","","","",""
"","","","","","image-keyboard-response","255","911890","0.0-3.0-7.0-1.15","6277cd4fea5f69868617658b","E1","batch5","pattern_response","784.9000000059605","stim/yes_17_dia_w1.png","f","pattern_45","f","true","","","","784.9000000059605","true","44","","","","","","","","","","","","","","","","",""
"","","","","","html-keyboard-response","256","913198","0.0-3.0-7.0-0.16","6277cd4fea5f69868617658b","E1","batch5","pattern_show_trial_num","null","<p class=block-text>Trial 56 out of 78</p>","null","","","","","","","","","","","","","","","","","","","","","","","","","",""
"","","","","","image-keyboard-response","257","923355","0.0-3.0-7.0-1.16","6277cd4fea5f69868617658b","E1","batch5","pattern_response","10155.300000011921","stim/no_65_1_b.png","j","pattern_38","j","true","","","","10155.300000011921","true","45","","","","","","","","","","","","","","","","",""
"","","","","","html-keyboard-response","258","924678","0.0-3.0-7.0-0.17","6277cd4fea5f69868617658b","E1","batch5","pattern_show_trial_num","null","<p class=block-text>Trial 57 out of 78</p>","null","","","","","","","","","","","","","","","","","","","","","","","","","",""
"","","","","","image-keyboard-response","259","926472","0.0-3.0-7.0-1.17","6277cd4fea5f69868617658b","E1","batch5","pattern_response","1791.2999999821186","stim/yes_35_dia_b1.png","f","pattern_57","f","true","","","","1791.2999999821186","true","46","","","","","","","","","","","","","","","","",""
"","","","","","html-keyboard-response","260","927784","0.0-3.0-7.0-0.18","6277cd4fea5f69868617658b","E1","batch5","pattern_show_trial_num","null","<p class=block-text>Trial 58 out of 78</p>","null","","","","","","","","","","","","","","","","","","","","","","","","","",""
"","","","","","image-keyboard-response","261","931389","0.0-3.0-7.0-1.18","6277cd4fea5f69868617658b","E1","batch5","pattern_response","3602.9000000059605","stim/yes_37_dia_w1.png","f","pattern_59","f","true","","","","3602.9000000059605","true","47","","","","","","","","","","","","","","","","",""
"","","","","","html-keyboard-response","262","932699","0.0-3.0-7.0-0.19","6277cd4fea5f69868617658b","E1","batch5","pattern_show_trial_num","null","<p class=block-text>Trial 59 out of 78</p>","null","","","","","","","","","","","","","","","","","","","","","","","","","",""
"","","","","","image-keyboard-response","263","939437","0.0-3.0-7.0-1.19","6277cd4fea5f69868617658b","E1","batch5","pattern_response","6735.0999999940395","stim/no_32_1_w.png","j","pattern_14","j","true","","","","6735.0999999940395","true","48","","","","","","","","","","","","","","","","",""
"","","","","","html-keyboard-response","264","940759","0.0-3.0-7.0-0.20","6277cd4fea5f69868617658b","E1","batch5","pattern_show_trial_num","null","<p class=block-text>Trial 60 out of 78</p>","null","","","","","","","","","","","","","","","","","","","","","","","","","",""
"","","","","","image-keyboard-response","265","943959","0.0-3.0-7.0-1.20","6277cd4fea5f69868617658b","E1","batch5","pattern_response","3197.2999999821186","stim/yes_29_ver_w1.png","j","pattern_53","f","false","","","","3197.2999999821186","false","48","","","","","","","","","","","","","","","","",""
"","","","","","html-keyboard-response","266","945275","0.0-3.0-7.0-0.21","6277cd4fea5f69868617658b","E1","batch5","pattern_show_trial_num","null","<p class=block-text>Trial 61 out of 78</p>","null","","","","","","","","","","","","","","","","","","","","","","","","","",""
"","","","","","image-keyboard-response","267","949336","0.0-3.0-7.0-1.21","6277cd4fea5f69868617658b","E1","batch5","pattern_response","4058.300000011921","stim/yes_43_ver_w1_w.png","f","pattern_65","f","true","","","","4058.300000011921","true","49","","","","","","","","","","","","","","","","",""
"","","","","","html-keyboard-response","268","950652","0.0-3.0-7.0-0.22","6277cd4fea5f69868617658b","E1","batch5","pattern_show_trial_num","null","<p class=block-text>Trial 62 out of 78</p>","null","","","","","","","","","","","","","","","","","","","","","","","","","",""
"","","","","","image-keyboard-response","269","954660","0.0-3.0-7.0-1.22","6277cd4fea5f69868617658b","E1","batch5","pattern_response","4005.9000000059605","stim/yes_67_hor_b1.png","f","pattern_79","f","true","","","","4005.9000000059605","true","50","","","","","","","","","","","","","","","","",""
"","","","","","html-keyboard-response","270","955975","0.0-3.0-7.0-0.23","6277cd4fea5f69868617658b","E1","batch5","pattern_show_trial_num","null","<p class=block-text>Trial 63 out of 78</p>","null","","","","","","","","","","","","","","","","","","","","","","","","","",""
"","","","","","image-keyboard-response","271","961845","0.0-3.0-7.0-1.23","6277cd4fea5f69868617658b","E1","batch5","pattern_response","5866.299999982119","stim/yes_60_ver_b1_b.png","f","pattern_77","f","true","","","","5866.299999982119","true","51","","","","","","","","","","","","","","","","",""
"","","","","","html-keyboard-response","272","963163","0.0-3.0-7.0-0.24","6277cd4fea5f69868617658b","E1","batch5","pattern_show_trial_num","null","<p class=block-text>Trial 64 out of 78</p>","null","","","","","","","","","","","","","","","","","","","","","","","","","",""
"","","","","","image-keyboard-response","273","968002","0.0-3.0-7.0-1.24","6277cd4fea5f69868617658b","E1","batch5","pattern_response","4835.699999988079","stim/no_29_1_b.png","j","pattern_12","j","true","","","","4835.699999988079","true","52","","","","","","","","","","","","","","","","",""
"","","","","","html-keyboard-response","274","969316","0.0-3.0-7.0-0.25","6277cd4fea5f69868617658b","E1","batch5","pattern_show_trial_num","null","<p class=block-text>Trial 65 out of 78</p>","null","","","","","","","","","","","","","","","","","","","","","","","","","",""
"","","","","","image-keyboard-response","275","970409","0.0-3.0-7.0-1.25","6277cd4fea5f69868617658b","E1","batch5","pattern_response","1090.7999999821186","stim/yes_22_ver_w1.png","f","pattern_47","f","true","","","","1090.7999999821186","true","53","","","","","","","","","","","","","","","","",""
"","","","","","html-keyboard-response","276","971730","0.0-3.0-7.0-0.26","6277cd4fea5f69868617658b","E1","batch5","pattern_show_trial_num","null","<p class=block-text>Trial 66 out of 78</p>","null","","","","","","","","","","","","","","","","","","","","","","","","","",""
"","","","","","image-keyboard-response","277","977717","0.0-3.0-7.0-1.26","6277cd4fea5f69868617658b","E1","batch5","pattern_response","5983.9000000059605","stim/no_55_1_w.png","j","pattern_34","j","true","","","","5983.9000000059605","true","54","","","","","","","","","","","","","","","","",""
"","","","","","html-keyboard-response","278","979034","0.0-3.0-7.0-0.27","6277cd4fea5f69868617658b","E1","batch5","pattern_show_trial_num","null","<p class=block-text>Trial 67 out of 78</p>","null","","","","","","","","","","","","","","","","","","","","","","","","","",""
"","","","","","image-keyboard-response","279","979775","0.0-3.0-7.0-1.27","6277cd4fea5f69868617658b","E1","batch5","pattern_response","738.4000000059605","stim/yes_14_hor_b1_w.png","f","pattern_43","f","true","","","","738.4000000059605","true","55","","","","","","","","","","","","","","","","",""
"","","","","","html-keyboard-response","280","981089","0.0-3.0-7.0-0.28","6277cd4fea5f69868617658b","E1","batch5","pattern_show_trial_num","null","<p class=block-text>Trial 68 out of 78</p>","null","","","","","","","","","","","","","","","","","","","","","","","","","",""
"","","","","","image-keyboard-response","281","983102","0.0-3.0-7.0-1.28","6277cd4fea5f69868617658b","E1","batch5","pattern_response","2010.2999999821186","stim/no_17_1_w.png","j","pattern_04","j","true","","","","2010.2999999821186","true","56","","","","","","","","","","","","","","","","",""
"","","","","","html-keyboard-response","282","984415","0.0-3.0-7.0-0.29","6277cd4fea5f69868617658b","E1","batch5","pattern_show_trial_num","null","<p class=block-text>Trial 69 out of 78</p>","null","","","","","","","","","","","","","","","","","","","","","","","","","",""
"","","","","","image-keyboard-response","283","985671","0.0-3.0-7.0-1.29","6277cd4fea5f69868617658b","E1","batch5","pattern_response","1253.0999999940395","stim/yes_55_hor_w1_w.png","f","pattern_75","f","true","","","","1253.0999999940395","true","57","","","","","","","","","","","","","","","","",""
"","","","","","html-keyboard-response","284","986983","0.0-3.0-7.0-0.30","6277cd4fea5f69868617658b","E1","batch5","pattern_show_trial_num","null","<p class=block-text>Trial 70 out of 78</p>","null","","","","","","","","","","","","","","","","","","","","","","","","","",""
"","","","","","image-keyboard-response","285","988722","0.0-3.0-7.0-1.30","6277cd4fea5f69868617658b","E1","batch5","pattern_response","1737.699999988079","stim/yes_52_ver_w1.png","j","pattern_73","f","false","","","","1737.699999988079","false","57","","","","","","","","","","","","","","","","",""
"","","","","","html-keyboard-response","286","990030","0.0-3.0-7.0-0.31","6277cd4fea5f69868617658b","E1","batch5","pattern_show_trial_num","null","<p class=block-text>Trial 71 out of 78</p>","null","","","","","","","","","","","","","","","","","","","","","","","","","",""
"","","","","","image-keyboard-response","287","994779","0.0-3.0-7.0-1.31","6277cd4fea5f69868617658b","E1","batch5","pattern_response","4746.799999982119","stim/no_42_1_w.png","j","pattern_22","j","true","","","","4746.799999982119","true","58","","","","","","","","","","","","","","","","",""
"","","","","","html-keyboard-response","288","996082","0.0-3.0-7.0-0.32","6277cd4fea5f69868617658b","E1","batch5","pattern_show_trial_num","null","<p class=block-text>Trial 72 out of 78</p>","null","","","","","","","","","","","","","","","","","","","","","","","","","",""
"","","","","","image-keyboard-response","289","1000429","0.0-3.0-7.0-1.32","6277cd4fea5f69868617658b","E1","batch5","pattern_response","4343.9000000059605","stim/no_38_1_b.png","j","pattern_20","j","true","","","","4343.9000000059605","true","59","","","","","","","","","","","","","","","","",""
"","","","","","html-keyboard-response","290","1001740","0.0-3.0-7.0-0.33","6277cd4fea5f69868617658b","E1","batch5","pattern_show_trial_num","null","<p class=block-text>Trial 73 out of 78</p>","null","","","","","","","","","","","","","","","","","","","","","","","","","",""
"","","","","","image-keyboard-response","291","1006434","0.0-3.0-7.0-1.33","6277cd4fea5f69868617658b","E1","batch5","pattern_response","4691","stim/no_44_1.png","j","pattern_24","j","true","","","","4691","true","60","","","","","","","","","","","","","","","","",""
"","","","","","html-keyboard-response","292","1007750","0.0-3.0-7.0-0.34","6277cd4fea5f69868617658b","E1","batch5","pattern_show_trial_num","null","<p class=block-text>Trial 74 out of 78</p>","null","","","","","","","","","","","","","","","","","","","","","","","","","",""
"","","","","","image-keyboard-response","293","1013591","0.0-3.0-7.0-1.34","6277cd4fea5f69868617658b","E1","batch5","pattern_response","5837.5999999940395","stim/no_48_1_w.png","j","pattern_28","j","true","","","","5837.5999999940395","true","61","","","","","","","","","","","","","","","","",""
"","","","","","html-keyboard-response","294","1014908","0.0-3.0-7.0-0.35","6277cd4fea5f69868617658b","E1","batch5","pattern_show_trial_num","null","<p class=block-text>Trial 75 out of 78</p>","null","","","","","","","","","","","","","","","","","","","","","","","","","",""
"","","","","","image-keyboard-response","295","1017274","0.0-3.0-7.0-1.35","6277cd4fea5f69868617658b","E1","batch5","pattern_response","2363.7000000178814","stim/yes_31_hor_b1.png","f","pattern_55","f","true","","","","2363.7000000178814","true","62","","","","","","","","","","","","","","","","",""
"","","","","","html-keyboard-response","296","1018590","0.0-3.0-7.0-0.36","6277cd4fea5f69868617658b","E1","batch5","pattern_show_trial_num","null","<p class=block-text>Trial 76 out of 78</p>","null","","","","","","","","","","","","","","","","","","","","","","","","","",""
"","","","","","image-keyboard-response","297","1022122","0.0-3.0-7.0-1.36","6277cd4fea5f69868617658b","E1","batch5","pattern_response","3529.5","stim/no_34_1_b.png","j","pattern_16","j","true","","","","3529.5","true","63","","","","","","","","","","","","","","","","",""
"","","","","","html-keyboard-response","298","1023434","0.0-3.0-7.0-0.37","6277cd4fea5f69868617658b","E1","batch5","pattern_show_trial_num","null","<p class=block-text>Trial 77 out of 78</p>","null","","","","","","","","","","","","","","","","","","","","","","","","","",""
"","","","","","image-keyboard-response","299","1025129","0.0-3.0-7.0-1.37","6277cd4fea5f69868617658b","E1","batch5","pattern_response","1693.0999999940395","stim/no_23_1.png","j","pattern_08","j","true","","","","1693.0999999940395","true","64","","","","","","","","","","","","","","","","",""
"","","","","","html-keyboard-response","300","1026452","0.0-3.0-7.0-0.38","6277cd4fea5f69868617658b","E1","batch5","pattern_show_trial_num","null","<p class=block-text>Trial 78 out of 78</p>","null","","","","","","","","","","","","","","","","","","","","","","","","","",""
"","","","","","image-keyboard-response","301","1027265","0.0-3.0-7.0-1.38","6277cd4fea5f69868617658b","E1","batch5","pattern_response","809.8000000119209","stim/yes_28_ver_b1.png","f","pattern_51","f","true","","","","809.8000000119209","true","65","","","","","","","","","","","","","","","","",""
"","","","","","html-button-response","302","1033103","0.0-3.0-8.0","6277cd4fea5f69868617658b","E1","batch5","","5326.5999999940395","<p class = block-text>This concludes the 4-in-a-row detection game.Thank you for your responses!<br>
            You responded correctly on 83% of the trials.<br>
            When you are ready, press ""Continue"" button to continue </p>","0","","","","","","","","","","","","","","","","","","","","","","","","","",""
"true","","","","","fullscreen","303","1036838","0.0-4.0-0.0","6277cd4fea5f69868617658b","E1","batch5","","","","","","","","","","","","","","","","","","","","","","","","","","","","","",""
"","","","","","instructions","304","1081471","0.0-4.0-1.0-0.0-0.0","6277cd4fea5f69868617658b","E1","batch5","tol-instructions","44632.10000002384","","","","","","","","[{""page_index"":0,""viewing_time"":10399.200000017881},{""page_index"":1,""viewing_time"":7985.4000000059605},{""page_index"":2,""viewing_time"":5190.799999982119},{""page_index"":3,""viewing_time"":11226.800000011921},{""page_index"":4,""viewing_time"":2710.7999999821186},{""page_index"":5,""viewing_time"":5324.300000011921},{""page_index"":6,""viewing_time"":1794.4000000059605}]","","","","","","","","","","","","","","","","","","","",""
"","","","","","html-button-response","305","1082963","0.0-4.0-1.0-1.0-0.0","6277cd4fea5f69868617658b","E1","batch5","tol_enter_quiz","1490.2999999821186","<p class=block-text> Let's answer a few questions <br>","0","","","","","","","","","","","","","","","","","","","","","","","","","",""
"","","","","","html-button-response","306","1087782","0.0-4.0-1.0-1.0-1.0","6277cd4fea5f69868617658b","E1","batch5","tol_quiz","4816.699999988079","<p class = block-text>True or False: You can only move the ball on top of a peg. <br></p>","0","","","true","","","","","","","","","","","","","","","","","","","","","","",""
"","","","","","html-button-response","307","1088991","0.0-4.0-1.0-1.0-2.0","6277cd4fea5f69868617658b","E1","batch5","tol_quiz_feedback","1206.3999999761581","<p class = block-text>Correct! You can only move the ball on top of a peg.</p>","0","","","","","","","","","","","","","","","","","","","","","","","","","",""
"","","","","","html-button-response","308","1091931","0.0-4.0-1.0-1.0-3.0","6277cd4fea5f69868617658b","E1","batch5","tol_quiz","2939.199999988079","<p class = block-text>True or False: You should try to match your board with the target board with fewest moves possible. <br></p>","0","","","true","","","","","","","","","","","","","","","","","","","","","","",""
"","","","","","html-button-response","309","1093040","0.0-4.0-1.0-1.0-4.0","6277cd4fea5f69868617658b","E1","batch5","tol_quiz_feedback","1106.699999988079","<p class = block-text>Correct! </p>","0","","","","","","","","","","","","","","","","","","","","","","","","","",""
"","","","","","html-button-response","310","1094520","0.0-4.0-2.0","6277cd4fea5f69868617658b","E1","batch5","","1478.5","<p class=block-text> Now that you've understood the game, let's practice a few easier examples before we start!<br> <br>","0","","","","","","","","","","","","","","","","","","","","","","","","","",""
"","","","","","single-stim-button","311","1098539","0.0-4.0-3.0-0.0","6277cd4fea5f69868617658b","E1","batch5","tol_practice","4017","","","","","","","","","","","","","","tol_peg_2","4017","4017","0","[[1,2,0],[0,0],[0]]","1","[[1,2,0],[0,0],[3]]","practice","4017","","","","","",""
"","","","","","single-stim-button","312","1103471","0.0-4.0-3.0-1.0","6277cd4fea5f69868617658b","E1","batch5","tol_practice","4930","","","","","","","","","","","","","","tol_peg_3","4930","4930","0","[[1,2,0],[0,0],[3]]","1","[[1,2,0],[0,0],[3]]","practice","4930","","","","","",""
"","","","","","poldrack-single-stim","313","1104480","0.0-4.0-4.0","6277cd4fea5f69868617658b","E1","batch5","tol_feedback","-1","","","","","true","","","","","","","","","","1000","1000","500","","","","","","-1","none","true","","0",""
"","","","","","single-stim-button","314","1108811","0.0-4.0-5.0-0.0","6277cd4fea5f69868617658b","E1","batch5","tol_practice","4330","","","","","","","","","","","","","","tol_peg_1","4330","4330","0","[[1,0,0],[3,0],[0]]","2","[[0,0,0],[3,1],[2]]","practice","4330","","","","","",""
"","","","","","single-stim-button","315","1109960","0.0-4.0-5.0-1.0","6277cd4fea5f69868617658b","E1","batch5","tol_practice","1147","","","","","","","","","","","","","","tol_peg_1","1147","1147","0","[[1,2,0],[3,0],[0]]","2","[[0,0,0],[3,1],[2]]","practice","1147","","","","","",""
"","","","","","single-stim-button","316","1111420","0.0-4.0-5.1-0.1","6277cd4fea5f69868617658b","E1","batch5","tol_practice","1459","","","","","","","","","","","","","","tol_peg_1","1459","1459","0","[[1,0,0],[3,0],[0]]","3","[[0,0,0],[3,1],[2]]","practice","1459","","","","","",""
"","","","","","single-stim-button","317","1112753","0.0-4.0-5.1-1.1","6277cd4fea5f69868617658b","E1","batch5","tol_practice","1333","","","","","","","","","","","","","","tol_peg_3","1333","1333","0","[[1,0,0],[3,0],[2]]","3","[[0,0,0],[3,1],[2]]","practice","1333","","","","","",""
"","","","","","single-stim-button","318","1114173","0.0-4.0-5.2-0.2","6277cd4fea5f69868617658b","E1","batch5","tol_practice","1418","","","","","","","","","","","","","","tol_peg_2","1418","1418","0","[[1,0,0],[0,0],[2]]","4","[[0,0,0],[3,1],[2]]","practice","1418","","","","","",""
"","","","","","single-stim-button","319","1116414","0.0-4.0-5.2-1.2","6277cd4fea5f69868617658b","E1","batch5","tol_practice","2239","","","","","","","","","","","","","","tol_peg_1","2239","2239","0","[[1,3,0],[0,0],[2]]","4","[[0,0,0],[3,1],[2]]","practice","2239","","","","","",""
"","","","","","single-stim-button","320","1118389","0.0-4.0-5.3-0.3","6277cd4fea5f69868617658b","E1","batch5","tol_practice","1974","","","","","","","","","","","","","","tol_peg_1","1974","1974","0","[[1,0,0],[0,0],[2]]","5","[[0,0,0],[3,1],[2]]","practice","1974","","","","","",""
"","","","","","single-stim-button","321","1120333","0.0-4.0-5.3-1.3","6277cd4fea5f69868617658b","E1","batch5","tol_practice","1943","","","","","","","","","","","","","","tol_peg_1","1943","1943","0","[[1,3,0],[0,0],[2]]","5","[[0,0,0],[3,1],[2]]","practice","1943","","","","","",""
"","","","","","single-stim-button","322","1122930","0.0-4.0-5.4-0.4","6277cd4fea5f69868617658b","E1","batch5","tol_practice","2596","","","","","","","","","","","","","","tol_peg_1","2596","2596","0","[[1,0,0],[0,0],[2]]","6","[[0,0,0],[3,1],[2]]","practice","2596","","","","","",""
"","","","","","single-stim-button","323","1124030","0.0-4.0-5.4-1.4","6277cd4fea5f69868617658b","E1","batch5","tol_practice","1099","","","","","","","","","","","","","","tol_peg_2","1099","1099","0","[[1,0,0],[3,0],[2]]","6","[[0,0,0],[3,1],[2]]","practice","1099","","","","","",""
"","","","","","single-stim-button","324","1125816","0.0-4.0-5.5-0.5","6277cd4fea5f69868617658b","E1","batch5","tol_practice","1784","","","","","","","","","","","","","","tol_peg_1","1784","1784","0","[[0,0,0],[3,0],[2]]","7","[[0,0,0],[3,1],[2]]","practice","1784","","","","","",""
"","","","","","single-stim-button","325","1126674","0.0-4.0-5.5-1.5","6277cd4fea5f69868617658b","E1","batch5","tol_practice","857","","","","","","","","","","","","","","tol_peg_2","857","857","0","[[0,0,0],[3,1],[2]]","7","[[0,0,0],[3,1],[2]]","practice","857","","","","","",""
"","","","","","poldrack-single-stim","326","1127680","0.0-4.0-6.0","6277cd4fea5f69868617658b","E1","batch5","tol_feedback","-1","","","","","true","","","","","","","","","","1000","1000","500","","","","","","-1","none","true","","0",""
"","","","","","single-stim-button","327","1133698","0.0-4.0-7.0-0.0","6277cd4fea5f69868617658b","E1","batch5","tol_practice","6016","","","","","","","","","","","","","","tol_peg_2","6016","6016","0","[[1,2,0],[0,0],[0]]","8","[[1,0,0],[2,0],[3]]","practice","6016","","","","","",""
"","","","","","single-stim-button","328","1135276","0.0-4.0-7.0-1.0","6277cd4fea5f69868617658b","E1","batch5","tol_practice","1577","","","","","","","","","","","","","","tol_peg_3","1577","1577","0","[[1,2,0],[0,0],[3]]","8","[[1,0,0],[2,0],[3]]","practice","1577","","","","","",""
"","","","","","single-stim-button","329","1136596","0.0-4.0-7.1-0.1","6277cd4fea5f69868617658b","E1","batch5","tol_practice","1318","","","","","","","","","","","","","","tol_peg_1","1318","1318","0","[[1,0,0],[0,0],[3]]","9","[[1,0,0],[2,0],[3]]","practice","1318","","","","","",""
"","","","","","single-stim-button","330","1137715","0.0-4.0-7.1-1.1","6277cd4fea5f69868617658b","E1","batch5","tol_practice","1118","","","","","","","","","","","","","","tol_peg_2","1118","1118","0","[[1,0,0],[2,0],[3]]","9","[[1,0,0],[2,0],[3]]","practice","1118","","","","","",""
"","","","","","poldrack-single-stim","331","1138752","0.0-4.0-8.0","6277cd4fea5f69868617658b","E1","batch5","tol_feedback","-1","","","","","true","","","","","","","","","","1000","1000","500","","","","","","-1","none","true","","0",""
"","","","","","html-button-response","332","1140145","0.0-4.0-9.0","6277cd4fea5f69868617658b","E1","batch5","tol_instruction","1390.7999999821186","<div class = centerbox><p class = center-block-text>Great job! You are done with practice trials<br>You are about to start official trials.<br> <br> Problem <strong>1</strong> out of 25 problems</p></div>","0","","","","","","","","","","","","","","","","","","","","","","","","","",""
"","","","","","single-stim-button","333","1154487","0.0-4.0-10.0-0.0","6277cd4fea5f69868617658b","E1","batch5","tol_tohand","13336","","","","","","","","","","","","","","tol_peg_1","13336","13336","0","[[1,0,0],[3,0],[0]]","1","[[1,3,0],[2,0],[0]]","0","0","","","","","","3"
"","","","","","single-stim-button","334","1157148","0.0-4.0-10.0-1.0","6277cd4fea5f69868617658b","E1","batch5","tol_toboard","2659","","","","","","","","","","","","","","tol_peg_1","2659","2659","0","[[1,2,0],[3,0],[0]]","1","[[1,3,0],[2,0],[0]]","0","0","","","","","","3"
"","","","","","single-stim-button","335","1158392","0.0-4.0-10.1-0.1","6277cd4fea5f69868617658b","E1","batch5","tol_tohand","1242","","","","","","","","","","","","","","tol_peg_1","1242","1242","0","[[1,0,0],[3,0],[0]]","2","[[1,3,0],[2,0],[0]]","0","0","","","","","","3"
"","","","","","single-stim-button","336","1159698","0.0-4.0-10.1-1.1","6277cd4fea5f69868617658b","E1","batch5","tol_toboard","1305","","","","","","","","","","","","","","tol_peg_3","1305","1305","0","[[1,0,0],[3,0],[2]]","2","[[1,3,0],[2,0],[0]]","0","0","","","","","","3"
"","","","","","single-stim-button","337","1161130","0.0-4.0-10.2-0.2","6277cd4fea5f69868617658b","E1","batch5","tol_tohand","1432","","","","","","","","","","","","","","tol_peg_1","1432","1432","0","[[0,0,0],[3,0],[2]]","3","[[1,3,0],[2,0],[0]]","0","0","","","","","","3"
"","","","","","single-stim-button","338","1162310","0.0-4.0-10.2-1.2","6277cd4fea5f69868617658b","E1","batch5","tol_toboard","1179","","","","","","","","","","","","","","tol_peg_2","1179","1179","0","[[0,0,0],[3,1],[2]]","3","[[1,3,0],[2,0],[0]]","0","0","","","","","","3"
"","","","","","single-stim-button","339","1163602","0.0-4.0-10.3-0.3","6277cd4fea5f69868617658b","E1","batch5","tol_tohand","1291","","","","","","","","","","","","","","tol_peg_2","1291","1291","0","[[0,0,0],[3,0],[2]]","4","[[1,3,0],[2,0],[0]]","0","0","","","","","","3"
"","","","","","single-stim-button","340","1165067","0.0-4.0-10.3-1.3","6277cd4fea5f69868617658b","E1","batch5","tol_toboard","1464","","","","","","","","","","","","","","tol_peg_1","1464","1464","0","[[1,0,0],[3,0],[2]]","4","[[1,3,0],[2,0],[0]]","0","0","","","","","","3"
"","","","","","single-stim-button","341","1166359","0.0-4.0-10.4-0.4","6277cd4fea5f69868617658b","E1","batch5","tol_tohand","1291","","","","","","","","","","","","","","tol_peg_2","1291","1291","0","[[1,0,0],[0,0],[2]]","5","[[1,3,0],[2,0],[0]]","0","0","","","","","","3"
"","","","","","single-stim-button","342","1167556","0.0-4.0-10.4-1.4","6277cd4fea5f69868617658b","E1","batch5","tol_toboard","1196","","","","","","","","","","","","","","tol_peg_1","1196","1196","0","[[1,3,0],[0,0],[2]]","5","[[1,3,0],[2,0],[0]]","0","0","","","","","","3"
"","","","","","single-stim-button","343","1172091","0.0-4.0-10.5-0.5","6277cd4fea5f69868617658b","E1","batch5","tol_tohand","4534","","","","","","","","","","","","","","tol_peg_3","4534","4534","0","[[1,3,0],[0,0],[0]]","6","[[1,3,0],[2,0],[0]]","0","0","","","","","","3"
"","","","","","single-stim-button","344","1173305","0.0-4.0-10.5-1.5","6277cd4fea5f69868617658b","E1","batch5","tol_toboard","1213","","","","","","","","","","","","","","tol_peg_2","1213","1213","0","[[1,3,0],[2,0],[0]]","6","[[1,3,0],[2,0],[0]]","0","0","","","","","","3"
"","","","","","poldrack-single-stim","345","1174315","0.0-4.0-11.0","6277cd4fea5f69868617658b","E1","batch5","tol_feedback","-1","","","","","true","","","","","","","","","","1000","1000","500","","","","","","-1","none","true","13336","23126",""
"","","","","","html-button-response","346","1175560","0.0-4.0-12.0","6277cd4fea5f69868617658b","E1","batch5","tol_trial_num","1243.5999999940395","<div class = centerbox><p class = center-block-text>problem <strong>2</strong> out of 25 problems</p></div>","0","","","","","","","","","","","","","","","","","","","","","","","","","",""
