"success","timeout","failed_images","failed_audio","failed_video","trial_type","trial_index","time_elapsed","internal_node_id","subject_id","study_id","session_id","view_history","rt","stimulus","response","task","correct","answer","item","fiar_detect_rt","fiar_detect_correct","total_correct_fiar_detect","post_trial_gap","choices","spm_correct","spm_rt","mouse_click","stim_duration","block_duration","timing_post_trial","current_position","tol_num_moves_made","tol_target","tol_problem_id","tol_rt","key_press","possible_responses","tol_correct","preplanning","tol_rt_per_trial","tol_min_moves"
"true","false","[]","[]","[]","preload","0","10049","0.0-0.0","627936b58e6416782149ddcb","E1","batch5","","","","","","","","","","","","","","","","","","","","","","","","","","","","","",""
"true","","","","","fullscreen","1","28975","0.0-1.0-0.0","627936b58e6416782149ddcb","E1","batch5","","","","","","","","","","","","","","","","","","","","","","","","","","","","","",""
"true","","","","","fullscreen","2","32960","0.0-2.0-0.0","627936b58e6416782149ddcb","E1","batch5","","","","","","","","","","","","","","","","","","","","","","","","","","","","","",""
"","","","","","instructions","3","61311","0.0-2.0-1.0-0.0","627936b58e6416782149ddcb","E1","batch5","[{""page_index"":0,""viewing_time"":11373.800000011921},{""page_index"":1,""viewing_time"":16976.29999999702}]","28350.40000000596","","","","","","","","","","","","","","","","","","","","","","","","","","","",""
"","","","","","html-button-response","4","62399","0.0-2.0-1.0-1.0-0.0","627936b58e6416782149ddcb","E1","batch5","","1086.5999999940395","<p class=block-text> Let's answer a few questions <br>","0","pattern_enter_quiz","","","","","","","","","","","","","","","","","","","","","","","","",""
"","","","","","html-button-response","5","65295","0.0-2.0-1.0-1.0-1.0","627936b58e6416782149ddcb","E1","batch5","","2894","<p class = block-text>True or False: You will have as much time as you want to make each choice. <br></p>","1","pattern_quiz","true","","","","","","","","","","","","","","","","","","","","","","","",""
"","","","","","html-button-response","6","66438","0.0-2.0-1.0-1.0-2.0","627936b58e6416782149ddcb","E1","batch5","","1142.5999999940395","<p class = block-text>Correct! You should make your choice <strong> as fast as you can</strong>.</p>","0","pattern_quiz_feedback","","","","","","","","","","","","","","","","","","","","","","","","",""
"","","","","","html-button-response","7","70238","0.0-2.0-1.0-1.0-3.0","627936b58e6416782149ddcb","E1","batch5","","3799.2999999970198","<p class = block-text>True or False: You will look for 4 pieces in black or white color connected in a row either horizontally, vertically or diagonally. <br></p>","0","pattern_quiz","true","","","","","","","","","","","","","","","","","","","","","","","",""
"","","","","","html-button-response","8","70790","0.0-2.0-1.0-1.0-4.0","627936b58e6416782149ddcb","E1","batch5","","551.1000000089407","<p class = block-text>Correct! </p>","0","pattern_quiz_feedback","","","","","","","","","","","","","","","","","","","","","","","","",""
"","","","","","html-button-response","9","72654","0.0-2.0-2.0","627936b58e6416782149ddcb","E1","batch5","","1862.6000000089407","<p class=block-text> Now that you've understood the game, let's do a few practice trials before we start!<br> <br>","0","pattern_enter_practice","","","","","","","","","","","","","","","","","","","","","","","","",""
"","","","","","image-keyboard-response","10","73646","0.0-2.0-3.0-0.0","627936b58e6416782149ddcb","E1","batch5","","989.0999999940395","stim/prac_yes_18_hor_w1.png","f","pattern_practice","true","f","","","","","","","","","","","","","","","","","","","","","","",""
"","","","","","html-keyboard-response","11","74663","0.0-2.0-3.0-1.0","627936b58e6416782149ddcb","E1","batch5","","null","<p style=""font-size:30px;color:green;"">Correct!</p>","null","pattern_feedback","","","","","","","","","","","","","","","","","","","","","","","","",""
"","","","","","image-keyboard-response","12","75381","0.0-2.0-3.0-0.1","627936b58e6416782149ddcb","E1","batch5","","716.7000000029802","stim/prac_yes_16_ver_w1.png","f","pattern_practice","true","f","","","","","","","","","","","","","","","","","","","","","","",""
"","","","","","html-keyboard-response","13","76405","0.0-2.0-3.0-1.1","627936b58e6416782149ddcb","E1","batch5","","null","<p style=""font-size:30px;color:green;"">Correct!</p>","null","pattern_feedback","","","","","","","","","","","","","","","","","","","","","","","","",""
"","","","","","image-keyboard-response","14","77000","0.0-2.0-3.0-0.2","627936b58e6416782149ddcb","E1","batch5","","593.9000000059605","stim/prac_yes_20_dia_b1.png","j","pattern_practice","false","f","","","","","","","","","","","","","","","","","","","","","","",""
"","","","","","html-keyboard-response","15","78015","0.0-2.0-3.0-1.2","627936b58e6416782149ddcb","E1","batch5","","null","<p style=""font-size:30px;color:red;"">Wrong.</p>","null","pattern_feedback","","","","","","","","","","","","","","","","","","","","","","","","",""
"","","","","","image-keyboard-response","16","79008","0.0-2.0-3.0-0.3","627936b58e6416782149ddcb","E1","batch5","","991.3000000119209","stim/prac_no_18_1.png","j","pattern_practice","true","j","","","","","","","","","","","","","","","","","","","","","","",""
"","","","","","html-keyboard-response","17","80010","0.0-2.0-3.0-1.3","627936b58e6416782149ddcb","E1","batch5","","null","<p style=""font-size:30px;color:green;"">Correct!</p>","null","pattern_feedback","","","","","","","","","","","","","","","","","","","","","","","","",""
"","","","","","image-keyboard-response","18","81583","0.0-2.0-3.0-0.4","627936b58e6416782149ddcb","E1","batch5","","1569.300000011921","stim/prac_no_16_1.png","j","pattern_practice","true","j","","","","","","","","","","","","","","","","","","","","","","",""
"","","","","","html-keyboard-response","19","82602","0.0-2.0-3.0-1.4","627936b58e6416782149ddcb","E1","batch5","","null","<p style=""font-size:30px;color:green;"">Correct!</p>","null","pattern_feedback","","","","","","","","","","","","","","","","","","","","","","","","",""
"","","","","","html-button-response","20","89494","0.0-2.0-4.0","627936b58e6416782149ddcb","E1","batch5","","6891.399999991059","<p class=block-text> Good job! You are done with practice trials!<br>
        You responded correctly on 80% of the trials.<br>
        Press the button below to start official trials. Now you won't see any feedback about your response</p>","0","pattern_enter_official_trials","","","","","","","","","","","","","","","","","","","","","","","","",""
"","","","","","html-keyboard-response","21","90305","0.0-2.0-5.0-0.0","627936b58e6416782149ddcb","E1","batch5","","null","<p class=block-text>Trial 1 out of 78</p>","null","pattern_show_trial_num","","","","","","","","","","","","","","","","","","","","","","","","",""
"","","","","","image-keyboard-response","22","91526","0.0-2.0-5.0-1.0","627936b58e6416782149ddcb","E1","batch5","","1219.1000000089407","stim/no_30_1_b.png","j","pattern_response","true","j","pattern_13","1219.1000000089407","true","1","","","","","","","","","","","","","","","","","","",""
"","","","","","html-keyboard-response","23","92857","0.0-2.0-5.0-0.1","627936b58e6416782149ddcb","E1","batch5","","null","<p class=block-text>Trial 2 out of 78</p>","null","pattern_show_trial_num","","","","","","","","","","","","","","","","","","","","","","","","",""
"","","","","","image-keyboard-response","24","94639","0.0-2.0-5.0-1.1","627936b58e6416782149ddcb","E1","batch5","","1780.5","stim/yes_63_dia_b1.png","j","pattern_response","false","f","pattern_78","1780.5","false","1","","","","","","","","","","","","","","","","","","",""
"","","","","","html-keyboard-response","25","95966","0.0-2.0-5.0-0.2","627936b58e6416782149ddcb","E1","batch5","","null","<p class=block-text>Trial 3 out of 78</p>","null","pattern_show_trial_num","","","","","","","","","","","","","","","","","","","","","","","","",""
"","","","","","image-keyboard-response","26","96634","0.0-2.0-5.0-1.2","627936b58e6416782149ddcb","E1","batch5","","667.6000000089407","stim/yes_37_hor_w1_w.png","f","pattern_response","true","f","pattern_60","667.6000000089407","true","2","","","","","","","","","","","","","","","","","","",""
"","","","","","html-keyboard-response","27","97963","0.0-2.0-5.0-0.3","627936b58e6416782149ddcb","E1","batch5","","null","<p class=block-text>Trial 4 out of 78</p>","null","pattern_show_trial_num","","","","","","","","","","","","","","","","","","","","","","","","",""
"","","","","","image-keyboard-response","28","99477","0.0-2.0-5.0-1.3","627936b58e6416782149ddcb","E1","batch5","","1512.800000011921","stim/no_45_1_w.png","j","pattern_response","true","j","pattern_25","1512.800000011921","true","3","","","","","","","","","","","","","","","","","","",""
"","","","","","html-keyboard-response","29","100795","0.0-2.0-5.0-0.4","627936b58e6416782149ddcb","E1","batch5","","null","<p class=block-text>Trial 5 out of 78</p>","null","pattern_show_trial_num","","","","","","","","","","","","","","","","","","","","","","","","",""
"","","","","","image-keyboard-response","30","102544","0.0-2.0-5.0-1.4","627936b58e6416782149ddcb","E1","batch5","","1747.699999988079","stim/yes_44_ver_w1_w.png","j","pattern_response","false","f","pattern_66","1747.699999988079","false","3","","","","","","","","","","","","","","","","","","",""
"","","","","","html-keyboard-response","31","103859","0.0-2.0-5.0-0.5","627936b58e6416782149ddcb","E1","batch5","","null","<p class=block-text>Trial 6 out of 78</p>","null","pattern_show_trial_num","","","","","","","","","","","","","","","","","","","","","","","","",""
"","","","","","image-keyboard-response","32","104416","0.0-2.0-5.0-1.5","627936b58e6416782149ddcb","E1","batch5","","555.6000000089407","stim/yes_17_ver_b1_b.png","f","pattern_response","true","f","pattern_46","555.6000000089407","true","4","","","","","","","","","","","","","","","","","","",""
"","","","","","html-keyboard-response","33","105745","0.0-2.0-5.0-0.6","627936b58e6416782149ddcb","E1","batch5","","null","<p class=block-text>Trial 7 out of 78</p>","null","pattern_show_trial_num","","","","","","","","","","","","","","","","","","","","","","","","",""
"","","","","","image-keyboard-response","34","106425","0.0-2.0-5.0-1.6","627936b58e6416782149ddcb","E1","batch5","","678.7999999970198","stim/yes_53_ver_b1_b.png","f","pattern_response","true","f","pattern_74","678.7999999970198","true","5","","","","","","","","","","","","","","","","","","",""
"","","","","","html-keyboard-response","35","107755","0.0-2.0-5.0-0.7","627936b58e6416782149ddcb","E1","batch5","","null","<p class=block-text>Trial 8 out of 78</p>","null","pattern_show_trial_num","","","","","","","","","","","","","","","","","","","","","","","","",""
"","","","","","image-keyboard-response","36","108451","0.0-2.0-5.0-1.7","627936b58e6416782149ddcb","E1","batch5","","695.7000000029802","stim/yes_30_ver_b1_b.png","f","pattern_response","true","f","pattern_54","695.7000000029802","true","6","","","","","","","","","","","","","","","","","","",""
"","","","","","html-keyboard-response","37","109784","0.0-2.0-5.0-0.8","627936b58e6416782149ddcb","E1","batch5","","null","<p class=block-text>Trial 9 out of 78</p>","null","pattern_show_trial_num","","","","","","","","","","","","","","","","","","","","","","","","",""
"","","","","","image-keyboard-response","38","110897","0.0-2.0-5.0-1.8","627936b58e6416782149ddcb","E1","batch5","","1111.7000000029802","stim/no_28_2.png","j","pattern_response","true","j","pattern_11","1111.7000000029802","true","7","","","","","","","","","","","","","","","","","","",""
"","","","","","html-keyboard-response","39","112226","0.0-2.0-5.0-0.9","627936b58e6416782149ddcb","E1","batch5","","null","<p class=block-text>Trial 10 out of 78</p>","null","pattern_show_trial_num","","","","","","","","","","","","","","","","","","","","","","","","",""
"","","","","","image-keyboard-response","40","113059","0.0-2.0-5.0-1.9","627936b58e6416782149ddcb","E1","batch5","","831.8999999910593","stim/yes_42_dia_w1_w.png","j","pattern_response","false","f","pattern_64","831.8999999910593","false","7","","","","","","","","","","","","","","","","","","",""
"","","","","","html-keyboard-response","41","114382","0.0-2.0-5.0-0.10","627936b58e6416782149ddcb","E1","batch5","","null","<p class=block-text>Trial 11 out of 78</p>","null","pattern_show_trial_num","","","","","","","","","","","","","","","","","","","","","","","","",""
"","","","","","image-keyboard-response","42","115109","0.0-2.0-5.0-1.10","627936b58e6416782149ddcb","E1","batch5","","726.6999999880791","stim/yes_46_ver_b1_b.png","f","pattern_response","true","f","pattern_68","726.6999999880791","true","8","","","","","","","","","","","","","","","","","","",""
"","","","","","html-keyboard-response","43","116424","0.0-2.0-5.0-0.11","627936b58e6416782149ddcb","E1","batch5","","null","<p class=block-text>Trial 12 out of 78</p>","null","pattern_show_trial_num","","","","","","","","","","","","","","","","","","","","","","","","",""
"","","","","","image-keyboard-response","44","116990","0.0-2.0-5.0-1.11","627936b58e6416782149ddcb","E1","batch5","","565.2000000029802","stim/no_15_1_w.png","j","pattern_response","true","j","pattern_03","565.2000000029802","true","9","","","","","","","","","","","","","","","","","","",""
"","","","","","html-keyboard-response","45","118317","0.0-2.0-5.0-0.12","627936b58e6416782149ddcb","E1","batch5","","null","<p class=block-text>Trial 13 out of 78</p>","null","pattern_show_trial_num","","","","","","","","","","","","","","","","","","","","","","","","",""
"","","","","","image-keyboard-response","46","119255","0.0-2.0-5.0-1.12","627936b58e6416782149ddcb","E1","batch5","","936.2999999970198","stim/yes_23_ver_b1.png","j","pattern_response","false","f","pattern_48","936.2999999970198","false","9","","","","","","","","","","","","","","","","","","",""
"","","","","","html-keyboard-response","47","120570","0.0-2.0-5.0-0.13","627936b58e6416782149ddcb","E1","batch5","","null","<p class=block-text>Trial 14 out of 78</p>","null","pattern_show_trial_num","","","","","","","","","","","","","","","","","","","","","","","","",""
"","","","","","image-keyboard-response","48","123146","0.0-2.0-5.0-1.13","627936b58e6416782149ddcb","E1","batch5","","2575.5","stim/no_37_2_w.png","j","pattern_response","true","j","pattern_19","2575.5","true","10","","","","","","","","","","","","","","","","","","",""
"","","","","","html-keyboard-response","49","124461","0.0-2.0-5.0-0.14","627936b58e6416782149ddcb","E1","batch5","","null","<p class=block-text>Trial 15 out of 78</p>","null","pattern_show_trial_num","","","","","","","","","","","","","","","","","","","","","","","","",""
"","","","","","image-keyboard-response","50","126057","0.0-2.0-5.0-1.14","627936b58e6416782149ddcb","E1","batch5","","1594.699999988079","stim/yes_26_dia_w2_w.png","f","pattern_response","true","f","pattern_50","1594.699999988079","true","11","","","","","","","","","","","","","","","","","","",""
"","","","","","html-keyboard-response","51","127379","0.0-2.0-5.0-0.15","627936b58e6416782149ddcb","E1","batch5","","null","<p class=block-text>Trial 16 out of 78</p>","null","pattern_show_trial_num","","","","","","","","","","","","","","","","","","","","","","","","",""
"","","","","","image-keyboard-response","52","128064","0.0-2.0-5.0-1.15","627936b58e6416782149ddcb","E1","batch5","","683.3000000119209","stim/yes_15_dia_b1u_b.png","f","pattern_response","true","f","pattern_44","683.3000000119209","true","12","","","","","","","","","","","","","","","","","","",""
"","","","","","html-keyboard-response","53","129389","0.0-2.0-5.0-0.16","627936b58e6416782149ddcb","E1","batch5","","null","<p class=block-text>Trial 17 out of 78</p>","null","pattern_show_trial_num","","","","","","","","","","","","","","","","","","","","","","","","",""
"","","","","","image-keyboard-response","54","132410","0.0-2.0-5.0-1.16","627936b58e6416782149ddcb","E1","batch5","","3018.7999999970198","stim/no_51_1.png","j","pattern_response","true","j","pattern_31","3018.7999999970198","true","13","","","","","","","","","","","","","","","","","","",""
"","","","","","html-keyboard-response","55","133742","0.0-2.0-5.0-0.17","627936b58e6416782149ddcb","E1","batch5","","null","<p class=block-text>Trial 18 out of 78</p>","null","pattern_show_trial_num","","","","","","","","","","","","","","","","","","","","","","","","",""
"","","","","","image-keyboard-response","56","136771","0.0-2.0-5.0-1.17","627936b58e6416782149ddcb","E1","batch5","","3028.4000000059605","stim/no_53_1_b.png","j","pattern_response","true","j","pattern_33","3028.4000000059605","true","14","","","","","","","","","","","","","","","","","","",""
"","","","","","html-keyboard-response","57","138098","0.0-2.0-5.0-0.18","627936b58e6416782149ddcb","E1","batch5","","null","<p class=block-text>Trial 19 out of 78</p>","null","pattern_show_trial_num","","","","","","","","","","","","","","","","","","","","","","","","",""
"","","","","","image-keyboard-response","58","139715","0.0-2.0-5.0-1.18","627936b58e6416782149ddcb","E1","batch5","","1615.2999999970198","stim/no_22_1_b.png","j","pattern_response","true","j","pattern_07","1615.2999999970198","true","15","","","","","","","","","","","","","","","","","","",""
"","","","","","html-keyboard-response","59","141044","0.0-2.0-5.0-0.19","627936b58e6416782149ddcb","E1","batch5","","null","<p class=block-text>Trial 20 out of 78</p>","null","pattern_show_trial_num","","","","","","","","","","","","","","","","","","","","","","","","",""
"","","","","","image-keyboard-response","60","143096","0.0-2.0-5.0-1.19","627936b58e6416782149ddcb","E1","batch5","","2051.0999999940395","stim/no_33_1_b.png","j","pattern_response","true","j","pattern_15","2051.0999999940395","true","16","","","","","","","","","","","","","","","","","","",""
"","","","","","html-keyboard-response","61","144406","0.0-2.0-5.0-0.20","627936b58e6416782149ddcb","E1","batch5","","null","<p class=block-text>Trial 21 out of 78</p>","null","pattern_show_trial_num","","","","","","","","","","","","","","","","","","","","","","","","",""
"","","","","","image-keyboard-response","62","145047","0.0-2.0-5.0-1.20","627936b58e6416782149ddcb","E1","batch5","","639.5999999940395","stim/yes_36_ver_w1_w.png","f","pattern_response","true","f","pattern_58","639.5999999940395","true","17","","","","","","","","","","","","","","","","","","",""
"","","","","","html-keyboard-response","63","146369","0.0-2.0-5.0-0.21","627936b58e6416782149ddcb","E1","batch5","","null","<p class=block-text>Trial 22 out of 78</p>","null","pattern_show_trial_num","","","","","","","","","","","","","","","","","","","","","","","","",""
"","","","","","image-keyboard-response","64","146926","0.0-2.0-5.0-1.21","627936b58e6416782149ddcb","E1","batch5","","555.7999999970198","stim/yes_39_hor_w1_w.png","f","pattern_response","true","f","pattern_62","555.7999999970198","true","18","","","","","","","","","","","","","","","","","","",""
"","","","","","html-keyboard-response","65","148243","0.0-2.0-5.0-0.22","627936b58e6416782149ddcb","E1","batch5","","null","<p class=block-text>Trial 23 out of 78</p>","null","pattern_show_trial_num","","","","","","","","","","","","","","","","","","","","","","","","",""
"","","","","","image-keyboard-response","66","150990","0.0-2.0-5.0-1.22","627936b58e6416782149ddcb","E1","batch5","","2745.4000000059605","stim/yes_51_dia_b1.png","f","pattern_response","true","f","pattern_72","2745.4000000059605","true","19","","","","","","","","","","","","","","","","","","",""
"","","","","","html-keyboard-response","67","152310","0.0-2.0-5.0-0.23","627936b58e6416782149ddcb","E1","batch5","","null","<p class=block-text>Trial 24 out of 78</p>","null","pattern_show_trial_num","","","","","","","","","","","","","","","","","","","","","","","","",""
"","","","","","image-keyboard-response","68","152937","0.0-2.0-5.0-1.23","627936b58e6416782149ddcb","E1","batch5","","625.7999999970198","stim/yes_70_ver_b1.png","f","pattern_response","true","f","pattern_80","625.7999999970198","true","20","","","","","","","","","","","","","","","","","","",""
"","","","","","html-keyboard-response","69","154256","0.0-2.0-5.0-0.24","627936b58e6416782149ddcb","E1","batch5","","null","<p class=block-text>Trial 25 out of 78</p>","null","pattern_show_trial_num","","","","","","","","","","","","","","","","","","","","","","","","",""
"","","","","","image-keyboard-response","70","157714","0.0-2.0-5.0-1.24","627936b58e6416782149ddcb","E1","batch5","","3457.6000000089407","stim/no_39_1_w.png","j","pattern_response","true","j","pattern_21","3457.6000000089407","true","21","","","","","","","","","","","","","","","","","","",""
"","","","","","html-keyboard-response","71","159032","0.0-2.0-5.0-0.25","627936b58e6416782149ddcb","E1","batch5","","null","<p class=block-text>Trial 26 out of 78</p>","null","pattern_show_trial_num","","","","","","","","","","","","","","","","","","","","","","","","",""
"","","","","","image-keyboard-response","72","160196","0.0-2.0-5.0-1.25","627936b58e6416782149ddcb","E1","batch5","","1163.1000000089407","stim/no_18_1_b.png","j","pattern_response","true","j","pattern_05","1163.1000000089407","true","22","","","","","","","","","","","","","","","","","","",""
"","","","","","html-keyboard-response","73","161520","0.0-2.0-5.0-0.26","627936b58e6416782149ddcb","E1","batch5","","null","<p class=block-text>Trial 27 out of 78</p>","null","pattern_show_trial_num","","","","","","","","","","","","","","","","","","","","","","","","",""
"","","","","","image-keyboard-response","74","162485","0.0-2.0-5.0-1.26","627936b58e6416782149ddcb","E1","batch5","","964","stim/yes_29_hor_b1_b.png","f","pattern_response","true","f","pattern_52","964","true","23","","","","","","","","","","","","","","","","","","",""
"","","","","","html-keyboard-response","75","163799","0.0-2.0-5.0-0.27","627936b58e6416782149ddcb","E1","batch5","","null","<p class=block-text>Trial 28 out of 78</p>","null","pattern_show_trial_num","","","","","","","","","","","","","","","","","","","","","","","","",""
"","","","","","image-keyboard-response","76","166633","0.0-2.0-5.0-1.27","627936b58e6416782149ddcb","E1","batch5","","2832.6000000089407","stim/no_43_2_b.png","j","pattern_response","true","j","pattern_23","2832.6000000089407","true","24","","","","","","","","","","","","","","","","","","",""
"","","","","","html-keyboard-response","77","167952","0.0-2.0-5.0-0.28","627936b58e6416782149ddcb","E1","batch5","","null","<p class=block-text>Trial 29 out of 78</p>","null","pattern_show_trial_num","","","","","","","","","","","","","","","","","","","","","","","","",""
"","","","","","image-keyboard-response","78","172740","0.0-2.0-5.0-1.28","627936b58e6416782149ddcb","E1","batch5","","4787.4000000059605","stim/no_67_1.png","j","pattern_response","true","j","pattern_39","4787.4000000059605","true","25","","","","","","","","","","","","","","","","","","",""
"","","","","","html-keyboard-response","79","174062","0.0-2.0-5.0-0.29","627936b58e6416782149ddcb","E1","batch5","","null","<p class=block-text>Trial 30 out of 78</p>","null","pattern_show_trial_num","","","","","","","","","","","","","","","","","","","","","","","","",""
"","","","","","image-keyboard-response","80","178125","0.0-2.0-5.0-1.29","627936b58e6416782149ddcb","E1","batch5","","4061.4000000059605","stim/yes_58_dia_w1_w.png","j","pattern_response","false","f","pattern_76","4061.4000000059605","false","25","","","","","","","","","","","","","","","","","","",""
"","","","","","html-keyboard-response","81","179442","0.0-2.0-5.0-0.30","627936b58e6416782149ddcb","E1","batch5","","null","<p class=block-text>Trial 31 out of 78</p>","null","pattern_show_trial_num","","","","","","","","","","","","","","","","","","","","","","","","",""
"","","","","","image-keyboard-response","82","181614","0.0-2.0-5.0-1.30","627936b58e6416782149ddcb","E1","batch5","","2170.5","stim/no_25_1_b.png","j","pattern_response","true","j","pattern_09","2170.5","true","26","","","","","","","","","","","","","","","","","","",""
"","","","","","html-keyboard-response","83","182937","0.0-2.0-5.0-0.31","627936b58e6416782149ddcb","E1","batch5","","null","<p class=block-text>Trial 32 out of 78</p>","null","pattern_show_trial_num","","","","","","","","","","","","","","","","","","","","","","","","",""
"","","","","","image-keyboard-response","84","185668","0.0-2.0-5.0-1.31","627936b58e6416782149ddcb","E1","batch5","","2730.2999999970198","stim/no_36_1_b.png","j","pattern_response","true","j","pattern_17","2730.2999999970198","true","27","","","","","","","","","","","","","","","","","","",""
"","","","","","html-keyboard-response","85","186983","0.0-2.0-5.0-0.32","627936b58e6416782149ddcb","E1","batch5","","null","<p class=block-text>Trial 33 out of 78</p>","null","pattern_show_trial_num","","","","","","","","","","","","","","","","","","","","","","","","",""
"","","","","","image-keyboard-response","86","190356","0.0-2.0-5.0-1.32","627936b58e6416782149ddcb","E1","batch5","","3371.0999999940395","stim/no_49_2_b.png","j","pattern_response","true","j","pattern_29","3371.0999999940395","true","28","","","","","","","","","","","","","","","","","","",""
"","","","","","html-keyboard-response","87","191677","0.0-2.0-5.0-0.33","627936b58e6416782149ddcb","E1","batch5","","null","<p class=block-text>Trial 34 out of 78</p>","null","pattern_show_trial_num","","","","","","","","","","","","","","","","","","","","","","","","",""
"","","","","","image-keyboard-response","88","192511","0.0-2.0-5.0-1.33","627936b58e6416782149ddcb","E1","batch5","","832.5999999940395","stim/yes_33_dia_w1_w.png","f","pattern_response","true","f","pattern_56","832.5999999940395","true","29","","","","","","","","","","","","","","","","","","",""
"","","","","","html-keyboard-response","89","193828","0.0-2.0-5.0-0.34","627936b58e6416782149ddcb","E1","batch5","","null","<p class=block-text>Trial 35 out of 78</p>","null","pattern_show_trial_num","","","","","","","","","","","","","","","","","","","","","","","","",""
"","","","","","image-keyboard-response","90","194633","0.0-2.0-5.0-1.34","627936b58e6416782149ddcb","E1","batch5","","804.5","stim/no_12_1.png","j","pattern_response","true","j","pattern_01","804.5","true","30","","","","","","","","","","","","","","","","","","",""
"","","","","","html-keyboard-response","91","195963","0.0-2.0-5.0-0.35","627936b58e6416782149ddcb","E1","batch5","","null","<p class=block-text>Trial 36 out of 78</p>","null","pattern_show_trial_num","","","","","","","","","","","","","","","","","","","","","","","","",""
"","","","","","image-keyboard-response","92","196840","0.0-2.0-5.0-1.35","627936b58e6416782149ddcb","E1","batch5","","876","stim/yes_49_hor_w1_b.png","f","pattern_response","true","f","pattern_70","876","true","31","","","","","","","","","","","","","","","","","","",""
"","","","","","html-keyboard-response","93","198164","0.0-2.0-5.0-0.36","627936b58e6416782149ddcb","E1","batch5","","null","<p class=block-text>Trial 37 out of 78</p>","null","pattern_show_trial_num","","","","","","","","","","","","","","","","","","","","","","","","",""
"","","","","","image-keyboard-response","94","201965","0.0-2.0-5.0-1.36","627936b58e6416782149ddcb","E1","batch5","","3800.5","stim/no_47_1_b.png","j","pattern_response","true","j","pattern_27","3800.5","true","32","","","","","","","","","","","","","","","","","","",""
"","","","","","html-keyboard-response","95","203281","0.0-2.0-5.0-0.37","627936b58e6416782149ddcb","E1","batch5","","null","<p class=block-text>Trial 38 out of 78</p>","null","pattern_show_trial_num","","","","","","","","","","","","","","","","","","","","","","","","",""
"","","","","","image-keyboard-response","96","208388","0.0-2.0-5.0-1.37","627936b58e6416782149ddcb","E1","batch5","","5105","stim/no_58_1_w.png","j","pattern_response","true","j","pattern_35","5105","true","33","","","","","","","","","","","","","","","","","","",""
"","","","","","html-keyboard-response","97","209703","0.0-2.0-5.0-0.38","627936b58e6416782149ddcb","E1","batch5","","null","<p class=block-text>Trial 39 out of 78</p>","null","pattern_show_trial_num","","","","","","","","","","","","","","","","","","","","","","","","",""
"","","","","","image-keyboard-response","98","210430","0.0-2.0-5.0-1.38","627936b58e6416782149ddcb","E1","batch5","","725.5999999940395","stim/yes_12_hor_w1_w.png","f","pattern_response","true","f","pattern_42","725.5999999940395","true","34","","","","","","","","","","","","","","","","","","",""
"","","","","","image-keyboard-response","99","211897","0.0-2.0-6.0","627936b58e6416782149ddcb","E1","batch5","","963.0999999940395","stim/empty_board.png","j","attention_check","true","j","","","","","500","[""f"",""j""]","","","","","","","","","","","","","","","","",""
"","","","","","html-keyboard-response","100","212699","0.0-2.0-7.0-0.0","627936b58e6416782149ddcb","E1","batch5","","null","<p class=block-text>Trial 40 out of 78</p>","null","pattern_show_trial_num","","","","","","","","","","","","","","","","","","","","","","","","",""
"","","","","","image-keyboard-response","101","218611","0.0-2.0-7.0-1.0","627936b58e6416782149ddcb","E1","batch5","","5911.600000008941","stim/no_62_1_w.png","j","pattern_response","true","j","pattern_36","5911.600000008941","true","35","","","","","","","","","","","","","","","","","","",""
"","","","","","html-keyboard-response","102","219933","0.0-2.0-7.0-0.1","627936b58e6416782149ddcb","E1","batch5","","null","<p class=block-text>Trial 41 out of 78</p>","null","pattern_show_trial_num","","","","","","","","","","","","","","","","","","","","","","","","",""
"","","","","","image-keyboard-response","103","221101","0.0-2.0-7.0-1.1","627936b58e6416782149ddcb","E1","batch5","","1166.5","stim/yes_31_hor_b1.png","f","pattern_response","true","f","pattern_55","1166.5","true","36","","","","","","","","","","","","","","","","","","",""
"","","","","","html-keyboard-response","104","222425","0.0-2.0-7.0-0.2","627936b58e6416782149ddcb","E1","batch5","","null","<p class=block-text>Trial 42 out of 78</p>","null","pattern_show_trial_num","","","","","","","","","","","","","","","","","","","","","","","","",""
"","","","","","image-keyboard-response","105","224908","0.0-2.0-7.0-1.2","627936b58e6416782149ddcb","E1","batch5","","2482.2999999970198","stim/yes_40_dia_b1_b.png","f","pattern_response","true","f","pattern_63","2482.2999999970198","true","37","","","","","","","","","","","","","","","","","","",""
"","","","","","html-keyboard-response","106","226235","0.0-2.0-7.0-0.3","627936b58e6416782149ddcb","E1","batch5","","null","<p class=block-text>Trial 43 out of 78</p>","null","pattern_show_trial_num","","","","","","","","","","","","","","","","","","","","","","","","",""
"","","","","","image-keyboard-response","107","227879","0.0-2.0-7.0-1.3","627936b58e6416782149ddcb","E1","batch5","","1643.199999988079","stim/no_23_1.png","j","pattern_response","true","j","pattern_08","1643.199999988079","true","38","","","","","","","","","","","","","","","","","","",""
"","","","","","html-keyboard-response","108","229205","0.0-2.0-7.0-0.4","627936b58e6416782149ddcb","E1","batch5","","null","<p class=block-text>Trial 44 out of 78</p>","null","pattern_show_trial_num","","","","","","","","","","","","","","","","","","","","","","","","",""
"","","","","","image-keyboard-response","109","234637","0.0-2.0-7.0-1.4","627936b58e6416782149ddcb","E1","batch5","","5431.9000000059605","stim/no_55_1_w.png","j","pattern_response","true","j","pattern_34","5431.9000000059605","true","39","","","","","","","","","","","","","","","","","","",""
"","","","","","html-keyboard-response","110","235967","0.0-2.0-7.0-0.5","627936b58e6416782149ddcb","E1","batch5","","null","<p class=block-text>Trial 45 out of 78</p>","null","pattern_show_trial_num","","","","","","","","","","","","","","","","","","","","","","","","",""
"","","","","","image-keyboard-response","111","236649","0.0-2.0-7.0-1.5","627936b58e6416782149ddcb","E1","batch5","","680.5","stim/yes_35_dia_b1.png","f","pattern_response","true","f","pattern_57","680.5","true","40","","","","","","","","","","","","","","","","","","",""
"","","","","","html-keyboard-response","112","237975","0.0-2.0-7.0-0.6","627936b58e6416782149ddcb","E1","batch5","","null","<p class=block-text>Trial 46 out of 78</p>","null","pattern_show_trial_num","","","","","","","","","","","","","","","","","","","","","","","","",""
"","","","","","image-keyboard-response","113","241949","0.0-2.0-7.0-1.6","627936b58e6416782149ddcb","E1","batch5","","3973","stim/no_50_1.png","j","pattern_response","true","j","pattern_30","3973","true","41","","","","","","","","","","","","","","","","","","",""
"","","","","","html-keyboard-response","114","243252","0.0-2.0-7.0-0.7","627936b58e6416782149ddcb","E1","batch5","","null","<p class=block-text>Trial 47 out of 78</p>","null","pattern_show_trial_num","","","","","","","","","","","","","","","","","","","","","","","","",""
"","","","","","image-keyboard-response","115","246359","0.0-2.0-7.0-1.7","627936b58e6416782149ddcb","E1","batch5","","3105.8999999910593","stim/no_46_1_b.png","j","pattern_response","true","j","pattern_26","3105.8999999910593","true","42","","","","","","","","","","","","","","","","","","",""
"","","","","","html-keyboard-response","116","247685","0.0-2.0-7.0-0.8","627936b58e6416782149ddcb","E1","batch5","","null","<p class=block-text>Trial 48 out of 78</p>","null","pattern_show_trial_num","","","","","","","","","","","","","","","","","","","","","","","","",""
"","","","","","image-keyboard-response","117","252142","0.0-2.0-7.0-1.8","627936b58e6416782149ddcb","E1","batch5","","4456.20000000298","stim/yes_50_dia_w1.png","j","pattern_response","false","f","pattern_71","4456.20000000298","false","42","","","","","","","","","","","","","","","","","","",""
"","","","","","html-keyboard-response","118","253460","0.0-2.0-7.0-0.9","627936b58e6416782149ddcb","E1","batch5","","null","<p class=block-text>Trial 49 out of 78</p>","null","pattern_show_trial_num","","","","","","","","","","","","","","","","","","","","","","","","",""
"","","","","","image-keyboard-response","119","254200","0.0-2.0-7.0-1.9","627936b58e6416782149ddcb","E1","batch5","","738.7000000029802","stim/yes_28_ver_b1.png","f","pattern_response","true","f","pattern_51","738.7000000029802","true","43","","","","","","","","","","","","","","","","","","",""
"","","","","","html-keyboard-response","120","255520","0.0-2.0-7.0-0.10","627936b58e6416782149ddcb","E1","batch5","","null","<p class=block-text>Trial 50 out of 78</p>","null","pattern_show_trial_num","","","","","","","","","","","","","","","","","","","","","","","","",""
"","","","","","image-keyboard-response","121","258782","0.0-2.0-7.0-1.10","627936b58e6416782149ddcb","E1","batch5","","3261.2999999970198","stim/yes_60_ver_b1_b.png","f","pattern_response","true","f","pattern_77","3261.2999999970198","true","44","","","","","","","","","","","","","","","","","","",""
"","","","","","html-keyboard-response","122","260106","0.0-2.0-7.0-0.11","627936b58e6416782149ddcb","E1","batch5","","null","<p class=block-text>Trial 51 out of 78</p>","null","pattern_show_trial_num","","","","","","","","","","","","","","","","","","","","","","","","",""
"","","","","","image-keyboard-response","123","264188","0.0-2.0-7.0-1.11","627936b58e6416782149ddcb","E1","batch5","","4081.4000000059605","stim/no_36_2_w.png","j","pattern_response","true","j","pattern_18","4081.4000000059605","true","45","","","","","","","","","","","","","","","","","","",""
"","","","","","html-keyboard-response","124","265503","0.0-2.0-7.0-0.12","627936b58e6416782149ddcb","E1","batch5","","null","<p class=block-text>Trial 52 out of 78</p>","null","pattern_show_trial_num","","","","","","","","","","","","","","","","","","","","","","","","",""
"","","","","","image-keyboard-response","125","266220","0.0-2.0-7.0-1.12","627936b58e6416782149ddcb","E1","batch5","","715.1000000089407","stim/yes_22_ver_w1.png","f","pattern_response","true","f","pattern_47","715.1000000089407","true","46","","","","","","","","","","","","","","","","","","",""
"","","","","","html-keyboard-response","126","267537","0.0-2.0-7.0-0.13","627936b58e6416782149ddcb","E1","batch5","","null","<p class=block-text>Trial 53 out of 78</p>","null","pattern_show_trial_num","","","","","","","","","","","","","","","","","","","","","","","","",""
"","","","","","image-keyboard-response","127","268372","0.0-2.0-7.0-1.13","627936b58e6416782149ddcb","E1","batch5","","833.2000000029802","stim/yes_38_hor_b1_b.png","f","pattern_response","true","f","pattern_61","833.2000000029802","true","47","","","","","","","","","","","","","","","","","","",""
"","","","","","html-keyboard-response","128","269686","0.0-2.0-7.0-0.14","627936b58e6416782149ddcb","E1","batch5","","null","<p class=block-text>Trial 54 out of 78</p>","null","pattern_show_trial_num","","","","","","","","","","","","","","","","","","","","","","","","",""
"","","","","","image-keyboard-response","129","274055","0.0-2.0-7.0-1.14","627936b58e6416782149ddcb","E1","batch5","","4368.70000000298","stim/no_42_1_w.png","j","pattern_response","true","j","pattern_22","4368.70000000298","true","48","","","","","","","","","","","","","","","","","","",""
"","","","","","html-keyboard-response","130","275370","0.0-2.0-7.0-0.15","627936b58e6416782149ddcb","E1","batch5","","null","<p class=block-text>Trial 55 out of 78</p>","null","pattern_show_trial_num","","","","","","","","","","","","","","","","","","","","","","","","",""
"","","","","","image-keyboard-response","131","277071","0.0-2.0-7.0-1.15","627936b58e6416782149ddcb","E1","batch5","","1699.9000000059605","stim/yes_29_ver_w1.png","f","pattern_response","true","f","pattern_53","1699.9000000059605","true","49","","","","","","","","","","","","","","","","","","",""
"","","","","","html-keyboard-response","132","278381","0.0-2.0-7.0-0.16","627936b58e6416782149ddcb","E1","batch5","","null","<p class=block-text>Trial 56 out of 78</p>","null","pattern_show_trial_num","","","","","","","","","","","","","","","","","","","","","","","","",""
"","","","","","image-keyboard-response","133","279243","0.0-2.0-7.0-1.16","627936b58e6416782149ddcb","E1","batch5","","861","stim/yes_67_hor_b1.png","f","pattern_response","true","f","pattern_79","861","true","50","","","","","","","","","","","","","","","","","","",""
"","","","","","html-keyboard-response","134","280558","0.0-2.0-7.0-0.17","627936b58e6416782149ddcb","E1","batch5","","null","<p class=block-text>Trial 57 out of 78</p>","null","pattern_show_trial_num","","","","","","","","","","","","","","","","","","","","","","","","",""
"","","","","","image-keyboard-response","135","281752","0.0-2.0-7.0-1.17","627936b58e6416782149ddcb","E1","batch5","","1193.5","stim/no_26_1_w.png","j","pattern_response","true","j","pattern_10","1193.5","true","51","","","","","","","","","","","","","","","","","","",""
"","","","","","html-keyboard-response","136","283079","0.0-2.0-7.0-0.18","627936b58e6416782149ddcb","E1","batch5","","null","<p class=block-text>Trial 58 out of 78</p>","null","pattern_show_trial_num","","","","","","","","","","","","","","","","","","","","","","","","",""
"","","","","","image-keyboard-response","137","283760","0.0-2.0-7.0-1.18","627936b58e6416782149ddcb","E1","batch5","","679.5","stim/yes_14_hor_b1_w.png","f","pattern_response","true","f","pattern_43","679.5","true","52","","","","","","","","","","","","","","","","","","",""
"","","","","","html-keyboard-response","138","285088","0.0-2.0-7.0-0.19","627936b58e6416782149ddcb","E1","batch5","","null","<p class=block-text>Trial 59 out of 78</p>","null","pattern_show_trial_num","","","","","","","","","","","","","","","","","","","","","","","","",""
"","","","","","image-keyboard-response","139","289738","0.0-2.0-7.0-1.19","627936b58e6416782149ddcb","E1","batch5","","4649.70000000298","stim/no_52_1.png","j","pattern_response","true","j","pattern_32","4649.70000000298","true","53","","","","","","","","","","","","","","","","","","",""
"","","","","","html-keyboard-response","140","291053","0.0-2.0-7.0-0.20","627936b58e6416782149ddcb","E1","batch5","","null","<p class=block-text>Trial 60 out of 78</p>","null","pattern_show_trial_num","","","","","","","","","","","","","","","","","","","","","","","","",""
"","","","","","image-keyboard-response","141","291740","0.0-2.0-7.0-1.20","627936b58e6416782149ddcb","E1","batch5","","684.8999999910593","stim/yes_17_dia_w1.png","f","pattern_response","true","f","pattern_45","684.8999999910593","true","54","","","","","","","","","","","","","","","","","","",""
"","","","","","html-keyboard-response","142","293053","0.0-2.0-7.0-0.21","627936b58e6416782149ddcb","E1","batch5","","null","<p class=block-text>Trial 61 out of 78</p>","null","pattern_show_trial_num","","","","","","","","","","","","","","","","","","","","","","","","",""
"","","","","","image-keyboard-response","143","294717","0.0-2.0-7.0-1.21","627936b58e6416782149ddcb","E1","batch5","","1663.2999999970198","stim/yes_37_dia_w1.png","f","pattern_response","true","f","pattern_59","1663.2999999970198","true","55","","","","","","","","","","","","","","","","","","",""
"","","","","","html-keyboard-response","144","296032","0.0-2.0-7.0-0.22","627936b58e6416782149ddcb","E1","batch5","","null","<p class=block-text>Trial 62 out of 78</p>","null","pattern_show_trial_num","","","","","","","","","","","","","","","","","","","","","","","","",""
"","","","","","image-keyboard-response","145","296961","0.0-2.0-7.0-1.22","627936b58e6416782149ddcb","E1","batch5","","927.5999999940395","stim/no_13_2_b.png","j","pattern_response","true","j","pattern_02","927.5999999940395","true","56","","","","","","","","","","","","","","","","","","",""
"","","","","","html-keyboard-response","146","298280","0.0-2.0-7.0-0.23","627936b58e6416782149ddcb","E1","batch5","","null","<p class=block-text>Trial 63 out of 78</p>","null","pattern_show_trial_num","","","","","","","","","","","","","","","","","","","","","","","","",""
"","","","","","image-keyboard-response","147","302161","0.0-2.0-7.0-1.23","627936b58e6416782149ddcb","E1","batch5","","3879.800000011921","stim/no_38_1_b.png","j","pattern_response","true","j","pattern_20","3879.800000011921","true","57","","","","","","","","","","","","","","","","","","",""
"","","","","","html-keyboard-response","148","303486","0.0-2.0-7.0-0.24","627936b58e6416782149ddcb","E1","batch5","","null","<p class=block-text>Trial 64 out of 78</p>","null","pattern_show_trial_num","","","","","","","","","","","","","","","","","","","","","","","","",""
"","","","","","image-keyboard-response","149","304629","0.0-2.0-7.0-1.24","627936b58e6416782149ddcb","E1","batch5","","1141.5","stim/yes_55_hor_w1_w.png","f","pattern_response","true","f","pattern_75","1141.5","true","58","","","","","","","","","","","","","","","","","","",""
"","","","","","html-keyboard-response","150","305956","0.0-2.0-7.0-0.25","627936b58e6416782149ddcb","E1","batch5","","null","<p class=block-text>Trial 65 out of 78</p>","null","pattern_show_trial_num","","","","","","","","","","","","","","","","","","","","","","","","",""
"","","","","","image-keyboard-response","151","309320","0.0-2.0-7.0-1.25","627936b58e6416782149ddcb","E1","batch5","","3363.6000000089407","stim/yes_48_dia_w1_w.png","f","pattern_response","true","f","pattern_69","3363.6000000089407","true","59","","","","","","","","","","","","","","","","","","",""
"","","","","","html-keyboard-response","152","310648","0.0-2.0-7.0-0.26","627936b58e6416782149ddcb","E1","batch5","","null","<p class=block-text>Trial 66 out of 78</p>","null","pattern_show_trial_num","","","","","","","","","","","","","","","","","","","","","","","","",""
"","","","","","image-keyboard-response","153","315824","0.0-2.0-7.0-1.26","627936b58e6416782149ddcb","E1","batch5","","5174.20000000298","stim/no_17_1_w.png","j","pattern_response","true","j","pattern_04","5174.20000000298","true","60","","","","","","","","","","","","","","","","","","",""
"","","","","","html-keyboard-response","154","317152","0.0-2.0-7.0-0.27","627936b58e6416782149ddcb","E1","batch5","","null","<p class=block-text>Trial 67 out of 78</p>","null","pattern_show_trial_num","","","","","","","","","","","","","","","","","","","","","","","","",""
"","","","","","image-keyboard-response","155","320802","0.0-2.0-7.0-1.27","627936b58e6416782149ddcb","E1","batch5","","3648.5999999940395","stim/no_34_1_b.png","j","pattern_response","true","j","pattern_16","3648.5999999940395","true","61","","","","","","","","","","","","","","","","","","",""
"","","","","","html-keyboard-response","156","322120","0.0-2.0-7.0-0.28","627936b58e6416782149ddcb","E1","batch5","","null","<p class=block-text>Trial 68 out of 78</p>","null","pattern_show_trial_num","","","","","","","","","","","","","","","","","","","","","","","","",""
"","","","","","image-keyboard-response","157","324605","0.0-2.0-7.0-1.28","627936b58e6416782149ddcb","E1","batch5","","2483.7000000029802","stim/no_29_1_b.png","j","pattern_response","true","j","pattern_12","2483.7000000029802","true","62","","","","","","","","","","","","","","","","","","",""
"","","","","","html-keyboard-response","158","325926","0.0-2.0-7.0-0.29","627936b58e6416782149ddcb","E1","batch5","","null","<p class=block-text>Trial 69 out of 78</p>","null","pattern_show_trial_num","","","","","","","","","","","","","","","","","","","","","","","","",""
"","","","","","image-keyboard-response","159","327139","0.0-2.0-7.0-1.29","627936b58e6416782149ddcb","E1","batch5","","1212","stim/yes_43_ver_w1_w.png","f","pattern_response","true","f","pattern_65","1212","true","63","","","","","","","","","","","","","","","","","","",""
"","","","","","html-keyboard-response","160","328443","0.0-2.0-7.0-0.30","627936b58e6416782149ddcb","E1","batch5","","null","<p class=block-text>Trial 70 out of 78</p>","null","pattern_show_trial_num","","","","","","","","","","","","","","","","","","","","","","","","",""
"","","","","","image-keyboard-response","161","330860","0.0-2.0-7.0-1.30","627936b58e6416782149ddcb","E1","batch5","","2415.7000000029802","stim/no_44_1.png","j","pattern_response","true","j","pattern_24","2415.7000000029802","true","64","","","","","","","","","","","","","","","","","","",""
"","","","","","html-keyboard-response","162","332176","0.0-2.0-7.0-0.31","627936b58e6416782149ddcb","E1","batch5","","null","<p class=block-text>Trial 71 out of 78</p>","null","pattern_show_trial_num","","","","","","","","","","","","","","","","","","","","","","","","",""
"","","","","","image-keyboard-response","163","334833","0.0-2.0-7.0-1.31","627936b58e6416782149ddcb","E1","batch5","","2655.5999999940395","stim/no_48_1_w.png","j","pattern_response","true","j","pattern_28","2655.5999999940395","true","65","","","","","","","","","","","","","","","","","","",""
"","","","","","html-keyboard-response","164","336160","0.0-2.0-7.0-0.32","627936b58e6416782149ddcb","E1","batch5","","null","<p class=block-text>Trial 72 out of 78</p>","null","pattern_show_trial_num","","","","","","","","","","","","","","","","","","","","","","","","",""
"","","","","","image-keyboard-response","165","337031","0.0-2.0-7.0-1.32","627936b58e6416782149ddcb","E1","batch5","","869.2999999970198","stim/yes_52_ver_w1.png","f","pattern_response","true","f","pattern_73","869.2999999970198","true","66","","","","","","","","","","","","","","","","","","",""
"","","","","","html-keyboard-response","166","338346","0.0-2.0-7.0-0.33","627936b58e6416782149ddcb","E1","batch5","","null","<p class=block-text>Trial 73 out of 78</p>","null","pattern_show_trial_num","","","","","","","","","","","","","","","","","","","","","","","","",""
"","","","","","image-keyboard-response","167","340440","0.0-2.0-7.0-1.33","627936b58e6416782149ddcb","E1","batch5","","2092.7999999970198","stim/no_20_1_w.png","j","pattern_response","true","j","pattern_06","2092.7999999970198","true","67","","","","","","","","","","","","","","","","","","",""
"","","","","","html-keyboard-response","168","341748","0.0-2.0-7.0-0.34","627936b58e6416782149ddcb","E1","batch5","","null","<p class=block-text>Trial 74 out of 78</p>","null","pattern_show_trial_num","","","","","","","","","","","","","","","","","","","","","","","","",""
"","","","","","image-keyboard-response","169","346203","0.0-2.0-7.0-1.34","627936b58e6416782149ddcb","E1","batch5","","4454.29999999702","stim/no_65_1_b.png","j","pattern_response","true","j","pattern_38","4454.29999999702","true","68","","","","","","","","","","","","","","","","","","",""
"","","","","","html-keyboard-response","170","347528","0.0-2.0-7.0-0.35","627936b58e6416782149ddcb","E1","batch5","","null","<p class=block-text>Trial 75 out of 78</p>","null","pattern_show_trial_num","","","","","","","","","","","","","","","","","","","","","","","","",""
"","","","","","image-keyboard-response","171","348415","0.0-2.0-7.0-1.35","627936b58e6416782149ddcb","E1","batch5","","886.5","stim/yes_25_hor_b1_b.png","f","pattern_response","true","f","pattern_49","886.5","true","69","","","","","","","","","","","","","","","","","","",""
"","","","","","html-keyboard-response","172","349744","0.0-2.0-7.0-0.36","627936b58e6416782149ddcb","E1","batch5","","null","<p class=block-text>Trial 76 out of 78</p>","null","pattern_show_trial_num","","","","","","","","","","","","","","","","","","","","","","","","",""
"","","","","","image-keyboard-response","173","355894","0.0-2.0-7.0-1.36","627936b58e6416782149ddcb","E1","batch5","","6148.79999999702","stim/no_70_2.png","j","pattern_response","true","j","pattern_40","6148.79999999702","true","70","","","","","","","","","","","","","","","","","","",""
"","","","","","html-keyboard-response","174","357210","0.0-2.0-7.0-0.37","627936b58e6416782149ddcb","E1","batch5","","null","<p class=block-text>Trial 77 out of 78</p>","null","pattern_show_trial_num","","","","","","","","","","","","","","","","","","","","","","","","",""
"","","","","","image-keyboard-response","175","359159","0.0-2.0-7.0-1.37","627936b58e6416782149ddcb","E1","batch5","","1947.5","stim/no_32_1_w.png","j","pattern_response","true","j","pattern_14","1947.5","true","71","","","","","","","","","","","","","","","","","","",""
"","","","","","html-keyboard-response","176","360474","0.0-2.0-7.0-0.38","627936b58e6416782149ddcb","E1","batch5","","null","<p class=block-text>Trial 78 out of 78</p>","null","pattern_show_trial_num","","","","","","","","","","","","","","","","","","","","","","","","",""
"","","","","","image-keyboard-response","177","361520","0.0-2.0-7.0-1.38","627936b58e6416782149ddcb","E1","batch5","","1044.6000000089407","stim/yes_45_hor_b2_b.png","f","pattern_response","true","f","pattern_67","1044.6000000089407","true","72","","","","","","","","","","","","","","","","","","",""
"","","","","","html-button-response","178","375087","0.0-2.0-8.0","627936b58e6416782149ddcb","E1","batch5","","13061.90000000596","<p class = block-text>This concludes the 4-in-a-row detection game.Thank you for your responses!<br>
            You responded correctly on 92% of the trials.<br>
            When you are ready, press ""Continue"" button to continue </p>","0","","","","","","","","","","","","","","","","","","","","","","","","","",""
"true","","","","","fullscreen","179","380378","0.0-3.0-0.0","627936b58e6416782149ddcb","E1","batch5","","","","","spm_fullscreen","","","","","","","","","","","","","","","","","","","","","","","","",""
"","","","","","html-button-response","180","401742","0.0-3.0-1.0","627936b58e6416782149ddcb","E1","batch5","","21363.29999999702","<p class = block-text><b>Instructions</b> <br>This is a widely used intelligence test in research. <br>In this test, a figure with a missing piece will be presented.<br>Below the figure are alternative pieces to complete the figure, only one of which is correct.<br> Different figures might involve different principles for obtaining the missing piece<br>Your job is to select the most logical piece to complete the figure.</p>","0","","","","","","","","","","","","","","","","","","","","","","","","","",""
"","","","","","html-keyboard-response","181","402544","0.0-3.0-2.0-0.0","627936b58e6416782149ddcb","E1","batch5","","null","<p class=block-text>Trial 1 out of 60</p>","null","spm_show_trial_num","","","","","","","","","","","","","","","","","","","","","","","","",""
"","","","","","image-button-response","182","417791","0.0-3.0-2.0-1.0","627936b58e6416782149ddcb","E1","batch5","","15244.79999999702","img/question_1_1.jpeg","3","spm_respsonse","1","4","mat_01","","","","","","1","15244.79999999702","","","","","","","","","","","","","","",""
"","","","","","html-keyboard-response","183","418862","0.0-3.0-2.0-0.1","627936b58e6416782149ddcb","E1","batch5","","null","<p class=block-text>Trial 2 out of 60</p>","null","spm_show_trial_num","","","","","","","","","","","","","","","","","","","","","","","","",""
"","","","","","image-button-response","184","423071","0.0-3.0-2.0-1.1","627936b58e6416782149ddcb","E1","batch5","","4206.899999991059","img/question_1_2.jpeg","4","spm_respsonse","1","5","mat_02","","","","","","1","4206.899999991059","","","","","","","","","","","","","","",""
"","","","","","html-keyboard-response","185","424137","0.0-3.0-2.0-0.2","627936b58e6416782149ddcb","E1","batch5","","null","<p class=block-text>Trial 3 out of 60</p>","null","spm_show_trial_num","","","","","","","","","","","","","","","","","","","","","","","","",""
"","","","","","image-button-response","186","427430","0.0-3.0-2.0-1.2","627936b58e6416782149ddcb","E1","batch5","","3291.7999999970198","img/question_1_3.jpeg","0","spm_respsonse","1","1","mat_03","","","","","","1","3291.7999999970198","","","","","","","","","","","","","","",""
"","","","","","html-keyboard-response","187","428483","0.0-3.0-2.0-0.3","627936b58e6416782149ddcb","E1","batch5","","null","<p class=block-text>Trial 4 out of 60</p>","null","spm_show_trial_num","","","","","","","","","","","","","","","","","","","","","","","","",""
"","","","","","image-button-response","188","438430","0.0-3.0-2.0-1.3","627936b58e6416782149ddcb","E1","batch5","","9946.20000000298","img/question_1_4.jpeg","1","spm_respsonse","1","2","mat_04","","","","","","1","9946.20000000298","","","","","","","","","","","","","","",""
"","","","","","html-keyboard-response","189","439482","0.0-3.0-2.0-0.4","627936b58e6416782149ddcb","E1","batch5","","null","<p class=block-text>Trial 5 out of 60</p>","null","spm_show_trial_num","","","","","","","","","","","","","","","","","","","","","","","","",""
"","","","","","image-button-response","190","444070","0.0-3.0-2.0-1.4","627936b58e6416782149ddcb","E1","batch5","","4586.399999991059","img/question_1_5.jpeg","5","spm_respsonse","1","6","mat_05","","","","","","1","4586.399999991059","","","","","","","","","","","","","","",""
"","","","","","html-keyboard-response","191","445122","0.0-3.0-2.0-0.5","627936b58e6416782149ddcb","E1","batch5","","null","<p class=block-text>Trial 6 out of 60</p>","null","spm_show_trial_num","","","","","","","","","","","","","","","","","","","","","","","","",""
"","","","","","image-button-response","192","448006","0.0-3.0-2.0-1.5","627936b58e6416782149ddcb","E1","batch5","","2882.5","img/question_1_6.jpeg","2","spm_respsonse","1","3","mat_06","","","","","","1","2882.5","","","","","","","","","","","","","","",""
"","","","","","html-keyboard-response","193","449073","0.0-3.0-2.0-0.6","627936b58e6416782149ddcb","E1","batch5","","null","<p class=block-text>Trial 7 out of 60</p>","null","spm_show_trial_num","","","","","","","","","","","","","","","","","","","","","","","","",""
"","","","","","image-button-response","194","453742","0.0-3.0-2.0-1.6","627936b58e6416782149ddcb","E1","batch5","","4667.79999999702","img/question_1_7.jpeg","5","spm_respsonse","1","6","mat_07","","","","","","1","4667.79999999702","","","","","","","","","","","","","","",""
"","","","","","html-keyboard-response","195","454802","0.0-3.0-2.0-0.7","627936b58e6416782149ddcb","E1","batch5","","null","<p class=block-text>Trial 8 out of 60</p>","null","spm_show_trial_num","","","","","","","","","","","","","","","","","","","","","","","","",""
"","","","","","image-button-response","196","460174","0.0-3.0-2.0-1.7","627936b58e6416782149ddcb","E1","batch5","","5370.20000000298","img/question_1_8.jpeg","1","spm_respsonse","1","2","mat_08","","","","","","1","5370.20000000298","","","","","","","","","","","","","","",""
"","","","","","html-keyboard-response","197","461235","0.0-3.0-2.0-0.8","627936b58e6416782149ddcb","E1","batch5","","null","<p class=block-text>Trial 9 out of 60</p>","null","spm_show_trial_num","","","","","","","","","","","","","","","","","","","","","","","","",""
"","","","","","image-button-response","198","468958","0.0-3.0-2.0-1.8","627936b58e6416782149ddcb","E1","batch5","","7721.70000000298","img/question_1_9.jpeg","0","spm_respsonse","1","1","mat_09","","","","","","1","7721.70000000298","","","","","","","","","","","","","","",""
"","","","","","html-keyboard-response","199","470017","0.0-3.0-2.0-0.9","627936b58e6416782149ddcb","E1","batch5","","null","<p class=block-text>Trial 10 out of 60</p>","null","spm_show_trial_num","","","","","","","","","","","","","","","","","","","","","","","","",""
"","","","","","image-button-response","200","477046","0.0-3.0-2.0-1.9","627936b58e6416782149ddcb","E1","batch5","","7027.29999999702","img/question_1_10.jpeg","2","spm_respsonse","1","3","mat_10","","","","","","1","7027.29999999702","","","","","","","","","","","","","","",""
"","","","","","html-keyboard-response","201","478111","0.0-3.0-2.0-0.10","627936b58e6416782149ddcb","E1","batch5","","null","<p class=block-text>Trial 11 out of 60</p>","null","spm_show_trial_num","","","","","","","","","","","","","","","","","","","","","","","","",""
"","","","","","image-button-response","202","486798","0.0-3.0-2.0-1.10","627936b58e6416782149ddcb","E1","batch5","","8684.29999999702","img/question_1_11.jpeg","3","spm_respsonse","1","4","mat_11","","","","","","1","8684.29999999702","","","","","","","","","","","","","","",""
"","","","","","html-keyboard-response","203","487863","0.0-3.0-2.0-0.11","627936b58e6416782149ddcb","E1","batch5","","null","<p class=block-text>Trial 12 out of 60</p>","null","spm_show_trial_num","","","","","","","","","","","","","","","","","","","","","","","","",""
"","","","","","image-button-response","204","525294","0.0-3.0-2.0-1.11","627936b58e6416782149ddcb","E1","batch5","","37429.59999999404","img/question_1_12.jpeg","4","spm_respsonse","1","5","mat_12","","","","","","1","37429.59999999404","","","","","","","","","","","","","","",""
"","","","","","html-keyboard-response","205","526353","0.0-3.0-2.0-0.12","627936b58e6416782149ddcb","E1","batch5","","null","<p class=block-text>Trial 13 out of 60</p>","null","spm_show_trial_num","","","","","","","","","","","","","","","","","","","","","","","","",""
"","","","","","image-button-response","206","530094","0.0-3.0-2.0-1.12","627936b58e6416782149ddcb","E1","batch5","","3739.0999999940395","img/question_2_1.jpeg","1","spm_respsonse","1","2","mat_13","","","","","","1","3739.0999999940395","","","","","","","","","","","","","","",""
"","","","","","html-keyboard-response","207","531146","0.0-3.0-2.0-0.13","627936b58e6416782149ddcb","E1","batch5","","null","<p class=block-text>Trial 14 out of 60</p>","null","spm_show_trial_num","","","","","","","","","","","","","","","","","","","","","","","","",""
"","","","","","image-button-response","208","536814","0.0-3.0-2.0-1.13","627936b58e6416782149ddcb","E1","batch5","","5666.5999999940395","img/question_2_2.jpeg","5","spm_respsonse","1","6","mat_14","","","","","","1","5666.5999999940395","","","","","","","","","","","","","","",""
"","","","","","html-keyboard-response","209","537873","0.0-3.0-2.0-0.14","627936b58e6416782149ddcb","E1","batch5","","null","<p class=block-text>Trial 15 out of 60</p>","null","spm_show_trial_num","","","","","","","","","","","","","","","","","","","","","","","","",""
"","","","","","image-button-response","210","542230","0.0-3.0-2.0-1.14","627936b58e6416782149ddcb","E1","batch5","","4355.5","img/question_2_3.jpeg","0","spm_respsonse","1","1","mat_15","","","","","","1","4355.5","","","","","","","","","","","","","","",""
"","","","","","html-keyboard-response","211","543289","0.0-3.0-2.0-0.15","627936b58e6416782149ddcb","E1","batch5","","null","<p class=block-text>Trial 16 out of 60</p>","null","spm_show_trial_num","","","","","","","","","","","","","","","","","","","","","","","","",""
"","","","","","image-button-response","212","548422","0.0-3.0-2.0-1.15","627936b58e6416782149ddcb","E1","batch5","","5131","img/question_2_4.jpeg","1","spm_respsonse","1","2","mat_16","","","","","","1","5131","","","","","","","","","","","","","","",""
"","","","","","html-keyboard-response","213","549474","0.0-3.0-2.0-0.16","627936b58e6416782149ddcb","E1","batch5","","null","<p class=block-text>Trial 17 out of 60</p>","null","spm_show_trial_num","","","","","","","","","","","","","","","","","","","","","","","","",""
"","","","","","image-button-response","214","557590","0.0-3.0-2.0-1.16","627936b58e6416782149ddcb","E1","batch5","","8114","img/question_2_5.jpeg","0","spm_respsonse","1","1","mat_17","","","","","","1","8114","","","","","","","","","","","","","","",""
"","","","","","html-keyboard-response","215","558648","0.0-3.0-2.0-0.17","627936b58e6416782149ddcb","E1","batch5","","null","<p class=block-text>Trial 18 out of 60</p>","null","spm_show_trial_num","","","","","","","","","","","","","","","","","","","","","","","","",""
"","","","","","image-button-response","216","567022","0.0-3.0-2.0-1.17","627936b58e6416782149ddcb","E1","batch5","","8372.699999988079","img/question_2_6.jpeg","2","spm_respsonse","1","3","mat_18","","","","","","1","8372.699999988079","","","","","","","","","","","","","","",""
"","","","","","html-keyboard-response","217","568087","0.0-3.0-2.0-0.18","627936b58e6416782149ddcb","E1","batch5","","null","<p class=block-text>Trial 19 out of 60</p>","null","spm_show_trial_num","","","","","","","","","","","","","","","","","","","","","","","","",""
"","","","","","image-button-response","218","578862","0.0-3.0-2.0-1.18","627936b58e6416782149ddcb","E1","batch5","","10772.70000000298","img/question_2_7.jpeg","4","spm_respsonse","1","5","mat_19","","","","","","1","10772.70000000298","","","","","","","","","","","","","","",""
"","","","","","html-keyboard-response","219","579927","0.0-3.0-2.0-0.19","627936b58e6416782149ddcb","E1","batch5","","null","<p class=block-text>Trial 20 out of 60</p>","null","spm_show_trial_num","","","","","","","","","","","","","","","","","","","","","","","","",""
"","","","","","image-button-response","220","587790","0.0-3.0-2.0-1.19","627936b58e6416782149ddcb","E1","batch5","","7860.79999999702","img/question_2_8.jpeg","5","spm_respsonse","1","6","mat_20","","","","","","1","7860.79999999702","","","","","","","","","","","","","","",""
"","","","","","html-keyboard-response","221","588855","0.0-3.0-2.0-0.20","627936b58e6416782149ddcb","E1","batch5","","null","<p class=block-text>Trial 21 out of 60</p>","null","spm_show_trial_num","","","","","","","","","","","","","","","","","","","","","","","","",""
"","","","","","image-button-response","222","595822","0.0-3.0-2.0-1.20","627936b58e6416782149ddcb","E1","batch5","","6965.5999999940395","img/question_2_9.jpeg","3","spm_respsonse","1","4","mat_21","","","","","","1","6965.5999999940395","","","","","","","","","","","","","","",""
"","","","","","html-keyboard-response","223","596887","0.0-3.0-2.0-0.21","627936b58e6416782149ddcb","E1","batch5","","null","<p class=block-text>Trial 22 out of 60</p>","null","spm_show_trial_num","","","","","","","","","","","","","","","","","","","","","","","","",""
"","","","","","image-button-response","224","602758","0.0-3.0-2.0-1.21","627936b58e6416782149ddcb","E1","batch5","","5869.5999999940395","img/question_2_10.jpeg","2","spm_respsonse","1","3","mat_22","","","","","","1","5869.5999999940395","","","","","","","","","","","","","","",""
"","","","","","html-keyboard-response","225","603820","0.0-3.0-2.0-0.22","627936b58e6416782149ddcb","E1","batch5","","null","<p class=block-text>Trial 23 out of 60</p>","null","spm_show_trial_num","","","","","","","","","","","","","","","","","","","","","","","","",""
"","","","","","image-button-response","226","610110","0.0-3.0-2.0-1.22","627936b58e6416782149ddcb","E1","batch5","","6287.70000000298","img/question_2_11.jpeg","3","spm_respsonse","1","4","mat_23","","","","","","1","6287.70000000298","","","","","","","","","","","","","","",""
"","","","","","html-keyboard-response","227","611177","0.0-3.0-2.0-0.23","627936b58e6416782149ddcb","E1","batch5","","null","<p class=block-text>Trial 24 out of 60</p>","null","spm_show_trial_num","","","","","","","","","","","","","","","","","","","","","","","","",""
"","","","","","image-button-response","228","625966","0.0-3.0-2.0-1.23","627936b58e6416782149ddcb","E1","batch5","","14787.29999999702","img/question_2_12.jpeg","4","spm_respsonse","1","5","mat_24","","","","","","1","14787.29999999702","","","","","","","","","","","","","","",""
"","","","","","html-button-response","229","627734","0.0-3.0-3.0","627936b58e6416782149ddcb","E1","batch5","","1516","<p class = block-text>Attention check: Please choose 1<br></p>","0","attention_check","true","","","","","","","","","","","","","","","","","","","","","","","",""
"","","","","","html-keyboard-response","230","628549","0.0-3.0-4.0-0.0","627936b58e6416782149ddcb","E1","batch5","","null","<p class=block-text>Trial 25 out of 60</p>","null","spm_show_trial_num","","","","","","","","","","","","","","","","","","","","","","","","",""
"","","","","","image-button-response","231","636606","0.0-3.0-4.0-1.0","627936b58e6416782149ddcb","E1","batch5","","8055.4000000059605","img/question_3_1.jpeg","7","spm_respsonse","1","8","mat_25","","","","","","1","8055.4000000059605","","","","","","","","","","","","","","",""
"","","","","","html-keyboard-response","232","637667","0.0-3.0-4.0-0.1","627936b58e6416782149ddcb","E1","batch5","","null","<p class=block-text>Trial 26 out of 60</p>","null","spm_show_trial_num","","","","","","","","","","","","","","","","","","","","","","","","",""
"","","","","","image-button-response","233","645262","0.0-3.0-4.0-1.1","627936b58e6416782149ddcb","E1","batch5","","7593.5","img/question_3_2.jpeg","1","spm_respsonse","1","2","mat_26","","","","","","1","7593.5","","","","","","","","","","","","","","",""
"","","","","","html-keyboard-response","234","646314","0.0-3.0-4.0-0.2","627936b58e6416782149ddcb","E1","batch5","","null","<p class=block-text>Trial 27 out of 60</p>","null","spm_show_trial_num","","","","","","","","","","","","","","","","","","","","","","","","",""
"","","","","","image-button-response","235","660022","0.0-3.0-4.0-1.2","627936b58e6416782149ddcb","E1","batch5","","13706.29999999702","img/question_3_3.jpeg","2","spm_respsonse","1","3","mat_27","","","","","","1","13706.29999999702","","","","","","","","","","","","","","",""
"","","","","","html-keyboard-response","236","661101","0.0-3.0-4.0-0.3","627936b58e6416782149ddcb","E1","batch5","","null","<p class=block-text>Trial 28 out of 60</p>","null","spm_show_trial_num","","","","","","","","","","","","","","","","","","","","","","","","",""
"","","","","","image-button-response","237","676862","0.0-3.0-4.0-1.3","627936b58e6416782149ddcb","E1","batch5","","15759","img/question_3_4.jpeg","7","spm_respsonse","1","8","mat_28","","","","","","1","15759","","","","","","","","","","","","","","",""
"","","","","","html-keyboard-response","238","677920","0.0-3.0-4.0-0.4","627936b58e6416782149ddcb","E1","batch5","","null","<p class=block-text>Trial 29 out of 60</p>","null","spm_show_trial_num","","","","","","","","","","","","","","","","","","","","","","","","",""
"","","","","","image-button-response","239","692767","0.0-3.0-4.0-1.4","627936b58e6416782149ddcb","E1","batch5","","14845.09999999404","img/question_3_5.jpeg","6","spm_respsonse","1","7","mat_29","","","","","","1","14845.09999999404","","","","","","","","","","","","","","",""
"","","","","","html-keyboard-response","240","693828","0.0-3.0-4.0-0.5","627936b58e6416782149ddcb","E1","batch5","","null","<p class=block-text>Trial 30 out of 60</p>","null","spm_show_trial_num","","","","","","","","","","","","","","","","","","","","","","","","",""
"","","","","","image-button-response","241","713231","0.0-3.0-4.0-1.5","627936b58e6416782149ddcb","E1","batch5","","19400.70000000298","img/question_3_6.jpeg","3","spm_respsonse","1","4","mat_30","","","","","","1","19400.70000000298","","","","","","","","","","","","","","",""
"","","","","","html-keyboard-response","242","714296","0.0-3.0-4.0-0.6","627936b58e6416782149ddcb","E1","batch5","","null","<p class=block-text>Trial 31 out of 60</p>","null","spm_show_trial_num","","","","","","","","","","","","","","","","","","","","","","","","",""
"","","","","","image-button-response","243","722422","0.0-3.0-4.0-1.6","627936b58e6416782149ddcb","E1","batch5","","8124.600000008941","img/question_3_7.jpeg","4","spm_respsonse","1","5","mat_31","","","","","","1","8124.600000008941","","","","","","","","","","","","","","",""
"","","","","","html-keyboard-response","244","723475","0.0-3.0-4.0-0.7","627936b58e6416782149ddcb","E1","batch5","","null","<p class=block-text>Trial 32 out of 60</p>","null","spm_show_trial_num","","","","","","","","","","","","","","","","","","","","","","","","",""
"","","","","","image-button-response","245","731959","0.0-3.0-4.0-1.7","627936b58e6416782149ddcb","E1","batch5","","8481.59999999404","img/question_3_8.jpeg","0","spm_respsonse","1","1","mat_32","","","","","","1","8481.59999999404","","","","","","","","","","","","","","",""
"","","","","","html-keyboard-response","246","733026","0.0-3.0-4.0-0.8","627936b58e6416782149ddcb","E1","batch5","","null","<p class=block-text>Trial 33 out of 60</p>","null","spm_show_trial_num","","","","","","","","","","","","","","","","","","","","","","","","",""
"","","","","","image-button-response","247","743982","0.0-3.0-4.0-1.8","627936b58e6416782149ddcb","E1","batch5","","10954.20000000298","img/question_3_9.jpeg","6","spm_respsonse","1","7","mat_33","","","","","","1","10954.20000000298","","","","","","","","","","","","","","",""
"","","","","","html-keyboard-response","248","745038","0.0-3.0-4.0-0.9","627936b58e6416782149ddcb","E1","batch5","","null","<p class=block-text>Trial 34 out of 60</p>","null","spm_show_trial_num","","","","","","","","","","","","","","","","","","","","","","","","",""
"","","","","","image-button-response","249","777166","0.0-3.0-4.0-1.9","627936b58e6416782149ddcb","E1","batch5","","32126.5","img/question_3_10.jpeg","5","spm_respsonse","1","6","mat_34","","","","","","1","32126.5","","","","","","","","","","","","","","",""
"","","","","","html-keyboard-response","250","778218","0.0-3.0-4.0-0.10","627936b58e6416782149ddcb","E1","batch5","","null","<p class=block-text>Trial 35 out of 60</p>","null","spm_show_trial_num","","","","","","","","","","","","","","","","","","","","","","","","",""
"","","","","","image-button-response","251","797078","0.0-3.0-4.0-1.10","627936b58e6416782149ddcb","E1","batch5","","18858.29999999702","img/question_3_11.jpeg","0","spm_respsonse","1","1","mat_35","","","","","","1","18858.29999999702","","","","","","","","","","","","","","",""
"","","","","","html-keyboard-response","252","798139","0.0-3.0-4.0-0.11","627936b58e6416782149ddcb","E1","batch5","","null","<p class=block-text>Trial 36 out of 60</p>","null","spm_show_trial_num","","","","","","","","","","","","","","","","","","","","","","","","",""
"","","","","","image-button-response","253","816582","0.0-3.0-4.0-1.11","627936b58e6416782149ddcb","E1","batch5","","18441.10000000894","img/question_3_12.jpeg","1","spm_respsonse","1","2","mat_36","","","","","","1","18441.10000000894","","","","","","","","","","","","","","",""
"","","","","","html-keyboard-response","254","817635","0.0-3.0-4.0-0.12","627936b58e6416782149ddcb","E1","batch5","","null","<p class=block-text>Trial 37 out of 60</p>","null","spm_show_trial_num","","","","","","","","","","","","","","","","","","","","","","","","",""
"","","","","","image-button-response","255","823182","0.0-3.0-4.0-1.12","627936b58e6416782149ddcb","E1","batch5","","5545.800000011921","img/question_4_1.jpeg","2","spm_respsonse","1","3","mat_37","","","","","","1","5545.800000011921","","","","","","","","","","","","","","",""
"","","","","","html-keyboard-response","256","824234","0.0-3.0-4.0-0.13","627936b58e6416782149ddcb","E1","batch5","","null","<p class=block-text>Trial 38 out of 60</p>","null","spm_show_trial_num","","","","","","","","","","","","","","","","","","","","","","","","",""
"","","","","","image-button-response","257","842262","0.0-3.0-4.0-1.13","627936b58e6416782149ddcb","E1","batch5","","18026.20000000298","img/question_4_2.jpeg","3","spm_respsonse","1","4","mat_38","","","","","","1","18026.20000000298","","","","","","","","","","","","","","",""
"","","","","","html-keyboard-response","258","843315","0.0-3.0-4.0-0.14","627936b58e6416782149ddcb","E1","batch5","","null","<p class=block-text>Trial 39 out of 60</p>","null","spm_show_trial_num","","","","","","","","","","","","","","","","","","","","","","","","",""
"","","","","","image-button-response","259","857278","0.0-3.0-4.0-1.14","627936b58e6416782149ddcb","E1","batch5","","13961.29999999702","img/question_4_3.jpeg","2","spm_respsonse","1","3","mat_39","","","","","","1","13961.29999999702","","","","","","","","","","","","","","",""
"","","","","","html-keyboard-response","260","858331","0.0-3.0-4.0-0.15","627936b58e6416782149ddcb","E1","batch5","","null","<p class=block-text>Trial 40 out of 60</p>","null","spm_show_trial_num","","","","","","","","","","","","","","","","","","","","","","","","",""
"","","","","","image-button-response","261","865110","0.0-3.0-4.0-1.15","627936b58e6416782149ddcb","E1","batch5","","6777.4000000059605","img/question_4_4.jpeg","6","spm_respsonse","1","7","mat_40","","","","","","1","6777.4000000059605","","","","","","","","","","","","","","",""
"","","","","","html-keyboard-response","262","866163","0.0-3.0-4.0-0.16","627936b58e6416782149ddcb","E1","batch5","","null","<p class=block-text>Trial 41 out of 60</p>","null","spm_show_trial_num","","","","","","","","","","","","","","","","","","","","","","","","",""
"","","","","","image-button-response","263","880726","0.0-3.0-4.0-1.16","627936b58e6416782149ddcb","E1","batch5","","14561.79999999702","img/question_4_5.jpeg","7","spm_respsonse","1","8","mat_41","","","","","","1","14561.79999999702","","","","","","","","","","","","","","",""
"","","","","","html-keyboard-response","264","881778","0.0-3.0-4.0-0.17","627936b58e6416782149ddcb","E1","batch5","","null","<p class=block-text>Trial 42 out of 60</p>","null","spm_show_trial_num","","","","","","","","","","","","","","","","","","","","","","","","",""
"","","","","","image-button-response","265","898782","0.0-3.0-4.0-1.17","627936b58e6416782149ddcb","E1","batch5","","17001.90000000596","img/question_4_6.jpeg","5","spm_respsonse","1","6","mat_42","","","","","","1","17001.90000000596","","","","","","","","","","","","","","",""
"","","","","","html-keyboard-response","266","899838","0.0-3.0-4.0-0.18","627936b58e6416782149ddcb","E1","batch5","","null","<p class=block-text>Trial 43 out of 60</p>","null","spm_show_trial_num","","","","","","","","","","","","","","","","","","","","","","","","",""
"","","","","","image-button-response","267","916014","0.0-3.0-4.0-1.18","627936b58e6416782149ddcb","E1","batch5","","16174.5","img/question_4_7.jpeg","4","spm_respsonse","1","5","mat_43","","","","","","1","16174.5","","","","","","","","","","","","","","",""
"","","","","","html-keyboard-response","268","917066","0.0-3.0-4.0-0.19","627936b58e6416782149ddcb","E1","batch5","","null","<p class=block-text>Trial 44 out of 60</p>","null","spm_show_trial_num","","","","","","","","","","","","","","","","","","","","","","","","",""
"","","","","","image-button-response","269","928902","0.0-3.0-4.0-1.19","627936b58e6416782149ddcb","E1","batch5","","11834.5","img/question_4_8.jpeg","3","spm_respsonse","1","4","mat_44","","","","","","1","11834.5","","","","","","","","","","","","","","",""
"","","","","","html-keyboard-response","270","929954","0.0-3.0-4.0-0.20","627936b58e6416782149ddcb","E1","batch5","","null","<p class=block-text>Trial 45 out of 60</p>","null","spm_show_trial_num","","","","","","","","","","","","","","","","","","","","","","","","",""
"","","","","","image-button-response","271","962174","0.0-3.0-4.0-1.20","627936b58e6416782149ddcb","E1","batch5","","32218.39999999106","img/question_4_9.jpeg","0","spm_respsonse","1","1","mat_45","","","","","","1","32218.39999999106","","","","","","","","","","","","","","",""
"","","","","","html-keyboard-response","272","963227","0.0-3.0-4.0-0.21","627936b58e6416782149ddcb","E1","batch5","","null","<p class=block-text>Trial 46 out of 60</p>","null","spm_show_trial_num","","","","","","","","","","","","","","","","","","","","","","","","",""
"","","","","","image-button-response","273","975974","0.0-3.0-4.0-1.21","627936b58e6416782149ddcb","E1","batch5","","12745.79999999702","img/question_4_10.jpeg","1","spm_respsonse","1","2","mat_46","","","","","","1","12745.79999999702","","","","","","","","","","","","","","",""
"","","","","","html-keyboard-response","274","977026","0.0-3.0-4.0-0.22","627936b58e6416782149ddcb","E1","batch5","","null","<p class=block-text>Trial 47 out of 60</p>","null","spm_show_trial_num","","","","","","","","","","","","","","","","","","","","","","","","",""
"","","","","","image-button-response","275","1060758","0.0-3.0-4.0-1.22","627936b58e6416782149ddcb","E1","batch5","","83730.20000000298","img/question_4_11.jpeg","2","spm_respsonse","0","5","mat_47","","","","","","0","83730.20000000298","","","","","","","","","","","","","","",""
"","","","","","html-keyboard-response","276","1061815","0.0-3.0-4.0-0.23","627936b58e6416782149ddcb","E1","batch5","","null","<p class=block-text>Trial 48 out of 60</p>","null","spm_show_trial_num","","","","","","","","","","","","","","","","","","","","","","","","",""
"","","","","","image-button-response","277","1104022","0.0-3.0-4.0-1.23","627936b58e6416782149ddcb","E1","batch5","","42205.60000000894","img/question_4_12.jpeg","5","spm_respsonse","1","6","mat_48","","","","","","1","42205.60000000894","","","","","","","","","","","","","","",""
"","","","","","html-keyboard-response","278","1105083","0.0-3.0-4.0-0.24","627936b58e6416782149ddcb","E1","batch5","","null","<p class=block-text>Trial 49 out of 60</p>","null","spm_show_trial_num","","","","","","","","","","","","","","","","","","","","","","","","",""
"","","","","","image-button-response","279","1117902","0.0-3.0-4.0-1.24","627936b58e6416782149ddcb","E1","batch5","","12817.5","img/question_5_1.jpeg","6","spm_respsonse","1","7","mat_49","","","","","","1","12817.5","","","","","","","","","","","","","","",""
"","","","","","html-keyboard-response","280","1118955","0.0-3.0-4.0-0.25","627936b58e6416782149ddcb","E1","batch5","","null","<p class=block-text>Trial 50 out of 60</p>","null","spm_show_trial_num","","","","","","","","","","","","","","","","","","","","","","","","",""
"","","","","","image-button-response","281","1166942","0.0-3.0-4.0-1.25","627936b58e6416782149ddcb","E1","batch5","","47985.10000000894","img/question_5_2.jpeg","5","spm_respsonse","1","6","mat_50","","","","","","1","47985.10000000894","","","","","","","","","","","","","","",""
"","","","","","html-keyboard-response","282","1167995","0.0-3.0-4.0-0.26","627936b58e6416782149ddcb","E1","batch5","","null","<p class=block-text>Trial 51 out of 60</p>","null","spm_show_trial_num","","","","","","","","","","","","","","","","","","","","","","","","",""
"","","","","","image-button-response","283","1183342","0.0-3.0-4.0-1.26","627936b58e6416782149ddcb","E1","batch5","","15345.29999999702","img/question_5_3.jpeg","7","spm_respsonse","1","8","mat_51","","","","","","1","15345.29999999702","","","","","","","","","","","","","","",""
"","","","","","html-keyboard-response","284","1184397","0.0-3.0-4.0-0.27","627936b58e6416782149ddcb","E1","batch5","","null","<p class=block-text>Trial 52 out of 60</p>","null","spm_show_trial_num","","","","","","","","","","","","","","","","","","","","","","","","",""
"","","","","","image-button-response","285","1195814","0.0-3.0-4.0-1.27","627936b58e6416782149ddcb","E1","batch5","","11414.70000000298","img/question_5_4.jpeg","1","spm_respsonse","1","2","mat_52","","","","","","1","11414.70000000298","","","","","","","","","","","","","","",""
"","","","","","html-keyboard-response","286","1196874","0.0-3.0-4.0-0.28","627936b58e6416782149ddcb","E1","batch5","","null","<p class=block-text>Trial 53 out of 60</p>","null","spm_show_trial_num","","","","","","","","","","","","","","","","","","","","","","","","",""
"","","","","","image-button-response","287","1203998","0.0-3.0-4.0-1.28","627936b58e6416782149ddcb","E1","batch5","","7123.0999999940395","img/question_5_5.jpeg","0","spm_respsonse","1","1","mat_53","","","","","","1","7123.0999999940395","","","","","","","","","","","","","","",""
"","","","","","html-keyboard-response","288","1205050","0.0-3.0-4.0-0.29","627936b58e6416782149ddcb","E1","batch5","","null","<p class=block-text>Trial 54 out of 60</p>","null","spm_show_trial_num","","","","","","","","","","","","","","","","","","","","","","","","",""
"","","","","","image-button-response","289","1233774","0.0-3.0-4.0-1.29","627936b58e6416782149ddcb","E1","batch5","","28722.5","img/question_5_6.jpeg","4","spm_respsonse","1","5","mat_54","","","","","","1","28722.5","","","","","","","","","","","","","","",""
"","","","","","html-keyboard-response","290","1234828","0.0-3.0-4.0-0.30","627936b58e6416782149ddcb","E1","batch5","","null","<p class=block-text>Trial 55 out of 60</p>","null","spm_show_trial_num","","","","","","","","","","","","","","","","","","","","","","","","",""
"","","","","","image-button-response","291","1269158","0.0-3.0-4.0-1.30","627936b58e6416782149ddcb","E1","batch5","","34328.29999999702","img/question_5_7.jpeg","0","spm_respsonse","1","1","mat_55","","","","","","1","34328.29999999702","","","","","","","","","","","","","","",""
"","","","","","html-keyboard-response","292","1270223","0.0-3.0-4.0-0.31","627936b58e6416782149ddcb","E1","batch5","","null","<p class=block-text>Trial 56 out of 60</p>","null","spm_show_trial_num","","","","","","","","","","","","","","","","","","","","","","","","",""
"","","","","","image-button-response","293","1278726","0.0-3.0-4.0-1.31","627936b58e6416782149ddcb","E1","batch5","","8500.89999999106","img/question_5_8.jpeg","5","spm_respsonse","1","6","mat_56","","","","","","1","8500.89999999106","","","","","","","","","","","","","","",""
"","","","","","html-keyboard-response","294","1279787","0.0-3.0-4.0-0.32","627936b58e6416782149ddcb","E1","batch5","","null","<p class=block-text>Trial 57 out of 60</p>","null","spm_show_trial_num","","","","","","","","","","","","","","","","","","","","","","","","",""
"","","","","","image-button-response","295","1302862","0.0-3.0-4.0-1.32","627936b58e6416782149ddcb","E1","batch5","","23072.59999999404","img/question_5_9.jpeg","2","spm_respsonse","1","3","mat_57","","","","","","1","23072.59999999404","","","","","","","","","","","","","","",""
"","","","","","html-keyboard-response","296","1303914","0.0-3.0-4.0-0.33","627936b58e6416782149ddcb","E1","batch5","","null","<p class=block-text>Trial 58 out of 60</p>","null","spm_show_trial_num","","","","","","","","","","","","","","","","","","","","","","","","",""
"","","","","","image-button-response","297","1412014","0.0-3.0-4.0-1.33","627936b58e6416782149ddcb","E1","batch5","","108097.89999999106","img/question_5_10.jpeg","7","spm_respsonse","0","2","mat_58","","","","","","0","108097.89999999106","","","","","","","","","","","","","","",""
"","","","","","html-keyboard-response","298","1413067","0.0-3.0-4.0-0.34","627936b58e6416782149ddcb","E1","batch5","","null","<p class=block-text>Trial 59 out of 60</p>","null","spm_show_trial_num","","","","","","","","","","","","","","","","","","","","","","","","",""
"","","","","","image-button-response","299","1585781","0.0-3.0-4.0-1.34","627936b58e6416782149ddcb","E1","batch5","","172713.09999999404","img/question_5_11.jpeg","7","spm_respsonse","0","4","mat_59","","","","","","0","172713.09999999404","","","","","","","","","","","","","","",""
"","","","","","html-keyboard-response","300","1586834","0.0-3.0-4.0-0.35","627936b58e6416782149ddcb","E1","batch5","","null","<p class=block-text>Trial 60 out of 60</p>","null","spm_show_trial_num","","","","","","","","","","","","","","","","","","","","","","","","",""
"","","","","","image-button-response","301","1636366","0.0-3.0-4.0-1.35","627936b58e6416782149ddcb","E1","batch5","","49528.90000000596","img/question_5_12.jpeg","2","spm_respsonse","0","5","mat_60","","","","","","0","49528.90000000596","","","","","","","","","","","","","","",""
"","","","","","html-button-response","302","1639278","0.0-3.0-5.0","627936b58e6416782149ddcb","E1","batch5","","2660.1000000089407","<p class= block-text>This concludes the Standard Progressive Matrix game. Thank you for your responses!<br> When you are ready, click the button continue</p>","0","spm_goodbye","","","","","","","","","","","","","","","","","","","","","","","","",""
"true","","","","","fullscreen","303","1641392","0.0-4.0-0.0","627936b58e6416782149ddcb","E1","batch5","","","","","","","","","","","","","","","","","","","","","","","","","","","","","",""
"","","","","","instructions","304","1692558","0.0-4.0-1.0-0.0-0.0","627936b58e6416782149ddcb","E1","batch5","[{""page_index"":0,""viewing_time"":12421.29999999702},{""page_index"":1,""viewing_time"":4751.9000000059605},{""page_index"":2,""viewing_time"":3127.9000000059605},{""page_index"":3,""viewing_time"":7744.0999999940395},{""page_index"":4,""viewing_time"":6927.9000000059605},{""page_index"":5,""viewing_time"":12360},{""page_index"":6,""viewing_time"":3832}]","51165.29999999702","","","tol-instructions","","","","","","","","","","","","","","","","","","","","","","","","",""
"","","","","","html-button-response","305","1693493","0.0-4.0-1.0-1.0-0.0","627936b58e6416782149ddcb","E1","batch5","","935.1000000089407","<p class=block-text> Let's answer a few questions <br>","0","tol_enter_quiz","","","","","","","","","","","","","","","","","","","","","","","","",""
"","","","","","html-button-response","306","1697781","0.0-4.0-1.0-1.0-1.0","627936b58e6416782149ddcb","E1","batch5","","4287.300000011921","<p class = block-text>True or False: You can only move the ball on top of a peg. <br></p>","1","tol_quiz","false","","","","","","","","","","","","","","","","","","","","","","","",""
"","","","","","html-button-response","307","1700829","0.0-4.0-1.0-1.0-2.0","627936b58e6416782149ddcb","E1","batch5","","3046.6000000089407","<p class = block-text>Incorrect. Remember, you can only move the ball on top of a peg.</p>","0","tol_quiz_feedback","","","","","","","","","","","","","","","","","","","","","","","","",""
"","","","","","html-button-response","308","1705205","0.0-4.0-1.0-1.0-3.0","627936b58e6416782149ddcb","E1","batch5","","4375.4000000059605","<p class = block-text>True or False: You should try to match your board with the target board with fewest moves possible. <br></p>","0","tol_quiz","true","","","","","","","","","","","","","","","","","","","","","","","",""
"","","","","","html-button-response","309","1705814","0.0-4.0-1.0-1.0-4.0","627936b58e6416782149ddcb","E1","batch5","","607.2000000029802","<p class = block-text>Correct! </p>","0","tol_quiz_feedback","","","","","","","","","","","","","","","","","","","","","","","","",""
"","","","","","html-button-response","310","1707573","0.0-4.0-1.0-2.0-0.0","627936b58e6416782149ddcb","E1","batch5","","1758.300000011921","<p class = block-text>You made too many incorrect choices.</p><p class = block-text>You will now repeat the instructions and quiz</p>","0","","","","","","","","","","","","","","","","","","","","","","","","","",""
"","","","","","instructions","311","1758341","0.0-4.0-1.1-0.1-0.1","627936b58e6416782149ddcb","E1","batch5","[{""page_index"":0,""viewing_time"":8639.20000000298},{""page_index"":1,""viewing_time"":2416},{""page_index"":2,""viewing_time"":1847.9000000059605},{""page_index"":3,""viewing_time"":11136},{""page_index"":4,""viewing_time"":5720},{""page_index"":5,""viewing_time"":19656},{""page_index"":6,""viewing_time"":1351.8999999910593}]","50767.29999999702","","","tol-instructions","","","","","","","","","","","","","","","","","","","","","","","","",""
"","","","","","html-button-response","312","1758958","0.0-4.0-1.1-1.1-0.1","627936b58e6416782149ddcb","E1","batch5","","615.9000000059605","<p class=block-text> Let's answer a few questions <br>","0","tol_enter_quiz","","","","","","","","","","","","","","","","","","","","","","","","",""
"","","","","","html-button-response","313","1763110","0.0-4.0-1.1-1.1-1.1","627936b58e6416782149ddcb","E1","batch5","","4150.70000000298","<p class = block-text>True or False: You can only move the ball on top of a peg. <br></p>","1","tol_quiz","false","","","","","","","","","","","","","","","","","","","","","","","",""
"","","","","","html-button-response","314","1763958","0.0-4.0-1.1-1.1-2.1","627936b58e6416782149ddcb","E1","batch5","","847.1000000089407","<p class = block-text>Incorrect. Remember, you can only move the ball on top of a peg.</p>","0","tol_quiz_feedback","","","","","","","","","","","","","","","","","","","","","","","","",""
"","","","","","html-button-response","315","1765734","0.0-4.0-1.1-1.1-3.1","627936b58e6416782149ddcb","E1","batch5","","1775.2000000029802","<p class = block-text>True or False: You should try to match your board with the target board with fewest moves possible. <br></p>","0","tol_quiz","true","","","","","","","","","","","","","","","","","","","","","","","",""
"","","","","","html-button-response","316","1766158","0.0-4.0-1.1-1.1-4.1","627936b58e6416782149ddcb","E1","batch5","","423.30000001192093","<p class = block-text>Correct! </p>","0","tol_quiz_feedback","","","","","","","","","","","","","","","","","","","","","","","","",""
"","","","","","html-button-response","317","1766845","0.0-4.0-1.1-2.1-0.1","627936b58e6416782149ddcb","E1","batch5","","687.2000000029802","<p class = block-text>You made too many incorrect choices.</p><p class = block-text>You will now repeat the instructions and quiz</p>","0","","","","","","","","","","","","","","","","","","","","","","","","","",""
"","","","","","instructions","318","1771542","0.0-4.0-1.2-0.2-0.2","627936b58e6416782149ddcb","E1","batch5","[{""page_index"":0,""viewing_time"":1103.4000000059605},{""page_index"":1,""viewing_time"":559.9000000059605},{""page_index"":2,""viewing_time"":424},{""page_index"":3,""viewing_time"":647.8999999910593},{""page_index"":4,""viewing_time"":592.1000000089407},{""page_index"":5,""viewing_time"":511.8999999910593},{""page_index"":6,""viewing_time"":856.1000000089407}]","4695.4000000059605","","","tol-instructions","","","","","","","","","","","","","","","","","","","","","","","","",""
"","","","","","html-button-response","319","1772046","0.0-4.0-1.2-1.2-0.2","627936b58e6416782149ddcb","E1","batch5","","503.5","<p class=block-text> Let's answer a few questions <br>","0","tol_enter_quiz","","","","","","","","","","","","","","","","","","","","","","","","",""
"","","","","","html-button-response","320","1772518","0.0-4.0-1.2-1.2-1.2","627936b58e6416782149ddcb","E1","batch5","","471.09999999403954","<p class = block-text>True or False: You can only move the ball on top of a peg. <br></p>","0","tol_quiz","true","","","","","","","","","","","","","","","","","","","","","","","",""
"","","","","","html-button-response","321","1773086","0.0-4.0-1.2-1.2-2.2","627936b58e6416782149ddcb","E1","batch5","","567.4000000059605","<p class = block-text>Correct! You can only move the ball on top of a peg.</p>","0","tol_quiz_feedback","","","","","","","","","","","","","","","","","","","","","","","","",""
"","","","","","html-button-response","322","1774246","0.0-4.0-1.2-1.2-3.2","627936b58e6416782149ddcb","E1","batch5","","1159.2999999970198","<p class = block-text>True or False: You should try to match your board with the target board with fewest moves possible. <br></p>","0","tol_quiz","true","","","","","","","","","","","","","","","","","","","","","","","",""
"","","","","","html-button-response","323","1774646","0.0-4.0-1.2-1.2-4.2","627936b58e6416782149ddcb","E1","batch5","","399.40000000596046","<p class = block-text>Correct! </p>","0","tol_quiz_feedback","","","","","","","","","","","","","","","","","","","","","","","","",""
"","","","","","html-button-response","324","1775702","0.0-4.0-2.0","627936b58e6416782149ddcb","E1","batch5","","1055.2000000029802","<p class=block-text> Now that you've understood the game, let's practice a few easier examples before we start!<br> <br>","0","","","","","","","","","","","","","","","","","","","","","","","","","",""
"","","","","","single-stim-button","325","1777599","0.0-4.0-3.0-0.0","627936b58e6416782149ddcb","E1","batch5","","1896","","","tol_practice","","","","","","","","","","","tol_peg_2","1896","1896","0","[[1,2,0],[0,0],[0]]","1","[[1,2,0],[0,0],[3]]","practice","1896","","","","","",""
"","","","","","single-stim-button","326","1779894","0.0-4.0-3.0-1.0","627936b58e6416782149ddcb","E1","batch5","","2294","","","tol_practice","","","","","","","","","","","tol_peg_3","2294","2294","0","[[1,2,0],[0,0],[3]]","1","[[1,2,0],[0,0],[3]]","practice","2294","","","","","",""
"","","","","","poldrack-single-stim","327","1780896","0.0-4.0-4.0","627936b58e6416782149ddcb","E1","batch5","","-1","","","tol_feedback","true","","","","","","","","","","","1000","1000","500","","","","","","-1","none","true","","0",""
"","","","","","single-stim-button","328","1784190","0.0-4.0-5.0-0.0","627936b58e6416782149ddcb","E1","batch5","","3294","","","tol_practice","","","","","","","","","","","tol_peg_1","3294","3294","0","[[1,0,0],[3,0],[0]]","2","[[0,0,0],[3,1],[2]]","practice","3294","","","","","",""
"","","","","","single-stim-button","329","1784934","0.0-4.0-5.0-1.0","627936b58e6416782149ddcb","E1","batch5","","744","","","tol_practice","","","","","","","","","","","tol_peg_3","744","744","0","[[1,0,0],[3,0],[2]]","2","[[0,0,0],[3,1],[2]]","practice","744","","","","","",""
"","","","","","single-stim-button","330","1785782","0.0-4.0-5.1-0.1","627936b58e6416782149ddcb","E1","batch5","","848","","","tol_practice","","","","","","","","","","","tol_peg_1","848","848","0","[[0,0,0],[3,0],[2]]","3","[[0,0,0],[3,1],[2]]","practice","848","","","","","",""
"","","","","","single-stim-button","331","1786502","0.0-4.0-5.1-1.1","627936b58e6416782149ddcb","E1","batch5","","719","","","tol_practice","","","","","","","","","","","tol_peg_2","719","719","0","[[0,0,0],[3,1],[2]]","3","[[0,0,0],[3,1],[2]]","practice","719","","","","","",""
"","","","","","poldrack-single-stim","332","1787503","0.0-4.0-6.0","627936b58e6416782149ddcb","E1","batch5","","-1","","","tol_feedback","true","","","","","","","","","","","1000","1000","500","","","","","","-1","none","true","","0",""
"","","","","","single-stim-button","333","1789814","0.0-4.0-7.0-0.0","627936b58e6416782149ddcb","E1","batch5","","2311","","","tol_practice","","","","","","","","","","","tol_peg_1","2311","2311","0","[[1,0,0],[3,0],[0]]","4","[[1,0,0],[2,0],[3]]","practice","2311","","","","","",""
"","","","","","single-stim-button","334","1792806","0.0-4.0-7.0-1.0","627936b58e6416782149ddcb","E1","batch5","","2992","","","tol_practice","","","","","","","","","","","tol_peg_1","2992","2992","0","[[1,2,0],[3,0],[0]]","4","[[1,0,0],[2,0],[3]]","practice","2992","","","","","",""
"","","","","","single-stim-button","335","1793390","0.0-4.0-7.1-0.1","627936b58e6416782149ddcb","E1","batch5","","584","","","tol_practice","","","","","","","","","","","tol_peg_2","584","584","0","[[1,2,0],[0,0],[0]]","5","[[1,0,0],[2,0],[3]]","practice","584","","","","","",""
"","","","","","single-stim-button","336","1794302","0.0-4.0-7.1-1.1","627936b58e6416782149ddcb","E1","batch5","","911","","","tol_practice","","","","","","","","","","","tol_peg_3","911","911","0","[[1,2,0],[0,0],[3]]","5","[[1,0,0],[2,0],[3]]","practice","911","","","","","",""
"","","","","","single-stim-button","337","1794990","0.0-4.0-7.2-0.2","627936b58e6416782149ddcb","E1","batch5","","688","","","tol_practice","","","","","","","","","","","tol_peg_1","688","688","0","[[1,0,0],[0,0],[3]]","6","[[1,0,0],[2,0],[3]]","practice","688","","","","","",""
"","","","","","single-stim-button","338","1795558","0.0-4.0-7.2-1.2","627936b58e6416782149ddcb","E1","batch5","","568","","","tol_practice","","","","","","","","","","","tol_peg_2","568","568","0","[[1,0,0],[2,0],[3]]","6","[[1,0,0],[2,0],[3]]","practice","568","","","","","",""
"","","","","","poldrack-single-stim","339","1796559","0.0-4.0-8.0","627936b58e6416782149ddcb","E1","batch5","","-1","","","tol_feedback","true","","","","","","","","","","","1000","1000","500","","","","","","-1","none","true","","0",""
"","","","","","html-button-response","340","1799238","0.0-4.0-9.0","627936b58e6416782149ddcb","E1","batch5","","2678.1000000089407","<div class = centerbox><p class = center-block-text>Great job! You are done with practice trials<br>You are about to start official trials.<br> <br> Problem <strong>1</strong> out of 25 problems</p></div>","0","tol_instruction","","","","","","","","","","","","","","","","","","","","","","","","",""
"","","","","","single-stim-button","341","1805614","0.0-4.0-10.0-0.0","627936b58e6416782149ddcb","E1","batch5","","5376","","","tol_tohand","","","","","","","","","","","tol_peg_2","5376","5376","0","[[1,2,0],[0,0],[0]]","1","[[1,3,0],[2,0],[0]]","0","0","","","","","","3"
"","","","","","single-stim-button","342","1806470","0.0-4.0-10.0-1.0","627936b58e6416782149ddcb","E1","batch5","","854","","","tol_toboard","","","","","","","","","","","tol_peg_3","854","854","0","[[1,2,0],[0,0],[3]]","1","[[1,3,0],[2,0],[0]]","0","0","","","","","","3"
"","","","","","single-stim-button","343","1807038","0.0-4.0-10.1-0.1","627936b58e6416782149ddcb","E1","batch5","","568","","","tol_tohand","","","","","","","","","","","tol_peg_1","568","568","0","[[1,0,0],[0,0],[3]]","2","[[1,3,0],[2,0],[0]]","0","0","","","","","","3"
