"success","timeout","failed_images","failed_audio","failed_video","trial_type","trial_index","time_elapsed","internal_node_id","subject_id","study_id","session_id","view_history","rt","stimulus","response","task","correct","answer","item","fiar_detect_rt","fiar_detect_correct","total_correct_fiar_detect","post_trial_gap","choices","mouse_click","stim_duration","block_duration","timing_post_trial","current_position","tol_num_moves_made","tol_target","tol_problem_id","tol_rt","key_press","possible_responses","tol_correct","preplanning","tol_rt_per_trial","tol_min_moves","spm_correct","spm_rt"
"true","false","[]","[]","[]","preload","0","2274","0.0-0.0","627b3ff37300aa333ec08823","A3","batch1","","","","","","","","","","","","","","","","","","","","","","","","","","","","","",""
"true","","","","","fullscreen","1","10294","0.0-1.0-0.0","627b3ff37300aa333ec08823","A3","batch1","","","","","","","","","","","","","","","","","","","","","","","","","","","","","",""
"true","","","","","fullscreen","2","16339","0.0-2.0-0.0","627b3ff37300aa333ec08823","A3","batch1","","","","","","","","","","","","","","","","","","","","","","","","","","","","","",""
"","","","","","instructions","3","45001","0.0-2.0-1.0-0.0","627b3ff37300aa333ec08823","A3","batch1","[{""page_index"":0,""viewing_time"":22174.400000572205},{""page_index"":1,""viewing_time"":6485.099999427795}]","28659.900000572205","","","","","","","","","","","","","","","","","","","","","","","","","","","",""
"","","","","","html-button-response","4","46314","0.0-2.0-1.0-1.0-0.0","627b3ff37300aa333ec08823","A3","batch1","","1311.8999996185303","<p class=block-text> Let's answer a few questions <br>","0","pattern_enter_quiz","","","","","","","","","","","","","","","","","","","","","","","","",""
"","","","","","html-button-response","5","47898","0.0-2.0-1.0-1.0-1.0","627b3ff37300aa333ec08823","A3","batch1","","1582.6000003814697","<p class = block-text>True or False: You will have as much time as you want to make each choice. <br></p>","1","pattern_quiz","true","","","","","","","","","","","","","","","","","","","","","","","",""
"","","","","","html-button-response","6","48704","0.0-2.0-1.0-1.0-2.0","627b3ff37300aa333ec08823","A3","batch1","","804.6000003814697","<p class = block-text>Correct! You should make your choice <strong> as fast as you can</strong>.</p>","0","pattern_quiz_feedback","","","","","","","","","","","","","","","","","","","","","","","","",""
"","","","","","html-button-response","7","50397","0.0-2.0-1.0-1.0-3.0","627b3ff37300aa333ec08823","A3","batch1","","1691.5999994277954","<p class = block-text>True or False: You will look for 4 pieces in black or white color connected in a row either horizontally, vertically or diagonally. <br></p>","0","pattern_quiz","true","","","","","","","","","","","","","","","","","","","","","","","",""
"","","","","","html-button-response","8","51191","0.0-2.0-1.0-1.0-4.0","627b3ff37300aa333ec08823","A3","batch1","","792.1999998092651","<p class = block-text>Correct! </p>","0","pattern_quiz_feedback","","","","","","","","","","","","","","","","","","","","","","","","",""
"","","","","","html-button-response","9","52266","0.0-2.0-2.0","627b3ff37300aa333ec08823","A3","batch1","","1073.0999994277954","<p class=block-text> Now that you've understood the game, let's do a few practice trials before we start!<br> <br>","0","pattern_enter_practice","","","","","","","","","","","","","","","","","","","","","","","","",""
"","","","","","image-keyboard-response","10","53126","0.0-2.0-3.0-0.0","627b3ff37300aa333ec08823","A3","batch1","","856.3999996185303","stim/prac_yes_16_ver_w1.png","f","pattern_practice","true","f","","","","","","","","","","","","","","","","","","","","","","",""
"","","","","","html-keyboard-response","11","54129","0.0-2.0-3.0-1.0","627b3ff37300aa333ec08823","A3","batch1","","null","<p style=""font-size:30px;color:green;"">Correct!</p>","null","pattern_feedback","","","","","","","","","","","","","","","","","","","","","","","","",""
"","","","","","image-keyboard-response","12","54945","0.0-2.0-3.0-0.1","627b3ff37300aa333ec08823","A3","batch1","","814.1999998092651","stim/prac_no_16_1.png","j","pattern_practice","true","j","","","","","","","","","","","","","","","","","","","","","","",""
"","","","","","html-keyboard-response","13","55977","0.0-2.0-3.0-1.1","627b3ff37300aa333ec08823","A3","batch1","","null","<p style=""font-size:30px;color:green;"">Correct!</p>","null","pattern_feedback","","","","","","","","","","","","","","","","","","","","","","","","",""
"","","","","","image-keyboard-response","14","56691","0.0-2.0-3.0-0.2","627b3ff37300aa333ec08823","A3","batch1","","712.8999996185303","stim/prac_yes_18_hor_w1.png","f","pattern_practice","true","f","","","","","","","","","","","","","","","","","","","","","","",""
"","","","","","html-keyboard-response","15","57709","0.0-2.0-3.0-1.2","627b3ff37300aa333ec08823","A3","batch1","","null","<p style=""font-size:30px;color:green;"">Correct!</p>","null","pattern_feedback","","","","","","","","","","","","","","","","","","","","","","","","",""
"","","","","","image-keyboard-response","16","58679","0.0-2.0-3.0-0.3","627b3ff37300aa333ec08823","A3","batch1","","967.4000005722046","stim/prac_no_18_1.png","j","pattern_practice","true","j","","","","","","","","","","","","","","","","","","","","","","",""
"","","","","","html-keyboard-response","17","59695","0.0-2.0-3.0-1.3","627b3ff37300aa333ec08823","A3","batch1","","null","<p style=""font-size:30px;color:green;"">Correct!</p>","null","pattern_feedback","","","","","","","","","","","","","","","","","","","","","","","","",""
"","","","","","image-keyboard-response","18","60861","0.0-2.0-3.0-0.4","627b3ff37300aa333ec08823","A3","batch1","","1164.2000007629395","stim/prac_yes_20_dia_b1.png","f","pattern_practice","true","f","","","","","","","","","","","","","","","","","","","","","","",""
"","","","","","html-keyboard-response","19","61876","0.0-2.0-3.0-1.4","627b3ff37300aa333ec08823","A3","batch1","","null","<p style=""font-size:30px;color:green;"">Correct!</p>","null","pattern_feedback","","","","","","","","","","","","","","","","","","","","","","","","",""
"","","","","","html-button-response","20","63464","0.0-2.0-4.0","627b3ff37300aa333ec08823","A3","batch1","","1585.6999998092651","<p class=block-text> Good job! You are done with practice trials!<br>
        You responded correctly on 100% of the trials.<br>
        Press the button below to start official trials. Now you won't see any feedback about your response</p>","0","pattern_enter_official_trials","","","","","","","","","","","","","","","","","","","","","","","","",""
"","","","","","html-keyboard-response","21","64267","0.0-2.0-5.0-0.0","627b3ff37300aa333ec08823","A3","batch1","","null","<p class=block-text>Trial 1 out of 78</p>","null","pattern_show_trial_num","","","","","","","","","","","","","","","","","","","","","","","","",""
"","","","","","image-keyboard-response","22","66560","0.0-2.0-5.0-1.0","627b3ff37300aa333ec08823","A3","batch1","","2291","stim/no_43_2_b.png","j","pattern_response","true","j","pattern_23","2291","true","1","","","","","","","","","","","","","","","","","","",""
"","","","","","html-keyboard-response","23","67868","0.0-2.0-5.0-0.1","627b3ff37300aa333ec08823","A3","batch1","","null","<p class=block-text>Trial 2 out of 78</p>","null","pattern_show_trial_num","","","","","","","","","","","","","","","","","","","","","","","","",""
"","","","","","image-keyboard-response","24","68641","0.0-2.0-5.0-1.1","627b3ff37300aa333ec08823","A3","batch1","","771.7999992370605","stim/yes_46_ver_b1_b.png","f","pattern_response","true","f","pattern_68","771.7999992370605","true","2","","","","","","","","","","","","","","","","","","",""
"","","","","","html-keyboard-response","25","69954","0.0-2.0-5.0-0.2","627b3ff37300aa333ec08823","A3","batch1","","null","<p class=block-text>Trial 3 out of 78</p>","null","pattern_show_trial_num","","","","","","","","","","","","","","","","","","","","","","","","",""
"","","","","","image-keyboard-response","26","70998","0.0-2.0-5.0-1.2","627b3ff37300aa333ec08823","A3","batch1","","1042.4000005722046","stim/no_28_2.png","j","pattern_response","true","j","pattern_11","1042.4000005722046","true","3","","","","","","","","","","","","","","","","","","",""
"","","","","","html-keyboard-response","27","72307","0.0-2.0-5.0-0.3","627b3ff37300aa333ec08823","A3","batch1","","null","<p class=block-text>Trial 4 out of 78</p>","null","pattern_show_trial_num","","","","","","","","","","","","","","","","","","","","","","","","",""
"","","","","","image-keyboard-response","28","73305","0.0-2.0-5.0-1.3","627b3ff37300aa333ec08823","A3","batch1","","996.9000005722046","stim/no_25_1_b.png","j","pattern_response","true","j","pattern_09","996.9000005722046","true","4","","","","","","","","","","","","","","","","","","",""
"","","","","","html-keyboard-response","29","74622","0.0-2.0-5.0-0.4","627b3ff37300aa333ec08823","A3","batch1","","null","<p class=block-text>Trial 5 out of 78</p>","null","pattern_show_trial_num","","","","","","","","","","","","","","","","","","","","","","","","",""
"","","","","","image-keyboard-response","30","75448","0.0-2.0-5.0-1.4","627b3ff37300aa333ec08823","A3","batch1","","824","stim/yes_36_ver_w1_w.png","f","pattern_response","true","f","pattern_58","824","true","5","","","","","","","","","","","","","","","","","","",""
"","","","","","html-keyboard-response","31","76770","0.0-2.0-5.0-0.5","627b3ff37300aa333ec08823","A3","batch1","","null","<p class=block-text>Trial 6 out of 78</p>","null","pattern_show_trial_num","","","","","","","","","","","","","","","","","","","","","","","","",""
"","","","","","image-keyboard-response","32","80782","0.0-2.0-5.0-1.5","627b3ff37300aa333ec08823","A3","batch1","","4009.9000005722046","stim/no_53_1_b.png","j","pattern_response","true","j","pattern_33","4009.9000005722046","true","6","","","","","","","","","","","","","","","","","","",""
"","","","","","html-keyboard-response","33","82101","0.0-2.0-5.0-0.6","627b3ff37300aa333ec08823","A3","batch1","","null","<p class=block-text>Trial 7 out of 78</p>","null","pattern_show_trial_num","","","","","","","","","","","","","","","","","","","","","","","","",""
"","","","","","image-keyboard-response","34","83393","0.0-2.0-5.0-1.6","627b3ff37300aa333ec08823","A3","batch1","","1289.4000005722046","stim/yes_26_dia_w2_w.png","j","pattern_response","false","f","pattern_50","1289.4000005722046","false","6","","","","","","","","","","","","","","","","","","",""
"","","","","","html-keyboard-response","35","84703","0.0-2.0-5.0-0.7","627b3ff37300aa333ec08823","A3","batch1","","null","<p class=block-text>Trial 8 out of 78</p>","null","pattern_show_trial_num","","","","","","","","","","","","","","","","","","","","","","","","",""
"","","","","","image-keyboard-response","36","85360","0.0-2.0-5.0-1.7","627b3ff37300aa333ec08823","A3","batch1","","655.3999996185303","stim/yes_70_ver_b1.png","f","pattern_response","true","f","pattern_80","655.3999996185303","true","7","","","","","","","","","","","","","","","","","","",""
"","","","","","html-keyboard-response","37","86678","0.0-2.0-5.0-0.8","627b3ff37300aa333ec08823","A3","batch1","","null","<p class=block-text>Trial 9 out of 78</p>","null","pattern_show_trial_num","","","","","","","","","","","","","","","","","","","","","","","","",""
"","","","","","image-keyboard-response","38","87328","0.0-2.0-5.0-1.8","627b3ff37300aa333ec08823","A3","batch1","","647.5","stim/no_15_1_w.png","j","pattern_response","true","j","pattern_03","647.5","true","8","","","","","","","","","","","","","","","","","","",""
"","","","","","html-keyboard-response","39","88652","0.0-2.0-5.0-0.9","627b3ff37300aa333ec08823","A3","batch1","","null","<p class=block-text>Trial 10 out of 78</p>","null","pattern_show_trial_num","","","","","","","","","","","","","","","","","","","","","","","","",""
"","","","","","image-keyboard-response","40","91469","0.0-2.0-5.0-1.9","627b3ff37300aa333ec08823","A3","batch1","","2815","stim/no_67_1.png","j","pattern_response","true","j","pattern_39","2815","true","9","","","","","","","","","","","","","","","","","","",""
"","","","","","html-keyboard-response","41","92787","0.0-2.0-5.0-0.10","627b3ff37300aa333ec08823","A3","batch1","","null","<p class=block-text>Trial 11 out of 78</p>","null","pattern_show_trial_num","","","","","","","","","","","","","","","","","","","","","","","","",""
"","","","","","image-keyboard-response","42","95962","0.0-2.0-5.0-1.10","627b3ff37300aa333ec08823","A3","batch1","","3172.699999809265","stim/yes_58_dia_w1_w.png","j","pattern_response","false","f","pattern_76","3172.699999809265","false","9","","","","","","","","","","","","","","","","","","",""
"","","","","","html-keyboard-response","43","97277","0.0-2.0-5.0-0.11","627b3ff37300aa333ec08823","A3","batch1","","null","<p class=block-text>Trial 12 out of 78</p>","null","pattern_show_trial_num","","","","","","","","","","","","","","","","","","","","","","","","",""
"","","","","","image-keyboard-response","44","98745","0.0-2.0-5.0-1.11","627b3ff37300aa333ec08823","A3","batch1","","1466.1000003814697","stim/no_37_2_w.png","j","pattern_response","true","j","pattern_19","1466.1000003814697","true","10","","","","","","","","","","","","","","","","","","",""
"","","","","","html-keyboard-response","45","100068","0.0-2.0-5.0-0.12","627b3ff37300aa333ec08823","A3","batch1","","null","<p class=block-text>Trial 13 out of 78</p>","null","pattern_show_trial_num","","","","","","","","","","","","","","","","","","","","","","","","",""
"","","","","","image-keyboard-response","46","101460","0.0-2.0-5.0-1.12","627b3ff37300aa333ec08823","A3","batch1","","1390.5999994277954","stim/yes_37_hor_w1_w.png","f","pattern_response","true","f","pattern_60","1390.5999994277954","true","11","","","","","","","","","","","","","","","","","","",""
"","","","","","html-keyboard-response","47","102786","0.0-2.0-5.0-0.13","627b3ff37300aa333ec08823","A3","batch1","","null","<p class=block-text>Trial 14 out of 78</p>","null","pattern_show_trial_num","","","","","","","","","","","","","","","","","","","","","","","","",""
"","","","","","image-keyboard-response","48","105081","0.0-2.0-5.0-1.13","627b3ff37300aa333ec08823","A3","batch1","","2294.0999994277954","stim/yes_49_hor_w1_b.png","f","pattern_response","true","f","pattern_70","2294.0999994277954","true","12","","","","","","","","","","","","","","","","","","",""
"","","","","","html-keyboard-response","49","106399","0.0-2.0-5.0-0.14","627b3ff37300aa333ec08823","A3","batch1","","null","<p class=block-text>Trial 15 out of 78</p>","null","pattern_show_trial_num","","","","","","","","","","","","","","","","","","","","","","","","",""
"","","","","","image-keyboard-response","50","109835","0.0-2.0-5.0-1.14","627b3ff37300aa333ec08823","A3","batch1","","3433.8999996185303","stim/no_49_2_b.png","j","pattern_response","true","j","pattern_29","3433.8999996185303","true","13","","","","","","","","","","","","","","","","","","",""
"","","","","","html-keyboard-response","51","111138","0.0-2.0-5.0-0.15","627b3ff37300aa333ec08823","A3","batch1","","null","<p class=block-text>Trial 16 out of 78</p>","null","pattern_show_trial_num","","","","","","","","","","","","","","","","","","","","","","","","",""
"","","","","","image-keyboard-response","52","113934","0.0-2.0-5.0-1.15","627b3ff37300aa333ec08823","A3","batch1","","2794","stim/yes_51_dia_b1.png","j","pattern_response","false","f","pattern_72","2794","false","13","","","","","","","","","","","","","","","","","","",""
"","","","","","html-keyboard-response","53","115252","0.0-2.0-5.0-0.16","627b3ff37300aa333ec08823","A3","batch1","","null","<p class=block-text>Trial 17 out of 78</p>","null","pattern_show_trial_num","","","","","","","","","","","","","","","","","","","","","","","","",""
"","","","","","image-keyboard-response","54","117271","0.0-2.0-5.0-1.16","627b3ff37300aa333ec08823","A3","batch1","","2017","stim/yes_42_dia_w1_w.png","j","pattern_response","false","f","pattern_64","2017","false","13","","","","","","","","","","","","","","","","","","",""
"","","","","","html-keyboard-response","55","118597","0.0-2.0-5.0-0.17","627b3ff37300aa333ec08823","A3","batch1","","null","<p class=block-text>Trial 18 out of 78</p>","null","pattern_show_trial_num","","","","","","","","","","","","","","","","","","","","","","","","",""
"","","","","","image-keyboard-response","56","121555","0.0-2.0-5.0-1.17","627b3ff37300aa333ec08823","A3","batch1","","2954.699999809265","stim/no_45_1_w.png","j","pattern_response","true","j","pattern_25","2954.699999809265","true","14","","","","","","","","","","","","","","","","","","",""
"","","","","","html-keyboard-response","57","122881","0.0-2.0-5.0-0.18","627b3ff37300aa333ec08823","A3","batch1","","null","<p class=block-text>Trial 19 out of 78</p>","null","pattern_show_trial_num","","","","","","","","","","","","","","","","","","","","","","","","",""
"","","","","","image-keyboard-response","58","125740","0.0-2.0-5.0-1.18","627b3ff37300aa333ec08823","A3","batch1","","2856","stim/no_51_1.png","j","pattern_response","true","j","pattern_31","2856","true","15","","","","","","","","","","","","","","","","","","",""
"","","","","","html-keyboard-response","59","127064","0.0-2.0-5.0-0.19","627b3ff37300aa333ec08823","A3","batch1","","null","<p class=block-text>Trial 20 out of 78</p>","null","pattern_show_trial_num","","","","","","","","","","","","","","","","","","","","","","","","",""
"","","","","","image-keyboard-response","60","129640","0.0-2.0-5.0-1.19","627b3ff37300aa333ec08823","A3","batch1","","2573.800000190735","stim/yes_44_ver_w1_w.png","j","pattern_response","false","f","pattern_66","2573.800000190735","false","15","","","","","","","","","","","","","","","","","","",""
"","","","","","html-keyboard-response","61","130953","0.0-2.0-5.0-0.20","627b3ff37300aa333ec08823","A3","batch1","","null","<p class=block-text>Trial 21 out of 78</p>","null","pattern_show_trial_num","","","","","","","","","","","","","","","","","","","","","","","","",""
"","","","","","image-keyboard-response","62","132037","0.0-2.0-5.0-1.20","627b3ff37300aa333ec08823","A3","batch1","","1082.7999992370605","stim/yes_30_ver_b1_b.png","f","pattern_response","true","f","pattern_54","1082.7999992370605","true","16","","","","","","","","","","","","","","","","","","",""
"","","","","","html-keyboard-response","63","133357","0.0-2.0-5.0-0.21","627b3ff37300aa333ec08823","A3","batch1","","null","<p class=block-text>Trial 22 out of 78</p>","null","pattern_show_trial_num","","","","","","","","","","","","","","","","","","","","","","","","",""
"","","","","","image-keyboard-response","64","134204","0.0-2.0-5.0-1.21","627b3ff37300aa333ec08823","A3","batch1","","845.2999992370605","stim/yes_33_dia_w1_w.png","j","pattern_response","false","f","pattern_56","845.2999992370605","false","16","","","","","","","","","","","","","","","","","","",""
"","","","","","html-keyboard-response","65","135521","0.0-2.0-5.0-0.22","627b3ff37300aa333ec08823","A3","batch1","","null","<p class=block-text>Trial 23 out of 78</p>","null","pattern_show_trial_num","","","","","","","","","","","","","","","","","","","","","","","","",""
"","","","","","image-keyboard-response","66","136592","0.0-2.0-5.0-1.22","627b3ff37300aa333ec08823","A3","batch1","","1069","stim/no_30_1_b.png","j","pattern_response","true","j","pattern_13","1069","true","17","","","","","","","","","","","","","","","","","","",""
"","","","","","html-keyboard-response","67","137902","0.0-2.0-5.0-0.23","627b3ff37300aa333ec08823","A3","batch1","","null","<p class=block-text>Trial 24 out of 78</p>","null","pattern_show_trial_num","","","","","","","","","","","","","","","","","","","","","","","","",""
"","","","","","image-keyboard-response","68","140052","0.0-2.0-5.0-1.23","627b3ff37300aa333ec08823","A3","batch1","","2148.7999992370605","stim/no_39_1_w.png","j","pattern_response","true","j","pattern_21","2148.7999992370605","true","18","","","","","","","","","","","","","","","","","","",""
"","","","","","html-keyboard-response","69","141360","0.0-2.0-5.0-0.24","627b3ff37300aa333ec08823","A3","batch1","","null","<p class=block-text>Trial 25 out of 78</p>","null","pattern_show_trial_num","","","","","","","","","","","","","","","","","","","","","","","","",""
"","","","","","image-keyboard-response","70","141881","0.0-2.0-5.0-1.24","627b3ff37300aa333ec08823","A3","batch1","","518","stim/yes_29_hor_b1_b.png","f","pattern_response","true","f","pattern_52","518","true","19","","","","","","","","","","","","","","","","","","",""
"","","","","","html-keyboard-response","71","143184","0.0-2.0-5.0-0.25","627b3ff37300aa333ec08823","A3","batch1","","null","<p class=block-text>Trial 26 out of 78</p>","null","pattern_show_trial_num","","","","","","","","","","","","","","","","","","","","","","","","",""
"","","","","","image-keyboard-response","72","143798","0.0-2.0-5.0-1.25","627b3ff37300aa333ec08823","A3","batch1","","612.6999998092651","stim/yes_12_hor_w1_w.png","f","pattern_response","true","f","pattern_42","612.6999998092651","true","20","","","","","","","","","","","","","","","","","","",""
"","","","","","html-keyboard-response","73","145127","0.0-2.0-5.0-0.26","627b3ff37300aa333ec08823","A3","batch1","","null","<p class=block-text>Trial 27 out of 78</p>","null","pattern_show_trial_num","","","","","","","","","","","","","","","","","","","","","","","","",""
"","","","","","image-keyboard-response","74","146830","0.0-2.0-5.0-1.26","627b3ff37300aa333ec08823","A3","batch1","","1701","stim/yes_53_ver_b1_b.png","f","pattern_response","true","f","pattern_74","1701","true","21","","","","","","","","","","","","","","","","","","",""
"","","","","","html-keyboard-response","75","148143","0.0-2.0-5.0-0.27","627b3ff37300aa333ec08823","A3","batch1","","null","<p class=block-text>Trial 28 out of 78</p>","null","pattern_show_trial_num","","","","","","","","","","","","","","","","","","","","","","","","",""
"","","","","","image-keyboard-response","76","150725","0.0-2.0-5.0-1.27","627b3ff37300aa333ec08823","A3","batch1","","2580.1000003814697","stim/no_36_1_b.png","j","pattern_response","true","j","pattern_17","2580.1000003814697","true","22","","","","","","","","","","","","","","","","","","",""
"","","","","","html-keyboard-response","77","152035","0.0-2.0-5.0-0.28","627b3ff37300aa333ec08823","A3","batch1","","null","<p class=block-text>Trial 29 out of 78</p>","null","pattern_show_trial_num","","","","","","","","","","","","","","","","","","","","","","","","",""
"","","","","","image-keyboard-response","78","152637","0.0-2.0-5.0-1.28","627b3ff37300aa333ec08823","A3","batch1","","600.0999994277954","stim/yes_17_ver_b1_b.png","f","pattern_response","true","f","pattern_46","600.0999994277954","true","23","","","","","","","","","","","","","","","","","","",""
"","","","","","html-keyboard-response","79","153963","0.0-2.0-5.0-0.29","627b3ff37300aa333ec08823","A3","batch1","","null","<p class=block-text>Trial 30 out of 78</p>","null","pattern_show_trial_num","","","","","","","","","","","","","","","","","","","","","","","","",""
"","","","","","image-keyboard-response","80","154684","0.0-2.0-5.0-1.29","627b3ff37300aa333ec08823","A3","batch1","","720","stim/yes_15_dia_b1u_b.png","f","pattern_response","true","f","pattern_44","720","true","24","","","","","","","","","","","","","","","","","","",""
"","","","","","html-keyboard-response","81","156018","0.0-2.0-5.0-0.30","627b3ff37300aa333ec08823","A3","batch1","","null","<p class=block-text>Trial 31 out of 78</p>","null","pattern_show_trial_num","","","","","","","","","","","","","","","","","","","","","","","","",""
"","","","","","image-keyboard-response","82","158015","0.0-2.0-5.0-1.30","627b3ff37300aa333ec08823","A3","batch1","","1995.7999992370605","stim/yes_63_dia_b1.png","f","pattern_response","true","f","pattern_78","1995.7999992370605","true","25","","","","","","","","","","","","","","","","","","",""
"","","","","","html-keyboard-response","83","159344","0.0-2.0-5.0-0.31","627b3ff37300aa333ec08823","A3","batch1","","null","<p class=block-text>Trial 32 out of 78</p>","null","pattern_show_trial_num","","","","","","","","","","","","","","","","","","","","","","","","",""
"","","","","","image-keyboard-response","84","159928","0.0-2.0-5.0-1.31","627b3ff37300aa333ec08823","A3","batch1","","581.9000005722046","stim/yes_39_hor_w1_w.png","f","pattern_response","true","f","pattern_62","581.9000005722046","true","26","","","","","","","","","","","","","","","","","","",""
"","","","","","html-keyboard-response","85","161239","0.0-2.0-5.0-0.32","627b3ff37300aa333ec08823","A3","batch1","","null","<p class=block-text>Trial 33 out of 78</p>","null","pattern_show_trial_num","","","","","","","","","","","","","","","","","","","","","","","","",""
"","","","","","image-keyboard-response","86","163225","0.0-2.0-5.0-1.32","627b3ff37300aa333ec08823","A3","batch1","","1984.3000001907349","stim/no_22_1_b.png","j","pattern_response","true","j","pattern_07","1984.3000001907349","true","27","","","","","","","","","","","","","","","","","","",""
"","","","","","html-keyboard-response","87","164544","0.0-2.0-5.0-0.33","627b3ff37300aa333ec08823","A3","batch1","","null","<p class=block-text>Trial 34 out of 78</p>","null","pattern_show_trial_num","","","","","","","","","","","","","","","","","","","","","","","","",""
"","","","","","image-keyboard-response","88","167904","0.0-2.0-5.0-1.33","627b3ff37300aa333ec08823","A3","batch1","","3357.5","stim/no_58_1_w.png","j","pattern_response","true","j","pattern_35","3357.5","true","28","","","","","","","","","","","","","","","","","","",""
"","","","","","html-keyboard-response","89","169224","0.0-2.0-5.0-0.34","627b3ff37300aa333ec08823","A3","batch1","","null","<p class=block-text>Trial 35 out of 78</p>","null","pattern_show_trial_num","","","","","","","","","","","","","","","","","","","","","","","","",""
"","","","","","image-keyboard-response","90","170086","0.0-2.0-5.0-1.34","627b3ff37300aa333ec08823","A3","batch1","","859.5999994277954","stim/no_12_1.png","j","pattern_response","true","j","pattern_01","859.5999994277954","true","29","","","","","","","","","","","","","","","","","","",""
"","","","","","html-keyboard-response","91","171397","0.0-2.0-5.0-0.35","627b3ff37300aa333ec08823","A3","batch1","","null","<p class=block-text>Trial 36 out of 78</p>","null","pattern_show_trial_num","","","","","","","","","","","","","","","","","","","","","","","","",""
"","","","","","image-keyboard-response","92","172244","0.0-2.0-5.0-1.35","627b3ff37300aa333ec08823","A3","batch1","","845.1999998092651","stim/yes_23_ver_b1.png","f","pattern_response","true","f","pattern_48","845.1999998092651","true","30","","","","","","","","","","","","","","","","","","",""
"","","","","","html-keyboard-response","93","173557","0.0-2.0-5.0-0.36","627b3ff37300aa333ec08823","A3","batch1","","null","<p class=block-text>Trial 37 out of 78</p>","null","pattern_show_trial_num","","","","","","","","","","","","","","","","","","","","","","","","",""
"","","","","","image-keyboard-response","94","176495","0.0-2.0-5.0-1.36","627b3ff37300aa333ec08823","A3","batch1","","2936.300000190735","stim/no_47_1_b.png","j","pattern_response","true","j","pattern_27","2936.300000190735","true","31","","","","","","","","","","","","","","","","","","",""
"","","","","","html-keyboard-response","95","177822","0.0-2.0-5.0-0.37","627b3ff37300aa333ec08823","A3","batch1","","null","<p class=block-text>Trial 38 out of 78</p>","null","pattern_show_trial_num","","","","","","","","","","","","","","","","","","","","","","","","",""
"","","","","","image-keyboard-response","96","179490","0.0-2.0-5.0-1.37","627b3ff37300aa333ec08823","A3","batch1","","1666.6000003814697","stim/no_33_1_b.png","j","pattern_response","true","j","pattern_15","1666.6000003814697","true","32","","","","","","","","","","","","","","","","","","",""
"","","","","","html-keyboard-response","97","180807","0.0-2.0-5.0-0.38","627b3ff37300aa333ec08823","A3","batch1","","null","<p class=block-text>Trial 39 out of 78</p>","null","pattern_show_trial_num","","","","","","","","","","","","","","","","","","","","","","","","",""
"","","","","","image-keyboard-response","98","181513","0.0-2.0-5.0-1.38","627b3ff37300aa333ec08823","A3","batch1","","704.0999994277954","stim/no_18_1_b.png","j","pattern_response","true","j","pattern_05","704.0999994277954","true","33","","","","","","","","","","","","","","","","","","",""
"","","","","","image-keyboard-response","99","183136","0.0-2.0-6.0","627b3ff37300aa333ec08823","A3","batch1","","1107.5","stim/empty_board.png","j","attention_check","true","j","","","","","500","[""f"",""j""]","","","","","","","","","","","","","","","","",""
"","","","","","html-keyboard-response","100","183944","0.0-2.0-7.0-0.0","627b3ff37300aa333ec08823","A3","batch1","","null","<p class=block-text>Trial 40 out of 78</p>","null","pattern_show_trial_num","","","","","","","","","","","","","","","","","","","","","","","","",""
"","","","","","image-keyboard-response","101","186613","0.0-2.0-7.0-1.0","627b3ff37300aa333ec08823","A3","batch1","","2667.0999994277954","stim/no_50_1.png","j","pattern_response","true","j","pattern_30","2667.0999994277954","true","34","","","","","","","","","","","","","","","","","","",""
"","","","","","html-keyboard-response","102","187944","0.0-2.0-7.0-0.1","627b3ff37300aa333ec08823","A3","batch1","","null","<p class=block-text>Trial 41 out of 78</p>","null","pattern_show_trial_num","","","","","","","","","","","","","","","","","","","","","","","","",""
"","","","","","image-keyboard-response","103","188870","0.0-2.0-7.0-1.1","627b3ff37300aa333ec08823","A3","batch1","","924.0999994277954","stim/yes_43_ver_w1_w.png","f","pattern_response","true","f","pattern_65","924.0999994277954","true","35","","","","","","","","","","","","","","","","","","",""
"","","","","","html-keyboard-response","104","190179","0.0-2.0-7.0-0.2","627b3ff37300aa333ec08823","A3","batch1","","null","<p class=block-text>Trial 42 out of 78</p>","null","pattern_show_trial_num","","","","","","","","","","","","","","","","","","","","","","","","",""
"","","","","","image-keyboard-response","105","192266","0.0-2.0-7.0-1.2","627b3ff37300aa333ec08823","A3","batch1","","2085.1000003814697","stim/no_44_1.png","j","pattern_response","true","j","pattern_24","2085.1000003814697","true","36","","","","","","","","","","","","","","","","","","",""
"","","","","","html-keyboard-response","106","193584","0.0-2.0-7.0-0.3","627b3ff37300aa333ec08823","A3","batch1","","null","<p class=block-text>Trial 43 out of 78</p>","null","pattern_show_trial_num","","","","","","","","","","","","","","","","","","","","","","","","",""
"","","","","","image-keyboard-response","107","194403","0.0-2.0-7.0-1.3","627b3ff37300aa333ec08823","A3","batch1","","816.8999996185303","stim/yes_60_ver_b1_b.png","f","pattern_response","true","f","pattern_77","816.8999996185303","true","37","","","","","","","","","","","","","","","","","","",""
"","","","","","html-keyboard-response","108","195729","0.0-2.0-7.0-0.4","627b3ff37300aa333ec08823","A3","batch1","","null","<p class=block-text>Trial 44 out of 78</p>","null","pattern_show_trial_num","","","","","","","","","","","","","","","","","","","","","","","","",""
"","","","","","image-keyboard-response","109","197654","0.0-2.0-7.0-1.4","627b3ff37300aa333ec08823","A3","batch1","","1926.6999998092651","stim/no_29_1_b.png","j","pattern_response","true","j","pattern_12","1926.6999998092651","true","38","","","","","","","","","","","","","","","","","","",""
"","","","","","html-keyboard-response","110","198976","0.0-2.0-7.0-0.5","627b3ff37300aa333ec08823","A3","batch1","","null","<p class=block-text>Trial 45 out of 78</p>","null","pattern_show_trial_num","","","","","","","","","","","","","","","","","","","","","","","","",""
"","","","","","image-keyboard-response","111","200599","0.0-2.0-7.0-1.5","627b3ff37300aa333ec08823","A3","batch1","","1621.3999996185303","stim/no_34_1_b.png","j","pattern_response","true","j","pattern_16","1621.3999996185303","true","39","","","","","","","","","","","","","","","","","","",""
"","","","","","html-keyboard-response","112","201934","0.0-2.0-7.0-0.6","627b3ff37300aa333ec08823","A3","batch1","","null","<p class=block-text>Trial 46 out of 78</p>","null","pattern_show_trial_num","","","","","","","","","","","","","","","","","","","","","","","","",""
"","","","","","image-keyboard-response","113","204075","0.0-2.0-7.0-1.6","627b3ff37300aa333ec08823","A3","batch1","","2138.5","stim/yes_48_dia_w1_w.png","f","pattern_response","true","f","pattern_69","2138.5","true","40","","","","","","","","","","","","","","","","","","",""
"","","","","","html-keyboard-response","114","205383","0.0-2.0-7.0-0.7","627b3ff37300aa333ec08823","A3","batch1","","null","<p class=block-text>Trial 47 out of 78</p>","null","pattern_show_trial_num","","","","","","","","","","","","","","","","","","","","","","","","",""
"","","","","","image-keyboard-response","115","206842","0.0-2.0-7.0-1.7","627b3ff37300aa333ec08823","A3","batch1","","1456.8999996185303","stim/yes_52_ver_w1.png","f","pattern_response","true","f","pattern_73","1456.8999996185303","true","41","","","","","","","","","","","","","","","","","","",""
"","","","","","html-keyboard-response","116","208158","0.0-2.0-7.0-0.8","627b3ff37300aa333ec08823","A3","batch1","","null","<p class=block-text>Trial 48 out of 78</p>","null","pattern_show_trial_num","","","","","","","","","","","","","","","","","","","","","","","","",""
"","","","","","image-keyboard-response","117","213595","0.0-2.0-7.0-1.8","627b3ff37300aa333ec08823","A3","batch1","","5435.5","stim/no_65_1_b.png","j","pattern_response","true","j","pattern_38","5435.5","true","42","","","","","","","","","","","","","","","","","","",""
"","","","","","html-keyboard-response","118","214909","0.0-2.0-7.0-0.9","627b3ff37300aa333ec08823","A3","batch1","","null","<p class=block-text>Trial 49 out of 78</p>","null","pattern_show_trial_num","","","","","","","","","","","","","","","","","","","","","","","","",""
"","","","","","image-keyboard-response","119","215507","0.0-2.0-7.0-1.9","627b3ff37300aa333ec08823","A3","batch1","","595.3000001907349","stim/yes_22_ver_w1.png","f","pattern_response","true","f","pattern_47","595.3000001907349","true","43","","","","","","","","","","","","","","","","","","",""
"","","","","","html-keyboard-response","120","216832","0.0-2.0-7.0-0.10","627b3ff37300aa333ec08823","A3","batch1","","null","<p class=block-text>Trial 50 out of 78</p>","null","pattern_show_trial_num","","","","","","","","","","","","","","","","","","","","","","","","",""
"","","","","","image-keyboard-response","121","217420","0.0-2.0-7.0-1.10","627b3ff37300aa333ec08823","A3","batch1","","586.5","stim/yes_14_hor_b1_w.png","f","pattern_response","true","f","pattern_43","586.5","true","44","","","","","","","","","","","","","","","","","","",""
"","","","","","html-keyboard-response","122","218731","0.0-2.0-7.0-0.11","627b3ff37300aa333ec08823","A3","batch1","","null","<p class=block-text>Trial 51 out of 78</p>","null","pattern_show_trial_num","","","","","","","","","","","","","","","","","","","","","","","","",""
"","","","","","image-keyboard-response","123","219382","0.0-2.0-7.0-1.11","627b3ff37300aa333ec08823","A3","batch1","","649.3999996185303","stim/yes_25_hor_b1_b.png","f","pattern_response","true","f","pattern_49","649.3999996185303","true","45","","","","","","","","","","","","","","","","","","",""
"","","","","","html-keyboard-response","124","220700","0.0-2.0-7.0-0.12","627b3ff37300aa333ec08823","A3","batch1","","null","<p class=block-text>Trial 52 out of 78</p>","null","pattern_show_trial_num","","","","","","","","","","","","","","","","","","","","","","","","",""
"","","","","","image-keyboard-response","125","221545","0.0-2.0-7.0-1.12","627b3ff37300aa333ec08823","A3","batch1","","843.6000003814697","stim/yes_67_hor_b1.png","f","pattern_response","true","f","pattern_79","843.6000003814697","true","46","","","","","","","","","","","","","","","","","","",""
"","","","","","html-keyboard-response","126","222857","0.0-2.0-7.0-0.13","627b3ff37300aa333ec08823","A3","batch1","","null","<p class=block-text>Trial 53 out of 78</p>","null","pattern_show_trial_num","","","","","","","","","","","","","","","","","","","","","","","","",""
"","","","","","image-keyboard-response","127","224083","0.0-2.0-7.0-1.13","627b3ff37300aa333ec08823","A3","batch1","","1224.6000003814697","stim/no_26_1_w.png","j","pattern_response","true","j","pattern_10","1224.6000003814697","true","47","","","","","","","","","","","","","","","","","","",""
"","","","","","html-keyboard-response","128","225394","0.0-2.0-7.0-0.14","627b3ff37300aa333ec08823","A3","batch1","","null","<p class=block-text>Trial 54 out of 78</p>","null","pattern_show_trial_num","","","","","","","","","","","","","","","","","","","","","","","","",""
"","","","","","image-keyboard-response","129","226225","0.0-2.0-7.0-1.14","627b3ff37300aa333ec08823","A3","batch1","","829","stim/yes_28_ver_b1.png","f","pattern_response","true","f","pattern_51","829","true","48","","","","","","","","","","","","","","","","","","",""
"","","","","","html-keyboard-response","130","227548","0.0-2.0-7.0-0.15","627b3ff37300aa333ec08823","A3","batch1","","null","<p class=block-text>Trial 55 out of 78</p>","null","pattern_show_trial_num","","","","","","","","","","","","","","","","","","","","","","","","",""
"","","","","","image-keyboard-response","131","228713","0.0-2.0-7.0-1.15","627b3ff37300aa333ec08823","A3","batch1","","1163.3000001907349","stim/yes_29_ver_w1.png","f","pattern_response","true","f","pattern_53","1163.3000001907349","true","49","","","","","","","","","","","","","","","","","","",""
"","","","","","html-keyboard-response","132","230032","0.0-2.0-7.0-0.16","627b3ff37300aa333ec08823","A3","batch1","","null","<p class=block-text>Trial 56 out of 78</p>","null","pattern_show_trial_num","","","","","","","","","","","","","","","","","","","","","","","","",""
"","","","","","image-keyboard-response","133","231934","0.0-2.0-7.0-1.16","627b3ff37300aa333ec08823","A3","batch1","","1900","stim/no_52_1.png","j","pattern_response","true","j","pattern_32","1900","true","50","","","","","","","","","","","","","","","","","","",""
"","","","","","html-keyboard-response","134","233247","0.0-2.0-7.0-0.17","627b3ff37300aa333ec08823","A3","batch1","","null","<p class=block-text>Trial 57 out of 78</p>","null","pattern_show_trial_num","","","","","","","","","","","","","","","","","","","","","","","","",""
"","","","","","image-keyboard-response","135","234071","0.0-2.0-7.0-1.17","627b3ff37300aa333ec08823","A3","batch1","","823.1000003814697","stim/no_17_1_w.png","j","pattern_response","true","j","pattern_04","823.1000003814697","true","51","","","","","","","","","","","","","","","","","","",""
"","","","","","html-keyboard-response","136","235395","0.0-2.0-7.0-0.18","627b3ff37300aa333ec08823","A3","batch1","","null","<p class=block-text>Trial 58 out of 78</p>","null","pattern_show_trial_num","","","","","","","","","","","","","","","","","","","","","","","","",""
"","","","","","image-keyboard-response","137","237684","0.0-2.0-7.0-1.18","627b3ff37300aa333ec08823","A3","batch1","","2286.9000005722046","stim/no_38_1_b.png","j","pattern_response","true","j","pattern_20","2286.9000005722046","true","52","","","","","","","","","","","","","","","","","","",""
"","","","","","html-keyboard-response","138","239001","0.0-2.0-7.0-0.19","627b3ff37300aa333ec08823","A3","batch1","","null","<p class=block-text>Trial 59 out of 78</p>","null","pattern_show_trial_num","","","","","","","","","","","","","","","","","","","","","","","","",""
"","","","","","image-keyboard-response","139","243671","0.0-2.0-7.0-1.19","627b3ff37300aa333ec08823","A3","batch1","","4667.60000038147","stim/no_62_1_w.png","j","pattern_response","true","j","pattern_36","4667.60000038147","true","53","","","","","","","","","","","","","","","","","","",""
"","","","","","html-keyboard-response","140","244993","0.0-2.0-7.0-0.20","627b3ff37300aa333ec08823","A3","batch1","","null","<p class=block-text>Trial 60 out of 78</p>","null","pattern_show_trial_num","","","","","","","","","","","","","","","","","","","","","","","","",""
"","","","","","image-keyboard-response","141","245973","0.0-2.0-7.0-1.20","627b3ff37300aa333ec08823","A3","batch1","","977.3999996185303","stim/yes_40_dia_b1_b.png","f","pattern_response","true","f","pattern_63","977.3999996185303","true","54","","","","","","","","","","","","","","","","","","",""
"","","","","","html-keyboard-response","142","247293","0.0-2.0-7.0-0.21","627b3ff37300aa333ec08823","A3","batch1","","null","<p class=block-text>Trial 61 out of 78</p>","null","pattern_show_trial_num","","","","","","","","","","","","","","","","","","","","","","","","",""
"","","","","","image-keyboard-response","143","251208","0.0-2.0-7.0-1.21","627b3ff37300aa333ec08823","A3","batch1","","3913.300000190735","stim/yes_50_dia_w1.png","j","pattern_response","false","f","pattern_71","3913.300000190735","false","54","","","","","","","","","","","","","","","","","","",""
"","","","","","html-keyboard-response","144","252518","0.0-2.0-7.0-0.22","627b3ff37300aa333ec08823","A3","batch1","","null","<p class=block-text>Trial 62 out of 78</p>","null","pattern_show_trial_num","","","","","","","","","","","","","","","","","","","","","","","","",""
"","","","","","image-keyboard-response","145","253661","0.0-2.0-7.0-1.22","627b3ff37300aa333ec08823","A3","batch1","","1140.8999996185303","stim/no_23_1.png","j","pattern_response","true","j","pattern_08","1140.8999996185303","true","55","","","","","","","","","","","","","","","","","","",""
"","","","","","html-keyboard-response","146","254981","0.0-2.0-7.0-0.23","627b3ff37300aa333ec08823","A3","batch1","","null","<p class=block-text>Trial 63 out of 78</p>","null","pattern_show_trial_num","","","","","","","","","","","","","","","","","","","","","","","","",""
"","","","","","image-keyboard-response","147","256887","0.0-2.0-7.0-1.23","627b3ff37300aa333ec08823","A3","batch1","","1903.7000007629395","stim/no_42_1_w.png","j","pattern_response","true","j","pattern_22","1903.7000007629395","true","56","","","","","","","","","","","","","","","","","","",""
"","","","","","html-keyboard-response","148","258203","0.0-2.0-7.0-0.24","627b3ff37300aa333ec08823","A3","batch1","","null","<p class=block-text>Trial 64 out of 78</p>","null","pattern_show_trial_num","","","","","","","","","","","","","","","","","","","","","","","","",""
"","","","","","image-keyboard-response","149","260766","0.0-2.0-7.0-1.24","627b3ff37300aa333ec08823","A3","batch1","","2561","stim/no_36_2_w.png","j","pattern_response","true","j","pattern_18","2561","true","57","","","","","","","","","","","","","","","","","","",""
"","","","","","html-keyboard-response","150","262079","0.0-2.0-7.0-0.25","627b3ff37300aa333ec08823","A3","batch1","","null","<p class=block-text>Trial 65 out of 78</p>","null","pattern_show_trial_num","","","","","","","","","","","","","","","","","","","","","","","","",""
"","","","","","image-keyboard-response","151","263843","0.0-2.0-7.0-1.25","627b3ff37300aa333ec08823","A3","batch1","","1762.6000003814697","stim/yes_37_dia_w1.png","f","pattern_response","true","f","pattern_59","1762.6000003814697","true","58","","","","","","","","","","","","","","","","","","",""
"","","","","","html-keyboard-response","152","265161","0.0-2.0-7.0-0.26","627b3ff37300aa333ec08823","A3","batch1","","null","<p class=block-text>Trial 66 out of 78</p>","null","pattern_show_trial_num","","","","","","","","","","","","","","","","","","","","","","","","",""
"","","","","","image-keyboard-response","153","272724","0.0-2.0-7.0-1.26","627b3ff37300aa333ec08823","A3","batch1","","7561","stim/no_70_2.png","j","pattern_response","true","j","pattern_40","7561","true","59","","","","","","","","","","","","","","","","","","",""
"","","","","","html-keyboard-response","154","274046","0.0-2.0-7.0-0.27","627b3ff37300aa333ec08823","A3","batch1","","null","<p class=block-text>Trial 67 out of 78</p>","null","pattern_show_trial_num","","","","","","","","","","","","","","","","","","","","","","","","",""
"","","","","","image-keyboard-response","155","275132","0.0-2.0-7.0-1.27","627b3ff37300aa333ec08823","A3","batch1","","1083.3000001907349","stim/yes_38_hor_b1_b.png","f","pattern_response","true","f","pattern_61","1083.3000001907349","true","60","","","","","","","","","","","","","","","","","","",""
"","","","","","html-keyboard-response","156","276455","0.0-2.0-7.0-0.28","627b3ff37300aa333ec08823","A3","batch1","","null","<p class=block-text>Trial 68 out of 78</p>","null","pattern_show_trial_num","","","","","","","","","","","","","","","","","","","","","","","","",""
"","","","","","image-keyboard-response","157","281604","0.0-2.0-7.0-1.28","627b3ff37300aa333ec08823","A3","batch1","","5147.5","stim/no_55_1_w.png","j","pattern_response","true","j","pattern_34","5147.5","true","61","","","","","","","","","","","","","","","","","","",""
"","","","","","html-keyboard-response","158","282919","0.0-2.0-7.0-0.29","627b3ff37300aa333ec08823","A3","batch1","","null","<p class=block-text>Trial 69 out of 78</p>","null","pattern_show_trial_num","","","","","","","","","","","","","","","","","","","","","","","","",""
"","","","","","image-keyboard-response","159","283467","0.0-2.0-7.0-1.29","627b3ff37300aa333ec08823","A3","batch1","","545.5999994277954","stim/yes_17_dia_w1.png","f","pattern_response","true","f","pattern_45","545.5999994277954","true","62","","","","","","","","","","","","","","","","","","",""
"","","","","","html-keyboard-response","160","284793","0.0-2.0-7.0-0.30","627b3ff37300aa333ec08823","A3","batch1","","null","<p class=block-text>Trial 70 out of 78</p>","null","pattern_show_trial_num","","","","","","","","","","","","","","","","","","","","","","","","",""
"","","","","","image-keyboard-response","161","286300","0.0-2.0-7.0-1.30","627b3ff37300aa333ec08823","A3","batch1","","1505.4000005722046","stim/yes_31_hor_b1.png","f","pattern_response","true","f","pattern_55","1505.4000005722046","true","63","","","","","","","","","","","","","","","","","","",""
"","","","","","html-keyboard-response","162","287612","0.0-2.0-7.0-0.31","627b3ff37300aa333ec08823","A3","batch1","","null","<p class=block-text>Trial 71 out of 78</p>","null","pattern_show_trial_num","","","","","","","","","","","","","","","","","","","","","","","","",""
"","","","","","image-keyboard-response","163","288607","0.0-2.0-7.0-1.31","627b3ff37300aa333ec08823","A3","batch1","","992.2999992370605","stim/no_20_1_w.png","j","pattern_response","true","j","pattern_06","992.2999992370605","true","64","","","","","","","","","","","","","","","","","","",""
"","","","","","html-keyboard-response","164","289928","0.0-2.0-7.0-0.32","627b3ff37300aa333ec08823","A3","batch1","","null","<p class=block-text>Trial 72 out of 78</p>","null","pattern_show_trial_num","","","","","","","","","","","","","","","","","","","","","","","","",""
"","","","","","image-keyboard-response","165","293323","0.0-2.0-7.0-1.32","627b3ff37300aa333ec08823","A3","batch1","","3393.699999809265","stim/no_46_1_b.png","j","pattern_response","true","j","pattern_26","3393.699999809265","true","65","","","","","","","","","","","","","","","","","","",""
"","","","","","html-keyboard-response","166","294642","0.0-2.0-7.0-0.33","627b3ff37300aa333ec08823","A3","batch1","","null","<p class=block-text>Trial 73 out of 78</p>","null","pattern_show_trial_num","","","","","","","","","","","","","","","","","","","","","","","","",""
"","","","","","image-keyboard-response","167","295400","0.0-2.0-7.0-1.33","627b3ff37300aa333ec08823","A3","batch1","","755.7999992370605","stim/no_13_2_b.png","j","pattern_response","true","j","pattern_02","755.7999992370605","true","66","","","","","","","","","","","","","","","","","","",""
"","","","","","html-keyboard-response","168","296714","0.0-2.0-7.0-0.34","627b3ff37300aa333ec08823","A3","batch1","","null","<p class=block-text>Trial 74 out of 78</p>","null","pattern_show_trial_num","","","","","","","","","","","","","","","","","","","","","","","","",""
"","","","","","image-keyboard-response","169","298876","0.0-2.0-7.0-1.34","627b3ff37300aa333ec08823","A3","batch1","","2160","stim/no_32_1_w.png","j","pattern_response","true","j","pattern_14","2160","true","67","","","","","","","","","","","","","","","","","","",""
"","","","","","html-keyboard-response","170","300185","0.0-2.0-7.0-0.35","627b3ff37300aa333ec08823","A3","batch1","","null","<p class=block-text>Trial 75 out of 78</p>","null","pattern_show_trial_num","","","","","","","","","","","","","","","","","","","","","","","","",""
"","","","","","image-keyboard-response","171","303672","0.0-2.0-7.0-1.35","627b3ff37300aa333ec08823","A3","batch1","","3485.699999809265","stim/no_48_1_w.png","j","pattern_response","true","j","pattern_28","3485.699999809265","true","68","","","","","","","","","","","","","","","","","","",""
"","","","","","html-keyboard-response","172","304984","0.0-2.0-7.0-0.36","627b3ff37300aa333ec08823","A3","batch1","","null","<p class=block-text>Trial 76 out of 78</p>","null","pattern_show_trial_num","","","","","","","","","","","","","","","","","","","","","","","","",""
"","","","","","image-keyboard-response","173","306399","0.0-2.0-7.0-1.36","627b3ff37300aa333ec08823","A3","batch1","","1412.5999994277954","stim/yes_45_hor_b2_b.png","f","pattern_response","true","f","pattern_67","1412.5999994277954","true","69","","","","","","","","","","","","","","","","","","",""
"","","","","","html-keyboard-response","174","307722","0.0-2.0-7.0-0.37","627b3ff37300aa333ec08823","A3","batch1","","null","<p class=block-text>Trial 77 out of 78</p>","null","pattern_show_trial_num","","","","","","","","","","","","","","","","","","","","","","","","",""
"","","","","","image-keyboard-response","175","310681","0.0-2.0-7.0-1.37","627b3ff37300aa333ec08823","A3","batch1","","2956.800000190735","stim/yes_35_dia_b1.png","j","pattern_response","false","f","pattern_57","2956.800000190735","false","69","","","","","","","","","","","","","","","","","","",""
"","","","","","html-keyboard-response","176","312009","0.0-2.0-7.0-0.38","627b3ff37300aa333ec08823","A3","batch1","","null","<p class=block-text>Trial 78 out of 78</p>","null","pattern_show_trial_num","","","","","","","","","","","","","","","","","","","","","","","","",""
"","","","","","image-keyboard-response","177","312727","0.0-2.0-7.0-1.38","627b3ff37300aa333ec08823","A3","batch1","","716.8000001907349","stim/yes_55_hor_w1_w.png","f","pattern_response","true","f","pattern_75","716.8000001907349","true","70","","","","","","","","","","","","","","","","","","",""
"","","","","","html-button-response","178","315998","0.0-2.0-8.0","627b3ff37300aa333ec08823","A3","batch1","","2767.800000190735","<p class = block-text>This concludes the 4-in-a-row detection game.Thank you for your responses!<br>
            You responded correctly on 90% of the trials.<br>
            When you are ready, press ""Continue"" button to continue </p>","0","","","","","","","","","","","","","","","","","","","","","","","","","",""
"true","","","","","fullscreen","179","318418","0.0-3.0-0.0","627b3ff37300aa333ec08823","A3","batch1","","","","","","","","","","","","","","","","","","","","","","","","","","","","","",""
"","","","","","instructions","180","351689","0.0-3.0-1.0-0.0-0.0","627b3ff37300aa333ec08823","A3","batch1","[{""page_index"":0,""viewing_time"":12464.89999961853},{""page_index"":1,""viewing_time"":3025.6000003814697},{""page_index"":2,""viewing_time"":1731.8000001907349},{""page_index"":3,""viewing_time"":4848.300000190735},{""page_index"":4,""viewing_time"":2101.199999809265},{""page_index"":5,""viewing_time"":6350},{""page_index"":6,""viewing_time"":2747.3999996185303}]","33269.5","","","tol-instructions","","","","","","","","","","","","","","","","","","","","","","","","",""
"","","","","","html-button-response","181","352732","0.0-3.0-1.0-1.0-0.0","627b3ff37300aa333ec08823","A3","batch1","","1041.8999996185303","<p class=block-text> Let's answer a few questions <br>","0","tol_enter_quiz","","","","","","","","","","","","","","","","","","","","","","","","",""
"","","","","","html-button-response","182","355657","0.0-3.0-1.0-1.0-1.0","627b3ff37300aa333ec08823","A3","batch1","","2923.6000003814697","<p class = block-text>True or False: You can only move the ball on top of a peg. <br></p>","0","tol_quiz","true","","","","","","","","","","","","","","","","","","","","","","","",""
"","","","","","html-button-response","183","356557","0.0-3.0-1.0-1.0-2.0","627b3ff37300aa333ec08823","A3","batch1","","899","<p class = block-text>Correct! You can only move the ball on top of a peg.</p>","0","tol_quiz_feedback","","","","","","","","","","","","","","","","","","","","","","","","",""
"","","","","","html-button-response","184","358622","0.0-3.0-1.0-1.0-3.0","627b3ff37300aa333ec08823","A3","batch1","","2064.199999809265","<p class = block-text>True or False: You should try to match your board with the target board with fewest moves possible. <br></p>","0","tol_quiz","true","","","","","","","","","","","","","","","","","","","","","","","",""
"","","","","","html-button-response","185","359248","0.0-3.0-1.0-1.0-4.0","627b3ff37300aa333ec08823","A3","batch1","","624.1999998092651","<p class = block-text>Correct! </p>","0","tol_quiz_feedback","","","","","","","","","","","","","","","","","","","","","","","","",""
"","","","","","html-button-response","186","360589","0.0-3.0-2.0","627b3ff37300aa333ec08823","A3","batch1","","1339","<p class=block-text> Now that you've understood the game, let's practice a few easier examples before we start!<br> <br>","0","","","","","","","","","","","","","","","","","","","","","","","","","",""
"","","","","","single-stim-button","187","362143","0.0-3.0-3.0-0.0","627b3ff37300aa333ec08823","A3","batch1","","1552","","","tol_practice","","","","","","","","","tol_peg_2","1552","1552","0","[[1,2,0],[0,0],[0]]","1","[[1,2,0],[0,0],[3]]","practice","1552","","","","","","","",""
"","","","","","single-stim-button","188","364158","0.0-3.0-3.0-1.0","627b3ff37300aa333ec08823","A3","batch1","","2014","","","tol_practice","","","","","","","","","tol_peg_3","2014","2014","0","[[1,2,0],[0,0],[3]]","1","[[1,2,0],[0,0],[3]]","practice","2014","","","","","","","",""
"","","","","","poldrack-single-stim","189","365166","0.0-3.0-4.0","627b3ff37300aa333ec08823","A3","batch1","","-1","","","tol_feedback","true","","","","","","","","","1000","1000","500","","","","","","-1","none","true","","0","","",""
"","","","","","single-stim-button","190","367638","0.0-3.0-5.0-0.0","627b3ff37300aa333ec08823","A3","batch1","","2472","","","tol_practice","","","","","","","","","tol_peg_1","2472","2472","0","[[1,0,0],[3,0],[0]]","2","[[0,0,0],[3,1],[2]]","practice","2472","","","","","","","",""
"","","","","","single-stim-button","191","368925","0.0-3.0-5.0-1.0","627b3ff37300aa333ec08823","A3","batch1","","1286","","","tol_practice","","","","","","","","","tol_peg_3","1286","1286","0","[[1,0,0],[3,0],[2]]","2","[[0,0,0],[3,1],[2]]","practice","1286","","","","","","","",""
"","","","","","single-stim-button","192","370022","0.0-3.0-5.1-0.1","627b3ff37300aa333ec08823","A3","batch1","","1096","","","tol_practice","","","","","","","","","tol_peg_1","1096","1096","0","[[0,0,0],[3,0],[2]]","3","[[0,0,0],[3,1],[2]]","practice","1096","","","","","","","",""
"","","","","","single-stim-button","193","371054","0.0-3.0-5.1-1.1","627b3ff37300aa333ec08823","A3","batch1","","1031","","","tol_practice","","","","","","","","","tol_peg_2","1031","1031","0","[[0,0,0],[3,1],[2]]","3","[[0,0,0],[3,1],[2]]","practice","1031","","","","","","","",""
"","","","","","poldrack-single-stim","194","372067","0.0-3.0-6.0","627b3ff37300aa333ec08823","A3","batch1","","-1","","","tol_feedback","true","","","","","","","","","1000","1000","500","","","","","","-1","none","true","","0","","",""
"","","","","","single-stim-button","195","374621","0.0-3.0-7.0-0.0","627b3ff37300aa333ec08823","A3","batch1","","2552","","","tol_practice","","","","","","","","","tol_peg_2","2552","2552","0","[[1,2,0],[0,0],[0]]","4","[[1,0,0],[2,0],[3]]","practice","2552","","","","","","","",""
"","","","","","single-stim-button","196","375639","0.0-3.0-7.0-1.0","627b3ff37300aa333ec08823","A3","batch1","","1018","","","tol_practice","","","","","","","","","tol_peg_3","1018","1018","0","[[1,2,0],[0,0],[3]]","4","[[1,0,0],[2,0],[3]]","practice","1018","","","","","","","",""
"","","","","","single-stim-button","197","376570","0.0-3.0-7.1-0.1","627b3ff37300aa333ec08823","A3","batch1","","930","","","tol_practice","","","","","","","","","tol_peg_1","930","930","0","[[1,0,0],[0,0],[3]]","5","[[1,0,0],[2,0],[3]]","practice","930","","","","","","","",""
"","","","","","single-stim-button","198","377605","0.0-3.0-7.1-1.1","627b3ff37300aa333ec08823","A3","batch1","","1033","","","tol_practice","","","","","","","","","tol_peg_2","1033","1033","0","[[1,0,0],[2,0],[3]]","5","[[1,0,0],[2,0],[3]]","practice","1033","","","","","","","",""
"","","","","","poldrack-single-stim","199","378606","0.0-3.0-8.0","627b3ff37300aa333ec08823","A3","batch1","","-1","","","tol_feedback","true","","","","","","","","","1000","1000","500","","","","","","-1","none","true","","0","","",""
"","","","","","html-button-response","200","379773","0.0-3.0-9.0","627b3ff37300aa333ec08823","A3","batch1","","1165.8000001907349","<div class = centerbox><p class = center-block-text>Great job! You are done with practice trials<br>You are about to start official trials.<br> <br> Problem <strong>1</strong> out of 25 problems</p></div>","0","tol_instruction","","","","","","","","","","","","","","","","","","","","","","","","",""
"","","","","","single-stim-button","201","383880","0.0-3.0-10.0-0.0","627b3ff37300aa333ec08823","A3","batch1","","3093","","","tol_tohand","","","","","","","","","tol_peg_1","3093","3093","0","[[1,0,0],[3,0],[0]]","1","[[1,3,0],[2,0],[0]]","0","0","","","","","","3","",""
"","","","","","single-stim-button","202","384952","0.0-3.0-10.0-1.0","627b3ff37300aa333ec08823","A3","batch1","","1071","","","tol_toboard","","","","","","","","","tol_peg_3","1071","1071","0","[[1,0,0],[3,0],[2]]","1","[[1,3,0],[2,0],[0]]","0","0","","","","","","3","",""
"","","","","","single-stim-button","203","385928","0.0-3.0-10.1-0.1","627b3ff37300aa333ec08823","A3","batch1","","975","","","tol_tohand","","","","","","","","","tol_peg_2","975","975","0","[[1,0,0],[0,0],[2]]","2","[[1,3,0],[2,0],[0]]","0","0","","","","","","3","",""
"","","","","","single-stim-button","204","386851","0.0-3.0-10.1-1.1","627b3ff37300aa333ec08823","A3","batch1","","923","","","tol_toboard","","","","","","","","","tol_peg_1","923","923","0","[[1,3,0],[0,0],[2]]","2","[[1,3,0],[2,0],[0]]","0","0","","","","","","3","",""
"","","","","","single-stim-button","205","387692","0.0-3.0-10.2-0.2","627b3ff37300aa333ec08823","A3","batch1","","840","","","tol_tohand","","","","","","","","","tol_peg_3","840","840","0","[[1,3,0],[0,0],[0]]","3","[[1,3,0],[2,0],[0]]","0","0","","","","","","3","",""
"","","","","","single-stim-button","206","388819","0.0-3.0-10.2-1.2","627b3ff37300aa333ec08823","A3","batch1","","1125","","","tol_toboard","","","","","","","","","tol_peg_2","1125","1125","0","[[1,3,0],[2,0],[0]]","3","[[1,3,0],[2,0],[0]]","0","0","","","","","","3","",""
"","","","","","poldrack-single-stim","207","389824","0.0-3.0-11.0","627b3ff37300aa333ec08823","A3","batch1","","-1","","","tol_feedback","true","","","","","","","","","1000","1000","500","","","","","","-1","none","true","3093","4908","","",""
"","","","","","html-button-response","208","391221","0.0-3.0-12.0","627b3ff37300aa333ec08823","A3","batch1","","1395.8000001907349","<div class = centerbox><p class = center-block-text>problem <strong>2</strong> out of 25 problems</p></div>","0","tol_trial_num","","","","","","","","","","","","","","","","","","","","","","","","",""
"","","","","","single-stim-button","209","393651","0.0-3.0-13.0-0.0","627b3ff37300aa333ec08823","A3","batch1","","2429","","","tol_tohand","","","","","","","","","tol_peg_1","2429","2429","0","[[1,0,0],[3,0],[0]]","1","[[2,1,3],[0,0],[0]]","1","0","","","","","","5","",""
"","","","","","single-stim-button","210","395018","0.0-3.0-13.0-1.0","627b3ff37300aa333ec08823","A3","batch1","","1365","","","tol_toboard","","","","","","","","","tol_peg_3","1365","1365","0","[[1,0,0],[3,0],[2]]","1","[[2,1,3],[0,0],[0]]","1","0","","","","","","5","",""
"","","","","","single-stim-button","211","399251","0.0-3.0-13.1-0.1","627b3ff37300aa333ec08823","A3","batch1","","4232","","","tol_tohand","","","","","","","","","tol_peg_1","4232","4232","0","[[0,0,0],[3,0],[2]]","2","[[2,1,3],[0,0],[0]]","1","0","","","","","","5","",""
"","","","","","single-stim-button","212","400617","0.0-3.0-13.1-1.1","627b3ff37300aa333ec08823","A3","batch1","","1366","","","tol_toboard","","","","","","","","","tol_peg_2","1366","1366","0","[[0,0,0],[3,1],[2]]","2","[[2,1,3],[0,0],[0]]","1","0","","","","","","5","",""
"","","","","","single-stim-button","213","401393","0.0-3.0-13.2-0.2","627b3ff37300aa333ec08823","A3","batch1","","775","","","tol_tohand","","","","","","","","","tol_peg_3","775","775","0","[[0,0,0],[3,1],[0]]","3","[[2,1,3],[0,0],[0]]","1","0","","","","","","5","",""
"","","","","","single-stim-button","214","402789","0.0-3.0-13.2-1.2","627b3ff37300aa333ec08823","A3","batch1","","1395","","","tol_toboard","","","","","","","","","tol_peg_1","1395","1395","0","[[2,0,0],[3,1],[0]]","3","[[2,1,3],[0,0],[0]]","1","0","","","","","","5","",""
"","","","","","single-stim-button","215","403942","0.0-3.0-13.3-0.3","627b3ff37300aa333ec08823","A3","batch1","","1152","","","tol_tohand","","","","","","","","","tol_peg_2","1152","1152","0","[[2,0,0],[3,0],[0]]","4","[[2,1,3],[0,0],[0]]","1","0","","","","","","5","",""
"","","","","","single-stim-button","216","404983","0.0-3.0-13.3-1.3","627b3ff37300aa333ec08823","A3","batch1","","1040","","","tol_toboard","","","","","","","","","tol_peg_1","1040","1040","0","[[2,1,0],[3,0],[0]]","4","[[2,1,3],[0,0],[0]]","1","0","","","","","","5","",""
"","","","","","single-stim-button","217","405798","0.0-3.0-13.4-0.4","627b3ff37300aa333ec08823","A3","batch1","","814","","","tol_tohand","","","","","","","","","tol_peg_2","814","814","0","[[2,1,0],[0,0],[0]]","5","[[2,1,3],[0,0],[0]]","1","0","","","","","","5","",""
"","","","","","single-stim-button","218","406984","0.0-3.0-13.4-1.4","627b3ff37300aa333ec08823","A3","batch1","","1184","","","tol_toboard","","","","","","","","","tol_peg_1","1184","1184","0","[[2,1,3],[0,0],[0]]","5","[[2,1,3],[0,0],[0]]","1","0","","","","","","5","",""
"","","","","","poldrack-single-stim","219","407996","0.0-3.0-14.0","627b3ff37300aa333ec08823","A3","batch1","","-1","","","tol_feedback","true","","","","","","","","","1000","1000","500","","","","","","-1","none","true","2429","9402","","",""
"","","","","","html-button-response","220","409151","0.0-3.0-15.0","627b3ff37300aa333ec08823","A3","batch1","","1153.3999996185303","<div class = centerbox><p class = center-block-text>problem <strong>3</strong> out of 25 problems</p></div>","0","tol_trial_num","","","","","","","","","","","","","","","","","","","","","","","","",""
"","","","","","single-stim-button","221","414348","0.0-3.0-16.0-0.0","627b3ff37300aa333ec08823","A3","batch1","","5197","","","tol_tohand","","","","","","","","","tol_peg_1","5197","5197","0","[[2,0,0],[0,0],[1]]","1","[[1,2,0],[3,0],[0]]","2","0","","","","","","4","",""
"","","","","","single-stim-button","222","415286","0.0-3.0-16.0-1.0","627b3ff37300aa333ec08823","A3","batch1","","937","","","tol_toboard","","","","","","","","","tol_peg_2","937","937","0","[[2,0,0],[3,0],[1]]","1","[[1,2,0],[3,0],[0]]","2","0","","","","","","4","",""
"","","","","","single-stim-button","223","416367","0.0-3.0-16.1-0.1","627b3ff37300aa333ec08823","A3","batch1","","1079","","","tol_tohand","","","","","","","","","tol_peg_1","1079","1079","0","[[0,0,0],[3,0],[1]]","2","[[1,2,0],[3,0],[0]]","2","0","","","","","","4","",""
"","","","","","single-stim-button","224","417632","0.0-3.0-16.1-1.1","627b3ff37300aa333ec08823","A3","batch1","","1264","","","tol_toboard","","","","","","","","","tol_peg_2","1264","1264","0","[[0,0,0],[3,2],[1]]","2","[[1,2,0],[3,0],[0]]","2","0","","","","","","4","",""
"","","","","","single-stim-button","225","418518","0.0-3.0-16.2-0.2","627b3ff37300aa333ec08823","A3","batch1","","885","","","tol_tohand","","","","","","","","","tol_peg_3","885","885","0","[[0,0,0],[3,2],[0]]","3","[[1,2,0],[3,0],[0]]","2","0","","","","","","4","",""
"","","","","","single-stim-button","226","419855","0.0-3.0-16.2-1.2","627b3ff37300aa333ec08823","A3","batch1","","1335","","","tol_toboard","","","","","","","","","tol_peg_1","1335","1335","0","[[1,0,0],[3,2],[0]]","3","[[1,2,0],[3,0],[0]]","2","0","","","","","","4","",""
"","","","","","single-stim-button","227","420583","0.0-3.0-16.3-0.3","627b3ff37300aa333ec08823","A3","batch1","","728","","","tol_tohand","","","","","","","","","tol_peg_2","728","728","0","[[1,0,0],[3,0],[0]]","4","[[1,2,0],[3,0],[0]]","2","0","","","","","","4","",""
"","","","","","single-stim-button","228","421511","0.0-3.0-16.3-1.3","627b3ff37300aa333ec08823","A3","batch1","","928","","","tol_toboard","","","","","","","","","tol_peg_1","928","928","0","[[1,2,0],[3,0],[0]]","4","[[1,2,0],[3,0],[0]]","2","0","","","","","","4","",""
"","","","","","poldrack-single-stim","229","422514","0.0-3.0-17.0","627b3ff37300aa333ec08823","A3","batch1","","-1","","","tol_feedback","true","","","","","","","","","1000","1000","500","","","","","","-1","none","true","5197","7889","","",""
"","","","","","html-button-response","230","424134","0.0-3.0-18.0","627b3ff37300aa333ec08823","A3","batch1","","1618.0999994277954","<div class = centerbox><p class = center-block-text>problem <strong>4</strong> out of 25 problems</p></div>","0","tol_trial_num","","","","","","","","","","","","","","","","","","","","","","","","",""
"","","","","","single-stim-button","231","426659","0.0-3.0-19.0-0.0","627b3ff37300aa333ec08823","A3","batch1","","2525","","","tol_tohand","","","","","","","","","tol_peg_2","2525","2525","0","[[3,0,0],[2,0],[0]]","1","[[3,0,0],[1,0],[2]]","3","0","","","","","","3","",""
"","","","","","single-stim-button","232","427564","0.0-3.0-19.0-1.0","627b3ff37300aa333ec08823","A3","batch1","","903","","","tol_toboard","","","","","","","","","tol_peg_1","903","903","0","[[3,1,0],[2,0],[0]]","1","[[3,0,0],[1,0],[2]]","3","0","","","","","","3","",""
"","","","","","single-stim-button","233","428324","0.0-3.0-19.1-0.1","627b3ff37300aa333ec08823","A3","batch1","","760","","","tol_tohand","","","","","","","","","tol_peg_2","760","760","0","[[3,1,0],[0,0],[0]]","2","[[3,0,0],[1,0],[2]]","3","0","","","","","","3","",""
"","","","","","single-stim-button","234","429318","0.0-3.0-19.1-1.1","627b3ff37300aa333ec08823","A3","batch1","","992","","","tol_toboard","","","","","","","","","tol_peg_3","992","992","0","[[3,1,0],[0,0],[2]]","2","[[3,0,0],[1,0],[2]]","3","0","","","","","","3","",""
"","","","","","single-stim-button","235","430236","0.0-3.0-19.2-0.2","627b3ff37300aa333ec08823","A3","batch1","","918","","","tol_tohand","","","","","","","","","tol_peg_1","918","918","0","[[3,0,0],[0,0],[2]]","3","[[3,0,0],[1,0],[2]]","3","0","","","","","","3","",""
"","","","","","single-stim-button","236","431113","0.0-3.0-19.2-1.2","627b3ff37300aa333ec08823","A3","batch1","","876","","","tol_toboard","","","","","","","","","tol_peg_2","876","876","0","[[3,0,0],[1,0],[2]]","3","[[3,0,0],[1,0],[2]]","3","0","","","","","","3","",""
"","","","","","poldrack-single-stim","237","432116","0.0-3.0-20.0","627b3ff37300aa333ec08823","A3","batch1","","-1","","","tol_feedback","true","","","","","","","","","1000","1000","500","","","","","","-1","none","true","2525","4203","","",""
"","","","","","html-button-response","238","433500","0.0-3.0-21.0","627b3ff37300aa333ec08823","A3","batch1","","1382.9000005722046","<div class = centerbox><p class = center-block-text>problem <strong>5</strong> out of 25 problems</p></div>","0","tol_trial_num","","","","","","","","","","","","","","","","","","","","","","","","",""
"","","","","","single-stim-button","239","436846","0.0-3.0-22.0-0.0","627b3ff37300aa333ec08823","A3","batch1","","3345","","","tol_tohand","","","","","","","","","tol_peg_2","3345","3345","0","[[1,0,0],[0,0],[3]]","1","[[0,0,0],[1,2],[3]]","4","0","","","","","","7","",""
"","","","","","single-stim-button","240","440087","0.0-3.0-22.0-1.0","627b3ff37300aa333ec08823","A3","batch1","","3241","","","tol_toboard","","","","","","","","","tol_peg_2","3241","3241","0","[[1,0,0],[2,0],[3]]","1","[[0,0,0],[1,2],[3]]","4","0","","","","","","7","",""
"","","","","","single-stim-button","241","449063","0.0-3.0-22.1-0.1","627b3ff37300aa333ec08823","A3","batch1","","8974","","","tol_tohand","","","","","","","","","tol_peg_1","8974","8974","0","[[0,0,0],[2,0],[3]]","2","[[0,0,0],[1,2],[3]]","4","0","","","","","","7","",""
"","","","","","single-stim-button","242","451110","0.0-3.0-22.1-1.1","627b3ff37300aa333ec08823","A3","batch1","","2045","","","tol_toboard","","","","","","","","","tol_peg_2","2045","2045","0","[[0,0,0],[2,1],[3]]","2","[[0,0,0],[1,2],[3]]","4","0","","","","","","7","",""
"","","","","","single-stim-button","243","452179","0.0-3.0-22.2-0.2","627b3ff37300aa333ec08823","A3","batch1","","1067","","","tol_tohand","","","","","","","","","tol_peg_3","1067","1067","0","[[0,0,0],[2,1],[0]]","3","[[0,0,0],[1,2],[3]]","4","0","","","","","","7","",""
"","","","","","single-stim-button","244","453248","0.0-3.0-22.2-1.2","627b3ff37300aa333ec08823","A3","batch1","","1069","","","tol_toboard","","","","","","","","","tol_peg_1","1069","1069","0","[[3,0,0],[2,1],[0]]","3","[[0,0,0],[1,2],[3]]","4","0","","","","","","7","",""
"","","","","","single-stim-button","245","457076","0.0-3.0-22.3-0.3","627b3ff37300aa333ec08823","A3","batch1","","3827","","","tol_tohand","","","","","","","","","tol_peg_2","3827","3827","0","[[3,0,0],[2,0],[0]]","4","[[0,0,0],[1,2],[3]]","4","0","","","","","","7","",""
"","","","","","single-stim-button","246","458743","0.0-3.0-22.3-1.3","627b3ff37300aa333ec08823","A3","batch1","","1665","","","tol_toboard","","","","","","","","","tol_peg_1","1665","1665","0","[[3,1,0],[2,0],[0]]","4","[[0,0,0],[1,2],[3]]","4","0","","","","","","7","",""
"","","","","","single-stim-button","247","459525","0.0-3.0-22.4-0.4","627b3ff37300aa333ec08823","A3","batch1","","782","","","tol_tohand","","","","","","","","","tol_peg_2","782","782","0","[[3,1,0],[0,0],[0]]","5","[[0,0,0],[1,2],[3]]","4","0","","","","","","7","",""
"","","","","","single-stim-button","248","462911","0.0-3.0-22.4-1.4","627b3ff37300aa333ec08823","A3","batch1","","3386","","","tol_toboard","","","","","","","","","tol_peg_3","3386","3386","0","[[3,1,0],[0,0],[2]]","5","[[0,0,0],[1,2],[3]]","4","0","","","","","","7","",""
"","","","","","single-stim-button","249","463859","0.0-3.0-22.5-0.5","627b3ff37300aa333ec08823","A3","batch1","","946","","","tol_tohand","","","","","","","","","tol_peg_1","946","946","0","[[3,0,0],[0,0],[2]]","6","[[0,0,0],[1,2],[3]]","4","0","","","","","","7","",""
"","","","","","single-stim-button","250","464993","0.0-3.0-22.5-1.5","627b3ff37300aa333ec08823","A3","batch1","","1134","","","tol_toboard","","","","","","","","","tol_peg_2","1134","1134","0","[[3,0,0],[1,0],[2]]","6","[[0,0,0],[1,2],[3]]","4","0","","","","","","7","",""
"","","","","","single-stim-button","251","466060","0.0-3.0-22.6-0.6","627b3ff37300aa333ec08823","A3","batch1","","1066","","","tol_tohand","","","","","","","","","tol_peg_3","1066","1066","0","[[3,0,0],[1,0],[0]]","7","[[0,0,0],[1,2],[3]]","4","0","","","","","","7","",""
"","","","","","single-stim-button","252","466979","0.0-3.0-22.6-1.6","627b3ff37300aa333ec08823","A3","batch1","","919","","","tol_toboard","","","","","","","","","tol_peg_2","919","919","0","[[3,0,0],[1,2],[0]]","7","[[0,0,0],[1,2],[3]]","4","0","","","","","","7","",""
"","","","","","single-stim-button","253","467765","0.0-3.0-22.7-0.7","627b3ff37300aa333ec08823","A3","batch1","","785","","","tol_tohand","","","","","","","","","tol_peg_1","785","785","0","[[0,0,0],[1,2],[0]]","8","[[0,0,0],[1,2],[3]]","4","0","","","","","","7","",""
"","","","","","single-stim-button","254","468942","0.0-3.0-22.7-1.7","627b3ff37300aa333ec08823","A3","batch1","","1176","","","tol_toboard","","","","","","","","","tol_peg_3","1176","1176","0","[[0,0,0],[1,2],[3]]","8","[[0,0,0],[1,2],[3]]","4","0","","","","","","7","",""
"","","","","","poldrack-single-stim","255","469948","0.0-3.0-23.0","627b3ff37300aa333ec08823","A3","batch1","","-1","","","tol_feedback","true","","","","","","","","","1000","1000","500","","","","","","-1","none","true","3345","20792","","",""
"","","","","","html-button-response","256","471009","0.0-3.0-24.0","627b3ff37300aa333ec08823","A3","batch1","","1059.5","<div class = centerbox><p class = center-block-text>problem <strong>6</strong> out of 25 problems</p></div>","0","tol_trial_num","","","","","","","","","","","","","","","","","","","","","","","","",""
"","","","","","single-stim-button","257","498939","0.0-3.0-25.0-0.0","627b3ff37300aa333ec08823","A3","batch1","","27929","","","tol_tohand","","","","","","","","","tol_peg_3","27929","27929","0","[[0,0,0],[1,2],[0]]","1","[[1,0,0],[2,3],[0]]","5","0","","","","","","6","",""
"","","","","","single-stim-button","258","500088","0.0-3.0-25.0-1.0","627b3ff37300aa333ec08823","A3","batch1","","1148","","","tol_toboard","","","","","","","","","tol_peg_1","1148","1148","0","[[3,0,0],[1,2],[0]]","1","[[1,0,0],[2,3],[0]]","5","0","","","","","","6","",""
"","","","","","single-stim-button","259","500838","0.0-3.0-25.1-0.1","627b3ff37300aa333ec08823","A3","batch1","","749","","","tol_tohand","","","","","","","","","tol_peg_2","749","749","0","[[3,0,0],[1,0],[0]]","2","[[1,0,0],[2,3],[0]]","5","0","","","","","","6","",""
"","","","","","single-stim-button","260","501688","0.0-3.0-25.1-1.1","627b3ff37300aa333ec08823","A3","batch1","","850","","","tol_toboard","","","","","","","","","tol_peg_3","850","850","0","[[3,0,0],[1,0],[2]]","2","[[1,0,0],[2,3],[0]]","5","0","","","","","","6","",""
"","","","","","single-stim-button","261","502537","0.0-3.0-25.2-0.2","627b3ff37300aa333ec08823","A3","batch1","","848","","","tol_tohand","","","","","","","","","tol_peg_2","848","848","0","[[3,0,0],[0,0],[2]]","3","[[1,0,0],[2,3],[0]]","5","0","","","","","","6","",""
"","","","","","single-stim-button","262","503431","0.0-3.0-25.2-1.2","627b3ff37300aa333ec08823","A3","batch1","","892","","","tol_toboard","","","","","","","","","tol_peg_1","892","892","0","[[3,1,0],[0,0],[2]]","3","[[1,0,0],[2,3],[0]]","5","0","","","","","","6","",""
"","","","","","single-stim-button","263","504270","0.0-3.0-25.3-0.3","627b3ff37300aa333ec08823","A3","batch1","","839","","","tol_tohand","","","","","","","","","tol_peg_3","839","839","0","[[3,1,0],[0,0],[0]]","4","[[1,0,0],[2,3],[0]]","5","0","","","","","","6","",""
"","","","","","single-stim-button","264","505236","0.0-3.0-25.3-1.3","627b3ff37300aa333ec08823","A3","batch1","","964","","","tol_toboard","","","","","","","","","tol_peg_2","964","964","0","[[3,1,0],[2,0],[0]]","4","[[1,0,0],[2,3],[0]]","5","0","","","","","","6","",""
"","","","","","single-stim-button","265","506320","0.0-3.0-25.4-0.4","627b3ff37300aa333ec08823","A3","batch1","","1084","","","tol_tohand","","","","","","","","","tol_peg_1","1084","1084","0","[[3,0,0],[2,0],[0]]","5","[[1,0,0],[2,3],[0]]","5","0","","","","","","6","",""
"","","","","","single-stim-button","266","507303","0.0-3.0-25.4-1.4","627b3ff37300aa333ec08823","A3","batch1","","982","","","tol_toboard","","","","","","","","","tol_peg_3","982","982","0","[[3,0,0],[2,0],[1]]","5","[[1,0,0],[2,3],[0]]","5","0","","","","","","6","",""
"","","","","","single-stim-button","267","508140","0.0-3.0-25.5-0.5","627b3ff37300aa333ec08823","A3","batch1","","836","","","tol_tohand","","","","","","","","","tol_peg_1","836","836","0","[[0,0,0],[2,0],[1]]","6","[[1,0,0],[2,3],[0]]","5","0","","","","","","6","",""
"","","","","","single-stim-button","268","509070","0.0-3.0-25.5-1.5","627b3ff37300aa333ec08823","A3","batch1","","929","","","tol_toboard","","","","","","","","","tol_peg_2","929","929","0","[[0,0,0],[2,3],[1]]","6","[[1,0,0],[2,3],[0]]","5","0","","","","","","6","",""
"","","","","","single-stim-button","269","510191","0.0-3.0-25.6-0.6","627b3ff37300aa333ec08823","A3","batch1","","1120","","","tol_tohand","","","","","","","","","tol_peg_3","1120","1120","0","[[0,0,0],[2,3],[0]]","7","[[1,0,0],[2,3],[0]]","5","0","","","","","","6","",""
"","","","","","single-stim-button","270","511421","0.0-3.0-25.6-1.6","627b3ff37300aa333ec08823","A3","batch1","","1230","","","tol_toboard","","","","","","","","","tol_peg_1","1230","1230","0","[[1,0,0],[2,3],[0]]","7","[[1,0,0],[2,3],[0]]","5","0","","","","","","6","",""
"","","","","","poldrack-single-stim","271","512423","0.0-3.0-26.0","627b3ff37300aa333ec08823","A3","batch1","","-1","","","tol_feedback","true","","","","","","","","","1000","1000","500","","","","","","-1","none","true","27929","33405","","",""
"","","","","","html-button-response","272","513721","0.0-3.0-27.0","627b3ff37300aa333ec08823","A3","batch1","","1296.9000005722046","<div class = centerbox><p class = center-block-text>problem <strong>7</strong> out of 25 problems</p></div>","0","tol_trial_num","","","","","","","","","","","","","","","","","","","","","","","","",""
"","","","","","single-stim-button","273","516603","0.0-3.0-28.0-0.0","627b3ff37300aa333ec08823","A3","batch1","","2882","","","tol_tohand","","","","","","","","","tol_peg_3","2882","2882","0","[[2,1,0],[0,0],[0]]","1","[[1,2,0],[3,0],[0]]","6","0","","","","","","5","",""
"","","","","","single-stim-button","274","517713","0.0-3.0-28.0-1.0","627b3ff37300aa333ec08823","A3","batch1","","1108","","","tol_toboard","","","","","","","","","tol_peg_2","1108","1108","0","[[2,1,0],[3,0],[0]]","1","[[1,2,0],[3,0],[0]]","6","0","","","","","","5","",""
"","","","","","single-stim-button","275","518587","0.0-3.0-28.1-0.1","627b3ff37300aa333ec08823","A3","batch1","","872","","","tol_tohand","","","","","","","","","tol_peg_1","872","872","0","[[2,0,0],[3,0],[0]]","2","[[1,2,0],[3,0],[0]]","6","0","","","","","","5","",""
"","","","","","single-stim-button","276","521018","0.0-3.0-28.1-1.1","627b3ff37300aa333ec08823","A3","batch1","","2431","","","tol_toboard","","","","","","","","","tol_peg_3","2431","2431","0","[[2,0,0],[3,0],[1]]","2","[[1,2,0],[3,0],[0]]","6","0","","","","","","5","",""
"","","","","","single-stim-button","277","521868","0.0-3.0-28.2-0.2","627b3ff37300aa333ec08823","A3","batch1","","848","","","tol_tohand","","","","","","","","","tol_peg_1","848","848","0","[[0,0,0],[3,0],[1]]","3","[[1,2,0],[3,0],[0]]","6","0","","","","","","5","",""
"","","","","","single-stim-button","278","523049","0.0-3.0-28.2-1.2","627b3ff37300aa333ec08823","A3","batch1","","1180","","","tol_toboard","","","","","","","","","tol_peg_2","1180","1180","0","[[0,0,0],[3,2],[1]]","3","[[1,2,0],[3,0],[0]]","6","0","","","","","","5","",""
"","","","","","single-stim-button","279","523750","0.0-3.0-28.3-0.3","627b3ff37300aa333ec08823","A3","batch1","","700","","","tol_tohand","","","","","","","","","tol_peg_3","700","700","0","[[0,0,0],[3,2],[0]]","4","[[1,2,0],[3,0],[0]]","6","0","","","","","","5","",""
"","","","","","single-stim-button","280","524692","0.0-3.0-28.3-1.3","627b3ff37300aa333ec08823","A3","batch1","","942","","","tol_toboard","","","","","","","","","tol_peg_1","942","942","0","[[1,0,0],[3,2],[0]]","4","[[1,2,0],[3,0],[0]]","6","0","","","","","","5","",""
"","","","","","single-stim-button","281","525351","0.0-3.0-28.4-0.4","627b3ff37300aa333ec08823","A3","batch1","","657","","","tol_tohand","","","","","","","","","tol_peg_2","657","657","0","[[1,0,0],[3,0],[0]]","5","[[1,2,0],[3,0],[0]]","6","0","","","","","","5","",""
"","","","","","single-stim-button","282","526266","0.0-3.0-28.4-1.4","627b3ff37300aa333ec08823","A3","batch1","","915","","","tol_toboard","","","","","","","","","tol_peg_1","915","915","0","[[1,2,0],[3,0],[0]]","5","[[1,2,0],[3,0],[0]]","6","0","","","","","","5","",""
"","","","","","poldrack-single-stim","283","527271","0.0-3.0-29.0","627b3ff37300aa333ec08823","A3","batch1","","-1","","","tol_feedback","true","","","","","","","","","1000","1000","500","","","","","","-1","none","true","2882","5959","","",""
"","","","","","html-button-response","284","528218","0.0-3.0-30.0","627b3ff37300aa333ec08823","A3","batch1","","945.3000001907349","<div class = centerbox><p class = center-block-text>problem <strong>8</strong> out of 25 problems</p></div>","0","tol_trial_num","","","","","","","","","","","","","","","","","","","","","","","","",""
"","","","","","single-stim-button","285","532334","0.0-3.0-31.0-0.0","627b3ff37300aa333ec08823","A3","batch1","","4115","","","tol_tohand","","","","","","","","","tol_peg_3","4115","4115","0","[[0,0,0],[2,3],[0]]","1","[[1,2,0],[3,0],[0]]","7","0","","","","","","4","",""
"","","","","","single-stim-button","286","533683","0.0-3.0-31.0-1.0","627b3ff37300aa333ec08823","A3","batch1","","1348","","","tol_toboard","","","","","","","","","tol_peg_1","1348","1348","0","[[1,0,0],[2,3],[0]]","1","[[1,2,0],[3,0],[0]]","7","0","","","","","","4","",""
"","","","","","single-stim-button","287","534565","0.0-3.0-31.1-0.1","627b3ff37300aa333ec08823","A3","batch1","","880","","","tol_tohand","","","","","","","","","tol_peg_2","880","880","0","[[1,0,0],[2,0],[0]]","2","[[1,2,0],[3,0],[0]]","7","0","","","","","","4","",""
"","","","","","single-stim-button","288","535433","0.0-3.0-31.1-1.1","627b3ff37300aa333ec08823","A3","batch1","","868","","","tol_toboard","","","","","","","","","tol_peg_3","868","868","0","[[1,0,0],[2,0],[3]]","2","[[1,2,0],[3,0],[0]]","7","0","","","","","","4","",""
"","","","","","single-stim-button","289","536199","0.0-3.0-31.2-0.2","627b3ff37300aa333ec08823","A3","batch1","","765","","","tol_tohand","","","","","","","","","tol_peg_2","765","765","0","[[1,0,0],[0,0],[3]]","3","[[1,2,0],[3,0],[0]]","7","0","","","","","","4","",""
"","","","","","single-stim-button","290","537043","0.0-3.0-31.2-1.2","627b3ff37300aa333ec08823","A3","batch1","","843","","","tol_toboard","","","","","","","","","tol_peg_1","843","843","0","[[1,2,0],[0,0],[3]]","3","[[1,2,0],[3,0],[0]]","7","0","","","","","","4","",""
"","","","","","single-stim-button","291","537739","0.0-3.0-31.3-0.3","627b3ff37300aa333ec08823","A3","batch1","","694","","","tol_tohand","","","","","","","","","tol_peg_3","694","694","0","[[1,2,0],[0,0],[0]]","4","[[1,2,0],[3,0],[0]]","7","0","","","","","","4","",""
"","","","","","single-stim-button","292","538899","0.0-3.0-31.3-1.3","627b3ff37300aa333ec08823","A3","batch1","","1159","","","tol_toboard","","","","","","","","","tol_peg_2","1159","1159","0","[[1,2,0],[3,0],[0]]","4","[[1,2,0],[3,0],[0]]","7","0","","","","","","4","",""
"","","","","","poldrack-single-stim","293","539906","0.0-3.0-32.0","627b3ff37300aa333ec08823","A3","batch1","","-1","","","tol_feedback","true","","","","","","","","","1000","1000","500","","","","","","-1","none","true","4115","6454","","",""
"","","","","","html-button-response","294","541049","0.0-3.0-33.0","627b3ff37300aa333ec08823","A3","batch1","","1142.1000003814697","<div class = centerbox><p class = center-block-text>problem <strong>9</strong> out of 25 problems</p></div>","0","tol_trial_num","","","","","","","","","","","","","","","","","","","","","","","","",""
"","","","","","single-stim-button","295","555240","0.0-3.0-34.0-0.0","627b3ff37300aa333ec08823","A3","batch1","","14190","","","tol_tohand","","","","","","","","","tol_peg_1","14190","14190","0","[[3,0,0],[0,0],[1]]","1","[[2,1,0],[3,0],[0]]","8","0","","","","","","6","",""
"","","","","","single-stim-button","296","556403","0.0-3.0-34.0-1.0","627b3ff37300aa333ec08823","A3","batch1","","1162","","","tol_toboard","","","","","","","","","tol_peg_2","1162","1162","0","[[3,0,0],[2,0],[1]]","1","[[2,1,0],[3,0],[0]]","8","0","","","","","","6","",""
"","","","","","single-stim-button","297","557116","0.0-3.0-34.1-0.1","627b3ff37300aa333ec08823","A3","batch1","","711","","","tol_tohand","","","","","","","","","tol_peg_1","711","711","0","[[0,0,0],[2,0],[1]]","2","[[2,1,0],[3,0],[0]]","8","0","","","","","","6","",""
"","","","","","single-stim-button","298","558498","0.0-3.0-34.1-1.1","627b3ff37300aa333ec08823","A3","batch1","","1381","","","tol_toboard","","","","","","","","","tol_peg_2","1381","1381","0","[[0,0,0],[2,3],[1]]","2","[[2,1,0],[3,0],[0]]","8","0","","","","","","6","",""
"","","","","","single-stim-button","299","562663","0.0-3.0-34.2-0.2","627b3ff37300aa333ec08823","A3","batch1","","4165","","","tol_tohand","","","","","","","","","tol_peg_3","4165","4165","0","[[0,0,0],[2,3],[0]]","3","[[2,1,0],[3,0],[0]]","8","0","","","","","","6","",""
"","","","","","single-stim-button","300","564246","0.0-3.0-34.2-1.2","627b3ff37300aa333ec08823","A3","batch1","","1581","","","tol_toboard","","","","","","","","","tol_peg_1","1581","1581","0","[[1,0,0],[2,3],[0]]","3","[[2,1,0],[3,0],[0]]","8","0","","","","","","6","",""
"","","","","","single-stim-button","301","564996","0.0-3.0-34.3-0.3","627b3ff37300aa333ec08823","A3","batch1","","750","","","tol_tohand","","","","","","","","","tol_peg_2","750","750","0","[[1,0,0],[2,0],[0]]","4","[[2,1,0],[3,0],[0]]","8","0","","","","","","6","",""
"","","","","","single-stim-button","302","565908","0.0-3.0-34.3-1.3","627b3ff37300aa333ec08823","A3","batch1","","910","","","tol_toboard","","","","","","","","","tol_peg_3","910","910","0","[[1,0,0],[2,0],[3]]","4","[[2,1,0],[3,0],[0]]","8","0","","","","","","6","",""
"","","","","","single-stim-button","303","566123","0.0-3.0-34.4-0.4","627b3ff37300aa333ec08823","A3","batch1","","215","","","tol_tohand","","","","","","","","","tol_peg_3","215","215","0","[[1,0,0],[2,0],[0]]","5","[[2,1,0],[3,0],[0]]","8","0","","","","","","6","",""
"","","","","","single-stim-button","304","568519","0.0-3.0-34.4-1.4","627b3ff37300aa333ec08823","A3","batch1","","2395","","","tol_toboard","","","","","","","","","tol_peg_3","2395","2395","0","[[1,0,0],[2,0],[3]]","5","[[2,1,0],[3,0],[0]]","8","0","","","","","","6","",""
"","","","","","single-stim-button","305","569278","0.0-3.0-34.5-0.5","627b3ff37300aa333ec08823","A3","batch1","","758","","","tol_tohand","","","","","","","","","tol_peg_2","758","758","0","[[1,0,0],[0,0],[3]]","6","[[2,1,0],[3,0],[0]]","8","0","","","","","","6","",""
"","","","","","single-stim-button","306","570336","0.0-3.0-34.5-1.5","627b3ff37300aa333ec08823","A3","batch1","","1056","","","tol_toboard","","","","","","","","","tol_peg_1","1056","1056","0","[[1,2,0],[0,0],[3]]","6","[[2,1,0],[3,0],[0]]","8","0","","","","","","6","",""
"","","","","","single-stim-button","307","571129","0.0-3.0-34.6-0.6","627b3ff37300aa333ec08823","A3","batch1","","792","","","tol_tohand","","","","","","","","","tol_peg_3","792","792","0","[[1,2,0],[0,0],[0]]","7","[[2,1,0],[3,0],[0]]","8","0","","","","","","6","",""
"","","","","","single-stim-button","308","571977","0.0-3.0-34.6-1.6","627b3ff37300aa333ec08823","A3","batch1","","847","","","tol_toboard","","","","","","","","","tol_peg_2","847","847","0","[[1,2,0],[3,0],[0]]","7","[[2,1,0],[3,0],[0]]","8","0","","","","","","6","",""
"","","","","","single-stim-button","309","572786","0.0-3.0-34.7-0.7","627b3ff37300aa333ec08823","A3","batch1","","809","","","tol_tohand","","","","","","","","","tol_peg_1","809","809","0","[[1,0,0],[3,0],[0]]","8","[[2,1,0],[3,0],[0]]","8","0","","","","","","6","",""
"","","","","","single-stim-button","310","574286","0.0-3.0-34.7-1.7","627b3ff37300aa333ec08823","A3","batch1","","1500","","","tol_toboard","","","","","","","","","tol_peg_3","1500","1500","0","[[1,0,0],[3,0],[2]]","8","[[2,1,0],[3,0],[0]]","8","0","","","","","","6","",""
"","","","","","single-stim-button","311","575112","0.0-3.0-34.8-0.8","627b3ff37300aa333ec08823","A3","batch1","","824","","","tol_tohand","","","","","","","","","tol_peg_1","824","824","0","[[0,0,0],[3,0],[2]]","9","[[2,1,0],[3,0],[0]]","8","0","","","","","","6","",""
"","","","","","single-stim-button","312","576311","0.0-3.0-34.8-1.8","627b3ff37300aa333ec08823","A3","batch1","","1199","","","tol_toboard","","","","","","","","","tol_peg_2","1199","1199","0","[[0,0,0],[3,1],[2]]","9","[[2,1,0],[3,0],[0]]","8","0","","","","","","6","",""
"","","","","","single-stim-button","313","576994","0.0-3.0-34.9-0.9","627b3ff37300aa333ec08823","A3","batch1","","682","","","tol_tohand","","","","","","","","","tol_peg_3","682","682","0","[[0,0,0],[3,1],[0]]","10","[[2,1,0],[3,0],[0]]","8","0","","","","","","6","",""
"","","","","","single-stim-button","314","578260","0.0-3.0-34.9-1.9","627b3ff37300aa333ec08823","A3","batch1","","1265","","","tol_toboard","","","","","","","","","tol_peg_1","1265","1265","0","[[2,0,0],[3,1],[0]]","10","[[2,1,0],[3,0],[0]]","8","0","","","","","","6","",""
"","","","","","single-stim-button","315","579001","0.0-3.0-34.10-0.10","627b3ff37300aa333ec08823","A3","batch1","","740","","","tol_tohand","","","","","","","","","tol_peg_2","740","740","0","[[2,0,0],[3,0],[0]]","11","[[2,1,0],[3,0],[0]]","8","0","","","","","","6","",""
"","","","","","single-stim-button","316","580051","0.0-3.0-34.10-1.10","627b3ff37300aa333ec08823","A3","batch1","","1050","","","tol_toboard","","","","","","","","","tol_peg_1","1050","1050","0","[[2,1,0],[3,0],[0]]","11","[[2,1,0],[3,0],[0]]","8","0","","","","","","6","",""
"","","","","","poldrack-single-stim","317","581061","0.0-3.0-35.0","627b3ff37300aa333ec08823","A3","batch1","","-1","","","tol_feedback","true","","","","","","","","","1000","1000","500","","","","","","-1","none","true","14190","24636","","",""
"","","","","","html-button-response","318","582071","0.0-3.0-36.0","627b3ff37300aa333ec08823","A3","batch1","","1009.3000001907349","<div class = centerbox><p class = center-block-text>problem <strong>10</strong> out of 25 problems</p></div>","0","tol_trial_num","","","","","","","","","","","","","","","","","","","","","","","","",""
"","","","","","single-stim-button","319","584860","0.0-3.0-37.0-0.0","627b3ff37300aa333ec08823","A3","batch1","","2787","","","tol_tohand","","","","","","","","","tol_peg_2","2787","2787","0","[[3,0,0],[0,0],[2]]","1","[[3,0,0],[2,1],[0]]","9","0","","","","","","3","",""
"","","","","","single-stim-button","320","585691","0.0-3.0-37.0-1.0","627b3ff37300aa333ec08823","A3","batch1","","831","","","tol_toboard","","","","","","","","","tol_peg_1","831","831","0","[[3,1,0],[0,0],[2]]","1","[[3,0,0],[2,1],[0]]","9","0","","","","","","3","",""
"","","","","","single-stim-button","321","586529","0.0-3.0-37.1-0.1","627b3ff37300aa333ec08823","A3","batch1","","836","","","tol_tohand","","","","","","","","","tol_peg_3","836","836","0","[[3,1,0],[0,0],[0]]","2","[[3,0,0],[2,1],[0]]","9","0","","","","","","3","",""
"","","","","","single-stim-button","322","587393","0.0-3.0-37.1-1.1","627b3ff37300aa333ec08823","A3","batch1","","864","","","tol_toboard","","","","","","","","","tol_peg_2","864","864","0","[[3,1,0],[2,0],[0]]","2","[[3,0,0],[2,1],[0]]","9","0","","","","","","3","",""
"","","","","","single-stim-button","323","588192","0.0-3.0-37.2-0.2","627b3ff37300aa333ec08823","A3","batch1","","798","","","tol_tohand","","","","","","","","","tol_peg_1","798","798","0","[[3,0,0],[2,0],[0]]","3","[[3,0,0],[2,1],[0]]","9","0","","","","","","3","",""
"","","","","","single-stim-button","324","589275","0.0-3.0-37.2-1.2","627b3ff37300aa333ec08823","A3","batch1","","1082","","","tol_toboard","","","","","","","","","tol_peg_2","1082","1082","0","[[3,0,0],[2,1],[0]]","3","[[3,0,0],[2,1],[0]]","9","0","","","","","","3","",""
"","","","","","poldrack-single-stim","325","590286","0.0-3.0-38.0","627b3ff37300aa333ec08823","A3","batch1","","-1","","","tol_feedback","true","","","","","","","","","1000","1000","500","","","","","","-1","none","true","2787","4421","","",""
"","","","","","html-button-response","326","591379","0.0-3.0-39.0","627b3ff37300aa333ec08823","A3","batch1","","1091.9000005722046","<div class = centerbox><p class = center-block-text>problem <strong>11</strong> out of 25 problems</p></div>","0","tol_trial_num","","","","","","","","","","","","","","","","","","","","","","","","",""
"","","","","","single-stim-button","327","598309","0.0-3.0-40.0-0.0","627b3ff37300aa333ec08823","A3","batch1","","6928","","","tol_tohand","","","","","","","","","tol_peg_1","6928","6928","0","[[1,0,0],[3,0],[0]]","1","[[2,0,0],[1,3],[0]]","10","0","","","","","","6","",""
"","","","","","single-stim-button","328","601983","0.0-3.0-40.0-1.0","627b3ff37300aa333ec08823","A3","batch1","","3674","","","tol_toboard","","","","","","","","","tol_peg_3","3674","3674","0","[[1,0,0],[3,0],[2]]","1","[[2,0,0],[1,3],[0]]","10","0","","","","","","6","",""
"","","","","","single-stim-button","329","603007","0.0-3.0-40.1-0.1","627b3ff37300aa333ec08823","A3","batch1","","1023","","","tol_tohand","","","","","","","","","tol_peg_1","1023","1023","0","[[0,0,0],[3,0],[2]]","2","[[2,0,0],[1,3],[0]]","10","0","","","","","","6","",""
"","","","","","single-stim-button","330","604041","0.0-3.0-40.1-1.1","627b3ff37300aa333ec08823","A3","batch1","","1032","","","tol_toboard","","","","","","","","","tol_peg_2","1032","1032","0","[[0,0,0],[3,1],[2]]","2","[[2,0,0],[1,3],[0]]","10","0","","","","","","6","",""
"","","","","","single-stim-button","331","604707","0.0-3.0-40.2-0.2","627b3ff37300aa333ec08823","A3","batch1","","666","","","tol_tohand","","","","","","","","","tol_peg_3","666","666","0","[[0,0,0],[3,1],[0]]","3","[[2,0,0],[1,3],[0]]","10","0","","","","","","6","",""
"","","","","","single-stim-button","332","605774","0.0-3.0-40.2-1.2","627b3ff37300aa333ec08823","A3","batch1","","1066","","","tol_toboard","","","","","","","","","tol_peg_1","1066","1066","0","[[2,0,0],[3,1],[0]]","3","[[2,0,0],[1,3],[0]]","10","0","","","","","","6","",""
"","","","","","single-stim-button","333","606539","0.0-3.0-40.3-0.3","627b3ff37300aa333ec08823","A3","batch1","","764","","","tol_tohand","","","","","","","","","tol_peg_2","764","764","0","[[2,0,0],[3,0],[0]]","4","[[2,0,0],[1,3],[0]]","10","0","","","","","","6","",""
"","","","","","single-stim-button","334","607434","0.0-3.0-40.3-1.3","627b3ff37300aa333ec08823","A3","batch1","","893","","","tol_toboard","","","","","","","","","tol_peg_3","893","893","0","[[2,0,0],[3,0],[1]]","4","[[2,0,0],[1,3],[0]]","10","0","","","","","","6","",""
"","","","","","single-stim-button","335","608223","0.0-3.0-40.4-0.4","627b3ff37300aa333ec08823","A3","batch1","","788","","","tol_tohand","","","","","","","","","tol_peg_2","788","788","0","[[2,0,0],[0,0],[1]]","5","[[2,0,0],[1,3],[0]]","10","0","","","","","","6","",""
"","","","","","single-stim-button","336","609224","0.0-3.0-40.4-1.4","627b3ff37300aa333ec08823","A3","batch1","","1001","","","tol_toboard","","","","","","","","","tol_peg_1","1001","1001","0","[[2,3,0],[0,0],[1]]","5","[[2,0,0],[1,3],[0]]","10","0","","","","","","6","",""
"","","","","","single-stim-button","337","610239","0.0-3.0-40.5-0.5","627b3ff37300aa333ec08823","A3","batch1","","1014","","","tol_tohand","","","","","","","","","tol_peg_3","1014","1014","0","[[2,3,0],[0,0],[0]]","6","[[2,0,0],[1,3],[0]]","10","0","","","","","","6","",""
"","","","","","single-stim-button","338","611158","0.0-3.0-40.5-1.5","627b3ff37300aa333ec08823","A3","batch1","","919","","","tol_toboard","","","","","","","","","tol_peg_2","919","919","0","[[2,3,0],[1,0],[0]]","6","[[2,0,0],[1,3],[0]]","10","0","","","","","","6","",""
"","","","","","single-stim-button","339","611931","0.0-3.0-40.6-0.6","627b3ff37300aa333ec08823","A3","batch1","","771","","","tol_tohand","","","","","","","","","tol_peg_1","771","771","0","[[2,0,0],[1,0],[0]]","7","[[2,0,0],[1,3],[0]]","10","0","","","","","","6","",""
"","","","","","single-stim-button","340","612957","0.0-3.0-40.6-1.6","627b3ff37300aa333ec08823","A3","batch1","","1026","","","tol_toboard","","","","","","","","","tol_peg_2","1026","1026","0","[[2,0,0],[1,3],[0]]","7","[[2,0,0],[1,3],[0]]","10","0","","","","","","6","",""
"","","","","","poldrack-single-stim","341","613970","0.0-3.0-41.0","627b3ff37300aa333ec08823","A3","batch1","","-1","","","tol_feedback","true","","","","","","","","","1000","1000","500","","","","","","-1","none","true","6928","11954","","",""
"","","","","","html-button-response","342","614975","0.0-3.0-42.0","627b3ff37300aa333ec08823","A3","batch1","","1003.6000003814697","<div class = centerbox><p class = center-block-text>problem <strong>12</strong> out of 25 problems</p></div>","0","tol_trial_num","","","","","","","","","","","","","","","","","","","","","","","","",""
"","","","","","single-stim-button","343","617489","0.0-3.0-43.0-0.0","627b3ff37300aa333ec08823","A3","batch1","","2514","","","tol_tohand","","","","","","","","","tol_peg_1","2514","2514","0","[[1,0,0],[3,0],[0]]","1","[[2,3,0],[0,0],[1]]","11","0","","","","","","4","",""
"","","","","","single-stim-button","344","618538","0.0-3.0-43.0-1.0","627b3ff37300aa333ec08823","A3","batch1","","1048","","","tol_toboard","","","","","","","","","tol_peg_2","1048","1048","0","[[1,0,0],[3,2],[0]]","1","[[2,3,0],[0,0],[1]]","11","0","","","","","","4","",""
"","","","","","single-stim-button","345","619257","0.0-3.0-43.1-0.1","627b3ff37300aa333ec08823","A3","batch1","","717","","","tol_tohand","","","","","","","","","tol_peg_1","717","717","0","[[0,0,0],[3,2],[0]]","2","[[2,3,0],[0,0],[1]]","11","0","","","","","","4","",""
"","","","","","single-stim-button","346","620306","0.0-3.0-43.1-1.1","627b3ff37300aa333ec08823","A3","batch1","","1048","","","tol_toboard","","","","","","","","","tol_peg_3","1048","1048","0","[[0,0,0],[3,2],[1]]","2","[[2,3,0],[0,0],[1]]","11","0","","","","","","4","",""
"","","","","","single-stim-button","347","621229","0.0-3.0-43.2-0.2","627b3ff37300aa333ec08823","A3","batch1","","921","","","tol_tohand","","","","","","","","","tol_peg_2","921","921","0","[[0,0,0],[3,0],[1]]","3","[[2,3,0],[0,0],[1]]","11","0","","","","","","4","",""
"","","","","","single-stim-button","348","622237","0.0-3.0-43.2-1.2","627b3ff37300aa333ec08823","A3","batch1","","1007","","","tol_toboard","","","","","","","","","tol_peg_1","1007","1007","0","[[2,0,0],[3,0],[1]]","3","[[2,3,0],[0,0],[1]]","11","0","","","","","","4","",""
"","","","","","single-stim-button","349","622886","0.0-3.0-43.3-0.3","627b3ff37300aa333ec08823","A3","batch1","","649","","","tol_tohand","","","","","","","","","tol_peg_2","649","649","0","[[2,0,0],[0,0],[1]]","4","[[2,3,0],[0,0],[1]]","11","0","","","","","","4","",""
