"success","timeout","failed_images","failed_audio","failed_video","trial_type","trial_index","time_elapsed","internal_node_id","subject_id","study_id","session_id","view_history","rt","stimulus","response","task","correct","answer","item","fiar_detect_rt","fiar_detect_correct","total_correct_fiar_detect","post_trial_gap","choices","mouse_click","stim_duration","block_duration","timing_post_trial","current_position","tol_num_moves_made","tol_target","tol_problem_id","tol_rt","key_press","possible_responses","tol_correct","preplanning","tol_rt_per_trial","tol_min_moves","spm_correct","spm_rt"
"true","false","[]","[]","[]","preload","0","8767","0.0-0.0","627e7c4b12787b51092b1984","A3","batch1","","","","","","","","","","","","","","","","","","","","","","","","","","","","","",""
"true","","","","","fullscreen","1","21231","0.0-1.0-0.0","627e7c4b12787b51092b1984","A3","batch1","","","","","","","","","","","","","","","","","","","","","","","","","","","","","",""
"true","","","","","fullscreen","2","24354","0.0-2.0-0.0","627e7c4b12787b51092b1984","A3","batch1","","","","","","","","","","","","","","","","","","","","","","","","","","","","","",""
"","","","","","instructions","3","34723","0.0-2.0-1.0-0.0","627e7c4b12787b51092b1984","A3","batch1","[{""page_index"":0,""viewing_time"":6930.300000011921},{""page_index"":1,""viewing_time"":3436}]","10367.200000017881","","","","","","","","","","","","","","","","","","","","","","","","","","","",""
"","","","","","html-button-response","4","35980","0.0-2.0-1.0-1.0-0.0","627e7c4b12787b51092b1984","A3","batch1","","1255.800000011921","<p class=block-text> Let's answer a few questions <br>","0","pattern_enter_quiz","","","","","","","","","","","","","","","","","","","","","","","","",""
"","","","","","html-button-response","5","37856","0.0-2.0-1.0-1.0-1.0","627e7c4b12787b51092b1984","A3","batch1","","1874.800000011921","<p class = block-text>True or False: You will have as much time as you want to make each choice. <br></p>","1","pattern_quiz","true","","","","","","","","","","","","","","","","","","","","","","","",""
"","","","","","html-button-response","6","38360","0.0-2.0-1.0-1.0-2.0","627e7c4b12787b51092b1984","A3","batch1","","502.80000001192093","<p class = block-text>Correct! You should make your choice <strong> as fast as you can</strong>.</p>","0","pattern_quiz_feedback","","","","","","","","","","","","","","","","","","","","","","","","",""
"","","","","","html-button-response","7","40274","0.0-2.0-1.0-1.0-3.0","627e7c4b12787b51092b1984","A3","batch1","","1913","<p class = block-text>True or False: You will look for 4 pieces in black or white color connected in a row either horizontally, vertically or diagonally. <br></p>","0","pattern_quiz","true","","","","","","","","","","","","","","","","","","","","","","","",""
"","","","","","html-button-response","8","40723","0.0-2.0-1.0-1.0-4.0","627e7c4b12787b51092b1984","A3","batch1","","447.39999997615814","<p class = block-text>Correct! </p>","0","pattern_quiz_feedback","","","","","","","","","","","","","","","","","","","","","","","","",""
"","","","","","html-button-response","9","41822","0.0-2.0-2.0","627e7c4b12787b51092b1984","A3","batch1","","1098.5","<p class=block-text> Now that you've understood the game, let's do a few practice trials before we start!<br> <br>","0","pattern_enter_practice","","","","","","","","","","","","","","","","","","","","","","","","",""
"","","","","","image-keyboard-response","10","44753","0.0-2.0-3.0-0.0","627e7c4b12787b51092b1984","A3","batch1","","2918.5","stim/prac_yes_20_dia_b1.png","j","pattern_practice","false","f","","","","","","","","","","","","","","","","","","","","","","",""
"","","","","","html-keyboard-response","11","45762","0.0-2.0-3.0-1.0","627e7c4b12787b51092b1984","A3","batch1","","null","<p style=""font-size:30px;color:red;"">Wrong.</p>","null","pattern_feedback","","","","","","","","","","","","","","","","","","","","","","","","",""
"","","","","","image-keyboard-response","12","47172","0.0-2.0-3.0-0.1","627e7c4b12787b51092b1984","A3","batch1","","1408.0999999940395","stim/prac_no_16_1.png","j","pattern_practice","true","j","","","","","","","","","","","","","","","","","","","","","","",""
"","","","","","html-keyboard-response","13","48179","0.0-2.0-3.0-1.1","627e7c4b12787b51092b1984","A3","batch1","","null","<p style=""font-size:30px;color:green;"">Correct!</p>","null","pattern_feedback","","","","","","","","","","","","","","","","","","","","","","","","",""
"","","","","","image-keyboard-response","14","49221","0.0-2.0-3.0-0.2","627e7c4b12787b51092b1984","A3","batch1","","1041.0999999940395","stim/prac_yes_16_ver_w1.png","f","pattern_practice","true","f","","","","","","","","","","","","","","","","","","","","","","",""
"","","","","","html-keyboard-response","15","50230","0.0-2.0-3.0-1.2","627e7c4b12787b51092b1984","A3","batch1","","null","<p style=""font-size:30px;color:green;"">Correct!</p>","null","pattern_feedback","","","","","","","","","","","","","","","","","","","","","","","","",""
"","","","","","image-keyboard-response","16","51718","0.0-2.0-3.0-0.3","627e7c4b12787b51092b1984","A3","batch1","","1486.300000011921","stim/prac_no_18_1.png","j","pattern_practice","true","j","","","","","","","","","","","","","","","","","","","","","","",""
"","","","","","html-keyboard-response","17","52731","0.0-2.0-3.0-1.3","627e7c4b12787b51092b1984","A3","batch1","","null","<p style=""font-size:30px;color:green;"">Correct!</p>","null","pattern_feedback","","","","","","","","","","","","","","","","","","","","","","","","",""
"","","","","","image-keyboard-response","18","55174","0.0-2.0-3.0-0.4","627e7c4b12787b51092b1984","A3","batch1","","2441.5","stim/prac_yes_18_hor_w1.png","f","pattern_practice","true","f","","","","","","","","","","","","","","","","","","","","","","",""
"","","","","","html-keyboard-response","19","56183","0.0-2.0-3.0-1.4","627e7c4b12787b51092b1984","A3","batch1","","null","<p style=""font-size:30px;color:green;"">Correct!</p>","null","pattern_feedback","","","","","","","","","","","","","","","","","","","","","","","","",""
"","","","","","html-button-response","20","58245","0.0-2.0-4.0","627e7c4b12787b51092b1984","A3","batch1","","2060.800000011921","<p class=block-text> Good job! You are done with practice trials!<br>
        You responded correctly on 80% of the trials.<br>
        Press the button below to start official trials. Now you won't see any feedback about your response</p>","0","pattern_enter_official_trials","","","","","","","","","","","","","","","","","","","","","","","","",""
"","","","","","html-keyboard-response","21","59052","0.0-2.0-5.0-0.0","627e7c4b12787b51092b1984","A3","batch1","","null","<p class=block-text>Trial 1 out of 78</p>","null","pattern_show_trial_num","","","","","","","","","","","","","","","","","","","","","","","","",""
"","","","","","image-keyboard-response","22","60047","0.0-2.0-5.0-1.0","627e7c4b12787b51092b1984","A3","batch1","","993.4000000059605","stim/no_18_1_b.png","j","pattern_response","true","j","pattern_05","993.4000000059605","true","1","","","","","","","","","","","","","","","","","","",""
"","","","","","html-keyboard-response","23","61367","0.0-2.0-5.0-0.1","627e7c4b12787b51092b1984","A3","batch1","","null","<p class=block-text>Trial 2 out of 78</p>","null","pattern_show_trial_num","","","","","","","","","","","","","","","","","","","","","","","","",""
"","","","","","image-keyboard-response","24","63168","0.0-2.0-5.0-1.1","627e7c4b12787b51092b1984","A3","batch1","","1799.2999999821186","stim/no_28_2.png","j","pattern_response","true","j","pattern_11","1799.2999999821186","true","2","","","","","","","","","","","","","","","","","","",""
"","","","","","html-keyboard-response","25","64483","0.0-2.0-5.0-0.2","627e7c4b12787b51092b1984","A3","batch1","","null","<p class=block-text>Trial 3 out of 78</p>","null","pattern_show_trial_num","","","","","","","","","","","","","","","","","","","","","","","","",""
"","","","","","image-keyboard-response","26","65719","0.0-2.0-5.0-1.2","627e7c4b12787b51092b1984","A3","batch1","","1234.0999999940395","stim/no_67_1.png","f","pattern_response","false","j","pattern_39","1234.0999999940395","false","2","","","","","","","","","","","","","","","","","","",""
"","","","","","html-keyboard-response","27","67039","0.0-2.0-5.0-0.3","627e7c4b12787b51092b1984","A3","batch1","","null","<p class=block-text>Trial 4 out of 78</p>","null","pattern_show_trial_num","","","","","","","","","","","","","","","","","","","","","","","","",""
"","","","","","image-keyboard-response","28","67879","0.0-2.0-5.0-1.3","627e7c4b12787b51092b1984","A3","batch1","","838.1999999880791","stim/no_39_1_w.png","f","pattern_response","false","j","pattern_21","838.1999999880791","false","2","","","","","","","","","","","","","","","","","","",""
"","","","","","html-keyboard-response","29","69188","0.0-2.0-5.0-0.4","627e7c4b12787b51092b1984","A3","batch1","","null","<p class=block-text>Trial 5 out of 78</p>","null","pattern_show_trial_num","","","","","","","","","","","","","","","","","","","","","","","","",""
"","","","","","image-keyboard-response","30","70518","0.0-2.0-5.0-1.4","627e7c4b12787b51092b1984","A3","batch1","","1329","stim/no_22_1_b.png","j","pattern_response","true","j","pattern_07","1329","true","3","","","","","","","","","","","","","","","","","","",""
"","","","","","html-keyboard-response","31","71829","0.0-2.0-5.0-0.5","627e7c4b12787b51092b1984","A3","batch1","","null","<p class=block-text>Trial 6 out of 78</p>","null","pattern_show_trial_num","","","","","","","","","","","","","","","","","","","","","","","","",""
"","","","","","image-keyboard-response","32","74103","0.0-2.0-5.0-1.5","627e7c4b12787b51092b1984","A3","batch1","","2272.7000000178814","stim/yes_51_dia_b1.png","j","pattern_response","false","f","pattern_72","2272.7000000178814","false","3","","","","","","","","","","","","","","","","","","",""
"","","","","","html-keyboard-response","33","75424","0.0-2.0-5.0-0.6","627e7c4b12787b51092b1984","A3","batch1","","null","<p class=block-text>Trial 7 out of 78</p>","null","pattern_show_trial_num","","","","","","","","","","","","","","","","","","","","","","","","",""
"","","","","","image-keyboard-response","34","76542","0.0-2.0-5.0-1.6","627e7c4b12787b51092b1984","A3","batch1","","1116.9000000059605","stim/yes_33_dia_w1_w.png","f","pattern_response","true","f","pattern_56","1116.9000000059605","true","4","","","","","","","","","","","","","","","","","","",""
"","","","","","html-keyboard-response","35","77856","0.0-2.0-5.0-0.7","627e7c4b12787b51092b1984","A3","batch1","","null","<p class=block-text>Trial 8 out of 78</p>","null","pattern_show_trial_num","","","","","","","","","","","","","","","","","","","","","","","","",""
"","","","","","image-keyboard-response","36","78688","0.0-2.0-5.0-1.7","627e7c4b12787b51092b1984","A3","batch1","","830.1999999880791","stim/yes_15_dia_b1u_b.png","f","pattern_response","true","f","pattern_44","830.1999999880791","true","5","","","","","","","","","","","","","","","","","","",""
"","","","","","html-keyboard-response","37","80004","0.0-2.0-5.0-0.8","627e7c4b12787b51092b1984","A3","batch1","","null","<p class=block-text>Trial 9 out of 78</p>","null","pattern_show_trial_num","","","","","","","","","","","","","","","","","","","","","","","","",""
"","","","","","image-keyboard-response","38","80703","0.0-2.0-5.0-1.8","627e7c4b12787b51092b1984","A3","batch1","","697","stim/yes_17_ver_b1_b.png","f","pattern_response","true","f","pattern_46","697","true","6","","","","","","","","","","","","","","","","","","",""
"","","","","","html-keyboard-response","39","82016","0.0-2.0-5.0-0.9","627e7c4b12787b51092b1984","A3","batch1","","null","<p class=block-text>Trial 10 out of 78</p>","null","pattern_show_trial_num","","","","","","","","","","","","","","","","","","","","","","","","",""
"","","","","","image-keyboard-response","40","83455","0.0-2.0-5.0-1.9","627e7c4b12787b51092b1984","A3","batch1","","1437.199999988079","stim/yes_26_dia_w2_w.png","j","pattern_response","false","f","pattern_50","1437.199999988079","false","6","","","","","","","","","","","","","","","","","","",""
"","","","","","html-keyboard-response","41","84768","0.0-2.0-5.0-0.10","627e7c4b12787b51092b1984","A3","batch1","","null","<p class=block-text>Trial 11 out of 78</p>","null","pattern_show_trial_num","","","","","","","","","","","","","","","","","","","","","","","","",""
"","","","","","image-keyboard-response","42","85584","0.0-2.0-5.0-1.10","627e7c4b12787b51092b1984","A3","batch1","","813.4000000059605","stim/yes_12_hor_w1_w.png","f","pattern_response","true","f","pattern_42","813.4000000059605","true","7","","","","","","","","","","","","","","","","","","",""
"","","","","","html-keyboard-response","43","86904","0.0-2.0-5.0-0.11","627e7c4b12787b51092b1984","A3","batch1","","null","<p class=block-text>Trial 12 out of 78</p>","null","pattern_show_trial_num","","","","","","","","","","","","","","","","","","","","","","","","",""
"","","","","","image-keyboard-response","44","89584","0.0-2.0-5.0-1.11","627e7c4b12787b51092b1984","A3","batch1","","2679.0999999940395","stim/no_36_1_b.png","j","pattern_response","true","j","pattern_17","2679.0999999940395","true","8","","","","","","","","","","","","","","","","","","",""
"","","","","","html-keyboard-response","45","90901","0.0-2.0-5.0-0.12","627e7c4b12787b51092b1984","A3","batch1","","null","<p class=block-text>Trial 13 out of 78</p>","null","pattern_show_trial_num","","","","","","","","","","","","","","","","","","","","","","","","",""
"","","","","","image-keyboard-response","46","92040","0.0-2.0-5.0-1.12","627e7c4b12787b51092b1984","A3","batch1","","1138.4000000059605","stim/no_53_1_b.png","f","pattern_response","false","j","pattern_33","1138.4000000059605","false","8","","","","","","","","","","","","","","","","","","",""
"","","","","","html-keyboard-response","47","93361","0.0-2.0-5.0-0.13","627e7c4b12787b51092b1984","A3","batch1","","null","<p class=block-text>Trial 14 out of 78</p>","null","pattern_show_trial_num","","","","","","","","","","","","","","","","","","","","","","","","",""
"","","","","","image-keyboard-response","48","95768","0.0-2.0-5.0-1.13","627e7c4b12787b51092b1984","A3","batch1","","2406.100000023842","stim/no_37_2_w.png","j","pattern_response","true","j","pattern_19","2406.100000023842","true","9","","","","","","","","","","","","","","","","","","",""
"","","","","","html-keyboard-response","49","97089","0.0-2.0-5.0-0.14","627e7c4b12787b51092b1984","A3","batch1","","null","<p class=block-text>Trial 15 out of 78</p>","null","pattern_show_trial_num","","","","","","","","","","","","","","","","","","","","","","","","",""
"","","","","","image-keyboard-response","50","98184","0.0-2.0-5.0-1.14","627e7c4b12787b51092b1984","A3","batch1","","1093.300000011921","stim/no_15_1_w.png","j","pattern_response","true","j","pattern_03","1093.300000011921","true","10","","","","","","","","","","","","","","","","","","",""
"","","","","","html-keyboard-response","51","99505","0.0-2.0-5.0-0.15","627e7c4b12787b51092b1984","A3","batch1","","null","<p class=block-text>Trial 16 out of 78</p>","null","pattern_show_trial_num","","","","","","","","","","","","","","","","","","","","","","","","",""
"","","","","","image-keyboard-response","52","101600","0.0-2.0-5.0-1.15","627e7c4b12787b51092b1984","A3","batch1","","2093.5","stim/yes_42_dia_w1_w.png","j","pattern_response","false","f","pattern_64","2093.5","false","10","","","","","","","","","","","","","","","","","","",""
"","","","","","html-keyboard-response","53","102917","0.0-2.0-5.0-0.16","627e7c4b12787b51092b1984","A3","batch1","","null","<p class=block-text>Trial 17 out of 78</p>","null","pattern_show_trial_num","","","","","","","","","","","","","","","","","","","","","","","","",""
"","","","","","image-keyboard-response","54","105248","0.0-2.0-5.0-1.16","627e7c4b12787b51092b1984","A3","batch1","","2329.2999999821186","stim/no_45_1_w.png","j","pattern_response","true","j","pattern_25","2329.2999999821186","true","11","","","","","","","","","","","","","","","","","","",""
"","","","","","html-keyboard-response","55","106569","0.0-2.0-5.0-0.17","627e7c4b12787b51092b1984","A3","batch1","","null","<p class=block-text>Trial 18 out of 78</p>","null","pattern_show_trial_num","","","","","","","","","","","","","","","","","","","","","","","","",""
"","","","","","image-keyboard-response","56","109680","0.0-2.0-5.0-1.17","627e7c4b12787b51092b1984","A3","batch1","","3109.600000023842","stim/no_58_1_w.png","j","pattern_response","true","j","pattern_35","3109.600000023842","true","12","","","","","","","","","","","","","","","","","","",""
"","","","","","html-keyboard-response","57","110996","0.0-2.0-5.0-0.18","627e7c4b12787b51092b1984","A3","batch1","","null","<p class=block-text>Trial 19 out of 78</p>","null","pattern_show_trial_num","","","","","","","","","","","","","","","","","","","","","","","","",""
"","","","","","image-keyboard-response","58","113761","0.0-2.0-5.0-1.18","627e7c4b12787b51092b1984","A3","batch1","","2762.800000011921","stim/no_51_1.png","j","pattern_response","true","j","pattern_31","2762.800000011921","true","13","","","","","","","","","","","","","","","","","","",""
"","","","","","html-keyboard-response","59","115077","0.0-2.0-5.0-0.19","627e7c4b12787b51092b1984","A3","batch1","","null","<p class=block-text>Trial 20 out of 78</p>","null","pattern_show_trial_num","","","","","","","","","","","","","","","","","","","","","","","","",""
"","","","","","image-keyboard-response","60","118360","0.0-2.0-5.0-1.19","627e7c4b12787b51092b1984","A3","batch1","","3281.0999999940395","stim/no_43_2_b.png","j","pattern_response","true","j","pattern_23","3281.0999999940395","true","14","","","","","","","","","","","","","","","","","","",""
"","","","","","html-keyboard-response","61","119679","0.0-2.0-5.0-0.20","627e7c4b12787b51092b1984","A3","batch1","","null","<p class=block-text>Trial 21 out of 78</p>","null","pattern_show_trial_num","","","","","","","","","","","","","","","","","","","","","","","","",""
"","","","","","image-keyboard-response","62","120521","0.0-2.0-5.0-1.20","627e7c4b12787b51092b1984","A3","batch1","","840.6000000238419","stim/yes_37_hor_w1_w.png","f","pattern_response","true","f","pattern_60","840.6000000238419","true","15","","","","","","","","","","","","","","","","","","",""
"","","","","","html-keyboard-response","63","121841","0.0-2.0-5.0-0.21","627e7c4b12787b51092b1984","A3","batch1","","null","<p class=block-text>Trial 22 out of 78</p>","null","pattern_show_trial_num","","","","","","","","","","","","","","","","","","","","","","","","",""
"","","","","","image-keyboard-response","64","125273","0.0-2.0-5.0-1.21","627e7c4b12787b51092b1984","A3","batch1","","3430.699999988079","stim/yes_53_ver_b1_b.png","j","pattern_response","false","f","pattern_74","3430.699999988079","false","15","","","","","","","","","","","","","","","","","","",""
"","","","","","html-keyboard-response","65","126589","0.0-2.0-5.0-0.22","627e7c4b12787b51092b1984","A3","batch1","","null","<p class=block-text>Trial 23 out of 78</p>","null","pattern_show_trial_num","","","","","","","","","","","","","","","","","","","","","","","","",""
"","","","","","image-keyboard-response","66","127577","0.0-2.0-5.0-1.22","627e7c4b12787b51092b1984","A3","batch1","","986.6000000238419","stim/yes_23_ver_b1.png","f","pattern_response","true","f","pattern_48","986.6000000238419","true","16","","","","","","","","","","","","","","","","","","",""
"","","","","","html-keyboard-response","67","128894","0.0-2.0-5.0-0.23","627e7c4b12787b51092b1984","A3","batch1","","null","<p class=block-text>Trial 24 out of 78</p>","null","pattern_show_trial_num","","","","","","","","","","","","","","","","","","","","","","","","",""
"","","","","","image-keyboard-response","68","129968","0.0-2.0-5.0-1.23","627e7c4b12787b51092b1984","A3","batch1","","1073.199999988079","stim/yes_46_ver_b1_b.png","f","pattern_response","true","f","pattern_68","1073.199999988079","true","17","","","","","","","","","","","","","","","","","","",""
"","","","","","html-keyboard-response","69","131282","0.0-2.0-5.0-0.24","627e7c4b12787b51092b1984","A3","batch1","","null","<p class=block-text>Trial 25 out of 78</p>","null","pattern_show_trial_num","","","","","","","","","","","","","","","","","","","","","","","","",""
"","","","","","image-keyboard-response","70","131985","0.0-2.0-5.0-1.24","627e7c4b12787b51092b1984","A3","batch1","","701.7000000178814","stim/yes_30_ver_b1_b.png","f","pattern_response","true","f","pattern_54","701.7000000178814","true","18","","","","","","","","","","","","","","","","","","",""
"","","","","","html-keyboard-response","71","133295","0.0-2.0-5.0-0.25","627e7c4b12787b51092b1984","A3","batch1","","null","<p class=block-text>Trial 26 out of 78</p>","null","pattern_show_trial_num","","","","","","","","","","","","","","","","","","","","","","","","",""
"","","","","","image-keyboard-response","72","133953","0.0-2.0-5.0-1.25","627e7c4b12787b51092b1984","A3","batch1","","656.3000000119209","stim/yes_70_ver_b1.png","f","pattern_response","true","f","pattern_80","656.3000000119209","true","19","","","","","","","","","","","","","","","","","","",""
"","","","","","html-keyboard-response","73","135274","0.0-2.0-5.0-0.26","627e7c4b12787b51092b1984","A3","batch1","","null","<p class=block-text>Trial 27 out of 78</p>","null","pattern_show_trial_num","","","","","","","","","","","","","","","","","","","","","","","","",""
"","","","","","image-keyboard-response","74","138433","0.0-2.0-5.0-1.26","627e7c4b12787b51092b1984","A3","batch1","","3157.9000000059605","stim/yes_58_dia_w1_w.png","j","pattern_response","false","f","pattern_76","3157.9000000059605","false","19","","","","","","","","","","","","","","","","","","",""
"","","","","","html-keyboard-response","75","139754","0.0-2.0-5.0-0.27","627e7c4b12787b51092b1984","A3","batch1","","null","<p class=block-text>Trial 28 out of 78</p>","null","pattern_show_trial_num","","","","","","","","","","","","","","","","","","","","","","","","",""
"","","","","","image-keyboard-response","76","141738","0.0-2.0-5.0-1.27","627e7c4b12787b51092b1984","A3","batch1","","1981.800000011921","stim/no_30_1_b.png","j","pattern_response","true","j","pattern_13","1981.800000011921","true","20","","","","","","","","","","","","","","","","","","",""
"","","","","","html-keyboard-response","77","143055","0.0-2.0-5.0-0.28","627e7c4b12787b51092b1984","A3","batch1","","null","<p class=block-text>Trial 29 out of 78</p>","null","pattern_show_trial_num","","","","","","","","","","","","","","","","","","","","","","","","",""
"","","","","","image-keyboard-response","78","144090","0.0-2.0-5.0-1.28","627e7c4b12787b51092b1984","A3","batch1","","1033.1000000238419","stim/yes_49_hor_w1_b.png","f","pattern_response","true","f","pattern_70","1033.1000000238419","true","21","","","","","","","","","","","","","","","","","","",""
"","","","","","html-keyboard-response","79","145410","0.0-2.0-5.0-0.29","627e7c4b12787b51092b1984","A3","batch1","","null","<p class=block-text>Trial 30 out of 78</p>","null","pattern_show_trial_num","","","","","","","","","","","","","","","","","","","","","","","","",""
"","","","","","image-keyboard-response","80","147418","0.0-2.0-5.0-1.29","627e7c4b12787b51092b1984","A3","batch1","","2006.4000000059605","stim/yes_44_ver_w1_w.png","j","pattern_response","false","f","pattern_66","2006.4000000059605","false","21","","","","","","","","","","","","","","","","","","",""
"","","","","","html-keyboard-response","81","148737","0.0-2.0-5.0-0.30","627e7c4b12787b51092b1984","A3","batch1","","null","<p class=block-text>Trial 31 out of 78</p>","null","pattern_show_trial_num","","","","","","","","","","","","","","","","","","","","","","","","",""
"","","","","","image-keyboard-response","82","149570","0.0-2.0-5.0-1.30","627e7c4b12787b51092b1984","A3","batch1","","831.2000000178814","stim/yes_36_ver_w1_w.png","f","pattern_response","true","f","pattern_58","831.2000000178814","true","22","","","","","","","","","","","","","","","","","","",""
"","","","","","html-keyboard-response","83","150889","0.0-2.0-5.0-0.31","627e7c4b12787b51092b1984","A3","batch1","","null","<p class=block-text>Trial 32 out of 78</p>","null","pattern_show_trial_num","","","","","","","","","","","","","","","","","","","","","","","","",""
"","","","","","image-keyboard-response","84","152378","0.0-2.0-5.0-1.31","627e7c4b12787b51092b1984","A3","batch1","","1487.5","stim/no_33_1_b.png","j","pattern_response","true","j","pattern_15","1487.5","true","23","","","","","","","","","","","","","","","","","","",""
"","","","","","html-keyboard-response","85","153697","0.0-2.0-5.0-0.32","627e7c4b12787b51092b1984","A3","batch1","","null","<p class=block-text>Trial 33 out of 78</p>","null","pattern_show_trial_num","","","","","","","","","","","","","","","","","","","","","","","","",""
"","","","","","image-keyboard-response","86","154458","0.0-2.0-5.0-1.32","627e7c4b12787b51092b1984","A3","batch1","","759.5","stim/no_12_1.png","j","pattern_response","true","j","pattern_01","759.5","true","24","","","","","","","","","","","","","","","","","","",""
"","","","","","html-keyboard-response","87","155776","0.0-2.0-5.0-0.33","627e7c4b12787b51092b1984","A3","batch1","","null","<p class=block-text>Trial 34 out of 78</p>","null","pattern_show_trial_num","","","","","","","","","","","","","","","","","","","","","","","","",""
"","","","","","image-keyboard-response","88","156561","0.0-2.0-5.0-1.33","627e7c4b12787b51092b1984","A3","batch1","","784","stim/yes_39_hor_w1_w.png","f","pattern_response","true","f","pattern_62","784","true","25","","","","","","","","","","","","","","","","","","",""
"","","","","","html-keyboard-response","89","157882","0.0-2.0-5.0-0.34","627e7c4b12787b51092b1984","A3","batch1","","null","<p class=block-text>Trial 35 out of 78</p>","null","pattern_show_trial_num","","","","","","","","","","","","","","","","","","","","","","","","",""
"","","","","","image-keyboard-response","90","158537","0.0-2.0-5.0-1.34","627e7c4b12787b51092b1984","A3","batch1","","653.5999999940395","stim/yes_29_hor_b1_b.png","f","pattern_response","true","f","pattern_52","653.5999999940395","true","26","","","","","","","","","","","","","","","","","","",""
"","","","","","html-keyboard-response","91","159859","0.0-2.0-5.0-0.35","627e7c4b12787b51092b1984","A3","batch1","","null","<p class=block-text>Trial 36 out of 78</p>","null","pattern_show_trial_num","","","","","","","","","","","","","","","","","","","","","","","","",""
"","","","","","image-keyboard-response","92","162699","0.0-2.0-5.0-1.35","627e7c4b12787b51092b1984","A3","batch1","","2839.2999999821186","stim/yes_63_dia_b1.png","f","pattern_response","true","f","pattern_78","2839.2999999821186","true","27","","","","","","","","","","","","","","","","","","",""
"","","","","","html-keyboard-response","93","164019","0.0-2.0-5.0-0.36","627e7c4b12787b51092b1984","A3","batch1","","null","<p class=block-text>Trial 37 out of 78</p>","null","pattern_show_trial_num","","","","","","","","","","","","","","","","","","","","","","","","",""
"","","","","","image-keyboard-response","94","166010","0.0-2.0-5.0-1.36","627e7c4b12787b51092b1984","A3","batch1","","1989.7000000178814","stim/no_49_2_b.png","j","pattern_response","true","j","pattern_29","1989.7000000178814","true","28","","","","","","","","","","","","","","","","","","",""
"","","","","","html-keyboard-response","95","167328","0.0-2.0-5.0-0.37","627e7c4b12787b51092b1984","A3","batch1","","null","<p class=block-text>Trial 38 out of 78</p>","null","pattern_show_trial_num","","","","","","","","","","","","","","","","","","","","","","","","",""
"","","","","","image-keyboard-response","96","168722","0.0-2.0-5.0-1.37","627e7c4b12787b51092b1984","A3","batch1","","1392.800000011921","stim/no_47_1_b.png","j","pattern_response","true","j","pattern_27","1392.800000011921","true","29","","","","","","","","","","","","","","","","","","",""
"","","","","","html-keyboard-response","97","170040","0.0-2.0-5.0-0.38","627e7c4b12787b51092b1984","A3","batch1","","null","<p class=block-text>Trial 39 out of 78</p>","null","pattern_show_trial_num","","","","","","","","","","","","","","","","","","","","","","","","",""
"","","","","","image-keyboard-response","98","171699","0.0-2.0-5.0-1.38","627e7c4b12787b51092b1984","A3","batch1","","1657.1000000238419","stim/no_25_1_b.png","j","pattern_response","true","j","pattern_09","1657.1000000238419","true","30","","","","","","","","","","","","","","","","","","",""
"","","","","","image-keyboard-response","99","173739","0.0-2.0-6.0","627e7c4b12787b51092b1984","A3","batch1","","1529.2000000178814","stim/empty_board.png","j","attention_check","true","j","","","","","500","[""f"",""j""]","","","","","","","","","","","","","","","","",""
"","","","","","html-keyboard-response","100","174545","0.0-2.0-7.0-0.0","627e7c4b12787b51092b1984","A3","batch1","","null","<p class=block-text>Trial 40 out of 78</p>","null","pattern_show_trial_num","","","","","","","","","","","","","","","","","","","","","","","","",""
"","","","","","image-keyboard-response","101","175474","0.0-2.0-7.0-1.0","627e7c4b12787b51092b1984","A3","batch1","","928","stim/yes_29_ver_w1.png","f","pattern_response","true","f","pattern_53","928","true","31","","","","","","","","","","","","","","","","","","",""
"","","","","","html-keyboard-response","102","176795","0.0-2.0-7.0-0.1","627e7c4b12787b51092b1984","A3","batch1","","null","<p class=block-text>Trial 41 out of 78</p>","null","pattern_show_trial_num","","","","","","","","","","","","","","","","","","","","","","","","",""
"","","","","","image-keyboard-response","103","178123","0.0-2.0-7.0-1.1","627e7c4b12787b51092b1984","A3","batch1","","1327","stim/yes_38_hor_b1_b.png","f","pattern_response","true","f","pattern_61","1327","true","32","","","","","","","","","","","","","","","","","","",""
"","","","","","html-keyboard-response","104","179443","0.0-2.0-7.0-0.2","627e7c4b12787b51092b1984","A3","batch1","","null","<p class=block-text>Trial 42 out of 78</p>","null","pattern_show_trial_num","","","","","","","","","","","","","","","","","","","","","","","","",""
"","","","","","image-keyboard-response","105","180872","0.0-2.0-7.0-1.2","627e7c4b12787b51092b1984","A3","batch1","","1427.2999999821186","stim/yes_48_dia_w1_w.png","j","pattern_response","false","f","pattern_69","1427.2999999821186","false","32","","","","","","","","","","","","","","","","","","",""
"","","","","","html-keyboard-response","106","182187","0.0-2.0-7.0-0.3","627e7c4b12787b51092b1984","A3","batch1","","null","<p class=block-text>Trial 43 out of 78</p>","null","pattern_show_trial_num","","","","","","","","","","","","","","","","","","","","","","","","",""
"","","","","","image-keyboard-response","107","182866","0.0-2.0-7.0-1.3","627e7c4b12787b51092b1984","A3","batch1","","677.2999999821186","stim/yes_14_hor_b1_w.png","f","pattern_response","true","f","pattern_43","677.2999999821186","true","33","","","","","","","","","","","","","","","","","","",""
"","","","","","html-keyboard-response","108","184177","0.0-2.0-7.0-0.4","627e7c4b12787b51092b1984","A3","batch1","","null","<p class=block-text>Trial 44 out of 78</p>","null","pattern_show_trial_num","","","","","","","","","","","","","","","","","","","","","","","","",""
"","","","","","image-keyboard-response","109","185115","0.0-2.0-7.0-1.4","627e7c4b12787b51092b1984","A3","batch1","","937","stim/no_23_1.png","j","pattern_response","true","j","pattern_08","937","true","34","","","","","","","","","","","","","","","","","","",""
"","","","","","html-keyboard-response","110","186435","0.0-2.0-7.0-0.5","627e7c4b12787b51092b1984","A3","batch1","","null","<p class=block-text>Trial 45 out of 78</p>","null","pattern_show_trial_num","","","","","","","","","","","","","","","","","","","","","","","","",""
"","","","","","image-keyboard-response","111","189155","0.0-2.0-7.0-1.5","627e7c4b12787b51092b1984","A3","batch1","","2717.9000000059605","stim/no_62_1_w.png","j","pattern_response","true","j","pattern_36","2717.9000000059605","true","35","","","","","","","","","","","","","","","","","","",""
"","","","","","html-keyboard-response","112","190471","0.0-2.0-7.0-0.6","627e7c4b12787b51092b1984","A3","batch1","","null","<p class=block-text>Trial 46 out of 78</p>","null","pattern_show_trial_num","","","","","","","","","","","","","","","","","","","","","","","","",""
"","","","","","image-keyboard-response","113","191218","0.0-2.0-7.0-1.6","627e7c4b12787b51092b1984","A3","batch1","","745.0999999940395","stim/yes_22_ver_w1.png","f","pattern_response","true","f","pattern_47","745.0999999940395","true","36","","","","","","","","","","","","","","","","","","",""
"","","","","","html-keyboard-response","114","192536","0.0-2.0-7.0-0.7","627e7c4b12787b51092b1984","A3","batch1","","null","<p class=block-text>Trial 47 out of 78</p>","null","pattern_show_trial_num","","","","","","","","","","","","","","","","","","","","","","","","",""
"","","","","","image-keyboard-response","115","193651","0.0-2.0-7.0-1.7","627e7c4b12787b51092b1984","A3","batch1","","1113.0999999940395","stim/yes_35_dia_b1.png","j","pattern_response","false","f","pattern_57","1113.0999999940395","false","36","","","","","","","","","","","","","","","","","","",""
"","","","","","html-keyboard-response","116","194972","0.0-2.0-7.0-0.8","627e7c4b12787b51092b1984","A3","batch1","","null","<p class=block-text>Trial 48 out of 78</p>","null","pattern_show_trial_num","","","","","","","","","","","","","","","","","","","","","","","","",""
"","","","","","image-keyboard-response","117","196331","0.0-2.0-7.0-1.8","627e7c4b12787b51092b1984","A3","batch1","","1357.800000011921","stim/no_55_1_w.png","j","pattern_response","true","j","pattern_34","1357.800000011921","true","37","","","","","","","","","","","","","","","","","","",""
"","","","","","html-keyboard-response","118","197648","0.0-2.0-7.0-0.9","627e7c4b12787b51092b1984","A3","batch1","","null","<p class=block-text>Trial 49 out of 78</p>","null","pattern_show_trial_num","","","","","","","","","","","","","","","","","","","","","","","","",""
"","","","","","image-keyboard-response","119","199067","0.0-2.0-7.0-1.9","627e7c4b12787b51092b1984","A3","batch1","","1417.5999999940395","stim/no_20_1_w.png","j","pattern_response","true","j","pattern_06","1417.5999999940395","true","38","","","","","","","","","","","","","","","","","","",""
"","","","","","html-keyboard-response","120","200388","0.0-2.0-7.0-0.10","627e7c4b12787b51092b1984","A3","batch1","","null","<p class=block-text>Trial 50 out of 78</p>","null","pattern_show_trial_num","","","","","","","","","","","","","","","","","","","","","","","","",""
"","","","","","image-keyboard-response","121","202882","0.0-2.0-7.0-1.10","627e7c4b12787b51092b1984","A3","batch1","","2493.5","stim/no_36_2_w.png","j","pattern_response","true","j","pattern_18","2493.5","true","39","","","","","","","","","","","","","","","","","","",""
"","","","","","html-keyboard-response","122","204194","0.0-2.0-7.0-0.11","627e7c4b12787b51092b1984","A3","batch1","","null","<p class=block-text>Trial 51 out of 78</p>","null","pattern_show_trial_num","","","","","","","","","","","","","","","","","","","","","","","","",""
"","","","","","image-keyboard-response","123","207530","0.0-2.0-7.0-1.11","627e7c4b12787b51092b1984","A3","batch1","","3334.7000000178814","stim/no_70_2.png","j","pattern_response","true","j","pattern_40","3334.7000000178814","true","40","","","","","","","","","","","","","","","","","","",""
"","","","","","html-keyboard-response","124","208844","0.0-2.0-7.0-0.12","627e7c4b12787b51092b1984","A3","batch1","","null","<p class=block-text>Trial 52 out of 78</p>","null","pattern_show_trial_num","","","","","","","","","","","","","","","","","","","","","","","","",""
"","","","","","image-keyboard-response","125","210443","0.0-2.0-7.0-1.12","627e7c4b12787b51092b1984","A3","batch1","","1597.199999988079","stim/yes_37_dia_w1.png","j","pattern_response","false","f","pattern_59","1597.199999988079","false","40","","","","","","","","","","","","","","","","","","",""
"","","","","","html-keyboard-response","126","211756","0.0-2.0-7.0-0.13","627e7c4b12787b51092b1984","A3","batch1","","null","<p class=block-text>Trial 53 out of 78</p>","null","pattern_show_trial_num","","","","","","","","","","","","","","","","","","","","","","","","",""
"","","","","","image-keyboard-response","127","212835","0.0-2.0-7.0-1.13","627e7c4b12787b51092b1984","A3","batch1","","1077.300000011921","stim/yes_43_ver_w1_w.png","f","pattern_response","true","f","pattern_65","1077.300000011921","true","41","","","","","","","","","","","","","","","","","","",""
"","","","","","html-keyboard-response","128","214156","0.0-2.0-7.0-0.14","627e7c4b12787b51092b1984","A3","batch1","","null","<p class=block-text>Trial 54 out of 78</p>","null","pattern_show_trial_num","","","","","","","","","","","","","","","","","","","","","","","","",""
"","","","","","image-keyboard-response","129","216555","0.0-2.0-7.0-1.14","627e7c4b12787b51092b1984","A3","batch1","","2397.5","stim/no_42_1_w.png","j","pattern_response","true","j","pattern_22","2397.5","true","42","","","","","","","","","","","","","","","","","","",""
"","","","","","html-keyboard-response","130","217871","0.0-2.0-7.0-0.15","627e7c4b12787b51092b1984","A3","batch1","","null","<p class=block-text>Trial 55 out of 78</p>","null","pattern_show_trial_num","","","","","","","","","","","","","","","","","","","","","","","","",""
"","","","","","image-keyboard-response","131","218973","0.0-2.0-7.0-1.15","627e7c4b12787b51092b1984","A3","batch1","","1099.9000000059605","stim/yes_60_ver_b1_b.png","f","pattern_response","true","f","pattern_77","1099.9000000059605","true","43","","","","","","","","","","","","","","","","","","",""
"","","","","","html-keyboard-response","132","220292","0.0-2.0-7.0-0.16","627e7c4b12787b51092b1984","A3","batch1","","null","<p class=block-text>Trial 56 out of 78</p>","null","pattern_show_trial_num","","","","","","","","","","","","","","","","","","","","","","","","",""
"","","","","","image-keyboard-response","133","222388","0.0-2.0-7.0-1.16","627e7c4b12787b51092b1984","A3","batch1","","2094.5","stim/no_48_1_w.png","j","pattern_response","true","j","pattern_28","2094.5","true","44","","","","","","","","","","","","","","","","","","",""
"","","","","","html-keyboard-response","134","223708","0.0-2.0-7.0-0.17","627e7c4b12787b51092b1984","A3","batch1","","null","<p class=block-text>Trial 57 out of 78</p>","null","pattern_show_trial_num","","","","","","","","","","","","","","","","","","","","","","","","",""
"","","","","","image-keyboard-response","135","224684","0.0-2.0-7.0-1.17","627e7c4b12787b51092b1984","A3","batch1","","961.8000000119209","stim/no_13_2_b.png","j","pattern_response","true","j","pattern_02","961.8000000119209","true","45","","","","","","","","","","","","","","","","","","",""
"","","","","","html-keyboard-response","136","226005","0.0-2.0-7.0-0.18","627e7c4b12787b51092b1984","A3","batch1","","null","<p class=block-text>Trial 58 out of 78</p>","null","pattern_show_trial_num","","","","","","","","","","","","","","","","","","","","","","","","",""
"","","","","","image-keyboard-response","137","227060","0.0-2.0-7.0-1.18","627e7c4b12787b51092b1984","A3","batch1","","1053.6000000238419","stim/yes_25_hor_b1_b.png","f","pattern_response","true","f","pattern_49","1053.6000000238419","true","46","","","","","","","","","","","","","","","","","","",""
"","","","","","html-keyboard-response","138","228381","0.0-2.0-7.0-0.19","627e7c4b12787b51092b1984","A3","batch1","","null","<p class=block-text>Trial 59 out of 78</p>","null","pattern_show_trial_num","","","","","","","","","","","","","","","","","","","","","","","","",""
"","","","","","image-keyboard-response","139","229332","0.0-2.0-7.0-1.19","627e7c4b12787b51092b1984","A3","batch1","","949.5999999940395","stim/yes_55_hor_w1_w.png","f","pattern_response","true","f","pattern_75","949.5999999940395","true","47","","","","","","","","","","","","","","","","","","",""
"","","","","","html-keyboard-response","140","230653","0.0-2.0-7.0-0.20","627e7c4b12787b51092b1984","A3","batch1","","null","<p class=block-text>Trial 60 out of 78</p>","null","pattern_show_trial_num","","","","","","","","","","","","","","","","","","","","","","","","",""
"","","","","","image-keyboard-response","141","232141","0.0-2.0-7.0-1.20","627e7c4b12787b51092b1984","A3","batch1","","1487.5999999940395","stim/yes_50_dia_w1.png","j","pattern_response","false","f","pattern_71","1487.5999999940395","false","47","","","","","","","","","","","","","","","","","","",""
"","","","","","html-keyboard-response","142","233461","0.0-2.0-7.0-0.21","627e7c4b12787b51092b1984","A3","batch1","","null","<p class=block-text>Trial 61 out of 78</p>","null","pattern_show_trial_num","","","","","","","","","","","","","","","","","","","","","","","","",""
"","","","","","image-keyboard-response","143","234179","0.0-2.0-7.0-1.21","627e7c4b12787b51092b1984","A3","batch1","","716.8999999761581","stim/no_17_1_w.png","j","pattern_response","true","j","pattern_04","716.8999999761581","true","48","","","","","","","","","","","","","","","","","","",""
"","","","","","html-keyboard-response","144","235493","0.0-2.0-7.0-0.22","627e7c4b12787b51092b1984","A3","batch1","","null","<p class=block-text>Trial 62 out of 78</p>","null","pattern_show_trial_num","","","","","","","","","","","","","","","","","","","","","","","","",""
"","","","","","image-keyboard-response","145","237091","0.0-2.0-7.0-1.22","627e7c4b12787b51092b1984","A3","batch1","","1597","stim/no_38_1_b.png","j","pattern_response","true","j","pattern_20","1597","true","49","","","","","","","","","","","","","","","","","","",""
"","","","","","html-keyboard-response","146","238405","0.0-2.0-7.0-0.23","627e7c4b12787b51092b1984","A3","batch1","","null","<p class=block-text>Trial 63 out of 78</p>","null","pattern_show_trial_num","","","","","","","","","","","","","","","","","","","","","","","","",""
"","","","","","image-keyboard-response","147","239661","0.0-2.0-7.0-1.23","627e7c4b12787b51092b1984","A3","batch1","","1254.4000000059605","stim/yes_17_dia_w1.png","f","pattern_response","true","f","pattern_45","1254.4000000059605","true","50","","","","","","","","","","","","","","","","","","",""
"","","","","","html-keyboard-response","148","240981","0.0-2.0-7.0-0.24","627e7c4b12787b51092b1984","A3","batch1","","null","<p class=block-text>Trial 64 out of 78</p>","null","pattern_show_trial_num","","","","","","","","","","","","","","","","","","","","","","","","",""
"","","","","","image-keyboard-response","149","242589","0.0-2.0-7.0-1.24","627e7c4b12787b51092b1984","A3","batch1","","1606.2000000178814","stim/no_50_1.png","j","pattern_response","true","j","pattern_30","1606.2000000178814","true","51","","","","","","","","","","","","","","","","","","",""
"","","","","","html-keyboard-response","150","243909","0.0-2.0-7.0-0.25","627e7c4b12787b51092b1984","A3","batch1","","null","<p class=block-text>Trial 65 out of 78</p>","null","pattern_show_trial_num","","","","","","","","","","","","","","","","","","","","","","","","",""
"","","","","","image-keyboard-response","151","245116","0.0-2.0-7.0-1.25","627e7c4b12787b51092b1984","A3","batch1","","1205.7999999821186","stim/yes_28_ver_b1.png","f","pattern_response","true","f","pattern_51","1205.7999999821186","true","52","","","","","","","","","","","","","","","","","","",""
"","","","","","html-keyboard-response","152","246433","0.0-2.0-7.0-0.26","627e7c4b12787b51092b1984","A3","batch1","","null","<p class=block-text>Trial 66 out of 78</p>","null","pattern_show_trial_num","","","","","","","","","","","","","","","","","","","","","","","","",""
"","","","","","image-keyboard-response","153","248092","0.0-2.0-7.0-1.26","627e7c4b12787b51092b1984","A3","batch1","","1658","stim/no_46_1_b.png","j","pattern_response","true","j","pattern_26","1658","true","53","","","","","","","","","","","","","","","","","","",""
"","","","","","html-keyboard-response","154","249413","0.0-2.0-7.0-0.27","627e7c4b12787b51092b1984","A3","batch1","","null","<p class=block-text>Trial 67 out of 78</p>","null","pattern_show_trial_num","","","","","","","","","","","","","","","","","","","","","","","","",""
"","","","","","image-keyboard-response","155","251532","0.0-2.0-7.0-1.27","627e7c4b12787b51092b1984","A3","batch1","","2117.4000000059605","stim/no_65_1_b.png","j","pattern_response","true","j","pattern_38","2117.4000000059605","true","54","","","","","","","","","","","","","","","","","","",""
"","","","","","html-keyboard-response","156","252853","0.0-2.0-7.0-0.28","627e7c4b12787b51092b1984","A3","batch1","","null","<p class=block-text>Trial 68 out of 78</p>","null","pattern_show_trial_num","","","","","","","","","","","","","","","","","","","","","","","","",""
"","","","","","image-keyboard-response","157","255212","0.0-2.0-7.0-1.28","627e7c4b12787b51092b1984","A3","batch1","","2357.300000011921","stim/yes_40_dia_b1_b.png","j","pattern_response","false","f","pattern_63","2357.300000011921","false","54","","","","","","","","","","","","","","","","","","",""
"","","","","","html-keyboard-response","158","256522","0.0-2.0-7.0-0.29","627e7c4b12787b51092b1984","A3","batch1","","null","<p class=block-text>Trial 69 out of 78</p>","null","pattern_show_trial_num","","","","","","","","","","","","","","","","","","","","","","","","",""
"","","","","","image-keyboard-response","159","258324","0.0-2.0-7.0-1.29","627e7c4b12787b51092b1984","A3","batch1","","1800.2000000178814","stim/yes_31_hor_b1.png","f","pattern_response","true","f","pattern_55","1800.2000000178814","true","55","","","","","","","","","","","","","","","","","","",""
"","","","","","html-keyboard-response","160","259634","0.0-2.0-7.0-0.30","627e7c4b12787b51092b1984","A3","batch1","","null","<p class=block-text>Trial 70 out of 78</p>","null","pattern_show_trial_num","","","","","","","","","","","","","","","","","","","","","","","","",""
"","","","","","image-keyboard-response","161","261173","0.0-2.0-7.0-1.30","627e7c4b12787b51092b1984","A3","batch1","","1537.9000000059605","stim/no_44_1.png","j","pattern_response","true","j","pattern_24","1537.9000000059605","true","56","","","","","","","","","","","","","","","","","","",""
"","","","","","html-keyboard-response","162","262494","0.0-2.0-7.0-0.31","627e7c4b12787b51092b1984","A3","batch1","","null","<p class=block-text>Trial 71 out of 78</p>","null","pattern_show_trial_num","","","","","","","","","","","","","","","","","","","","","","","","",""
"","","","","","image-keyboard-response","163","263645","0.0-2.0-7.0-1.31","627e7c4b12787b51092b1984","A3","batch1","","1149.7999999821186","stim/no_32_1_w.png","j","pattern_response","true","j","pattern_14","1149.7999999821186","true","57","","","","","","","","","","","","","","","","","","",""
"","","","","","html-keyboard-response","164","264966","0.0-2.0-7.0-0.32","627e7c4b12787b51092b1984","A3","batch1","","null","<p class=block-text>Trial 72 out of 78</p>","null","pattern_show_trial_num","","","","","","","","","","","","","","","","","","","","","","","","",""
"","","","","","image-keyboard-response","165","266653","0.0-2.0-7.0-1.32","627e7c4b12787b51092b1984","A3","batch1","","1685.800000011921","stim/yes_45_hor_b2_b.png","f","pattern_response","true","f","pattern_67","1685.800000011921","true","58","","","","","","","","","","","","","","","","","","",""
"","","","","","html-keyboard-response","166","267971","0.0-2.0-7.0-0.33","627e7c4b12787b51092b1984","A3","batch1","","null","<p class=block-text>Trial 73 out of 78</p>","null","pattern_show_trial_num","","","","","","","","","","","","","","","","","","","","","","","","",""
"","","","","","image-keyboard-response","167","269621","0.0-2.0-7.0-1.33","627e7c4b12787b51092b1984","A3","batch1","","1648.1000000238419","stim/no_34_1_b.png","j","pattern_response","true","j","pattern_16","1648.1000000238419","true","59","","","","","","","","","","","","","","","","","","",""
"","","","","","html-keyboard-response","168","270942","0.0-2.0-7.0-0.34","627e7c4b12787b51092b1984","A3","batch1","","null","<p class=block-text>Trial 74 out of 78</p>","null","pattern_show_trial_num","","","","","","","","","","","","","","","","","","","","","","","","",""
"","","","","","image-keyboard-response","169","272597","0.0-2.0-7.0-1.34","627e7c4b12787b51092b1984","A3","batch1","","1654.1000000238419","stim/yes_52_ver_w1.png","f","pattern_response","true","f","pattern_73","1654.1000000238419","true","60","","","","","","","","","","","","","","","","","","",""
"","","","","","html-keyboard-response","170","273918","0.0-2.0-7.0-0.35","627e7c4b12787b51092b1984","A3","batch1","","null","<p class=block-text>Trial 75 out of 78</p>","null","pattern_show_trial_num","","","","","","","","","","","","","","","","","","","","","","","","",""
"","","","","","image-keyboard-response","171","275389","0.0-2.0-7.0-1.35","627e7c4b12787b51092b1984","A3","batch1","","1469.2000000178814","stim/yes_67_hor_b1.png","f","pattern_response","true","f","pattern_79","1469.2000000178814","true","61","","","","","","","","","","","","","","","","","","",""
"","","","","","html-keyboard-response","172","276705","0.0-2.0-7.0-0.36","627e7c4b12787b51092b1984","A3","batch1","","null","<p class=block-text>Trial 76 out of 78</p>","null","pattern_show_trial_num","","","","","","","","","","","","","","","","","","","","","","","","",""
"","","","","","image-keyboard-response","173","278196","0.0-2.0-7.0-1.36","627e7c4b12787b51092b1984","A3","batch1","","1490.0999999940395","stim/no_26_1_w.png","j","pattern_response","true","j","pattern_10","1490.0999999940395","true","62","","","","","","","","","","","","","","","","","","",""
"","","","","","html-keyboard-response","174","279510","0.0-2.0-7.0-0.37","627e7c4b12787b51092b1984","A3","batch1","","null","<p class=block-text>Trial 77 out of 78</p>","null","pattern_show_trial_num","","","","","","","","","","","","","","","","","","","","","","","","",""
"","","","","","image-keyboard-response","175","280950","0.0-2.0-7.0-1.37","627e7c4b12787b51092b1984","A3","batch1","","1437.5","stim/no_29_1_b.png","j","pattern_response","true","j","pattern_12","1437.5","true","63","","","","","","","","","","","","","","","","","","",""
"","","","","","html-keyboard-response","176","282269","0.0-2.0-7.0-0.38","627e7c4b12787b51092b1984","A3","batch1","","null","<p class=block-text>Trial 78 out of 78</p>","null","pattern_show_trial_num","","","","","","","","","","","","","","","","","","","","","","","","",""
"","","","","","image-keyboard-response","177","283781","0.0-2.0-7.0-1.38","627e7c4b12787b51092b1984","A3","batch1","","1510.5999999940395","stim/no_52_1.png","j","pattern_response","true","j","pattern_32","1510.5999999940395","true","64","","","","","","","","","","","","","","","","","","",""
"","","","","","html-button-response","178","289795","0.0-2.0-8.0","627e7c4b12787b51092b1984","A3","batch1","","5511","<p class = block-text>This concludes the 4-in-a-row detection game.Thank you for your responses!<br>
            You responded correctly on 82% of the trials.<br>
            When you are ready, press ""Continue"" button to continue </p>","0","","","","","","","","","","","","","","","","","","","","","","","","","",""
"true","","","","","fullscreen","179","292014","0.0-3.0-0.0","627e7c4b12787b51092b1984","A3","batch1","","","","","","","","","","","","","","","","","","","","","","","","","","","","","",""
"","","","","","instructions","180","331565","0.0-3.0-1.0-0.0-0.0","627e7c4b12787b51092b1984","A3","batch1","[{""page_index"":0,""viewing_time"":4956.9000000059605},{""page_index"":1,""viewing_time"":4134},{""page_index"":2,""viewing_time"":1518},{""page_index"":3,""viewing_time"":6461.800000011921},{""page_index"":4,""viewing_time"":5576.0999999940395},{""page_index"":5,""viewing_time"":14434.199999988079},{""page_index"":6,""viewing_time"":2467.600000023842}]","39548.90000000596","","","tol-instructions","","","","","","","","","","","","","","","","","","","","","","","","",""
"","","","","","html-button-response","181","332325","0.0-3.0-1.0-1.0-0.0","627e7c4b12787b51092b1984","A3","batch1","","758.4000000059605","<p class=block-text> Let's answer a few questions <br>","0","tol_enter_quiz","","","","","","","","","","","","","","","","","","","","","","","","",""
"","","","","","html-button-response","182","333854","0.0-3.0-1.0-1.0-1.0","627e7c4b12787b51092b1984","A3","batch1","","1526.0999999940395","<p class = block-text>True or False: You can only move the ball on top of a peg. <br></p>","0","tol_quiz","true","","","","","","","","","","","","","","","","","","","","","","","",""
"","","","","","html-button-response","183","334521","0.0-3.0-1.0-1.0-2.0","627e7c4b12787b51092b1984","A3","batch1","","666","<p class = block-text>Correct! You can only move the ball on top of a peg.</p>","0","tol_quiz_feedback","","","","","","","","","","","","","","","","","","","","","","","","",""
"","","","","","html-button-response","184","337150","0.0-3.0-1.0-1.0-3.0","627e7c4b12787b51092b1984","A3","batch1","","2627.5","<p class = block-text>True or False: You should try to match your board with the target board with fewest moves possible. <br></p>","0","tol_quiz","true","","","","","","","","","","","","","","","","","","","","","","","",""
"","","","","","html-button-response","185","337644","0.0-3.0-1.0-1.0-4.0","627e7c4b12787b51092b1984","A3","batch1","","493.09999999403954","<p class = block-text>Correct! </p>","0","tol_quiz_feedback","","","","","","","","","","","","","","","","","","","","","","","","",""
"","","","","","html-button-response","186","338434","0.0-3.0-2.0","627e7c4b12787b51092b1984","A3","batch1","","788.6999999880791","<p class=block-text> Now that you've understood the game, let's practice a few easier examples before we start!<br> <br>","0","","","","","","","","","","","","","","","","","","","","","","","","","",""
"","","","","","single-stim-button","187","341436","0.0-3.0-3.0-0.0","627e7c4b12787b51092b1984","A3","batch1","","3000","","","tol_practice","","","","","","","","","tol_peg_2","3000","3000","0","[[1,2,0],[0,0],[0]]","1","[[1,2,0],[0,0],[3]]","practice","3000","","","","","","","",""
"","","","","","single-stim-button","188","342254","0.0-3.0-3.0-1.0","627e7c4b12787b51092b1984","A3","batch1","","818","","","tol_practice","","","","","","","","","tol_peg_3","818","818","0","[[1,2,0],[0,0],[3]]","1","[[1,2,0],[0,0],[3]]","practice","818","","","","","","","",""
"","","","","","poldrack-single-stim","189","343264","0.0-3.0-4.0","627e7c4b12787b51092b1984","A3","batch1","","-1","","","tol_feedback","true","","","","","","","","","1000","1000","500","","","","","","-1","none","true","","0","","",""
"","","","","","single-stim-button","190","346392","0.0-3.0-5.0-0.0","627e7c4b12787b51092b1984","A3","batch1","","3127","","","tol_practice","","","","","","","","","tol_peg_1","3127","3127","0","[[1,0,0],[3,0],[0]]","2","[[0,0,0],[3,1],[2]]","practice","3127","","","","","","","",""
"","","","","","single-stim-button","191","347053","0.0-3.0-5.0-1.0","627e7c4b12787b51092b1984","A3","batch1","","660","","","tol_practice","","","","","","","","","tol_peg_3","660","660","0","[[1,0,0],[3,0],[2]]","2","[[0,0,0],[3,1],[2]]","practice","660","","","","","","","",""
"","","","","","single-stim-button","192","348772","0.0-3.0-5.1-0.1","627e7c4b12787b51092b1984","A3","batch1","","1718","","","tol_practice","","","","","","","","","tol_peg_1","1718","1718","0","[[0,0,0],[3,0],[2]]","3","[[0,0,0],[3,1],[2]]","practice","1718","","","","","","","",""
"","","","","","single-stim-button","193","349240","0.0-3.0-5.1-1.1","627e7c4b12787b51092b1984","A3","batch1","","467","","","tol_practice","","","","","","","","","tol_peg_2","467","467","0","[[0,0,0],[3,1],[2]]","3","[[0,0,0],[3,1],[2]]","practice","467","","","","","","","",""
"","","","","","poldrack-single-stim","194","350244","0.0-3.0-6.0","627e7c4b12787b51092b1984","A3","batch1","","-1","","","tol_feedback","true","","","","","","","","","1000","1000","500","","","","","","-1","none","true","","0","","",""
"","","","","","single-stim-button","195","352792","0.0-3.0-7.0-0.0","627e7c4b12787b51092b1984","A3","batch1","","2547","","","tol_practice","","","","","","","","","tol_peg_2","2547","2547","0","[[1,2,0],[0,0],[0]]","4","[[1,0,0],[2,0],[3]]","practice","2547","","","","","","","",""
"","","","","","single-stim-button","196","353442","0.0-3.0-7.0-1.0","627e7c4b12787b51092b1984","A3","batch1","","649","","","tol_practice","","","","","","","","","tol_peg_3","649","649","0","[[1,2,0],[0,0],[3]]","4","[[1,0,0],[2,0],[3]]","practice","649","","","","","","","",""
"","","","","","single-stim-button","197","354086","0.0-3.0-7.1-0.1","627e7c4b12787b51092b1984","A3","batch1","","643","","","tol_practice","","","","","","","","","tol_peg_1","643","643","0","[[1,0,0],[0,0],[3]]","5","[[1,0,0],[2,0],[3]]","practice","643","","","","","","","",""
"","","","","","single-stim-button","198","354618","0.0-3.0-7.1-1.1","627e7c4b12787b51092b1984","A3","batch1","","531","","","tol_practice","","","","","","","","","tol_peg_2","531","531","0","[[1,0,0],[2,0],[3]]","5","[[1,0,0],[2,0],[3]]","practice","531","","","","","","","",""
"","","","","","poldrack-single-stim","199","355630","0.0-3.0-8.0","627e7c4b12787b51092b1984","A3","batch1","","-1","","","tol_feedback","true","","","","","","","","","1000","1000","500","","","","","","-1","none","true","","0","","",""
"","","","","","html-button-response","200","357498","0.0-3.0-9.0","627e7c4b12787b51092b1984","A3","batch1","","1866.800000011921","<div class = centerbox><p class = center-block-text>Great job! You are done with practice trials<br>You are about to start official trials.<br> <br> Problem <strong>1</strong> out of 25 problems</p></div>","0","tol_instruction","","","","","","","","","","","","","","","","","","","","","","","","",""
"","","","","","single-stim-button","201","364397","0.0-3.0-10.0-0.0","627e7c4b12787b51092b1984","A3","batch1","","5893","","","tol_tohand","","","","","","","","","tol_peg_2","5893","5893","0","[[1,2,0],[0,0],[0]]","1","[[1,3,0],[2,0],[0]]","0","0","","","","","","3","",""
"","","","","","single-stim-button","202","365113","0.0-3.0-10.0-1.0","627e7c4b12787b51092b1984","A3","batch1","","715","","","tol_toboard","","","","","","","","","tol_peg_3","715","715","0","[[1,2,0],[0,0],[3]]","1","[[1,3,0],[2,0],[0]]","0","0","","","","","","3","",""
"","","","","","single-stim-button","203","365617","0.0-3.0-10.1-0.1","627e7c4b12787b51092b1984","A3","batch1","","504","","","tol_tohand","","","","","","","","","tol_peg_1","504","504","0","[[1,0,0],[0,0],[3]]","2","[[1,3,0],[2,0],[0]]","0","0","","","","","","3","",""
"","","","","","single-stim-button","204","366391","0.0-3.0-10.1-1.1","627e7c4b12787b51092b1984","A3","batch1","","773","","","tol_toboard","","","","","","","","","tol_peg_2","773","773","0","[[1,0,0],[2,0],[3]]","2","[[1,3,0],[2,0],[0]]","0","0","","","","","","3","",""
"","","","","","single-stim-button","205","366893","0.0-3.0-10.2-0.2","627e7c4b12787b51092b1984","A3","batch1","","501","","","tol_tohand","","","","","","","","","tol_peg_3","501","501","0","[[1,0,0],[2,0],[0]]","3","[[1,3,0],[2,0],[0]]","0","0","","","","","","3","",""
"","","","","","single-stim-button","206","367385","0.0-3.0-10.2-1.2","627e7c4b12787b51092b1984","A3","batch1","","491","","","tol_toboard","","","","","","","","","tol_peg_1","491","491","0","[[1,3,0],[2,0],[0]]","3","[[1,3,0],[2,0],[0]]","0","0","","","","","","3","",""
"","","","","","poldrack-single-stim","207","368392","0.0-3.0-11.0","627e7c4b12787b51092b1984","A3","batch1","","-1","","","tol_feedback","true","","","","","","","","","1000","1000","500","","","","","","-1","none","true","5893","6898","","",""
"","","","","","html-button-response","208","369379","0.0-3.0-12.0","627e7c4b12787b51092b1984","A3","batch1","","986.0999999940395","<div class = centerbox><p class = center-block-text>problem <strong>2</strong> out of 25 problems</p></div>","0","tol_trial_num","","","","","","","","","","","","","","","","","","","","","","","","",""
"","","","","","single-stim-button","209","372043","0.0-3.0-13.0-0.0","627e7c4b12787b51092b1984","A3","batch1","","2663","","","tol_tohand","","","","","","","","","tol_peg_1","2663","2663","0","[[1,0,0],[3,0],[0]]","1","[[2,1,3],[0,0],[0]]","1","0","","","","","","5","",""
"","","","","","single-stim-button","210","378703","0.0-3.0-13.0-1.0","627e7c4b12787b51092b1984","A3","batch1","","6660","","","tol_toboard","","","","","","","","","tol_peg_2","6660","6660","0","[[1,0,0],[3,2],[0]]","1","[[2,1,3],[0,0],[0]]","1","0","","","","","","5","",""
"","","","","","single-stim-button","211","379214","0.0-3.0-13.1-0.1","627e7c4b12787b51092b1984","A3","batch1","","509","","","tol_tohand","","","","","","","","","tol_peg_1","509","509","0","[[0,0,0],[3,2],[0]]","2","[[2,1,3],[0,0],[0]]","1","0","","","","","","5","",""
"","","","","","single-stim-button","212","379729","0.0-3.0-13.1-1.1","627e7c4b12787b51092b1984","A3","batch1","","515","","","tol_toboard","","","","","","","","","tol_peg_3","515","515","0","[[0,0,0],[3,2],[1]]","2","[[2,1,3],[0,0],[0]]","1","0","","","","","","5","",""
"","","","","","single-stim-button","213","380213","0.0-3.0-13.2-0.2","627e7c4b12787b51092b1984","A3","batch1","","484","","","tol_tohand","","","","","","","","","tol_peg_2","484","484","0","[[0,0,0],[3,0],[1]]","3","[[2,1,3],[0,0],[0]]","1","0","","","","","","5","",""
"","","","","","single-stim-button","214","380793","0.0-3.0-13.2-1.2","627e7c4b12787b51092b1984","A3","batch1","","580","","","tol_toboard","","","","","","","","","tol_peg_1","580","580","0","[[2,0,0],[3,0],[1]]","3","[[2,1,3],[0,0],[0]]","1","0","","","","","","5","",""
"","","","","","single-stim-button","215","381188","0.0-3.0-13.3-0.3","627e7c4b12787b51092b1984","A3","batch1","","394","","","tol_tohand","","","","","","","","","tol_peg_3","394","394","0","[[2,0,0],[3,0],[0]]","4","[[2,1,3],[0,0],[0]]","1","0","","","","","","5","",""
"","","","","","single-stim-button","216","381639","0.0-3.0-13.3-1.3","627e7c4b12787b51092b1984","A3","batch1","","450","","","tol_toboard","","","","","","","","","tol_peg_1","450","450","0","[[2,1,0],[3,0],[0]]","4","[[2,1,3],[0,0],[0]]","1","0","","","","","","5","",""
"","","","","","single-stim-button","217","381969","0.0-3.0-13.4-0.4","627e7c4b12787b51092b1984","A3","batch1","","330","","","tol_tohand","","","","","","","","","tol_peg_2","330","330","0","[[2,1,0],[0,0],[0]]","5","[[2,1,3],[0,0],[0]]","1","0","","","","","","5","",""
"","","","","","single-stim-button","218","382251","0.0-3.0-13.4-1.4","627e7c4b12787b51092b1984","A3","batch1","","281","","","tol_toboard","","","","","","","","","tol_peg_1","281","281","0","[[2,1,3],[0,0],[0]]","5","[[2,1,3],[0,0],[0]]","1","0","","","","","","5","",""
"","","","","","poldrack-single-stim","219","383265","0.0-3.0-14.0","627e7c4b12787b51092b1984","A3","batch1","","-1","","","tol_feedback","true","","","","","","","","","1000","1000","500","","","","","","-1","none","true","2663","4380","","",""
"","","","","","html-button-response","220","384015","0.0-3.0-15.0","627e7c4b12787b51092b1984","A3","batch1","","748.8000000119209","<div class = centerbox><p class = center-block-text>problem <strong>3</strong> out of 25 problems</p></div>","0","tol_trial_num","","","","","","","","","","","","","","","","","","","","","","","","",""
"","","","","","single-stim-button","221","386771","0.0-3.0-16.0-0.0","627e7c4b12787b51092b1984","A3","batch1","","2755","","","tol_tohand","","","","","","","","","tol_peg_1","2755","2755","0","[[2,0,0],[0,0],[1]]","1","[[1,2,0],[3,0],[0]]","2","0","","","","","","4","",""
"","","","","","single-stim-button","222","387431","0.0-3.0-16.0-1.0","627e7c4b12787b51092b1984","A3","batch1","","659","","","tol_toboard","","","","","","","","","tol_peg_2","659","659","0","[[2,0,0],[3,0],[1]]","1","[[1,2,0],[3,0],[0]]","2","0","","","","","","4","",""
"","","","","","single-stim-button","223","391673","0.0-3.0-16.1-0.1","627e7c4b12787b51092b1984","A3","batch1","","4241","","","tol_tohand","","","","","","","","","tol_peg_3","4241","4241","0","[[2,0,0],[3,0],[0]]","2","[[1,2,0],[3,0],[0]]","2","0","","","","","","4","",""
"","","","","","single-stim-button","224","392069","0.0-3.0-16.1-1.1","627e7c4b12787b51092b1984","A3","batch1","","395","","","tol_toboard","","","","","","","","","tol_peg_2","395","395","0","[[2,0,0],[3,1],[0]]","2","[[1,2,0],[3,0],[0]]","2","0","","","","","","4","",""
"","","","","","single-stim-button","225","392431","0.0-3.0-16.2-0.2","627e7c4b12787b51092b1984","A3","batch1","","361","","","tol_tohand","","","","","","","","","tol_peg_1","361","361","0","[[0,0,0],[3,1],[0]]","3","[[1,2,0],[3,0],[0]]","2","0","","","","","","4","",""
"","","","","","single-stim-button","226","393397","0.0-3.0-16.2-1.2","627e7c4b12787b51092b1984","A3","batch1","","966","","","tol_toboard","","","","","","","","","tol_peg_3","966","966","0","[[0,0,0],[3,1],[2]]","3","[[1,2,0],[3,0],[0]]","2","0","","","","","","4","",""
"","","","","","single-stim-button","227","394764","0.0-3.0-16.3-0.3","627e7c4b12787b51092b1984","A3","batch1","","1365","","","tol_tohand","","","","","","","","","tol_peg_2","1365","1365","0","[[0,0,0],[3,0],[2]]","4","[[1,2,0],[3,0],[0]]","2","0","","","","","","4","",""
"","","","","","single-stim-button","228","395183","0.0-3.0-16.3-1.3","627e7c4b12787b51092b1984","A3","batch1","","419","","","tol_toboard","","","","","","","","","tol_peg_1","419","419","0","[[1,0,0],[3,0],[2]]","4","[[1,2,0],[3,0],[0]]","2","0","","","","","","4","",""
"","","","","","single-stim-button","229","395589","0.0-3.0-16.4-0.4","627e7c4b12787b51092b1984","A3","batch1","","406","","","tol_tohand","","","","","","","","","tol_peg_3","406","406","0","[[1,0,0],[3,0],[0]]","5","[[1,2,0],[3,0],[0]]","2","0","","","","","","4","",""
"","","","","","single-stim-button","230","395994","0.0-3.0-16.4-1.4","627e7c4b12787b51092b1984","A3","batch1","","404","","","tol_toboard","","","","","","","","","tol_peg_1","404","404","0","[[1,2,0],[3,0],[0]]","5","[[1,2,0],[3,0],[0]]","2","0","","","","","","4","",""
"","","","","","poldrack-single-stim","231","396998","0.0-3.0-17.0","627e7c4b12787b51092b1984","A3","batch1","","-1","","","tol_feedback","true","","","","","","","","","1000","1000","500","","","","","","-1","none","true","2755","9128","","",""
"","","","","","html-button-response","232","397862","0.0-3.0-18.0","627e7c4b12787b51092b1984","A3","batch1","","863","<div class = centerbox><p class = center-block-text>problem <strong>4</strong> out of 25 problems</p></div>","0","tol_trial_num","","","","","","","","","","","","","","","","","","","","","","","","",""
"","","","","","single-stim-button","233","403768","0.0-3.0-19.0-0.0","627e7c4b12787b51092b1984","A3","batch1","","5904","","","tol_tohand","","","","","","","","","tol_peg_2","5904","5904","0","[[3,0,0],[2,0],[0]]","1","[[3,0,0],[1,0],[2]]","3","0","","","","","","3","",""
"","","","","","single-stim-button","234","404284","0.0-3.0-19.0-1.0","627e7c4b12787b51092b1984","A3","batch1","","515","","","tol_toboard","","","","","","","","","tol_peg_1","515","515","0","[[3,1,0],[2,0],[0]]","1","[[3,0,0],[1,0],[2]]","3","0","","","","","","3","",""
"","","","","","single-stim-button","235","404682","0.0-3.0-19.1-0.1","627e7c4b12787b51092b1984","A3","batch1","","398","","","tol_tohand","","","","","","","","","tol_peg_2","398","398","0","[[3,1,0],[0,0],[0]]","2","[[3,0,0],[1,0],[2]]","3","0","","","","","","3","",""
"","","","","","single-stim-button","236","405056","0.0-3.0-19.1-1.1","627e7c4b12787b51092b1984","A3","batch1","","373","","","tol_toboard","","","","","","","","","tol_peg_3","373","373","0","[[3,1,0],[0,0],[2]]","2","[[3,0,0],[1,0],[2]]","3","0","","","","","","3","",""
"","","","","","single-stim-button","237","405500","0.0-3.0-19.2-0.2","627e7c4b12787b51092b1984","A3","batch1","","444","","","tol_tohand","","","","","","","","","tol_peg_1","444","444","0","[[3,0,0],[0,0],[2]]","3","[[3,0,0],[1,0],[2]]","3","0","","","","","","3","",""
"","","","","","single-stim-button","238","405830","0.0-3.0-19.2-1.2","627e7c4b12787b51092b1984","A3","batch1","","330","","","tol_toboard","","","","","","","","","tol_peg_2","330","330","0","[[3,0,0],[1,0],[2]]","3","[[3,0,0],[1,0],[2]]","3","0","","","","","","3","",""
"","","","","","poldrack-single-stim","239","406838","0.0-3.0-20.0","627e7c4b12787b51092b1984","A3","batch1","","-1","","","tol_feedback","true","","","","","","","","","1000","1000","500","","","","","","-1","none","true","5904","6746","","",""
"","","","","","html-button-response","240","407434","0.0-3.0-21.0","627e7c4b12787b51092b1984","A3","batch1","","595.3000000119209","<div class = centerbox><p class = center-block-text>problem <strong>5</strong> out of 25 problems</p></div>","0","tol_trial_num","","","","","","","","","","","","","","","","","","","","","","","","",""
"","","","","","single-stim-button","241","420786","0.0-3.0-22.0-0.0","627e7c4b12787b51092b1984","A3","batch1","","13352","","","tol_tohand","","","","","","","","","tol_peg_1","13352","13352","0","[[0,0,0],[2,0],[3]]","1","[[0,0,0],[1,2],[3]]","4","0","","","","","","7","",""
"","","","","","single-stim-button","242","421492","0.0-3.0-22.0-1.0","627e7c4b12787b51092b1984","A3","batch1","","705","","","tol_toboard","","","","","","","","","tol_peg_2","705","705","0","[[0,0,0],[2,1],[3]]","1","[[0,0,0],[1,2],[3]]","4","0","","","","","","7","",""
"","","","","","single-stim-button","243","421951","0.0-3.0-22.1-0.1","627e7c4b12787b51092b1984","A3","batch1","","457","","","tol_tohand","","","","","","","","","tol_peg_3","457","457","0","[[0,0,0],[2,1],[0]]","2","[[0,0,0],[1,2],[3]]","4","0","","","","","","7","",""
"","","","","","single-stim-button","244","422466","0.0-3.0-22.1-1.1","627e7c4b12787b51092b1984","A3","batch1","","515","","","tol_toboard","","","","","","","","","tol_peg_1","515","515","0","[[3,0,0],[2,1],[0]]","2","[[0,0,0],[1,2],[3]]","4","0","","","","","","7","",""
"","","","","","single-stim-button","245","423368","0.0-3.0-22.2-0.2","627e7c4b12787b51092b1984","A3","batch1","","901","","","tol_tohand","","","","","","","","","tol_peg_2","901","901","0","[[3,0,0],[2,0],[0]]","3","[[0,0,0],[1,2],[3]]","4","0","","","","","","7","",""
"","","","","","single-stim-button","246","423781","0.0-3.0-22.2-1.2","627e7c4b12787b51092b1984","A3","batch1","","411","","","tol_toboard","","","","","","","","","tol_peg_3","411","411","0","[[3,0,0],[2,0],[1]]","3","[[0,0,0],[1,2],[3]]","4","0","","","","","","7","",""
"","","","","","single-stim-button","247","424313","0.0-3.0-22.3-0.3","627e7c4b12787b51092b1984","A3","batch1","","531","","","tol_tohand","","","","","","","","","tol_peg_2","531","531","0","[[3,0,0],[0,0],[1]]","4","[[0,0,0],[1,2],[3]]","4","0","","","","","","7","",""
"","","","","","single-stim-button","248","424714","0.0-3.0-22.3-1.3","627e7c4b12787b51092b1984","A3","batch1","","401","","","tol_toboard","","","","","","","","","tol_peg_1","401","401","0","[[3,2,0],[0,0],[1]]","4","[[0,0,0],[1,2],[3]]","4","0","","","","","","7","",""
"","","","","","single-stim-button","249","425720","0.0-3.0-22.4-0.4","627e7c4b12787b51092b1984","A3","batch1","","1005","","","tol_tohand","","","","","","","","","tol_peg_3","1005","1005","0","[[3,2,0],[0,0],[0]]","5","[[0,0,0],[1,2],[3]]","4","0","","","","","","7","",""
"","","","","","single-stim-button","250","426431","0.0-3.0-22.4-1.4","627e7c4b12787b51092b1984","A3","batch1","","709","","","tol_toboard","","","","","","","","","tol_peg_2","709","709","0","[[3,2,0],[1,0],[0]]","5","[[0,0,0],[1,2],[3]]","4","0","","","","","","7","",""
"","","","","","single-stim-button","251","426898","0.0-3.0-22.5-0.5","627e7c4b12787b51092b1984","A3","batch1","","467","","","tol_tohand","","","","","","","","","tol_peg_1","467","467","0","[[3,0,0],[1,0],[0]]","6","[[0,0,0],[1,2],[3]]","4","0","","","","","","7","",""
"","","","","","single-stim-button","252","427212","0.0-3.0-22.5-1.5","627e7c4b12787b51092b1984","A3","batch1","","313","","","tol_toboard","","","","","","","","","tol_peg_2","313","313","0","[[3,0,0],[1,2],[0]]","6","[[0,0,0],[1,2],[3]]","4","0","","","","","","7","",""
"","","","","","single-stim-button","253","427550","0.0-3.0-22.6-0.6","627e7c4b12787b51092b1984","A3","batch1","","337","","","tol_tohand","","","","","","","","","tol_peg_1","337","337","0","[[0,0,0],[1,2],[0]]","7","[[0,0,0],[1,2],[3]]","4","0","","","","","","7","",""
"","","","","","single-stim-button","254","428285","0.0-3.0-22.6-1.6","627e7c4b12787b51092b1984","A3","batch1","","733","","","tol_toboard","","","","","","","","","tol_peg_3","733","733","0","[[0,0,0],[1,2],[3]]","7","[[0,0,0],[1,2],[3]]","4","0","","","","","","7","",""
"","","","","","poldrack-single-stim","255","429295","0.0-3.0-23.0","627e7c4b12787b51092b1984","A3","batch1","","-1","","","tol_feedback","true","","","","","","","","","1000","1000","500","","","","","","-1","none","true","13352","17050","","",""
"","","","","","html-button-response","256","430029","0.0-3.0-24.0","627e7c4b12787b51092b1984","A3","batch1","","732.5999999940395","<div class = centerbox><p class = center-block-text>problem <strong>6</strong> out of 25 problems</p></div>","0","tol_trial_num","","","","","","","","","","","","","","","","","","","","","","","","",""
"","","","","","single-stim-button","257","439875","0.0-3.0-25.0-0.0","627e7c4b12787b51092b1984","A3","batch1","","9846","","","tol_tohand","","","","","","","","","tol_peg_3","9846","9846","0","[[0,0,0],[1,2],[0]]","1","[[1,0,0],[2,3],[0]]","5","0","","","","","","6","",""
"","","","","","single-stim-button","258","440479","0.0-3.0-25.0-1.0","627e7c4b12787b51092b1984","A3","batch1","","604","","","tol_toboard","","","","","","","","","tol_peg_1","604","604","0","[[3,0,0],[1,2],[0]]","1","[[1,0,0],[2,3],[0]]","5","0","","","","","","6","",""
"","","","","","single-stim-button","259","440961","0.0-3.0-25.1-0.1","627e7c4b12787b51092b1984","A3","batch1","","482","","","tol_tohand","","","","","","","","","tol_peg_2","482","482","0","[[3,0,0],[1,0],[0]]","2","[[1,0,0],[2,3],[0]]","5","0","","","","","","6","",""
"","","","","","single-stim-button","260","441595","0.0-3.0-25.1-1.1","627e7c4b12787b51092b1984","A3","batch1","","634","","","tol_toboard","","","","","","","","","tol_peg_3","634","634","0","[[3,0,0],[1,0],[2]]","2","[[1,0,0],[2,3],[0]]","5","0","","","","","","6","",""
"","","","","","single-stim-button","261","447183","0.0-3.0-25.2-0.2","627e7c4b12787b51092b1984","A3","batch1","","5588","","","tol_tohand","","","","","","","","","tol_peg_3","5588","5588","0","[[3,0,0],[1,0],[0]]","3","[[1,0,0],[2,3],[0]]","5","0","","","","","","6","",""
"","","","","","single-stim-button","262","447669","0.0-3.0-25.2-1.2","627e7c4b12787b51092b1984","A3","batch1","","485","","","tol_toboard","","","","","","","","","tol_peg_1","485","485","0","[[3,2,0],[1,0],[0]]","3","[[1,0,0],[2,3],[0]]","5","0","","","","","","6","",""
"","","","","","single-stim-button","263","448009","0.0-3.0-25.3-0.3","627e7c4b12787b51092b1984","A3","batch1","","339","","","tol_tohand","","","","","","","","","tol_peg_2","339","339","0","[[3,2,0],[0,0],[0]]","4","[[1,0,0],[2,3],[0]]","5","0","","","","","","6","",""
"","","","","","single-stim-button","264","448415","0.0-3.0-25.3-1.3","627e7c4b12787b51092b1984","A3","batch1","","405","","","tol_toboard","","","","","","","","","tol_peg_3","405","405","0","[[3,2,0],[0,0],[1]]","4","[[1,0,0],[2,3],[0]]","5","0","","","","","","6","",""
"","","","","","single-stim-button","265","449447","0.0-3.0-25.4-0.4","627e7c4b12787b51092b1984","A3","batch1","","1031","","","tol_tohand","","","","","","","","","tol_peg_1","1031","1031","0","[[3,0,0],[0,0],[1]]","5","[[1,0,0],[2,3],[0]]","5","0","","","","","","6","",""
"","","","","","single-stim-button","266","450004","0.0-3.0-25.4-1.4","627e7c4b12787b51092b1984","A3","batch1","","555","","","tol_toboard","","","","","","","","","tol_peg_2","555","555","0","[[3,0,0],[2,0],[1]]","5","[[1,0,0],[2,3],[0]]","5","0","","","","","","6","",""
"","","","","","single-stim-button","267","450599","0.0-3.0-25.5-0.5","627e7c4b12787b51092b1984","A3","batch1","","595","","","tol_tohand","","","","","","","","","tol_peg_1","595","595","0","[[0,0,0],[2,0],[1]]","6","[[1,0,0],[2,3],[0]]","5","0","","","","","","6","",""
"","","","","","single-stim-button","268","450961","0.0-3.0-25.5-1.5","627e7c4b12787b51092b1984","A3","batch1","","361","","","tol_toboard","","","","","","","","","tol_peg_2","361","361","0","[[0,0,0],[2,3],[1]]","6","[[1,0,0],[2,3],[0]]","5","0","","","","","","6","",""
"","","","","","single-stim-button","269","451271","0.0-3.0-25.6-0.6","627e7c4b12787b51092b1984","A3","batch1","","310","","","tol_tohand","","","","","","","","","tol_peg_3","310","310","0","[[0,0,0],[2,3],[0]]","7","[[1,0,0],[2,3],[0]]","5","0","","","","","","6","",""
"","","","","","single-stim-button","270","451803","0.0-3.0-25.6-1.6","627e7c4b12787b51092b1984","A3","batch1","","532","","","tol_toboard","","","","","","","","","tol_peg_1","532","532","0","[[1,0,0],[2,3],[0]]","7","[[1,0,0],[2,3],[0]]","5","0","","","","","","6","",""
"","","","","","poldrack-single-stim","271","452807","0.0-3.0-26.0","627e7c4b12787b51092b1984","A3","batch1","","-1","","","tol_feedback","true","","","","","","","","","1000","1000","500","","","","","","-1","none","true","9846","18191","","",""
"","","","","","html-button-response","272","453375","0.0-3.0-27.0","627e7c4b12787b51092b1984","A3","batch1","","567.0999999940395","<div class = centerbox><p class = center-block-text>problem <strong>7</strong> out of 25 problems</p></div>","0","tol_trial_num","","","","","","","","","","","","","","","","","","","","","","","","",""
"","","","","","single-stim-button","273","455807","0.0-3.0-28.0-0.0","627e7c4b12787b51092b1984","A3","batch1","","2431","","","tol_tohand","","","","","","","","","tol_peg_3","2431","2431","0","[[2,1,0],[0,0],[0]]","1","[[1,2,0],[3,0],[0]]","6","0","","","","","","5","",""
"","","","","","single-stim-button","274","456268","0.0-3.0-28.0-1.0","627e7c4b12787b51092b1984","A3","batch1","","460","","","tol_toboard","","","","","","","","","tol_peg_2","460","460","0","[[2,1,0],[3,0],[0]]","1","[[1,2,0],[3,0],[0]]","6","0","","","","","","5","",""
"","","","","","single-stim-button","275","457125","0.0-3.0-28.1-0.1","627e7c4b12787b51092b1984","A3","batch1","","857","","","tol_tohand","","","","","","","","","tol_peg_1","857","857","0","[[2,0,0],[3,0],[0]]","2","[[1,2,0],[3,0],[0]]","6","0","","","","","","5","",""
"","","","","","single-stim-button","276","457519","0.0-3.0-28.1-1.1","627e7c4b12787b51092b1984","A3","batch1","","393","","","tol_toboard","","","","","","","","","tol_peg_3","393","393","0","[[2,0,0],[3,0],[1]]","2","[[1,2,0],[3,0],[0]]","6","0","","","","","","5","",""
"","","","","","single-stim-button","277","458954","0.0-3.0-28.2-0.2","627e7c4b12787b51092b1984","A3","batch1","","1433","","","tol_tohand","","","","","","","","","tol_peg_1","1433","1433","0","[[0,0,0],[3,0],[1]]","3","[[1,2,0],[3,0],[0]]","6","0","","","","","","5","",""
"","","","","","single-stim-button","278","459249","0.0-3.0-28.2-1.2","627e7c4b12787b51092b1984","A3","batch1","","295","","","tol_toboard","","","","","","","","","tol_peg_2","295","295","0","[[0,0,0],[3,2],[1]]","3","[[1,2,0],[3,0],[0]]","6","0","","","","","","5","",""
"","","","","","single-stim-button","279","459555","0.0-3.0-28.3-0.3","627e7c4b12787b51092b1984","A3","batch1","","305","","","tol_tohand","","","","","","","","","tol_peg_3","305","305","0","[[0,0,0],[3,2],[0]]","4","[[1,2,0],[3,0],[0]]","6","0","","","","","","5","",""
"","","","","","single-stim-button","280","460128","0.0-3.0-28.3-1.3","627e7c4b12787b51092b1984","A3","batch1","","572","","","tol_toboard","","","","","","","","","tol_peg_1","572","572","0","[[1,0,0],[3,2],[0]]","4","[[1,2,0],[3,0],[0]]","6","0","","","","","","5","",""
"","","","","","single-stim-button","281","460545","0.0-3.0-28.4-0.4","627e7c4b12787b51092b1984","A3","batch1","","417","","","tol_tohand","","","","","","","","","tol_peg_2","417","417","0","[[1,0,0],[3,0],[0]]","5","[[1,2,0],[3,0],[0]]","6","0","","","","","","5","",""
"","","","","","single-stim-button","282","460804","0.0-3.0-28.4-1.4","627e7c4b12787b51092b1984","A3","batch1","","257","","","tol_toboard","","","","","","","","","tol_peg_1","257","257","0","[[1,2,0],[3,0],[0]]","5","[[1,2,0],[3,0],[0]]","6","0","","","","","","5","",""
"","","","","","poldrack-single-stim","283","461807","0.0-3.0-29.0","627e7c4b12787b51092b1984","A3","batch1","","-1","","","tol_feedback","true","","","","","","","","","1000","1000","500","","","","","","-1","none","true","2431","5443","","",""
"","","","","","html-button-response","284","462423","0.0-3.0-30.0","627e7c4b12787b51092b1984","A3","batch1","","615.5999999940395","<div class = centerbox><p class = center-block-text>problem <strong>8</strong> out of 25 problems</p></div>","0","tol_trial_num","","","","","","","","","","","","","","","","","","","","","","","","",""
"","","","","","single-stim-button","285","466122","0.0-3.0-31.0-0.0","627e7c4b12787b51092b1984","A3","batch1","","3697","","","tol_tohand","","","","","","","","","tol_peg_3","3697","3697","0","[[0,0,0],[2,3],[0]]","1","[[1,2,0],[3,0],[0]]","7","0","","","","","","4","",""
"","","","","","single-stim-button","286","466646","0.0-3.0-31.0-1.0","627e7c4b12787b51092b1984","A3","batch1","","523","","","tol_toboard","","","","","","","","","tol_peg_1","523","523","0","[[1,0,0],[2,3],[0]]","1","[[1,2,0],[3,0],[0]]","7","0","","","","","","4","",""
"","","","","","single-stim-button","287","467434","0.0-3.0-31.1-0.1","627e7c4b12787b51092b1984","A3","batch1","","787","","","tol_tohand","","","","","","","","","tol_peg_2","787","787","0","[[1,0,0],[2,0],[0]]","2","[[1,2,0],[3,0],[0]]","7","0","","","","","","4","",""
"","","","","","single-stim-button","288","467798","0.0-3.0-31.1-1.1","627e7c4b12787b51092b1984","A3","batch1","","364","","","tol_toboard","","","","","","","","","tol_peg_3","364","364","0","[[1,0,0],[2,0],[3]]","2","[[1,2,0],[3,0],[0]]","7","0","","","","","","4","",""
"","","","","","single-stim-button","289","468136","0.0-3.0-31.2-0.2","627e7c4b12787b51092b1984","A3","batch1","","337","","","tol_tohand","","","","","","","","","tol_peg_2","337","337","0","[[1,0,0],[0,0],[3]]","3","[[1,2,0],[3,0],[0]]","7","0","","","","","","4","",""
"","","","","","single-stim-button","290","468490","0.0-3.0-31.2-1.2","627e7c4b12787b51092b1984","A3","batch1","","353","","","tol_toboard","","","","","","","","","tol_peg_1","353","353","0","[[1,2,0],[0,0],[3]]","3","[[1,2,0],[3,0],[0]]","7","0","","","","","","4","",""
"","","","","","single-stim-button","291","469030","0.0-3.0-31.3-0.3","627e7c4b12787b51092b1984","A3","batch1","","540","","","tol_tohand","","","","","","","","","tol_peg_3","540","540","0","[[1,2,0],[0,0],[0]]","4","[[1,2,0],[3,0],[0]]","7","0","","","","","","4","",""
"","","","","","single-stim-button","292","469328","0.0-3.0-31.3-1.3","627e7c4b12787b51092b1984","A3","batch1","","296","","","tol_toboard","","","","","","","","","tol_peg_2","296","296","0","[[1,2,0],[3,0],[0]]","4","[[1,2,0],[3,0],[0]]","7","0","","","","","","4","",""
"","","","","","poldrack-single-stim","293","470340","0.0-3.0-32.0","627e7c4b12787b51092b1984","A3","batch1","","-1","","","tol_feedback","true","","","","","","","","","1000","1000","500","","","","","","-1","none","true","3697","5361","","",""
"","","","","","html-button-response","294","470846","0.0-3.0-33.0","627e7c4b12787b51092b1984","A3","batch1","","505.09999999403954","<div class = centerbox><p class = center-block-text>problem <strong>9</strong> out of 25 problems</p></div>","0","tol_trial_num","","","","","","","","","","","","","","","","","","","","","","","","",""
"","","","","","single-stim-button","295","479400","0.0-3.0-34.0-0.0","627e7c4b12787b51092b1984","A3","batch1","","8553","","","tol_tohand","","","","","","","","","tol_peg_1","8553","8553","0","[[3,0,0],[0,0],[1]]","1","[[2,1,0],[3,0],[0]]","8","0","","","","","","6","",""
"","","","","","single-stim-button","296","479804","0.0-3.0-34.0-1.0","627e7c4b12787b51092b1984","A3","batch1","","403","","","tol_toboard","","","","","","","","","tol_peg_2","403","403","0","[[3,0,0],[2,0],[1]]","1","[[2,1,0],[3,0],[0]]","8","0","","","","","","6","",""
"","","","","","single-stim-button","297","480254","0.0-3.0-34.1-0.1","627e7c4b12787b51092b1984","A3","batch1","","449","","","tol_tohand","","","","","","","","","tol_peg_1","449","449","0","[[0,0,0],[2,0],[1]]","2","[[2,1,0],[3,0],[0]]","8","0","","","","","","6","",""
"","","","","","single-stim-button","298","480690","0.0-3.0-34.1-1.1","627e7c4b12787b51092b1984","A3","batch1","","435","","","tol_toboard","","","","","","","","","tol_peg_2","435","435","0","[[0,0,0],[2,3],[1]]","2","[[2,1,0],[3,0],[0]]","8","0","","","","","","6","",""
"","","","","","single-stim-button","299","482832","0.0-3.0-34.2-0.2","627e7c4b12787b51092b1984","A3","batch1","","2142","","","tol_tohand","","","","","","","","","tol_peg_3","2142","2142","0","[[0,0,0],[2,3],[0]]","3","[[2,1,0],[3,0],[0]]","8","0","","","","","","6","",""
"","","","","","single-stim-button","300","483408","0.0-3.0-34.2-1.2","627e7c4b12787b51092b1984","A3","batch1","","575","","","tol_toboard","","","","","","","","","tol_peg_1","575","575","0","[[1,0,0],[2,3],[0]]","3","[[2,1,0],[3,0],[0]]","8","0","","","","","","6","",""
"","","","","","single-stim-button","301","483820","0.0-3.0-34.3-0.3","627e7c4b12787b51092b1984","A3","batch1","","411","","","tol_tohand","","","","","","","","","tol_peg_2","411","411","0","[[1,0,0],[2,0],[0]]","4","[[2,1,0],[3,0],[0]]","8","0","","","","","","6","",""
"","","","","","single-stim-button","302","484424","0.0-3.0-34.3-1.3","627e7c4b12787b51092b1984","A3","batch1","","604","","","tol_toboard","","","","","","","","","tol_peg_3","604","604","0","[[1,0,0],[2,0],[3]]","4","[[2,1,0],[3,0],[0]]","8","0","","","","","","6","",""
"","","","","","single-stim-button","303","485730","0.0-3.0-34.4-0.4","627e7c4b12787b51092b1984","A3","batch1","","1305","","","tol_tohand","","","","","","","","","tol_peg_2","1305","1305","0","[[1,0,0],[0,0],[3]]","5","[[2,1,0],[3,0],[0]]","8","0","","","","","","6","",""
"","","","","","single-stim-button","304","486878","0.0-3.0-34.4-1.4","627e7c4b12787b51092b1984","A3","batch1","","1148","","","tol_toboard","","","","","","","","","tol_peg_1","1148","1148","0","[[1,2,0],[0,0],[3]]","5","[[2,1,0],[3,0],[0]]","8","0","","","","","","6","",""
"","","","","","single-stim-button","305","487376","0.0-3.0-34.5-0.5","627e7c4b12787b51092b1984","A3","batch1","","497","","","tol_tohand","","","","","","","","","tol_peg_3","497","497","0","[[1,2,0],[0,0],[0]]","6","[[2,1,0],[3,0],[0]]","8","0","","","","","","6","",""
"","","","","","single-stim-button","306","487772","0.0-3.0-34.5-1.5","627e7c4b12787b51092b1984","A3","batch1","","395","","","tol_toboard","","","","","","","","","tol_peg_2","395","395","0","[[1,2,0],[3,0],[0]]","6","[[2,1,0],[3,0],[0]]","8","0","","","","","","6","",""
"","","","","","single-stim-button","307","488222","0.0-3.0-34.6-0.6","627e7c4b12787b51092b1984","A3","batch1","","449","","","tol_tohand","","","","","","","","","tol_peg_1","449","449","0","[[1,0,0],[3,0],[0]]","7","[[2,1,0],[3,0],[0]]","8","0","","","","","","6","",""
"","","","","","single-stim-button","308","488774","0.0-3.0-34.6-1.6","627e7c4b12787b51092b1984","A3","batch1","","551","","","tol_toboard","","","","","","","","","tol_peg_3","551","551","0","[[1,0,0],[3,0],[2]]","7","[[2,1,0],[3,0],[0]]","8","0","","","","","","6","",""
"","","","","","single-stim-button","309","489347","0.0-3.0-34.7-0.7","627e7c4b12787b51092b1984","A3","batch1","","571","","","tol_tohand","","","","","","","","","tol_peg_1","571","571","0","[[0,0,0],[3,0],[2]]","8","[[2,1,0],[3,0],[0]]","8","0","","","","","","6","",""
"","","","","","single-stim-button","310","491229","0.0-3.0-34.7-1.7","627e7c4b12787b51092b1984","A3","batch1","","1882","","","tol_toboard","","","","","","","","","tol_peg_2","1882","1882","0","[[0,0,0],[3,1],[2]]","8","[[2,1,0],[3,0],[0]]","8","0","","","","","","6","",""
"","","","","","single-stim-button","311","491514","0.0-3.0-34.8-0.8","627e7c4b12787b51092b1984","A3","batch1","","285","","","tol_tohand","","","","","","","","","tol_peg_3","285","285","0","[[0,0,0],[3,1],[0]]","9","[[2,1,0],[3,0],[0]]","8","0","","","","","","6","",""
"","","","","","single-stim-button","312","491910","0.0-3.0-34.8-1.8","627e7c4b12787b51092b1984","A3","batch1","","395","","","tol_toboard","","","","","","","","","tol_peg_1","395","395","0","[[2,0,0],[3,1],[0]]","9","[[2,1,0],[3,0],[0]]","8","0","","","","","","6","",""
"","","","","","single-stim-button","313","492196","0.0-3.0-34.9-0.9","627e7c4b12787b51092b1984","A3","batch1","","285","","","tol_tohand","","","","","","","","","tol_peg_2","285","285","0","[[2,0,0],[3,0],[0]]","10","[[2,1,0],[3,0],[0]]","8","0","","","","","","6","",""
"","","","","","single-stim-button","314","492446","0.0-3.0-34.9-1.9","627e7c4b12787b51092b1984","A3","batch1","","249","","","tol_toboard","","","","","","","","","tol_peg_1","249","249","0","[[2,1,0],[3,0],[0]]","10","[[2,1,0],[3,0],[0]]","8","0","","","","","","6","",""
"","","","","","poldrack-single-stim","315","493458","0.0-3.0-35.0","627e7c4b12787b51092b1984","A3","batch1","","-1","","","tol_feedback","true","","","","","","","","","1000","1000","500","","","","","","-1","none","true","8553","14947","","",""
"","","","","","html-button-response","316","494065","0.0-3.0-36.0","627e7c4b12787b51092b1984","A3","batch1","","604.2999999821186","<div class = centerbox><p class = center-block-text>problem <strong>10</strong> out of 25 problems</p></div>","0","tol_trial_num","","","","","","","","","","","","","","","","","","","","","","","","",""
"","","","","","single-stim-button","317","497011","0.0-3.0-37.0-0.0","627e7c4b12787b51092b1984","A3","batch1","","2946","","","tol_tohand","","","","","","","","","tol_peg_3","2946","2946","0","[[3,0,0],[1,0],[0]]","1","[[3,0,0],[2,1],[0]]","9","0","","","","","","3","",""
"","","","","","single-stim-button","318","497453","0.0-3.0-37.0-1.0","627e7c4b12787b51092b1984","A3","batch1","","440","","","tol_toboard","","","","","","","","","tol_peg_1","440","440","0","[[3,2,0],[1,0],[0]]","1","[[3,0,0],[2,1],[0]]","9","0","","","","","","3","",""
"","","","","","single-stim-button","319","498005","0.0-3.0-37.1-0.1","627e7c4b12787b51092b1984","A3","batch1","","551","","","tol_tohand","","","","","","","","","tol_peg_2","551","551","0","[[3,2,0],[0,0],[0]]","2","[[3,0,0],[2,1],[0]]","9","0","","","","","","3","",""
"","","","","","single-stim-button","320","498553","0.0-3.0-37.1-1.1","627e7c4b12787b51092b1984","A3","batch1","","548","","","tol_toboard","","","","","","","","","tol_peg_3","548","548","0","[[3,2,0],[0,0],[1]]","2","[[3,0,0],[2,1],[0]]","9","0","","","","","","3","",""
"","","","","","single-stim-button","321","498961","0.0-3.0-37.2-0.2","627e7c4b12787b51092b1984","A3","batch1","","407","","","tol_tohand","","","","","","","","","tol_peg_1","407","407","0","[[3,0,0],[0,0],[1]]","3","[[3,0,0],[2,1],[0]]","9","0","","","","","","3","",""
"","","","","","single-stim-button","322","499291","0.0-3.0-37.2-1.2","627e7c4b12787b51092b1984","A3","batch1","","328","","","tol_toboard","","","","","","","","","tol_peg_2","328","328","0","[[3,0,0],[2,0],[1]]","3","[[3,0,0],[2,1],[0]]","9","0","","","","","","3","",""
"","","","","","single-stim-button","323","499596","0.0-3.0-37.3-0.3","627e7c4b12787b51092b1984","A3","batch1","","304","","","tol_tohand","","","","","","","","","tol_peg_3","304","304","0","[[3,0,0],[2,0],[0]]","4","[[3,0,0],[2,1],[0]]","9","0","","","","","","3","",""
"","","","","","single-stim-button","324","499863","0.0-3.0-37.3-1.3","627e7c4b12787b51092b1984","A3","batch1","","266","","","tol_toboard","","","","","","","","","tol_peg_2","266","266","0","[[3,0,0],[2,1],[0]]","4","[[3,0,0],[2,1],[0]]","9","0","","","","","","3","",""
"","","","","","poldrack-single-stim","325","500872","0.0-3.0-38.0","627e7c4b12787b51092b1984","A3","batch1","","-1","","","tol_feedback","true","","","","","","","","","1000","1000","500","","","","","","-1","none","true","2946","4208","","",""
"","","","","","html-button-response","326","501575","0.0-3.0-39.0","627e7c4b12787b51092b1984","A3","batch1","","701.4000000059605","<div class = centerbox><p class = center-block-text>problem <strong>11</strong> out of 25 problems</p></div>","0","tol_trial_num","","","","","","","","","","","","","","","","","","","","","","","","",""
"","","","","","single-stim-button","327","509639","0.0-3.0-40.0-0.0","627e7c4b12787b51092b1984","A3","batch1","","8064","","","tol_tohand","","","","","","","","","tol_peg_1","8064","8064","0","[[1,0,0],[3,0],[0]]","1","[[2,0,0],[1,3],[0]]","10","0","","","","","","6","",""
"","","","","","single-stim-button","328","510325","0.0-3.0-40.0-1.0","627e7c4b12787b51092b1984","A3","batch1","","685","","","tol_toboard","","","","","","","","","tol_peg_3","685","685","0","[[1,0,0],[3,0],[2]]","1","[[2,0,0],[1,3],[0]]","10","0","","","","","","6","",""
"","","","","","single-stim-button","329","513439","0.0-3.0-40.1-0.1","627e7c4b12787b51092b1984","A3","batch1","","3113","","","tol_tohand","","","","","","","","","tol_peg_1","3113","3113","0","[[0,0,0],[3,0],[2]]","2","[[2,0,0],[1,3],[0]]","10","0","","","","","","6","",""
"","","","","","single-stim-button","330","513849","0.0-3.0-40.1-1.1","627e7c4b12787b51092b1984","A3","batch1","","410","","","tol_toboard","","","","","","","","","tol_peg_2","410","410","0","[[0,0,0],[3,1],[2]]","2","[[2,0,0],[1,3],[0]]","10","0","","","","","","6","",""
"","","","","","single-stim-button","331","514237","0.0-3.0-40.2-0.2","627e7c4b12787b51092b1984","A3","batch1","","387","","","tol_tohand","","","","","","","","","tol_peg_3","387","387","0","[[0,0,0],[3,1],[0]]","3","[[2,0,0],[1,3],[0]]","10","0","","","","","","6","",""
"","","","","","single-stim-button","332","514647","0.0-3.0-40.2-1.2","627e7c4b12787b51092b1984","A3","batch1","","409","","","tol_toboard","","","","","","","","","tol_peg_1","409","409","0","[[2,0,0],[3,1],[0]]","3","[[2,0,0],[1,3],[0]]","10","0","","","","","","6","",""
"","","","","","single-stim-button","333","515015","0.0-3.0-40.3-0.3","627e7c4b12787b51092b1984","A3","batch1","","367","","","tol_tohand","","","","","","","","","tol_peg_2","367","367","0","[[2,0,0],[3,0],[0]]","4","[[2,0,0],[1,3],[0]]","10","0","","","","","","6","",""
"","","","","","single-stim-button","334","515433","0.0-3.0-40.3-1.3","627e7c4b12787b51092b1984","A3","batch1","","417","","","tol_toboard","","","","","","","","","tol_peg_3","417","417","0","[[2,0,0],[3,0],[1]]","4","[[2,0,0],[1,3],[0]]","10","0","","","","","","6","",""
"","","","","","single-stim-button","335","516199","0.0-3.0-40.4-0.4","627e7c4b12787b51092b1984","A3","batch1","","765","","","tol_tohand","","","","","","","","","tol_peg_2","765","765","0","[[2,0,0],[0,0],[1]]","5","[[2,0,0],[1,3],[0]]","10","0","","","","","","6","",""
"","","","","","single-stim-button","336","516697","0.0-3.0-40.4-1.4","627e7c4b12787b51092b1984","A3","batch1","","497","","","tol_toboard","","","","","","","","","tol_peg_1","497","497","0","[[2,3,0],[0,0],[1]]","5","[[2,0,0],[1,3],[0]]","10","0","","","","","","6","",""
"","","","","","single-stim-button","337","517141","0.0-3.0-40.5-0.5","627e7c4b12787b51092b1984","A3","batch1","","444","","","tol_tohand","","","","","","","","","tol_peg_3","444","444","0","[[2,3,0],[0,0],[0]]","6","[[2,0,0],[1,3],[0]]","10","0","","","","","","6","",""
"","","","","","single-stim-button","338","517733","0.0-3.0-40.5-1.5","627e7c4b12787b51092b1984","A3","batch1","","591","","","tol_toboard","","","","","","","","","tol_peg_2","591","591","0","[[2,3,0],[1,0],[0]]","6","[[2,0,0],[1,3],[0]]","10","0","","","","","","6","",""
"","","","","","single-stim-button","339","518177","0.0-3.0-40.6-0.6","627e7c4b12787b51092b1984","A3","batch1","","444","","","tol_tohand","","","","","","","","","tol_peg_1","444","444","0","[[2,0,0],[1,0],[0]]","7","[[2,0,0],[1,3],[0]]","10","0","","","","","","6","",""
"","","","","","single-stim-button","340","518483","0.0-3.0-40.6-1.6","627e7c4b12787b51092b1984","A3","batch1","","305","","","tol_toboard","","","","","","","","","tol_peg_2","305","305","0","[[2,0,0],[1,3],[0]]","7","[[2,0,0],[1,3],[0]]","10","0","","","","","","6","",""
"","","","","","poldrack-single-stim","341","519485","0.0-3.0-41.0","627e7c4b12787b51092b1984","A3","batch1","","-1","","","tol_feedback","true","","","","","","","","","1000","1000","500","","","","","","-1","none","true","8064","13584","","",""
"","","","","","html-button-response","342","519969","0.0-3.0-42.0","627e7c4b12787b51092b1984","A3","batch1","","483.19999998807907","<div class = centerbox><p class = center-block-text>problem <strong>12</strong> out of 25 problems</p></div>","0","tol_trial_num","","","","","","","","","","","","","","","","","","","","","","","","",""
"","","","","","single-stim-button","343","522349","0.0-3.0-43.0-0.0","627e7c4b12787b51092b1984","A3","batch1","","2379","","","tol_tohand","","","","","","","","","tol_peg_1","2379","2379","0","[[1,0,0],[3,0],[0]]","1","[[2,3,0],[0,0],[1]]","11","0","","","","","","4","",""
"","","","","","single-stim-button","344","522698","0.0-3.0-43.0-1.0","627e7c4b12787b51092b1984","A3","batch1","","348","","","tol_toboard","","","","","","","","","tol_peg_2","348","348","0","[[1,0,0],[3,2],[0]]","1","[[2,3,0],[0,0],[1]]","11","0","","","","","","4","",""
"","","","","","single-stim-button","345","523128","0.0-3.0-43.1-0.1","627e7c4b12787b51092b1984","A3","batch1","","429","","","tol_tohand","","","","","","","","","tol_peg_1","429","429","0","[[0,0,0],[3,2],[0]]","2","[[2,3,0],[0,0],[1]]","11","0","","","","","","4","",""
"","","","","","single-stim-button","346","523555","0.0-3.0-43.1-1.1","627e7c4b12787b51092b1984","A3","batch1","","427","","","tol_toboard","","","","","","","","","tol_peg_3","427","427","0","[[0,0,0],[3,2],[1]]","2","[[2,3,0],[0,0],[1]]","11","0","","","","","","4","",""
"","","","","","single-stim-button","347","524498","0.0-3.0-43.2-0.2","627e7c4b12787b51092b1984","A3","batch1","","942","","","tol_tohand","","","","","","","","","tol_peg_2","942","942","0","[[0,0,0],[3,0],[1]]","3","[[2,3,0],[0,0],[1]]","11","0","","","","","","4","",""
"","","","","","single-stim-button","348","524892","0.0-3.0-43.2-1.2","627e7c4b12787b51092b1984","A3","batch1","","392","","","tol_toboard","","","","","","","","","tol_peg_1","392","392","0","[[2,0,0],[3,0],[1]]","3","[[2,3,0],[0,0],[1]]","11","0","","","","","","4","",""
"","","","","","single-stim-button","349","525197","0.0-3.0-43.3-0.3","627e7c4b12787b51092b1984","A3","batch1","","305","","","tol_tohand","","","","","","","","","tol_peg_2","305","305","0","[[2,0,0],[0,0],[1]]","4","[[2,3,0],[0,0],[1]]","11","0","","","","","","4","",""
