"success","timeout","failed_images","failed_audio","failed_video","trial_type","trial_index","time_elapsed","internal_node_id","subject_id","study_id","session_id","view_history","rt","task","stimulus","response","correct","mouse_click","stim_duration","block_duration","timing_post_trial","current_position","tol_num_moves_made","tol_target","tol_problem_id","tol_rt","key_press","possible_responses","tol_correct","preplanning","tol_rt_per_trial","tol_min_moves","answer","item","fiar_detect_rt","fiar_detect_correct","total_correct_fiar_detect","post_trial_gap","choices","spm_correct","spm_rt"
"true","false","[]","[]","[]","preload","0","799","0.0-0.0","628261a08ec6e3682495f8d8","F1","batch6","","","","","","","","","","","","","","","","","","","","","","","","","","","","","",""
"true","","","","","fullscreen","1","13005","0.0-1.0-0.0","628261a08ec6e3682495f8d8","F1","batch6","","","","","","","","","","","","","","","","","","","","","","","","","","","","","",""
"true","","","","","fullscreen","2","16802","0.0-2.0-0.0","628261a08ec6e3682495f8d8","F1","batch6","","","","","","","","","","","","","","","","","","","","","","","","","","","","","",""
"","","","","","instructions","3","82238","0.0-2.0-1.0-0.0-0.0","628261a08ec6e3682495f8d8","F1","batch6","[{""page_index"":0,""viewing_time"":14992.200000047684},{""page_index"":1,""viewing_time"":5473.899999856949},{""page_index"":2,""viewing_time"":10277.900000095367},{""page_index"":3,""viewing_time"":13194.700000047684},{""page_index"":4,""viewing_time"":10573},{""page_index"":5,""viewing_time"":6502.699999809265},{""page_index"":6,""viewing_time"":4420.300000190735}]","65435.200000047684","tol-instructions","","","","","","","","","","","","","","","","","","","","","","","","","","",""
"","","","","","html-button-response","4","84160","0.0-2.0-1.0-1.0-0.0","628261a08ec6e3682495f8d8","F1","batch6","","1921","tol_enter_quiz","<p class=block-text> Let's answer a few questions <br>","0","","","","","","","","","","","","","","","","","","","","","","","","",""
"","","","","","html-button-response","5","88394","0.0-2.0-1.0-1.0-1.0","628261a08ec6e3682495f8d8","F1","batch6","","4232.700000047684","tol_quiz","<p class = block-text>True or False: You can only move the ball on top of a peg. <br></p>","0","true","","","","","","","","","","","","","","","","","","","","","","","",""
"","","","","","html-button-response","6","89817","0.0-2.0-1.0-1.0-2.0","628261a08ec6e3682495f8d8","F1","batch6","","1422.0999999046326","tol_quiz_feedback","<p class = block-text>Correct! You can only move the ball on top of a peg.</p>","0","","","","","","","","","","","","","","","","","","","","","","","","",""
"","","","","","html-button-response","7","95340","0.0-2.0-1.0-1.0-3.0","628261a08ec6e3682495f8d8","F1","batch6","","5521.400000095367","tol_quiz","<p class = block-text>True or False: You should try to match your board with the target board with fewest moves possible. <br></p>","0","true","","","","","","","","","","","","","","","","","","","","","","","",""
"","","","","","html-button-response","8","96342","0.0-2.0-1.0-1.0-4.0","628261a08ec6e3682495f8d8","F1","batch6","","1001.2000000476837","tol_quiz_feedback","<p class = block-text>Correct! </p>","0","","","","","","","","","","","","","","","","","","","","","","","","",""
"","","","","","html-button-response","9","99090","0.0-2.0-2.0","628261a08ec6e3682495f8d8","F1","batch6","","2746.4000000953674","","<p class=block-text> Now that you've understood the game, let's practice a few easier examples before we start!<br> <br>","0","","","","","","","","","","","","","","","","","","","","","","","","",""
"","","","","","single-stim-button","10","107923","0.0-2.0-3.0-0.0","628261a08ec6e3682495f8d8","F1","batch6","","8833","tol_practice","","","","tol_peg_2","8833","8833","0","[[1,2,0],[0,0],[0]]","1","[[1,2,0],[0,0],[3]]","practice","8833","","","","","","","","","","","","","","",""
"","","","","","single-stim-button","11","110732","0.0-2.0-3.0-1.0","628261a08ec6e3682495f8d8","F1","batch6","","2808","tol_practice","","","","tol_peg_3","2808","2808","0","[[1,2,0],[0,0],[3]]","1","[[1,2,0],[0,0],[3]]","practice","2808","","","","","","","","","","","","","","",""
"","","","","","poldrack-single-stim","12","111741","0.0-2.0-4.0","628261a08ec6e3682495f8d8","F1","batch6","","-1","tol_feedback","","","true","","1000","1000","500","","","","","","-1","none","true","","0","","","","","","","","","",""
"","","","","","single-stim-button","13","117665","0.0-2.0-5.0-0.0","628261a08ec6e3682495f8d8","F1","batch6","","5923","tol_practice","","","","tol_peg_1","5923","5923","0","[[1,0,0],[3,0],[0]]","2","[[0,0,0],[3,1],[2]]","practice","5923","","","","","","","","","","","","","","",""
"","","","","","single-stim-button","14","119570","0.0-2.0-5.0-1.0","628261a08ec6e3682495f8d8","F1","batch6","","1904","tol_practice","","","","tol_peg_3","1904","1904","0","[[1,0,0],[3,0],[2]]","2","[[0,0,0],[3,1],[2]]","practice","1904","","","","","","","","","","","","","","",""
"","","","","","single-stim-button","15","120423","0.0-2.0-5.1-0.1","628261a08ec6e3682495f8d8","F1","batch6","","853","tol_practice","","","","tol_peg_1","853","853","0","[[0,0,0],[3,0],[2]]","3","[[0,0,0],[3,1],[2]]","practice","853","","","","","","","","","","","","","","",""
"","","","","","single-stim-button","16","120999","0.0-2.0-5.1-1.1","628261a08ec6e3682495f8d8","F1","batch6","","575","tol_practice","","","","tol_peg_2","575","575","0","[[0,0,0],[3,1],[2]]","3","[[0,0,0],[3,1],[2]]","practice","575","","","","","","","","","","","","","","",""
"","","","","","poldrack-single-stim","17","122001","0.0-2.0-6.0","628261a08ec6e3682495f8d8","F1","batch6","","-1","tol_feedback","","","true","","1000","1000","500","","","","","","-1","none","true","","0","","","","","","","","","",""
"","","","","","single-stim-button","18","126100","0.0-2.0-7.0-0.0","628261a08ec6e3682495f8d8","F1","batch6","","4098","tol_practice","","","","tol_peg_2","4098","4098","0","[[1,2,0],[0,0],[0]]","4","[[1,0,0],[2,0],[3]]","practice","4098","","","","","","","","","","","","","","",""
"","","","","","single-stim-button","19","127007","0.0-2.0-7.0-1.0","628261a08ec6e3682495f8d8","F1","batch6","","905","tol_practice","","","","tol_peg_3","905","905","0","[[1,2,0],[0,0],[3]]","4","[[1,0,0],[2,0],[3]]","practice","905","","","","","","","","","","","","","","",""
"","","","","","single-stim-button","20","127801","0.0-2.0-7.1-0.1","628261a08ec6e3682495f8d8","F1","batch6","","793","tol_practice","","","","tol_peg_1","793","793","0","[[1,0,0],[0,0],[3]]","5","[[1,0,0],[2,0],[3]]","practice","793","","","","","","","","","","","","","","",""
"","","","","","single-stim-button","21","128598","0.0-2.0-7.1-1.1","628261a08ec6e3682495f8d8","F1","batch6","","797","tol_practice","","","","tol_peg_2","797","797","0","[[1,0,0],[2,0],[3]]","5","[[1,0,0],[2,0],[3]]","practice","797","","","","","","","","","","","","","","",""
"","","","","","poldrack-single-stim","22","129608","0.0-2.0-8.0","628261a08ec6e3682495f8d8","F1","batch6","","-1","tol_feedback","","","true","","1000","1000","500","","","","","","-1","none","true","","0","","","","","","","","","",""
"","","","","","html-button-response","23","134390","0.0-2.0-9.0","628261a08ec6e3682495f8d8","F1","batch6","","4781.200000047684","tol_instruction","<div class = centerbox><p class = center-block-text>Great job! You are done with practice trials<br>You are about to start official trials.<br> <br> Problem <strong>1</strong> out of 25 problems</p></div>","0","","","","","","","","","","","","","","","","","","","","","","","","",""
"","","","","","single-stim-button","24","146488","0.0-2.0-10.0-0.0","628261a08ec6e3682495f8d8","F1","batch6","","11095","tol_tohand","","","","tol_peg_1","11095","11095","0","[[1,0,0],[3,0],[0]]","1","[[1,3,0],[2,0],[0]]","0","0","","","","","","3","","","","","","","","",""
"","","","","","single-stim-button","25","147522","0.0-2.0-10.0-1.0","628261a08ec6e3682495f8d8","F1","batch6","","1033","tol_toboard","","","","tol_peg_3","1033","1033","0","[[1,0,0],[3,0],[2]]","1","[[1,3,0],[2,0],[0]]","0","0","","","","","","3","","","","","","","","",""
"","","","","","single-stim-button","26","148615","0.0-2.0-10.1-0.1","628261a08ec6e3682495f8d8","F1","batch6","","1091","tol_tohand","","","","tol_peg_2","1091","1091","0","[[1,0,0],[0,0],[2]]","2","[[1,3,0],[2,0],[0]]","0","0","","","","","","3","","","","","","","","",""
"","","","","","single-stim-button","27","149552","0.0-2.0-10.1-1.1","628261a08ec6e3682495f8d8","F1","batch6","","937","tol_toboard","","","","tol_peg_1","937","937","0","[[1,3,0],[0,0],[2]]","2","[[1,3,0],[2,0],[0]]","0","0","","","","","","3","","","","","","","","",""
"","","","","","single-stim-button","28","150568","0.0-2.0-10.2-0.2","628261a08ec6e3682495f8d8","F1","batch6","","1015","tol_tohand","","","","tol_peg_3","1015","1015","0","[[1,3,0],[0,0],[0]]","3","[[1,3,0],[2,0],[0]]","0","0","","","","","","3","","","","","","","","",""
"","","","","","single-stim-button","29","151568","0.0-2.0-10.2-1.2","628261a08ec6e3682495f8d8","F1","batch6","","1000","tol_toboard","","","","tol_peg_2","1000","1000","0","[[1,3,0],[2,0],[0]]","3","[[1,3,0],[2,0],[0]]","0","0","","","","","","3","","","","","","","","",""
"","","","","","poldrack-single-stim","30","152584","0.0-2.0-11.0","628261a08ec6e3682495f8d8","F1","batch6","","-1","tol_feedback","","","true","","1000","1000","500","","","","","","-1","none","true","11095","13201","","","","","","","","","",""
"","","","","","html-button-response","31","154681","0.0-2.0-12.0","628261a08ec6e3682495f8d8","F1","batch6","","2095.600000143051","tol_trial_num","<div class = centerbox><p class = center-block-text>problem <strong>2</strong> out of 25 problems</p></div>","0","","","","","","","","","","","","","","","","","","","","","","","","",""
"","","","","","single-stim-button","32","178930","0.0-2.0-13.0-0.0","628261a08ec6e3682495f8d8","F1","batch6","","24248","tol_tohand","","","","tol_peg_1","24248","24248","0","[[1,0,0],[3,0],[0]]","1","[[2,1,3],[0,0],[0]]","1","0","","","","","","5","","","","","","","","",""
"","","","","","single-stim-button","33","193717","0.0-2.0-13.0-1.0","628261a08ec6e3682495f8d8","F1","batch6","","14786","tol_toboard","","","","tol_peg_2","14786","14786","0","[[1,0,0],[3,2],[0]]","1","[[2,1,3],[0,0],[0]]","1","0","","","","","","5","","","","","","","","",""
"","","","","","single-stim-button","34","194505","0.0-2.0-13.1-0.1","628261a08ec6e3682495f8d8","F1","batch6","","787","tol_tohand","","","","tol_peg_1","787","787","0","[[0,0,0],[3,2],[0]]","2","[[2,1,3],[0,0],[0]]","1","0","","","","","","5","","","","","","","","",""
"","","","","","single-stim-button","35","195335","0.0-2.0-13.1-1.1","628261a08ec6e3682495f8d8","F1","batch6","","829","tol_toboard","","","","tol_peg_3","829","829","0","[[0,0,0],[3,2],[1]]","2","[[2,1,3],[0,0],[0]]","1","0","","","","","","5","","","","","","","","",""
"","","","","","single-stim-button","36","196032","0.0-2.0-13.2-0.2","628261a08ec6e3682495f8d8","F1","batch6","","697","tol_tohand","","","","tol_peg_2","697","697","0","[[0,0,0],[3,0],[1]]","3","[[2,1,3],[0,0],[0]]","1","0","","","","","","5","","","","","","","","",""
"","","","","","single-stim-button","37","196931","0.0-2.0-13.2-1.2","628261a08ec6e3682495f8d8","F1","batch6","","897","tol_toboard","","","","tol_peg_1","897","897","0","[[2,0,0],[3,0],[1]]","3","[[2,1,3],[0,0],[0]]","1","0","","","","","","5","","","","","","","","",""
"","","","","","single-stim-button","38","197778","0.0-2.0-13.3-0.3","628261a08ec6e3682495f8d8","F1","batch6","","847","tol_tohand","","","","tol_peg_3","847","847","0","[[2,0,0],[3,0],[0]]","4","[[2,1,3],[0,0],[0]]","1","0","","","","","","5","","","","","","","","",""
"","","","","","single-stim-button","39","198477","0.0-2.0-13.3-1.3","628261a08ec6e3682495f8d8","F1","batch6","","699","tol_toboard","","","","tol_peg_1","699","699","0","[[2,1,0],[3,0],[0]]","4","[[2,1,3],[0,0],[0]]","1","0","","","","","","5","","","","","","","","",""
"","","","","","single-stim-button","40","199145","0.0-2.0-13.4-0.4","628261a08ec6e3682495f8d8","F1","batch6","","666","tol_tohand","","","","tol_peg_2","666","666","0","[[2,1,0],[0,0],[0]]","5","[[2,1,3],[0,0],[0]]","1","0","","","","","","5","","","","","","","","",""
"","","","","","single-stim-button","41","199855","0.0-2.0-13.4-1.4","628261a08ec6e3682495f8d8","F1","batch6","","709","tol_toboard","","","","tol_peg_1","709","709","0","[[2,1,3],[0,0],[0]]","5","[[2,1,3],[0,0],[0]]","1","0","","","","","","5","","","","","","","","",""
"","","","","","poldrack-single-stim","42","200860","0.0-2.0-14.0","628261a08ec6e3682495f8d8","F1","batch6","","-1","tol_feedback","","","true","","1000","1000","500","","","","","","-1","none","true","24248","27245","","","","","","","","","",""
"","","","","","html-button-response","43","202603","0.0-2.0-15.0","628261a08ec6e3682495f8d8","F1","batch6","","1742.6000001430511","tol_trial_num","<div class = centerbox><p class = center-block-text>problem <strong>3</strong> out of 25 problems</p></div>","0","","","","","","","","","","","","","","","","","","","","","","","","",""
"","","","","","single-stim-button","44","229066","0.0-2.0-16.0-0.0","628261a08ec6e3682495f8d8","F1","batch6","","26462","tol_tohand","","","","tol_peg_1","26462","26462","0","[[2,0,0],[0,0],[1]]","1","[[1,2,0],[3,0],[0]]","2","0","","","","","","4","","","","","","","","",""
"","","","","","single-stim-button","45","229924","0.0-2.0-16.0-1.0","628261a08ec6e3682495f8d8","F1","batch6","","857","tol_toboard","","","","tol_peg_2","857","857","0","[[2,0,0],[3,0],[1]]","1","[[1,2,0],[3,0],[0]]","2","0","","","","","","4","","","","","","","","",""
"","","","","","single-stim-button","46","236569","0.0-2.0-16.1-0.1","628261a08ec6e3682495f8d8","F1","batch6","","6643","tol_tohand","","","","tol_peg_1","6643","6643","0","[[0,0,0],[3,0],[1]]","2","[[1,2,0],[3,0],[0]]","2","0","","","","","","4","","","","","","","","",""
"","","","","","single-stim-button","47","237031","0.0-2.0-16.1-1.1","628261a08ec6e3682495f8d8","F1","batch6","","461","tol_toboard","","","","tol_peg_2","461","461","0","[[0,0,0],[3,2],[1]]","2","[[1,2,0],[3,0],[0]]","2","0","","","","","","4","","","","","","","","",""
"","","","","","single-stim-button","48","237468","0.0-2.0-16.2-0.2","628261a08ec6e3682495f8d8","F1","batch6","","437","tol_tohand","","","","tol_peg_3","437","437","0","[[0,0,0],[3,2],[0]]","3","[[1,2,0],[3,0],[0]]","2","0","","","","","","4","","","","","","","","",""
"","","","","","single-stim-button","49","238339","0.0-2.0-16.2-1.2","628261a08ec6e3682495f8d8","F1","batch6","","869","tol_toboard","","","","tol_peg_1","869","869","0","[[1,0,0],[3,2],[0]]","3","[[1,2,0],[3,0],[0]]","2","0","","","","","","4","","","","","","","","",""
"","","","","","single-stim-button","50","238958","0.0-2.0-16.3-0.3","628261a08ec6e3682495f8d8","F1","batch6","","619","tol_tohand","","","","tol_peg_2","619","619","0","[[1,0,0],[3,0],[0]]","4","[[1,2,0],[3,0],[0]]","2","0","","","","","","4","","","","","","","","",""
"","","","","","single-stim-button","51","239345","0.0-2.0-16.3-1.3","628261a08ec6e3682495f8d8","F1","batch6","","386","tol_toboard","","","","tol_peg_1","386","386","0","[[1,2,0],[3,0],[0]]","4","[[1,2,0],[3,0],[0]]","2","0","","","","","","4","","","","","","","","",""
"","","","","","poldrack-single-stim","52","240355","0.0-2.0-17.0","628261a08ec6e3682495f8d8","F1","batch6","","-1","tol_feedback","","","true","","1000","1000","500","","","","","","-1","none","true","26462","34161","","","","","","","","","",""
"","","","","","html-button-response","53","241089","0.0-2.0-18.0","628261a08ec6e3682495f8d8","F1","batch6","","732.7000000476837","tol_trial_num","<div class = centerbox><p class = center-block-text>problem <strong>4</strong> out of 25 problems</p></div>","0","","","","","","","","","","","","","","","","","","","","","","","","",""
"","","","","","single-stim-button","54","247384","0.0-2.0-19.0-0.0","628261a08ec6e3682495f8d8","F1","batch6","","6294","tol_tohand","","","","tol_peg_2","6294","6294","0","[[3,0,0],[2,0],[0]]","1","[[3,0,0],[1,0],[2]]","3","0","","","","","","3","","","","","","","","",""
"","","","","","single-stim-button","55","248028","0.0-2.0-19.0-1.0","628261a08ec6e3682495f8d8","F1","batch6","","643","tol_toboard","","","","tol_peg_1","643","643","0","[[3,1,0],[2,0],[0]]","1","[[3,0,0],[1,0],[2]]","3","0","","","","","","3","","","","","","","","",""
"","","","","","single-stim-button","56","248483","0.0-2.0-19.1-0.1","628261a08ec6e3682495f8d8","F1","batch6","","454","tol_tohand","","","","tol_peg_2","454","454","0","[[3,1,0],[0,0],[0]]","2","[[3,0,0],[1,0],[2]]","3","0","","","","","","3","","","","","","","","",""
"","","","","","single-stim-button","57","249101","0.0-2.0-19.1-1.1","628261a08ec6e3682495f8d8","F1","batch6","","616","tol_toboard","","","","tol_peg_3","616","616","0","[[3,1,0],[0,0],[2]]","2","[[3,0,0],[1,0],[2]]","3","0","","","","","","3","","","","","","","","",""
"","","","","","single-stim-button","58","249787","0.0-2.0-19.2-0.2","628261a08ec6e3682495f8d8","F1","batch6","","686","tol_tohand","","","","tol_peg_1","686","686","0","[[3,0,0],[0,0],[2]]","3","[[3,0,0],[1,0],[2]]","3","0","","","","","","3","","","","","","","","",""
"","","","","","single-stim-button","59","250374","0.0-2.0-19.2-1.2","628261a08ec6e3682495f8d8","F1","batch6","","586","tol_toboard","","","","tol_peg_2","586","586","0","[[3,0,0],[1,0],[2]]","3","[[3,0,0],[1,0],[2]]","3","0","","","","","","3","","","","","","","","",""
"","","","","","poldrack-single-stim","60","251383","0.0-2.0-20.0","628261a08ec6e3682495f8d8","F1","batch6","","-1","tol_feedback","","","true","","1000","1000","500","","","","","","-1","none","true","6294","7434","","","","","","","","","",""
"","","","","","html-button-response","61","252231","0.0-2.0-21.0","628261a08ec6e3682495f8d8","F1","batch6","","846.7000000476837","tol_trial_num","<div class = centerbox><p class = center-block-text>problem <strong>5</strong> out of 25 problems</p></div>","0","","","","","","","","","","","","","","","","","","","","","","","","",""
"","","","","","single-stim-button","62","257167","0.0-2.0-22.0-0.0","628261a08ec6e3682495f8d8","F1","batch6","","4936","tol_tohand","","","","tol_peg_2","4936","4936","0","[[1,0,0],[0,0],[3]]","1","[[0,0,0],[1,2],[3]]","4","0","","","","","","7","","","","","","","","",""
"","","","","","single-stim-button","63","278019","0.0-2.0-22.0-1.0","628261a08ec6e3682495f8d8","F1","batch6","","20851","tol_toboard","","","","tol_peg_2","20851","20851","0","[[1,0,0],[2,0],[3]]","1","[[0,0,0],[1,2],[3]]","4","0","","","","","","7","","","","","","","","",""
"","","","","","single-stim-button","64","349540","0.0-2.0-22.1-0.1","628261a08ec6e3682495f8d8","F1","batch6","","71520","tol_tohand","","","","tol_peg_3","71520","71520","0","[[1,0,0],[2,0],[0]]","2","[[0,0,0],[1,2],[3]]","4","0","","","","","","7","","","","","","","","",""
"","","","","","single-stim-button","65","350233","0.0-2.0-22.1-1.1","628261a08ec6e3682495f8d8","F1","batch6","","692","tol_toboard","","","","tol_peg_1","692","692","0","[[1,3,0],[2,0],[0]]","2","[[0,0,0],[1,2],[3]]","4","0","","","","","","7","","","","","","","","",""
"","","","","","single-stim-button","66","350834","0.0-2.0-22.2-0.2","628261a08ec6e3682495f8d8","F1","batch6","","599","tol_tohand","","","","tol_peg_2","599","599","0","[[1,3,0],[0,0],[0]]","3","[[0,0,0],[1,2],[3]]","4","0","","","","","","7","","","","","","","","",""
"","","","","","single-stim-button","67","351482","0.0-2.0-22.2-1.2","628261a08ec6e3682495f8d8","F1","batch6","","648","tol_toboard","","","","tol_peg_3","648","648","0","[[1,3,0],[0,0],[2]]","3","[[0,0,0],[1,2],[3]]","4","0","","","","","","7","","","","","","","","",""
"","","","","","single-stim-button","68","352155","0.0-2.0-22.3-0.3","628261a08ec6e3682495f8d8","F1","batch6","","672","tol_tohand","","","","tol_peg_1","672","672","0","[[1,0,0],[0,0],[2]]","4","[[0,0,0],[1,2],[3]]","4","0","","","","","","7","","","","","","","","",""
"","","","","","single-stim-button","69","352820","0.0-2.0-22.3-1.3","628261a08ec6e3682495f8d8","F1","batch6","","665","tol_toboard","","","","tol_peg_2","665","665","0","[[1,0,0],[3,0],[2]]","4","[[0,0,0],[1,2],[3]]","4","0","","","","","","7","","","","","","","","",""
"","","","","","single-stim-button","70","357838","0.0-2.0-22.4-0.4","628261a08ec6e3682495f8d8","F1","batch6","","5017","tol_tohand","","","","tol_peg_1","5017","5017","0","[[0,0,0],[3,0],[2]]","5","[[0,0,0],[1,2],[3]]","4","0","","","","","","7","","","","","","","","",""
"","","","","","single-stim-button","71","358422","0.0-2.0-22.4-1.4","628261a08ec6e3682495f8d8","F1","batch6","","583","tol_toboard","","","","tol_peg_2","583","583","0","[[0,0,0],[3,1],[2]]","5","[[0,0,0],[1,2],[3]]","4","0","","","","","","7","","","","","","","","",""
"","","","","","single-stim-button","72","359006","0.0-2.0-22.5-0.5","628261a08ec6e3682495f8d8","F1","batch6","","584","tol_tohand","","","","tol_peg_3","584","584","0","[[0,0,0],[3,1],[0]]","6","[[0,0,0],[1,2],[3]]","4","0","","","","","","7","","","","","","","","",""
"","","","","","single-stim-button","73","359746","0.0-2.0-22.5-1.5","628261a08ec6e3682495f8d8","F1","batch6","","739","tol_toboard","","","","tol_peg_1","739","739","0","[[2,0,0],[3,1],[0]]","6","[[0,0,0],[1,2],[3]]","4","0","","","","","","7","","","","","","","","",""
"","","","","","single-stim-button","74","360665","0.0-2.0-22.6-0.6","628261a08ec6e3682495f8d8","F1","batch6","","919","tol_tohand","","","","tol_peg_2","919","919","0","[[2,0,0],[3,0],[0]]","7","[[0,0,0],[1,2],[3]]","4","0","","","","","","7","","","","","","","","",""
"","","","","","single-stim-button","75","361328","0.0-2.0-22.6-1.6","628261a08ec6e3682495f8d8","F1","batch6","","662","tol_toboard","","","","tol_peg_3","662","662","0","[[2,0,0],[3,0],[1]]","7","[[0,0,0],[1,2],[3]]","4","0","","","","","","7","","","","","","","","",""
"","","","","","single-stim-button","76","362057","0.0-2.0-22.7-0.7","628261a08ec6e3682495f8d8","F1","batch6","","729","tol_tohand","","","","tol_peg_2","729","729","0","[[2,0,0],[0,0],[1]]","8","[[0,0,0],[1,2],[3]]","4","0","","","","","","7","","","","","","","","",""
"","","","","","single-stim-button","77","362718","0.0-2.0-22.7-1.7","628261a08ec6e3682495f8d8","F1","batch6","","660","tol_toboard","","","","tol_peg_1","660","660","0","[[2,3,0],[0,0],[1]]","8","[[0,0,0],[1,2],[3]]","4","0","","","","","","7","","","","","","","","",""
"","","","","","single-stim-button","78","363297","0.0-2.0-22.8-0.8","628261a08ec6e3682495f8d8","F1","batch6","","579","tol_tohand","","","","tol_peg_3","579","579","0","[[2,3,0],[0,0],[0]]","9","[[0,0,0],[1,2],[3]]","4","0","","","","","","7","","","","","","","","",""
"","","","","","single-stim-button","79","363972","0.0-2.0-22.8-1.8","628261a08ec6e3682495f8d8","F1","batch6","","675","tol_toboard","","","","tol_peg_2","675","675","0","[[2,3,0],[1,0],[0]]","9","[[0,0,0],[1,2],[3]]","4","0","","","","","","7","","","","","","","","",""
"","","","","","single-stim-button","80","364500","0.0-2.0-22.9-0.9","628261a08ec6e3682495f8d8","F1","batch6","","527","tol_tohand","","","","tol_peg_1","527","527","0","[[2,0,0],[1,0],[0]]","10","[[0,0,0],[1,2],[3]]","4","0","","","","","","7","","","","","","","","",""
"","","","","","single-stim-button","81","365025","0.0-2.0-22.9-1.9","628261a08ec6e3682495f8d8","F1","batch6","","524","tol_toboard","","","","tol_peg_3","524","524","0","[[2,0,0],[1,0],[3]]","10","[[0,0,0],[1,2],[3]]","4","0","","","","","","7","","","","","","","","",""
"","","","","","single-stim-button","82","365702","0.0-2.0-22.10-0.10","628261a08ec6e3682495f8d8","F1","batch6","","676","tol_tohand","","","","tol_peg_1","676","676","0","[[0,0,0],[1,0],[3]]","11","[[0,0,0],[1,2],[3]]","4","0","","","","","","7","","","","","","","","",""
"","","","","","single-stim-button","83","366108","0.0-2.0-22.10-1.10","628261a08ec6e3682495f8d8","F1","batch6","","406","tol_toboard","","","","tol_peg_2","406","406","0","[[0,0,0],[1,2],[3]]","11","[[0,0,0],[1,2],[3]]","4","0","","","","","","7","","","","","","","","",""
"","","","","","poldrack-single-stim","84","367112","0.0-2.0-23.0","628261a08ec6e3682495f8d8","F1","batch6","","-1","tol_feedback","","","true","","1000","1000","500","","","","","","-1","none","true","4936","86758","","","","","","","","","",""
"","","","","","html-button-response","85","368350","0.0-2.0-24.0","628261a08ec6e3682495f8d8","F1","batch6","","1236.5","tol_trial_num","<div class = centerbox><p class = center-block-text>problem <strong>6</strong> out of 25 problems</p></div>","0","","","","","","","","","","","","","","","","","","","","","","","","",""
"","","","","","single-stim-button","86","388574","0.0-2.0-25.0-0.0","628261a08ec6e3682495f8d8","F1","batch6","","20222","tol_tohand","","","","tol_peg_3","20222","20222","0","[[0,0,0],[1,2],[0]]","1","[[1,0,0],[2,3],[0]]","5","0","","","","","","6","","","","","","","","",""
"","","","","","single-stim-button","87","389327","0.0-2.0-25.0-1.0","628261a08ec6e3682495f8d8","F1","batch6","","752","tol_toboard","","","","tol_peg_1","752","752","0","[[3,0,0],[1,2],[0]]","1","[[1,0,0],[2,3],[0]]","5","0","","","","","","6","","","","","","","","",""
"","","","","","single-stim-button","88","390040","0.0-2.0-25.1-0.1","628261a08ec6e3682495f8d8","F1","batch6","","713","tol_tohand","","","","tol_peg_2","713","713","0","[[3,0,0],[1,0],[0]]","2","[[1,0,0],[2,3],[0]]","5","0","","","","","","6","","","","","","","","",""
"","","","","","single-stim-button","89","390843","0.0-2.0-25.1-1.1","628261a08ec6e3682495f8d8","F1","batch6","","801","tol_toboard","","","","tol_peg_3","801","801","0","[[3,0,0],[1,0],[2]]","2","[[1,0,0],[2,3],[0]]","5","0","","","","","","6","","","","","","","","",""
"","","","","","single-stim-button","90","391892","0.0-2.0-25.2-0.2","628261a08ec6e3682495f8d8","F1","batch6","","1049","tol_tohand","","","","tol_peg_2","1049","1049","0","[[3,0,0],[0,0],[2]]","3","[[1,0,0],[2,3],[0]]","5","0","","","","","","6","","","","","","","","",""
"","","","","","single-stim-button","91","392542","0.0-2.0-25.2-1.2","628261a08ec6e3682495f8d8","F1","batch6","","649","tol_toboard","","","","tol_peg_1","649","649","0","[[3,1,0],[0,0],[2]]","3","[[1,0,0],[2,3],[0]]","5","0","","","","","","6","","","","","","","","",""
"","","","","","single-stim-button","92","393190","0.0-2.0-25.3-0.3","628261a08ec6e3682495f8d8","F1","batch6","","647","tol_tohand","","","","tol_peg_3","647","647","0","[[3,1,0],[0,0],[0]]","4","[[1,0,0],[2,3],[0]]","5","0","","","","","","6","","","","","","","","",""
"","","","","","single-stim-button","93","393885","0.0-2.0-25.3-1.3","628261a08ec6e3682495f8d8","F1","batch6","","694","tol_toboard","","","","tol_peg_2","694","694","0","[[3,1,0],[2,0],[0]]","4","[[1,0,0],[2,3],[0]]","5","0","","","","","","6","","","","","","","","",""
"","","","","","single-stim-button","94","396294","0.0-2.0-25.4-0.4","628261a08ec6e3682495f8d8","F1","batch6","","2409","tol_tohand","","","","tol_peg_1","2409","2409","0","[[3,0,0],[2,0],[0]]","5","[[1,0,0],[2,3],[0]]","5","0","","","","","","6","","","","","","","","",""
"","","","","","single-stim-button","95","397128","0.0-2.0-25.4-1.4","628261a08ec6e3682495f8d8","F1","batch6","","833","tol_toboard","","","","tol_peg_3","833","833","0","[[3,0,0],[2,0],[1]]","5","[[1,0,0],[2,3],[0]]","5","0","","","","","","6","","","","","","","","",""
"","","","","","single-stim-button","96","397636","0.0-2.0-25.5-0.5","628261a08ec6e3682495f8d8","F1","batch6","","507","tol_tohand","","","","tol_peg_1","507","507","0","[[0,0,0],[2,0],[1]]","6","[[1,0,0],[2,3],[0]]","5","0","","","","","","6","","","","","","","","",""
"","","","","","single-stim-button","97","398070","0.0-2.0-25.5-1.5","628261a08ec6e3682495f8d8","F1","batch6","","433","tol_toboard","","","","tol_peg_2","433","433","0","[[0,0,0],[2,3],[1]]","6","[[1,0,0],[2,3],[0]]","5","0","","","","","","6","","","","","","","","",""
"","","","","","single-stim-button","98","398482","0.0-2.0-25.6-0.6","628261a08ec6e3682495f8d8","F1","batch6","","411","tol_tohand","","","","tol_peg_3","411","411","0","[[0,0,0],[2,3],[0]]","7","[[1,0,0],[2,3],[0]]","5","0","","","","","","6","","","","","","","","",""
"","","","","","single-stim-button","99","399102","0.0-2.0-25.6-1.6","628261a08ec6e3682495f8d8","F1","batch6","","620","tol_toboard","","","","tol_peg_1","620","620","0","[[1,0,0],[2,3],[0]]","7","[[1,0,0],[2,3],[0]]","5","0","","","","","","6","","","","","","","","",""
"","","","","","poldrack-single-stim","100","400110","0.0-2.0-26.0","628261a08ec6e3682495f8d8","F1","batch6","","-1","tol_feedback","","","true","","1000","1000","500","","","","","","-1","none","true","20222","25958","","","","","","","","","",""
"","","","","","html-button-response","101","401326","0.0-2.0-27.0","628261a08ec6e3682495f8d8","F1","batch6","","1215.5","tol_trial_num","<div class = centerbox><p class = center-block-text>problem <strong>7</strong> out of 25 problems</p></div>","0","","","","","","","","","","","","","","","","","","","","","","","","",""
"","","","","","single-stim-button","102","449851","0.0-2.0-28.0-0.0","628261a08ec6e3682495f8d8","F1","batch6","","48524","tol_tohand","","","","tol_peg_3","48524","48524","0","[[2,1,0],[0,0],[0]]","1","[[1,2,0],[3,0],[0]]","6","0","","","","","","5","","","","","","","","",""
"","","","","","single-stim-button","103","450435","0.0-2.0-28.0-1.0","628261a08ec6e3682495f8d8","F1","batch6","","583","tol_toboard","","","","tol_peg_2","583","583","0","[[2,1,0],[3,0],[0]]","1","[[1,2,0],[3,0],[0]]","6","0","","","","","","5","","","","","","","","",""
"","","","","","single-stim-button","104","451091","0.0-2.0-28.1-0.1","628261a08ec6e3682495f8d8","F1","batch6","","656","tol_tohand","","","","tol_peg_1","656","656","0","[[2,0,0],[3,0],[0]]","2","[[1,2,0],[3,0],[0]]","6","0","","","","","","5","","","","","","","","",""
"","","","","","single-stim-button","105","451613","0.0-2.0-28.1-1.1","628261a08ec6e3682495f8d8","F1","batch6","","521","tol_toboard","","","","tol_peg_3","521","521","0","[[2,0,0],[3,0],[1]]","2","[[1,2,0],[3,0],[0]]","6","0","","","","","","5","","","","","","","","",""
"","","","","","single-stim-button","106","452563","0.0-2.0-28.2-0.2","628261a08ec6e3682495f8d8","F1","batch6","","950","tol_tohand","","","","tol_peg_1","950","950","0","[[0,0,0],[3,0],[1]]","3","[[1,2,0],[3,0],[0]]","6","0","","","","","","5","","","","","","","","",""
"","","","","","single-stim-button","107","453231","0.0-2.0-28.2-1.2","628261a08ec6e3682495f8d8","F1","batch6","","668","tol_toboard","","","","tol_peg_2","668","668","0","[[0,0,0],[3,2],[1]]","3","[[1,2,0],[3,0],[0]]","6","0","","","","","","5","","","","","","","","",""
"","","","","","single-stim-button","108","453826","0.0-2.0-28.3-0.3","628261a08ec6e3682495f8d8","F1","batch6","","594","tol_tohand","","","","tol_peg_3","594","594","0","[[0,0,0],[3,2],[0]]","4","[[1,2,0],[3,0],[0]]","6","0","","","","","","5","","","","","","","","",""
"","","","","","single-stim-button","109","454612","0.0-2.0-28.3-1.3","628261a08ec6e3682495f8d8","F1","batch6","","785","tol_toboard","","","","tol_peg_1","785","785","0","[[1,0,0],[3,2],[0]]","4","[[1,2,0],[3,0],[0]]","6","0","","","","","","5","","","","","","","","",""
"","","","","","single-stim-button","110","456305","0.0-2.0-28.4-0.4","628261a08ec6e3682495f8d8","F1","batch6","","1693","tol_tohand","","","","tol_peg_2","1693","1693","0","[[1,0,0],[3,0],[0]]","5","[[1,2,0],[3,0],[0]]","6","0","","","","","","5","","","","","","","","",""
"","","","","","single-stim-button","111","456832","0.0-2.0-28.4-1.4","628261a08ec6e3682495f8d8","F1","batch6","","526","tol_toboard","","","","tol_peg_1","526","526","0","[[1,2,0],[3,0],[0]]","5","[[1,2,0],[3,0],[0]]","6","0","","","","","","5","","","","","","","","",""
"","","","","","poldrack-single-stim","112","457833","0.0-2.0-29.0","628261a08ec6e3682495f8d8","F1","batch6","","-1","tol_feedback","","","true","","1000","1000","500","","","","","","-1","none","true","48524","52417","","","","","","","","","",""
"","","","","","html-button-response","113","458582","0.0-2.0-30.0","628261a08ec6e3682495f8d8","F1","batch6","","748.7000000476837","tol_trial_num","<div class = centerbox><p class = center-block-text>problem <strong>8</strong> out of 25 problems</p></div>","0","","","","","","","","","","","","","","","","","","","","","","","","",""
"","","","","","single-stim-button","114","466579","0.0-2.0-31.0-0.0","628261a08ec6e3682495f8d8","F1","batch6","","7996","tol_tohand","","","","tol_peg_3","7996","7996","0","[[0,0,0],[2,3],[0]]","1","[[1,2,0],[3,0],[0]]","7","0","","","","","","4","","","","","","","","",""
"","","","","","single-stim-button","115","467225","0.0-2.0-31.0-1.0","628261a08ec6e3682495f8d8","F1","batch6","","645","tol_toboard","","","","tol_peg_1","645","645","0","[[1,0,0],[2,3],[0]]","1","[[1,2,0],[3,0],[0]]","7","0","","","","","","4","","","","","","","","",""
"","","","","","single-stim-button","116","467914","0.0-2.0-31.1-0.1","628261a08ec6e3682495f8d8","F1","batch6","","688","tol_tohand","","","","tol_peg_2","688","688","0","[[1,0,0],[2,0],[0]]","2","[[1,2,0],[3,0],[0]]","7","0","","","","","","4","","","","","","","","",""
"","","","","","single-stim-button","117","468521","0.0-2.0-31.1-1.1","628261a08ec6e3682495f8d8","F1","batch6","","607","tol_toboard","","","","tol_peg_3","607","607","0","[[1,0,0],[2,0],[3]]","2","[[1,2,0],[3,0],[0]]","7","0","","","","","","4","","","","","","","","",""
"","","","","","single-stim-button","118","469187","0.0-2.0-31.2-0.2","628261a08ec6e3682495f8d8","F1","batch6","","665","tol_tohand","","","","tol_peg_2","665","665","0","[[1,0,0],[0,0],[3]]","3","[[1,2,0],[3,0],[0]]","7","0","","","","","","4","","","","","","","","",""
"","","","","","single-stim-button","119","469633","0.0-2.0-31.2-1.2","628261a08ec6e3682495f8d8","F1","batch6","","445","tol_toboard","","","","tol_peg_1","445","445","0","[[1,2,0],[0,0],[3]]","3","[[1,2,0],[3,0],[0]]","7","0","","","","","","4","","","","","","","","",""
"","","","","","single-stim-button","120","470196","0.0-2.0-31.3-0.3","628261a08ec6e3682495f8d8","F1","batch6","","562","tol_tohand","","","","tol_peg_3","562","562","0","[[1,2,0],[0,0],[0]]","4","[[1,2,0],[3,0],[0]]","7","0","","","","","","4","","","","","","","","",""
"","","","","","single-stim-button","121","470735","0.0-2.0-31.3-1.3","628261a08ec6e3682495f8d8","F1","batch6","","539","tol_toboard","","","","tol_peg_2","539","539","0","[[1,2,0],[3,0],[0]]","4","[[1,2,0],[3,0],[0]]","7","0","","","","","","4","","","","","","","","",""
"","","","","","poldrack-single-stim","122","471736","0.0-2.0-32.0","628261a08ec6e3682495f8d8","F1","batch6","","-1","tol_feedback","","","true","","1000","1000","500","","","","","","-1","none","true","7996","9911","","","","","","","","","",""
"","","","","","html-button-response","123","472389","0.0-2.0-33.0","628261a08ec6e3682495f8d8","F1","batch6","","652.9000000953674","tol_trial_num","<div class = centerbox><p class = center-block-text>problem <strong>9</strong> out of 25 problems</p></div>","0","","","","","","","","","","","","","","","","","","","","","","","","",""
"","","","","","single-stim-button","124","477482","0.0-2.0-34.0-0.0","628261a08ec6e3682495f8d8","F1","batch6","","5091","tol_tohand","","","","tol_peg_3","5091","5091","0","[[3,2,0],[0,0],[0]]","1","[[2,1,0],[3,0],[0]]","8","0","","","","","","6","","","","","","","","",""
"","","","","","single-stim-button","125","477993","0.0-2.0-34.0-1.0","628261a08ec6e3682495f8d8","F1","batch6","","511","tol_toboard","","","","tol_peg_2","511","511","0","[[3,2,0],[1,0],[0]]","1","[[2,1,0],[3,0],[0]]","8","0","","","","","","6","","","","","","","","",""
"","","","","","single-stim-button","126","478433","0.0-2.0-34.1-0.1","628261a08ec6e3682495f8d8","F1","batch6","","440","tol_tohand","","","","tol_peg_1","440","440","0","[[3,0,0],[1,0],[0]]","2","[[2,1,0],[3,0],[0]]","8","0","","","","","","6","","","","","","","","",""
"","","","","","single-stim-button","127","478939","0.0-2.0-34.1-1.1","628261a08ec6e3682495f8d8","F1","batch6","","505","tol_toboard","","","","tol_peg_3","505","505","0","[[3,0,0],[1,0],[2]]","2","[[2,1,0],[3,0],[0]]","8","0","","","","","","6","","","","","","","","",""
"","","","","","single-stim-button","128","480170","0.0-2.0-34.2-0.2","628261a08ec6e3682495f8d8","F1","batch6","","1229","tol_tohand","","","","tol_peg_1","1229","1229","0","[[0,0,0],[1,0],[2]]","3","[[2,1,0],[3,0],[0]]","8","0","","","","","","6","","","","","","","","",""
"","","","","","single-stim-button","129","482673","0.0-2.0-34.2-1.2","628261a08ec6e3682495f8d8","F1","batch6","","2503","tol_toboard","","","","tol_peg_2","2503","2503","0","[[0,0,0],[1,3],[2]]","3","[[2,1,0],[3,0],[0]]","8","0","","","","","","6","","","","","","","","",""
"","","","","","single-stim-button","130","483176","0.0-2.0-34.3-0.3","628261a08ec6e3682495f8d8","F1","batch6","","502","tol_tohand","","","","tol_peg_3","502","502","0","[[0,0,0],[1,3],[0]]","4","[[2,1,0],[3,0],[0]]","8","0","","","","","","6","","","","","","","","",""
"","","","","","single-stim-button","131","483688","0.0-2.0-34.3-1.3","628261a08ec6e3682495f8d8","F1","batch6","","511","tol_toboard","","","","tol_peg_1","511","511","0","[[2,0,0],[1,3],[0]]","4","[[2,1,0],[3,0],[0]]","8","0","","","","","","6","","","","","","","","",""
"","","","","","single-stim-button","132","484140","0.0-2.0-34.4-0.4","628261a08ec6e3682495f8d8","F1","batch6","","451","tol_tohand","","","","tol_peg_2","451","451","0","[[2,0,0],[1,0],[0]]","5","[[2,1,0],[3,0],[0]]","8","0","","","","","","6","","","","","","","","",""
"","","","","","single-stim-button","133","484773","0.0-2.0-34.4-1.4","628261a08ec6e3682495f8d8","F1","batch6","","633","tol_toboard","","","","tol_peg_3","633","633","0","[[2,0,0],[1,0],[3]]","5","[[2,1,0],[3,0],[0]]","8","0","","","","","","6","","","","","","","","",""
"","","","","","single-stim-button","134","485231","0.0-2.0-34.5-0.5","628261a08ec6e3682495f8d8","F1","batch6","","457","tol_tohand","","","","tol_peg_2","457","457","0","[[2,0,0],[0,0],[3]]","6","[[2,1,0],[3,0],[0]]","8","0","","","","","","6","","","","","","","","",""
"","","","","","single-stim-button","135","485668","0.0-2.0-34.5-1.5","628261a08ec6e3682495f8d8","F1","batch6","","436","tol_toboard","","","","tol_peg_1","436","436","0","[[2,1,0],[0,0],[3]]","6","[[2,1,0],[3,0],[0]]","8","0","","","","","","6","","","","","","","","",""
"","","","","","single-stim-button","136","486122","0.0-2.0-34.6-0.6","628261a08ec6e3682495f8d8","F1","batch6","","453","tol_tohand","","","","tol_peg_3","453","453","0","[[2,1,0],[0,0],[0]]","7","[[2,1,0],[3,0],[0]]","8","0","","","","","","6","","","","","","","","",""
"","","","","","single-stim-button","137","486557","0.0-2.0-34.6-1.6","628261a08ec6e3682495f8d8","F1","batch6","","435","tol_toboard","","","","tol_peg_2","435","435","0","[[2,1,0],[3,0],[0]]","7","[[2,1,0],[3,0],[0]]","8","0","","","","","","6","","","","","","","","",""
"","","","","","poldrack-single-stim","138","487561","0.0-2.0-35.0","628261a08ec6e3682495f8d8","F1","batch6","","-1","tol_feedback","","","true","","1000","1000","500","","","","","","-1","none","true","5091","8623","","","","","","","","","",""
"","","","","","html-button-response","139","488645","0.0-2.0-36.0","628261a08ec6e3682495f8d8","F1","batch6","","1083.2000000476837","tol_trial_num","<div class = centerbox><p class = center-block-text>problem <strong>10</strong> out of 25 problems</p></div>","0","","","","","","","","","","","","","","","","","","","","","","","","",""
"","","","","","single-stim-button","140","494372","0.0-2.0-37.0-0.0","628261a08ec6e3682495f8d8","F1","batch6","","5725","tol_tohand","","","","tol_peg_2","5725","5725","0","[[3,0,0],[0,0],[2]]","1","[[3,0,0],[2,1],[0]]","9","0","","","","","","3","","","","","","","","",""
"","","","","","single-stim-button","141","494724","0.0-2.0-37.0-1.0","628261a08ec6e3682495f8d8","F1","batch6","","351","tol_toboard","","","","tol_peg_1","351","351","0","[[3,1,0],[0,0],[2]]","1","[[3,0,0],[2,1],[0]]","9","0","","","","","","3","","","","","","","","",""
"","","","","","single-stim-button","142","495234","0.0-2.0-37.1-0.1","628261a08ec6e3682495f8d8","F1","batch6","","509","tol_tohand","","","","tol_peg_3","509","509","0","[[3,1,0],[0,0],[0]]","2","[[3,0,0],[2,1],[0]]","9","0","","","","","","3","","","","","","","","",""
"","","","","","single-stim-button","143","495630","0.0-2.0-37.1-1.1","628261a08ec6e3682495f8d8","F1","batch6","","395","tol_toboard","","","","tol_peg_2","395","395","0","[[3,1,0],[2,0],[0]]","2","[[3,0,0],[2,1],[0]]","9","0","","","","","","3","","","","","","","","",""
"","","","","","single-stim-button","144","496199","0.0-2.0-37.2-0.2","628261a08ec6e3682495f8d8","F1","batch6","","569","tol_tohand","","","","tol_peg_1","569","569","0","[[3,0,0],[2,0],[0]]","3","[[3,0,0],[2,1],[0]]","9","0","","","","","","3","","","","","","","","",""
"","","","","","single-stim-button","145","496528","0.0-2.0-37.2-1.2","628261a08ec6e3682495f8d8","F1","batch6","","327","tol_toboard","","","","tol_peg_2","327","327","0","[[3,0,0],[2,1],[0]]","3","[[3,0,0],[2,1],[0]]","9","0","","","","","","3","","","","","","","","",""
"","","","","","poldrack-single-stim","146","497529","0.0-2.0-38.0","628261a08ec6e3682495f8d8","F1","batch6","","-1","tol_feedback","","","true","","1000","1000","500","","","","","","-1","none","true","5725","6803","","","","","","","","","",""
"","","","","","html-button-response","147","498047","0.0-2.0-39.0","628261a08ec6e3682495f8d8","F1","batch6","","516.9000000953674","tol_trial_num","<div class = centerbox><p class = center-block-text>problem <strong>11</strong> out of 25 problems</p></div>","0","","","","","","","","","","","","","","","","","","","","","","","","",""
"","","","","","single-stim-button","148","528364","0.0-2.0-40.0-0.0","628261a08ec6e3682495f8d8","F1","batch6","","30317","tol_tohand","","","","tol_peg_1","30317","30317","0","[[1,0,0],[3,0],[0]]","1","[[2,0,0],[1,3],[0]]","10","0","","","","","","6","","","","","","","","",""
"","","","","","single-stim-button","149","529070","0.0-2.0-40.0-1.0","628261a08ec6e3682495f8d8","F1","batch6","","705","tol_toboard","","","","tol_peg_2","705","705","0","[[1,0,0],[3,2],[0]]","1","[[2,0,0],[1,3],[0]]","10","0","","","","","","6","","","","","","","","",""
"","","","","","single-stim-button","150","529553","0.0-2.0-40.1-0.1","628261a08ec6e3682495f8d8","F1","batch6","","483","tol_tohand","","","","tol_peg_1","483","483","0","[[0,0,0],[3,2],[0]]","2","[[2,0,0],[1,3],[0]]","10","0","","","","","","6","","","","","","","","",""
"","","","","","single-stim-button","151","530182","0.0-2.0-40.1-1.1","628261a08ec6e3682495f8d8","F1","batch6","","629","tol_toboard","","","","tol_peg_3","629","629","0","[[0,0,0],[3,2],[1]]","2","[[2,0,0],[1,3],[0]]","10","0","","","","","","6","","","","","","","","",""
"","","","","","single-stim-button","152","531342","0.0-2.0-40.2-0.2","628261a08ec6e3682495f8d8","F1","batch6","","1160","tol_tohand","","","","tol_peg_2","1160","1160","0","[[0,0,0],[3,0],[1]]","3","[[2,0,0],[1,3],[0]]","10","0","","","","","","6","","","","","","","","",""
"","","","","","single-stim-button","153","532158","0.0-2.0-40.2-1.2","628261a08ec6e3682495f8d8","F1","batch6","","815","tol_toboard","","","","tol_peg_1","815","815","0","[[2,0,0],[3,0],[1]]","3","[[2,0,0],[1,3],[0]]","10","0","","","","","","6","","","","","","","","",""
"","","","","","single-stim-button","154","534236","0.0-2.0-40.3-0.3","628261a08ec6e3682495f8d8","F1","batch6","","2077","tol_tohand","","","","tol_peg_2","2077","2077","0","[[2,0,0],[0,0],[1]]","4","[[2,0,0],[1,3],[0]]","10","0","","","","","","6","","","","","","","","",""
"","","","","","single-stim-button","155","534838","0.0-2.0-40.3-1.3","628261a08ec6e3682495f8d8","F1","batch6","","601","tol_toboard","","","","tol_peg_1","601","601","0","[[2,3,0],[0,0],[1]]","4","[[2,0,0],[1,3],[0]]","10","0","","","","","","6","","","","","","","","",""
"","","","","","single-stim-button","156","535311","0.0-2.0-40.4-0.4","628261a08ec6e3682495f8d8","F1","batch6","","473","tol_tohand","","","","tol_peg_3","473","473","0","[[2,3,0],[0,0],[0]]","5","[[2,0,0],[1,3],[0]]","10","0","","","","","","6","","","","","","","","",""
"","","","","","single-stim-button","157","535722","0.0-2.0-40.4-1.4","628261a08ec6e3682495f8d8","F1","batch6","","410","tol_toboard","","","","tol_peg_2","410","410","0","[[2,3,0],[1,0],[0]]","5","[[2,0,0],[1,3],[0]]","10","0","","","","","","6","","","","","","","","",""
"","","","","","single-stim-button","158","536142","0.0-2.0-40.5-0.5","628261a08ec6e3682495f8d8","F1","batch6","","419","tol_tohand","","","","tol_peg_1","419","419","0","[[2,0,0],[1,0],[0]]","6","[[2,0,0],[1,3],[0]]","10","0","","","","","","6","","","","","","","","",""
"","","","","","single-stim-button","159","537066","0.0-2.0-40.5-1.5","628261a08ec6e3682495f8d8","F1","batch6","","923","tol_toboard","","","","tol_peg_2","923","923","0","[[2,0,0],[1,3],[0]]","6","[[2,0,0],[1,3],[0]]","10","0","","","","","","6","","","","","","","","",""
"","","","","","poldrack-single-stim","160","538075","0.0-2.0-41.0","628261a08ec6e3682495f8d8","F1","batch6","","-1","tol_feedback","","","true","","1000","1000","500","","","","","","-1","none","true","30317","34929","","","","","","","","","",""
"","","","","","html-button-response","161","539402","0.0-2.0-42.0","628261a08ec6e3682495f8d8","F1","batch6","","1324.7000000476837","tol_trial_num","<div class = centerbox><p class = center-block-text>problem <strong>12</strong> out of 25 problems</p></div>","0","","","","","","","","","","","","","","","","","","","","","","","","",""
"","","","","","single-stim-button","162","559333","0.0-2.0-43.0-0.0","628261a08ec6e3682495f8d8","F1","batch6","","19931","tol_tohand","","","","tol_peg_2","19931","19931","0","[[1,2,0],[0,0],[0]]","1","[[2,3,0],[0,0],[1]]","11","0","","","","","","4","","","","","","","","",""
"","","","","","single-stim-button","163","559838","0.0-2.0-43.0-1.0","628261a08ec6e3682495f8d8","F1","batch6","","503","tol_toboard","","","","tol_peg_3","503","503","0","[[1,2,0],[0,0],[3]]","1","[[2,3,0],[0,0],[1]]","11","0","","","","","","4","","","","","","","","",""
"","","","","","single-stim-button","164","560505","0.0-2.0-43.1-0.1","628261a08ec6e3682495f8d8","F1","batch6","","666","tol_tohand","","","","tol_peg_1","666","666","0","[[1,0,0],[0,0],[3]]","2","[[2,3,0],[0,0],[1]]","11","0","","","","","","4","","","","","","","","",""
"","","","","","single-stim-button","165","560858","0.0-2.0-43.1-1.1","628261a08ec6e3682495f8d8","F1","batch6","","353","tol_toboard","","","","tol_peg_2","353","353","0","[[1,0,0],[2,0],[3]]","2","[[2,3,0],[0,0],[1]]","11","0","","","","","","4","","","","","","","","",""
"","","","","","single-stim-button","166","561708","0.0-2.0-43.2-0.2","628261a08ec6e3682495f8d8","F1","batch6","","849","tol_tohand","","","","tol_peg_1","849","849","0","[[0,0,0],[2,0],[3]]","3","[[2,3,0],[0,0],[1]]","11","0","","","","","","4","","","","","","","","",""
"","","","","","single-stim-button","167","565143","0.0-2.0-43.2-1.2","628261a08ec6e3682495f8d8","F1","batch6","","3434","tol_toboard","","","","tol_peg_2","3434","3434","0","[[0,0,0],[2,1],[3]]","3","[[2,3,0],[0,0],[1]]","11","0","","","","","","4","","","","","","","","",""
"","","","","","single-stim-button","168","568549","0.0-2.0-43.3-0.3","628261a08ec6e3682495f8d8","F1","batch6","","3405","tol_tohand","","","","tol_peg_3","3405","3405","0","[[0,0,0],[2,1],[0]]","4","[[2,3,0],[0,0],[1]]","11","0","","","","","","4","","","","","","","","",""
"","","","","","single-stim-button","169","569301","0.0-2.0-43.3-1.3","628261a08ec6e3682495f8d8","F1","batch6","","751","tol_toboard","","","","tol_peg_1","751","751","0","[[3,0,0],[2,1],[0]]","4","[[2,3,0],[0,0],[1]]","11","0","","","","","","4","","","","","","","","",""
"","","","","","single-stim-button","170","569817","0.0-2.0-43.4-0.4","628261a08ec6e3682495f8d8","F1","batch6","","516","tol_tohand","","","","tol_peg_2","516","516","0","[[3,0,0],[2,0],[0]]","5","[[2,3,0],[0,0],[1]]","11","0","","","","","","4","","","","","","","","",""
"","","","","","single-stim-button","171","570398","0.0-2.0-43.4-1.4","628261a08ec6e3682495f8d8","F1","batch6","","580","tol_toboard","","","","tol_peg_3","580","580","0","[[3,0,0],[2,0],[1]]","5","[[2,3,0],[0,0],[1]]","11","0","","","","","","4","","","","","","","","",""
"","","","","","single-stim-button","172","579835","0.0-2.0-43.5-0.5","628261a08ec6e3682495f8d8","F1","batch6","","9436","tol_tohand","","","","tol_peg_1","9436","9436","0","[[0,0,0],[2,0],[1]]","6","[[2,3,0],[0,0],[1]]","11","0","","","","","","4","","","","","","","","",""
"","","","","","single-stim-button","173","580441","0.0-2.0-43.5-1.5","628261a08ec6e3682495f8d8","F1","batch6","","605","tol_toboard","","","","tol_peg_2","605","605","0","[[0,0,0],[2,3],[1]]","6","[[2,3,0],[0,0],[1]]","11","0","","","","","","4","","","","","","","","",""
"","","","","","single-stim-button","174","581575","0.0-2.0-43.6-0.6","628261a08ec6e3682495f8d8","F1","batch6","","1134","tol_tohand","","","","tol_peg_3","1134","1134","0","[[0,0,0],[2,3],[0]]","7","[[2,3,0],[0,0],[1]]","11","0","","","","","","4","","","","","","","","",""
"","","","","","single-stim-button","175","582273","0.0-2.0-43.6-1.6","628261a08ec6e3682495f8d8","F1","batch6","","698","tol_toboard","","","","tol_peg_1","698","698","0","[[1,0,0],[2,3],[0]]","7","[[2,3,0],[0,0],[1]]","11","0","","","","","","4","","","","","","","","",""
"","","","","","single-stim-button","176","582946","0.0-2.0-43.7-0.7","628261a08ec6e3682495f8d8","F1","batch6","","672","tol_tohand","","","","tol_peg_2","672","672","0","[[1,0,0],[2,0],[0]]","8","[[2,3,0],[0,0],[1]]","11","0","","","","","","4","","","","","","","","",""
"","","","","","single-stim-button","177","583543","0.0-2.0-43.7-1.7","628261a08ec6e3682495f8d8","F1","batch6","","597","tol_toboard","","","","tol_peg_3","597","597","0","[[1,0,0],[2,0],[3]]","8","[[2,3,0],[0,0],[1]]","11","0","","","","","","4","","","","","","","","",""
"","","","","","single-stim-button","178","608525","0.0-2.0-43.8-0.8","628261a08ec6e3682495f8d8","F1","batch6","","24980","tol_tohand","","","","tol_peg_2","24980","24980","0","[[1,0,0],[0,0],[3]]","9","[[2,3,0],[0,0],[1]]","11","0","","","","","","4","","","","","","","","",""
"","","","","","single-stim-button","179","610421","0.0-2.0-43.8-1.8","628261a08ec6e3682495f8d8","F1","batch6","","1896","tol_toboard","","","","tol_peg_1","1896","1896","0","[[1,2,0],[0,0],[3]]","9","[[2,3,0],[0,0],[1]]","11","0","","","","","","4","","","","","","","","",""
"","","","","","single-stim-button","180","614510","0.0-2.0-43.9-0.9","628261a08ec6e3682495f8d8","F1","batch6","","4088","tol_tohand","","","","tol_peg_3","4088","4088","0","[[1,2,0],[0,0],[0]]","10","[[2,3,0],[0,0],[1]]","11","0","","","","","","4","","","","","","","","",""
"","","","","","single-stim-button","181","615061","0.0-2.0-43.9-1.9","628261a08ec6e3682495f8d8","F1","batch6","","551","tol_toboard","","","","tol_peg_2","551","551","0","[[1,2,0],[3,0],[0]]","10","[[2,3,0],[0,0],[1]]","11","0","","","","","","4","","","","","","","","",""
"","","","","","single-stim-button","182","615600","0.0-2.0-43.10-0.10","628261a08ec6e3682495f8d8","F1","batch6","","539","tol_tohand","","","","tol_peg_1","539","539","0","[[1,0,0],[3,0],[0]]","11","[[2,3,0],[0,0],[1]]","11","0","","","","","","4","","","","","","","","",""
"","","","","","single-stim-button","183","616289","0.0-2.0-43.10-1.10","628261a08ec6e3682495f8d8","F1","batch6","","689","tol_toboard","","","","tol_peg_3","689","689","0","[[1,0,0],[3,0],[2]]","11","[[2,3,0],[0,0],[1]]","11","0","","","","","","4","","","","","","","","",""
"","","","","","single-stim-button","184","616931","0.0-2.0-43.11-0.11","628261a08ec6e3682495f8d8","F1","batch6","","642","tol_tohand","","","","tol_peg_1","642","642","0","[[0,0,0],[3,0],[2]]","12","[[2,3,0],[0,0],[1]]","11","0","","","","","","4","","","","","","","","",""
"","","","","","single-stim-button","185","617499","0.0-2.0-43.11-1.11","628261a08ec6e3682495f8d8","F1","batch6","","567","tol_toboard","","","","tol_peg_2","567","567","0","[[0,0,0],[3,1],[2]]","12","[[2,3,0],[0,0],[1]]","11","0","","","","","","4","","","","","","","","",""
"","","","","","single-stim-button","186","618067","0.0-2.0-43.12-0.12","628261a08ec6e3682495f8d8","F1","batch6","","568","tol_tohand","","","","tol_peg_3","568","568","0","[[0,0,0],[3,1],[0]]","13","[[2,3,0],[0,0],[1]]","11","0","","","","","","4","","","","","","","","",""
"","","","","","single-stim-button","187","618549","0.0-2.0-43.12-1.12","628261a08ec6e3682495f8d8","F1","batch6","","481","tol_toboard","","","","tol_peg_1","481","481","0","[[2,0,0],[3,1],[0]]","13","[[2,3,0],[0,0],[1]]","11","0","","","","","","4","","","","","","","","",""
"","","","","","single-stim-button","188","619051","0.0-2.0-43.13-0.13","628261a08ec6e3682495f8d8","F1","batch6","","502","tol_tohand","","","","tol_peg_2","502","502","0","[[2,0,0],[3,0],[0]]","14","[[2,3,0],[0,0],[1]]","11","0","","","","","","4","","","","","","","","",""
"","","","","","single-stim-button","189","619758","0.0-2.0-43.13-1.13","628261a08ec6e3682495f8d8","F1","batch6","","707","tol_toboard","","","","tol_peg_3","707","707","0","[[2,0,0],[3,0],[1]]","14","[[2,3,0],[0,0],[1]]","11","0","","","","","","4","","","","","","","","",""
"","","","","","single-stim-button","190","620271","0.0-2.0-43.14-0.14","628261a08ec6e3682495f8d8","F1","batch6","","513","tol_tohand","","","","tol_peg_2","513","513","0","[[2,0,0],[0,0],[1]]","15","[[2,3,0],[0,0],[1]]","11","0","","","","","","4","","","","","","","","",""
"","","","","","single-stim-button","191","620829","0.0-2.0-43.14-1.14","628261a08ec6e3682495f8d8","F1","batch6","","558","tol_toboard","","","","tol_peg_1","558","558","0","[[2,3,0],[0,0],[1]]","15","[[2,3,0],[0,0],[1]]","11","0","","","","","","4","","","","","","","","",""
"","","","","","poldrack-single-stim","192","621837","0.0-2.0-44.0","628261a08ec6e3682495f8d8","F1","batch6","","-1","tol_feedback","","","true","","1000","1000","500","","","","","","-1","none","true","19931","68441","","","","","","","","","",""
"","","","","","html-button-response","193","622820","0.0-2.0-45.0","628261a08ec6e3682495f8d8","F1","batch6","","982.5","tol_trial_num","<div class = centerbox><p class = center-block-text>problem <strong>13</strong> out of 25 problems</p></div>","0","","","","","","","","","","","","","","","","","","","","","","","","",""
"","","","","","single-stim-button","194","630267","0.0-2.0-46.0-0.0","628261a08ec6e3682495f8d8","F1","batch6","","7445","tol_tohand","","","","tol_peg_1","7445","7445","0","[[1,0,0],[3,0],[0]]","1","[[0,0,0],[2,3],[1]]","12","0","","","","","","4","","","","","","","","",""
"","","","","","single-stim-button","195","634097","0.0-2.0-46.0-1.0","628261a08ec6e3682495f8d8","F1","batch6","","3830","tol_toboard","","","","tol_peg_3","3830","3830","0","[[1,0,0],[3,0],[2]]","1","[[0,0,0],[2,3],[1]]","12","0","","","","","","4","","","","","","","","",""
"","","","","","single-stim-button","196","635779","0.0-2.0-46.1-0.1","628261a08ec6e3682495f8d8","F1","batch6","","1681","tol_tohand","","","","tol_peg_2","1681","1681","0","[[1,0,0],[0,0],[2]]","2","[[0,0,0],[2,3],[1]]","12","0","","","","","","4","","","","","","","","",""
"","","","","","single-stim-button","197","636282","0.0-2.0-46.1-1.1","628261a08ec6e3682495f8d8","F1","batch6","","503","tol_toboard","","","","tol_peg_1","503","503","0","[[1,3,0],[0,0],[2]]","2","[[0,0,0],[2,3],[1]]","12","0","","","","","","4","","","","","","","","",""
"","","","","","single-stim-button","198","636866","0.0-2.0-46.2-0.2","628261a08ec6e3682495f8d8","F1","batch6","","583","tol_tohand","","","","tol_peg_3","583","583","0","[[1,3,0],[0,0],[0]]","3","[[0,0,0],[2,3],[1]]","12","0","","","","","","4","","","","","","","","",""
"","","","","","single-stim-button","199","637371","0.0-2.0-46.2-1.2","628261a08ec6e3682495f8d8","F1","batch6","","504","tol_toboard","","","","tol_peg_2","504","504","0","[[1,3,0],[2,0],[0]]","3","[[0,0,0],[2,3],[1]]","12","0","","","","","","4","","","","","","","","",""
"","","","","","single-stim-button","200","639296","0.0-2.0-46.3-0.3","628261a08ec6e3682495f8d8","F1","batch6","","1925","tol_tohand","","","","tol_peg_1","1925","1925","0","[[1,0,0],[2,0],[0]]","4","[[0,0,0],[2,3],[1]]","12","0","","","","","","4","","","","","","","","",""
"","","","","","single-stim-button","201","639839","0.0-2.0-46.3-1.3","628261a08ec6e3682495f8d8","F1","batch6","","542","tol_toboard","","","","tol_peg_2","542","542","0","[[1,0,0],[2,3],[0]]","4","[[0,0,0],[2,3],[1]]","12","0","","","","","","4","","","","","","","","",""
"","","","","","single-stim-button","202","640444","0.0-2.0-46.4-0.4","628261a08ec6e3682495f8d8","F1","batch6","","605","tol_tohand","","","","tol_peg_1","605","605","0","[[0,0,0],[2,3],[0]]","5","[[0,0,0],[2,3],[1]]","12","0","","","","","","4","","","","","","","","",""
"","","","","","single-stim-button","203","641065","0.0-2.0-46.4-1.4","628261a08ec6e3682495f8d8","F1","batch6","","620","tol_toboard","","","","tol_peg_3","620","620","0","[[0,0,0],[2,3],[1]]","5","[[0,0,0],[2,3],[1]]","12","0","","","","","","4","","","","","","","","",""
"","","","","","poldrack-single-stim","204","642069","0.0-2.0-47.0","628261a08ec6e3682495f8d8","F1","batch6","","-1","tol_feedback","","","true","","1000","1000","500","","","","","","-1","none","true","7445","12239","","","","","","","","","",""
"","","","","","html-button-response","205","646489","0.0-2.0-48.0","628261a08ec6e3682495f8d8","F1","batch6","","4418.5","attention_check","<p class = block-text>How many balls are in your board<br></p>","1","true","","","","","","","","","","","","","","","","","","","","","","","",""
"","","","","","html-button-response","206","648097","0.0-2.0-49.0","628261a08ec6e3682495f8d8","F1","batch6","","1606.8999998569489","tol_trial_num","<div class = centerbox><p class = center-block-text>problem <strong>14</strong> out of 25 problems</p></div>","0","","","","","","","","","","","","","","","","","","","","","","","","",""
"","","","","","single-stim-button","207","655689","0.0-2.0-50.0-0.0","628261a08ec6e3682495f8d8","F1","batch6","","7592","tol_tohand","","","","tol_peg_1","7592","7592","0","[[2,0,0],[3,0],[0]]","1","[[1,2,0],[3,0],[0]]","13","0","","","","","","4","","","","","","","","",""
"","","","","","single-stim-button","208","656604","0.0-2.0-50.0-1.0","628261a08ec6e3682495f8d8","F1","batch6","","913","tol_toboard","","","","tol_peg_3","913","913","0","[[2,0,0],[3,0],[1]]","1","[[1,2,0],[3,0],[0]]","13","0","","","","","","4","","","","","","","","",""
"","","","","","single-stim-button","209","657131","0.0-2.0-50.1-0.1","628261a08ec6e3682495f8d8","F1","batch6","","527","tol_tohand","","","","tol_peg_1","527","527","0","[[0,0,0],[3,0],[1]]","2","[[1,2,0],[3,0],[0]]","13","0","","","","","","4","","","","","","","","",""
"","","","","","single-stim-button","210","657499","0.0-2.0-50.1-1.1","628261a08ec6e3682495f8d8","F1","batch6","","368","tol_toboard","","","","tol_peg_2","368","368","0","[[0,0,0],[3,2],[1]]","2","[[1,2,0],[3,0],[0]]","13","0","","","","","","4","","","","","","","","",""
"","","","","","single-stim-button","211","657921","0.0-2.0-50.2-0.2","628261a08ec6e3682495f8d8","F1","batch6","","420","tol_tohand","","","","tol_peg_3","420","420","0","[[0,0,0],[3,2],[0]]","3","[[1,2,0],[3,0],[0]]","13","0","","","","","","4","","","","","","","","",""
"","","","","","single-stim-button","212","658611","0.0-2.0-50.2-1.2","628261a08ec6e3682495f8d8","F1","batch6","","689","tol_toboard","","","","tol_peg_1","689","689","0","[[1,0,0],[3,2],[0]]","3","[[1,2,0],[3,0],[0]]","13","0","","","","","","4","","","","","","","","",""
"","","","","","single-stim-button","213","659035","0.0-2.0-50.3-0.3","628261a08ec6e3682495f8d8","F1","batch6","","423","tol_tohand","","","","tol_peg_2","423","423","0","[[1,0,0],[3,0],[0]]","4","[[1,2,0],[3,0],[0]]","13","0","","","","","","4","","","","","","","","",""
"","","","","","single-stim-button","214","659454","0.0-2.0-50.3-1.3","628261a08ec6e3682495f8d8","F1","batch6","","418","tol_toboard","","","","tol_peg_1","418","418","0","[[1,2,0],[3,0],[0]]","4","[[1,2,0],[3,0],[0]]","13","0","","","","","","4","","","","","","","","",""
"","","","","","poldrack-single-stim","215","660455","0.0-2.0-51.0","628261a08ec6e3682495f8d8","F1","batch6","","-1","tol_feedback","","","true","","1000","1000","500","","","","","","-1","none","true","7592","8962","","","","","","","","","",""
"","","","","","html-button-response","216","661153","0.0-2.0-52.0","628261a08ec6e3682495f8d8","F1","batch6","","696.9000000953674","tol_trial_num","<div class = centerbox><p class = center-block-text>problem <strong>15</strong> out of 25 problems</p></div>","0","","","","","","","","","","","","","","","","","","","","","","","","",""
"","","","","","single-stim-button","217","666646","0.0-2.0-53.0-0.0","628261a08ec6e3682495f8d8","F1","batch6","","5493","tol_tohand","","","","tol_peg_1","5493","5493","0","[[1,0,0],[3,0],[0]]","1","[[2,0,0],[3,0],[1]]","14","0","","","","","","3","","","","","","","","",""
"","","","","","single-stim-button","218","667032","0.0-2.0-53.0-1.0","628261a08ec6e3682495f8d8","F1","batch6","","385","tol_toboard","","","","tol_peg_2","385","385","0","[[1,0,0],[3,2],[0]]","1","[[2,0,0],[3,0],[1]]","14","0","","","","","","3","","","","","","","","",""
"","","","","","single-stim-button","219","667539","0.0-2.0-53.1-0.1","628261a08ec6e3682495f8d8","F1","batch6","","507","tol_tohand","","","","tol_peg_1","507","507","0","[[0,0,0],[3,2],[0]]","2","[[2,0,0],[3,0],[1]]","14","0","","","","","","3","","","","","","","","",""
"","","","","","single-stim-button","220","668319","0.0-2.0-53.1-1.1","628261a08ec6e3682495f8d8","F1","batch6","","779","tol_toboard","","","","tol_peg_3","779","779","0","[[0,0,0],[3,2],[1]]","2","[[2,0,0],[3,0],[1]]","14","0","","","","","","3","","","","","","","","",""
"","","","","","single-stim-button","221","669012","0.0-2.0-53.2-0.2","628261a08ec6e3682495f8d8","F1","batch6","","692","tol_tohand","","","","tol_peg_2","692","692","0","[[0,0,0],[3,0],[1]]","3","[[2,0,0],[3,0],[1]]","14","0","","","","","","3","","","","","","","","",""
"","","","","","single-stim-button","222","669570","0.0-2.0-53.2-1.2","628261a08ec6e3682495f8d8","F1","batch6","","557","tol_toboard","","","","tol_peg_1","557","557","0","[[2,0,0],[3,0],[1]]","3","[[2,0,0],[3,0],[1]]","14","0","","","","","","3","","","","","","","","",""
"","","","","","poldrack-single-stim","223","670579","0.0-2.0-54.0","628261a08ec6e3682495f8d8","F1","batch6","","-1","tol_feedback","","","true","","1000","1000","500","","","","","","-1","none","true","5493","6692","","","","","","","","","",""
"","","","","","html-button-response","224","671893","0.0-2.0-55.0","628261a08ec6e3682495f8d8","F1","batch6","","1312.5999999046326","tol_trial_num","<div class = centerbox><p class = center-block-text>problem <strong>16</strong> out of 25 problems</p></div>","0","","","","","","","","","","","","","","","","","","","","","","","","",""
"","","","","","single-stim-button","225","685132","0.0-2.0-56.0-0.0","628261a08ec6e3682495f8d8","F1","batch6","","13237","tol_tohand","","","","tol_peg_2","13237","13237","0","[[0,0,0],[2,0],[1]]","1","[[2,3,0],[1,0],[0]]","15","0","","","","","","7","","","","","","","","",""
"","","","","","single-stim-button","226","685718","0.0-2.0-56.0-1.0","628261a08ec6e3682495f8d8","F1","batch6","","586","tol_toboard","","","","tol_peg_1","586","586","0","[[3,0,0],[2,0],[1]]","1","[[2,3,0],[1,0],[0]]","15","0","","","","","","7","","","","","","","","",""
"","","","","","single-stim-button","227","686246","0.0-2.0-56.1-0.1","628261a08ec6e3682495f8d8","F1","batch6","","527","tol_tohand","","","","tol_peg_3","527","527","0","[[3,0,0],[2,0],[0]]","2","[[2,3,0],[1,0],[0]]","15","0","","","","","","7","","","","","","","","",""
"","","","","","single-stim-button","228","686708","0.0-2.0-56.1-1.1","628261a08ec6e3682495f8d8","F1","batch6","","461","tol_toboard","","","","tol_peg_2","461","461","0","[[3,0,0],[2,1],[0]]","2","[[2,3,0],[1,0],[0]]","15","0","","","","","","7","","","","","","","","",""
"","","","","","single-stim-button","229","691277","0.0-2.0-56.2-0.2","628261a08ec6e3682495f8d8","F1","batch6","","4569","tol_tohand","","","","tol_peg_1","4569","4569","0","[[0,0,0],[2,1],[0]]","3","[[2,3,0],[1,0],[0]]","15","0","","","","","","7","","","","","","","","",""
"","","","","","single-stim-button","230","692065","0.0-2.0-56.2-1.2","628261a08ec6e3682495f8d8","F1","batch6","","787","tol_toboard","","","","tol_peg_3","787","787","0","[[0,0,0],[2,1],[3]]","3","[[2,3,0],[1,0],[0]]","15","0","","","","","","7","","","","","","","","",""
"","","","","","single-stim-button","231","694524","0.0-2.0-56.3-0.3","628261a08ec6e3682495f8d8","F1","batch6","","2459","tol_tohand","","","","tol_peg_2","2459","2459","0","[[0,0,0],[2,0],[3]]","4","[[2,3,0],[1,0],[0]]","15","0","","","","","","7","","","","","","","","",""
"","","","","","single-stim-button","232","695231","0.0-2.0-56.3-1.3","628261a08ec6e3682495f8d8","F1","batch6","","705","tol_toboard","","","","tol_peg_1","705","705","0","[[1,0,0],[2,0],[3]]","4","[[2,3,0],[1,0],[0]]","15","0","","","","","","7","","","","","","","","",""
"","","","","","single-stim-button","233","695733","0.0-2.0-56.4-0.4","628261a08ec6e3682495f8d8","F1","batch6","","502","tol_tohand","","","","tol_peg_2","502","502","0","[[1,0,0],[0,0],[3]]","5","[[2,3,0],[1,0],[0]]","15","0","","","","","","7","","","","","","","","",""
"","","","","","single-stim-button","234","696190","0.0-2.0-56.4-1.4","628261a08ec6e3682495f8d8","F1","batch6","","456","tol_toboard","","","","tol_peg_1","456","456","0","[[1,2,0],[0,0],[3]]","5","[[2,3,0],[1,0],[0]]","15","0","","","","","","7","","","","","","","","",""
"","","","","","single-stim-button","235","696678","0.0-2.0-56.5-0.5","628261a08ec6e3682495f8d8","F1","batch6","","488","tol_tohand","","","","tol_peg_3","488","488","0","[[1,2,0],[0,0],[0]]","6","[[2,3,0],[1,0],[0]]","15","0","","","","","","7","","","","","","","","",""
"","","","","","single-stim-button","236","697340","0.0-2.0-56.5-1.5","628261a08ec6e3682495f8d8","F1","batch6","","661","tol_toboard","","","","tol_peg_2","661","661","0","[[1,2,0],[3,0],[0]]","6","[[2,3,0],[1,0],[0]]","15","0","","","","","","7","","","","","","","","",""
"","","","","","single-stim-button","237","701692","0.0-2.0-56.6-0.6","628261a08ec6e3682495f8d8","F1","batch6","","4352","tol_tohand","","","","tol_peg_1","4352","4352","0","[[1,0,0],[3,0],[0]]","7","[[2,3,0],[1,0],[0]]","15","0","","","","","","7","","","","","","","","",""
"","","","","","single-stim-button","238","702359","0.0-2.0-56.6-1.6","628261a08ec6e3682495f8d8","F1","batch6","","667","tol_toboard","","","","tol_peg_2","667","667","0","[[1,0,0],[3,2],[0]]","7","[[2,3,0],[1,0],[0]]","15","0","","","","","","7","","","","","","","","",""
"","","","","","single-stim-button","239","702912","0.0-2.0-56.7-0.7","628261a08ec6e3682495f8d8","F1","batch6","","553","tol_tohand","","","","tol_peg_1","553","553","0","[[0,0,0],[3,2],[0]]","8","[[2,3,0],[1,0],[0]]","15","0","","","","","","7","","","","","","","","",""
"","","","","","single-stim-button","240","703628","0.0-2.0-56.7-1.7","628261a08ec6e3682495f8d8","F1","batch6","","715","tol_toboard","","","","tol_peg_3","715","715","0","[[0,0,0],[3,2],[1]]","8","[[2,3,0],[1,0],[0]]","15","0","","","","","","7","","","","","","","","",""
"","","","","","single-stim-button","241","704110","0.0-2.0-56.8-0.8","628261a08ec6e3682495f8d8","F1","batch6","","481","tol_tohand","","","","tol_peg_2","481","481","0","[[0,0,0],[3,0],[1]]","9","[[2,3,0],[1,0],[0]]","15","0","","","","","","7","","","","","","","","",""
"","","","","","single-stim-button","242","705070","0.0-2.0-56.8-1.8","628261a08ec6e3682495f8d8","F1","batch6","","960","tol_toboard","","","","tol_peg_1","960","960","0","[[2,0,0],[3,0],[1]]","9","[[2,3,0],[1,0],[0]]","15","0","","","","","","7","","","","","","","","",""
"","","","","","single-stim-button","243","705590","0.0-2.0-56.9-0.9","628261a08ec6e3682495f8d8","F1","batch6","","519","tol_tohand","","","","tol_peg_2","519","519","0","[[2,0,0],[0,0],[1]]","10","[[2,3,0],[1,0],[0]]","15","0","","","","","","7","","","","","","","","",""
"","","","","","single-stim-button","244","706120","0.0-2.0-56.9-1.9","628261a08ec6e3682495f8d8","F1","batch6","","530","tol_toboard","","","","tol_peg_1","530","530","0","[[2,3,0],[0,0],[1]]","10","[[2,3,0],[1,0],[0]]","15","0","","","","","","7","","","","","","","","",""
"","","","","","single-stim-button","245","706712","0.0-2.0-56.10-0.10","628261a08ec6e3682495f8d8","F1","batch6","","592","tol_tohand","","","","tol_peg_3","592","592","0","[[2,3,0],[0,0],[0]]","11","[[2,3,0],[1,0],[0]]","15","0","","","","","","7","","","","","","","","",""
"","","","","","single-stim-button","246","707274","0.0-2.0-56.10-1.10","628261a08ec6e3682495f8d8","F1","batch6","","561","tol_toboard","","","","tol_peg_2","561","561","0","[[2,3,0],[1,0],[0]]","11","[[2,3,0],[1,0],[0]]","15","0","","","","","","7","","","","","","","","",""
"","","","","","poldrack-single-stim","247","708289","0.0-2.0-57.0","628261a08ec6e3682495f8d8","F1","batch6","","-1","tol_feedback","","","true","","1000","1000","500","","","","","","-1","none","true","13237","28279","","","","","","","","","",""
"","","","","","html-button-response","248","708848","0.0-2.0-58.0","628261a08ec6e3682495f8d8","F1","batch6","","558","tol_trial_num","<div class = centerbox><p class = center-block-text>problem <strong>17</strong> out of 25 problems</p></div>","0","","","","","","","","","","","","","","","","","","","","","","","","",""
"","","","","","single-stim-button","249","731669","0.0-2.0-59.0-0.0","628261a08ec6e3682495f8d8","F1","batch6","","22819","tol_tohand","","","","tol_peg_1","22819","22819","0","[[1,0,0],[3,0],[0]]","1","[[3,1,0],[2,0],[0]]","16","0","","","","","","5","","","","","","","","",""
"","","","","","single-stim-button","250","743532","0.0-2.0-59.0-1.0","628261a08ec6e3682495f8d8","F1","batch6","","11862","tol_toboard","","","","tol_peg_2","11862","11862","0","[[1,0,0],[3,2],[0]]","1","[[3,1,0],[2,0],[0]]","16","0","","","","","","5","","","","","","","","",""
"","","","","","single-stim-button","251","744742","0.0-2.0-59.1-0.1","628261a08ec6e3682495f8d8","F1","batch6","","1209","tol_tohand","","","","tol_peg_1","1209","1209","0","[[0,0,0],[3,2],[0]]","2","[[3,1,0],[2,0],[0]]","16","0","","","","","","5","","","","","","","","",""
"","","","","","single-stim-button","252","745293","0.0-2.0-59.1-1.1","628261a08ec6e3682495f8d8","F1","batch6","","551","tol_toboard","","","","tol_peg_3","551","551","0","[[0,0,0],[3,2],[1]]","2","[[3,1,0],[2,0],[0]]","16","0","","","","","","5","","","","","","","","",""
"","","","","","single-stim-button","253","752159","0.0-2.0-59.2-0.2","628261a08ec6e3682495f8d8","F1","batch6","","6866","tol_tohand","","","","tol_peg_2","6866","6866","0","[[0,0,0],[3,0],[1]]","3","[[3,1,0],[2,0],[0]]","16","0","","","","","","5","","","","","","","","",""
"","","","","","single-stim-button","254","752752","0.0-2.0-59.2-1.2","628261a08ec6e3682495f8d8","F1","batch6","","592","tol_toboard","","","","tol_peg_1","592","592","0","[[2,0,0],[3,0],[1]]","3","[[3,1,0],[2,0],[0]]","16","0","","","","","","5","","","","","","","","",""
"","","","","","single-stim-button","255","753376","0.0-2.0-59.3-0.3","628261a08ec6e3682495f8d8","F1","batch6","","624","tol_tohand","","","","tol_peg_3","624","624","0","[[2,0,0],[3,0],[0]]","4","[[3,1,0],[2,0],[0]]","16","0","","","","","","5","","","","","","","","",""
"","","","","","single-stim-button","256","753992","0.0-2.0-59.3-1.3","628261a08ec6e3682495f8d8","F1","batch6","","616","tol_toboard","","","","tol_peg_2","616","616","0","[[2,0,0],[3,1],[0]]","4","[[3,1,0],[2,0],[0]]","16","0","","","","","","5","","","","","","","","",""
"","","","","","single-stim-button","257","754826","0.0-2.0-59.4-0.4","628261a08ec6e3682495f8d8","F1","batch6","","833","tol_tohand","","","","tol_peg_1","833","833","0","[[0,0,0],[3,1],[0]]","5","[[3,1,0],[2,0],[0]]","16","0","","","","","","5","","","","","","","","",""
"","","","","","single-stim-button","258","755448","0.0-2.0-59.4-1.4","628261a08ec6e3682495f8d8","F1","batch6","","622","tol_toboard","","","","tol_peg_3","622","622","0","[[0,0,0],[3,1],[2]]","5","[[3,1,0],[2,0],[0]]","16","0","","","","","","5","","","","","","","","",""
"","","","","","single-stim-button","259","756199","0.0-2.0-59.5-0.5","628261a08ec6e3682495f8d8","F1","batch6","","749","tol_tohand","","","","tol_peg_2","749","749","0","[[0,0,0],[3,0],[2]]","6","[[3,1,0],[2,0],[0]]","16","0","","","","","","5","","","","","","","","",""
"","","","","","single-stim-button","260","756946","0.0-2.0-59.5-1.5","628261a08ec6e3682495f8d8","F1","batch6","","747","tol_toboard","","","","tol_peg_1","747","747","0","[[1,0,0],[3,0],[2]]","6","[[3,1,0],[2,0],[0]]","16","0","","","","","","5","","","","","","","","",""
"","","","","","single-stim-button","261","758892","0.0-2.0-59.6-0.6","628261a08ec6e3682495f8d8","F1","batch6","","1945","tol_tohand","","","","tol_peg_3","1945","1945","0","[[1,0,0],[3,0],[0]]","7","[[3,1,0],[2,0],[0]]","16","0","","","","","","5","","","","","","","","",""
"","","","","","single-stim-button","262","759528","0.0-2.0-59.6-1.6","628261a08ec6e3682495f8d8","F1","batch6","","635","tol_toboard","","","","tol_peg_1","635","635","0","[[1,2,0],[3,0],[0]]","7","[[3,1,0],[2,0],[0]]","16","0","","","","","","5","","","","","","","","",""
"","","","","","single-stim-button","263","760100","0.0-2.0-59.7-0.7","628261a08ec6e3682495f8d8","F1","batch6","","572","tol_tohand","","","","tol_peg_2","572","572","0","[[1,2,0],[0,0],[0]]","8","[[3,1,0],[2,0],[0]]","16","0","","","","","","5","","","","","","","","",""
"","","","","","single-stim-button","264","760690","0.0-2.0-59.7-1.7","628261a08ec6e3682495f8d8","F1","batch6","","589","tol_toboard","","","","tol_peg_3","589","589","0","[[1,2,0],[0,0],[3]]","8","[[3,1,0],[2,0],[0]]","16","0","","","","","","5","","","","","","","","",""
"","","","","","single-stim-button","265","762282","0.0-2.0-59.8-0.8","628261a08ec6e3682495f8d8","F1","batch6","","1591","tol_tohand","","","","tol_peg_1","1591","1591","0","[[1,0,0],[0,0],[3]]","9","[[3,1,0],[2,0],[0]]","16","0","","","","","","5","","","","","","","","",""
"","","","","","single-stim-button","266","763598","0.0-2.0-59.8-1.8","628261a08ec6e3682495f8d8","F1","batch6","","1315","tol_toboard","","","","tol_peg_2","1315","1315","0","[[1,0,0],[2,0],[3]]","9","[[3,1,0],[2,0],[0]]","16","0","","","","","","5","","","","","","","","",""
"","","","","","single-stim-button","267","764570","0.0-2.0-59.9-0.9","628261a08ec6e3682495f8d8","F1","batch6","","971","tol_tohand","","","","tol_peg_1","971","971","0","[[0,0,0],[2,0],[3]]","10","[[3,1,0],[2,0],[0]]","16","0","","","","","","5","","","","","","","","",""
"","","","","","single-stim-button","268","765358","0.0-2.0-59.9-1.9","628261a08ec6e3682495f8d8","F1","batch6","","788","tol_toboard","","","","tol_peg_2","788","788","0","[[0,0,0],[2,1],[3]]","10","[[3,1,0],[2,0],[0]]","16","0","","","","","","5","","","","","","","","",""
"","","","","","single-stim-button","269","765882","0.0-2.0-59.10-0.10","628261a08ec6e3682495f8d8","F1","batch6","","524","tol_tohand","","","","tol_peg_3","524","524","0","[[0,0,0],[2,1],[0]]","11","[[3,1,0],[2,0],[0]]","16","0","","","","","","5","","","","","","","","",""
"","","","","","single-stim-button","270","766622","0.0-2.0-59.10-1.10","628261a08ec6e3682495f8d8","F1","batch6","","740","tol_toboard","","","","tol_peg_1","740","740","0","[[3,0,0],[2,1],[0]]","11","[[3,1,0],[2,0],[0]]","16","0","","","","","","5","","","","","","","","",""
"","","","","","single-stim-button","271","767409","0.0-2.0-59.11-0.11","628261a08ec6e3682495f8d8","F1","batch6","","786","tol_tohand","","","","tol_peg_2","786","786","0","[[3,0,0],[2,0],[0]]","12","[[3,1,0],[2,0],[0]]","16","0","","","","","","5","","","","","","","","",""
"","","","","","single-stim-button","272","768033","0.0-2.0-59.11-1.11","628261a08ec6e3682495f8d8","F1","batch6","","623","tol_toboard","","","","tol_peg_1","623","623","0","[[3,1,0],[2,0],[0]]","12","[[3,1,0],[2,0],[0]]","16","0","","","","","","5","","","","","","","","",""
"","","","","","poldrack-single-stim","273","769042","0.0-2.0-60.0","628261a08ec6e3682495f8d8","F1","batch6","","-1","tol_feedback","","","true","","1000","1000","500","","","","","","-1","none","true","22819","39489","","","","","","","","","",""
"","","","","","html-button-response","274","769810","0.0-2.0-61.0","628261a08ec6e3682495f8d8","F1","batch6","","766.4000000953674","tol_trial_num","<div class = centerbox><p class = center-block-text>problem <strong>18</strong> out of 25 problems</p></div>","0","","","","","","","","","","","","","","","","","","","","","","","","",""
"","","","","","single-stim-button","275","782924","0.0-2.0-62.0-0.0","628261a08ec6e3682495f8d8","F1","batch6","","13113","tol_tohand","","","","tol_peg_1","13113","13113","0","[[1,0,0],[3,0],[0]]","1","[[3,0,0],[2,0],[1]]","17","0","","","","","","5","","","","","","","","",""
"","","","","","single-stim-button","276","783728","0.0-2.0-62.0-1.0","628261a08ec6e3682495f8d8","F1","batch6","","803","tol_toboard","","","","tol_peg_2","803","803","0","[[1,0,0],[3,2],[0]]","1","[[3,0,0],[2,0],[1]]","17","0","","","","","","5","","","","","","","","",""
"","","","","","single-stim-button","277","784228","0.0-2.0-62.1-0.1","628261a08ec6e3682495f8d8","F1","batch6","","499","tol_tohand","","","","tol_peg_1","499","499","0","[[0,0,0],[3,2],[0]]","2","[[3,0,0],[2,0],[1]]","17","0","","","","","","5","","","","","","","","",""
"","","","","","single-stim-button","278","784837","0.0-2.0-62.1-1.1","628261a08ec6e3682495f8d8","F1","batch6","","608","tol_toboard","","","","tol_peg_3","608","608","0","[[0,0,0],[3,2],[1]]","2","[[3,0,0],[2,0],[1]]","17","0","","","","","","5","","","","","","","","",""
"","","","","","single-stim-button","279","786573","0.0-2.0-62.2-0.2","628261a08ec6e3682495f8d8","F1","batch6","","1734","tol_tohand","","","","tol_peg_2","1734","1734","0","[[0,0,0],[3,0],[1]]","3","[[3,0,0],[2,0],[1]]","17","0","","","","","","5","","","","","","","","",""
"","","","","","single-stim-button","280","788138","0.0-2.0-62.2-1.2","628261a08ec6e3682495f8d8","F1","batch6","","1565","tol_toboard","","","","tol_peg_1","1565","1565","0","[[2,0,0],[3,0],[1]]","3","[[3,0,0],[2,0],[1]]","17","0","","","","","","5","","","","","","","","",""
"","","","","","single-stim-button","281","788924","0.0-2.0-62.3-0.3","628261a08ec6e3682495f8d8","F1","batch6","","785","tol_tohand","","","","tol_peg_2","785","785","0","[[2,0,0],[0,0],[1]]","4","[[3,0,0],[2,0],[1]]","17","0","","","","","","5","","","","","","","","",""
"","","","","","single-stim-button","282","789442","0.0-2.0-62.3-1.3","628261a08ec6e3682495f8d8","F1","batch6","","517","tol_toboard","","","","tol_peg_1","517","517","0","[[2,3,0],[0,0],[1]]","4","[[3,0,0],[2,0],[1]]","17","0","","","","","","5","","","","","","","","",""
"","","","","","single-stim-button","283","789981","0.0-2.0-62.4-0.4","628261a08ec6e3682495f8d8","F1","batch6","","539","tol_tohand","","","","tol_peg_3","539","539","0","[[2,3,0],[0,0],[0]]","5","[[3,0,0],[2,0],[1]]","17","0","","","","","","5","","","","","","","","",""
"","","","","","single-stim-button","284","790722","0.0-2.0-62.4-1.4","628261a08ec6e3682495f8d8","F1","batch6","","741","tol_toboard","","","","tol_peg_2","741","741","0","[[2,3,0],[1,0],[0]]","5","[[3,0,0],[2,0],[1]]","17","0","","","","","","5","","","","","","","","",""
"","","","","","single-stim-button","285","791397","0.0-2.0-62.5-0.5","628261a08ec6e3682495f8d8","F1","batch6","","673","tol_tohand","","","","tol_peg_1","673","673","0","[[2,0,0],[1,0],[0]]","6","[[3,0,0],[2,0],[1]]","17","0","","","","","","5","","","","","","","","",""
"","","","","","single-stim-button","286","792686","0.0-2.0-62.5-1.5","628261a08ec6e3682495f8d8","F1","batch6","","1289","tol_toboard","","","","tol_peg_3","1289","1289","0","[[2,0,0],[1,0],[3]]","6","[[3,0,0],[2,0],[1]]","17","0","","","","","","5","","","","","","","","",""
"","","","","","single-stim-button","287","793214","0.0-2.0-62.6-0.6","628261a08ec6e3682495f8d8","F1","batch6","","527","tol_tohand","","","","tol_peg_1","527","527","0","[[0,0,0],[1,0],[3]]","7","[[3,0,0],[2,0],[1]]","17","0","","","","","","5","","","","","","","","",""
"","","","","","single-stim-button","288","793802","0.0-2.0-62.6-1.6","628261a08ec6e3682495f8d8","F1","batch6","","587","tol_toboard","","","","tol_peg_2","587","587","0","[[0,0,0],[1,2],[3]]","7","[[3,0,0],[2,0],[1]]","17","0","","","","","","5","","","","","","","","",""
"","","","","","single-stim-button","289","794223","0.0-2.0-62.7-0.7","628261a08ec6e3682495f8d8","F1","batch6","","420","tol_tohand","","","","tol_peg_3","420","420","0","[[0,0,0],[1,2],[0]]","8","[[3,0,0],[2,0],[1]]","17","0","","","","","","5","","","","","","","","",""
"","","","","","single-stim-button","290","795081","0.0-2.0-62.7-1.7","628261a08ec6e3682495f8d8","F1","batch6","","856","tol_toboard","","","","tol_peg_1","856","856","0","[[3,0,0],[1,2],[0]]","8","[[3,0,0],[2,0],[1]]","17","0","","","","","","5","","","","","","","","",""
"","","","","","single-stim-button","291","796010","0.0-2.0-62.8-0.8","628261a08ec6e3682495f8d8","F1","batch6","","929","tol_tohand","","","","tol_peg_2","929","929","0","[[3,0,0],[1,0],[0]]","9","[[3,0,0],[2,0],[1]]","17","0","","","","","","5","","","","","","","","",""
"","","","","","single-stim-button","292","796482","0.0-2.0-62.8-1.8","628261a08ec6e3682495f8d8","F1","batch6","","471","tol_toboard","","","","tol_peg_1","471","471","0","[[3,2,0],[1,0],[0]]","9","[[3,0,0],[2,0],[1]]","17","0","","","","","","5","","","","","","","","",""
"","","","","","single-stim-button","293","796949","0.0-2.0-62.9-0.9","628261a08ec6e3682495f8d8","F1","batch6","","465","tol_tohand","","","","tol_peg_2","465","465","0","[[3,2,0],[0,0],[0]]","10","[[3,0,0],[2,0],[1]]","17","0","","","","","","5","","","","","","","","",""
"","","","","","single-stim-button","294","797505","0.0-2.0-62.9-1.9","628261a08ec6e3682495f8d8","F1","batch6","","556","tol_toboard","","","","tol_peg_3","556","556","0","[[3,2,0],[0,0],[1]]","10","[[3,0,0],[2,0],[1]]","17","0","","","","","","5","","","","","","","","",""
"","","","","","single-stim-button","295","798189","0.0-2.0-62.10-0.10","628261a08ec6e3682495f8d8","F1","batch6","","682","tol_tohand","","","","tol_peg_1","682","682","0","[[3,0,0],[0,0],[1]]","11","[[3,0,0],[2,0],[1]]","17","0","","","","","","5","","","","","","","","",""
"","","","","","single-stim-button","296","798738","0.0-2.0-62.10-1.10","628261a08ec6e3682495f8d8","F1","batch6","","549","tol_toboard","","","","tol_peg_2","549","549","0","[[3,0,0],[2,0],[1]]","11","[[3,0,0],[2,0],[1]]","17","0","","","","","","5","","","","","","","","",""
"","","","","","poldrack-single-stim","297","799740","0.0-2.0-63.0","628261a08ec6e3682495f8d8","F1","batch6","","-1","tol_feedback","","","true","","1000","1000","500","","","","","","-1","none","true","13113","20366","","","","","","","","","",""
"","","","","","html-button-response","298","800638","0.0-2.0-64.0","628261a08ec6e3682495f8d8","F1","batch6","","897.6999998092651","tol_trial_num","<div class = centerbox><p class = center-block-text>problem <strong>19</strong> out of 25 problems</p></div>","0","","","","","","","","","","","","","","","","","","","","","","","","",""
"","","","","","single-stim-button","299","815774","0.0-2.0-65.0-0.0","628261a08ec6e3682495f8d8","F1","batch6","","15135","tol_tohand","","","","tol_peg_1","15135","15135","0","[[1,0,0],[3,0],[0]]","1","[[0,0,0],[1,2],[3]]","18","0","","","","","","7","","","","","","","","",""
"","","","","","single-stim-button","300","816708","0.0-2.0-65.0-1.0","628261a08ec6e3682495f8d8","F1","batch6","","933","tol_toboard","","","","tol_peg_2","933","933","0","[[1,0,0],[3,2],[0]]","1","[[0,0,0],[1,2],[3]]","18","0","","","","","","7","","","","","","","","",""
"","","","","","single-stim-button","301","817186","0.0-2.0-65.1-0.1","628261a08ec6e3682495f8d8","F1","batch6","","478","tol_tohand","","","","tol_peg_1","478","478","0","[[0,0,0],[3,2],[0]]","2","[[0,0,0],[1,2],[3]]","18","0","","","","","","7","","","","","","","","",""
"","","","","","single-stim-button","302","817917","0.0-2.0-65.1-1.1","628261a08ec6e3682495f8d8","F1","batch6","","731","tol_toboard","","","","tol_peg_3","731","731","0","[[0,0,0],[3,2],[1]]","2","[[0,0,0],[1,2],[3]]","18","0","","","","","","7","","","","","","","","",""
"","","","","","single-stim-button","303","818549","0.0-2.0-65.2-0.2","628261a08ec6e3682495f8d8","F1","batch6","","631","tol_tohand","","","","tol_peg_2","631","631","0","[[0,0,0],[3,0],[1]]","3","[[0,0,0],[1,2],[3]]","18","0","","","","","","7","","","","","","","","",""
"","","","","","single-stim-button","304","819291","0.0-2.0-65.2-1.2","628261a08ec6e3682495f8d8","F1","batch6","","742","tol_toboard","","","","tol_peg_1","742","742","0","[[2,0,0],[3,0],[1]]","3","[[0,0,0],[1,2],[3]]","18","0","","","","","","7","","","","","","","","",""
"","","","","","single-stim-button","305","821625","0.0-2.0-65.3-0.3","628261a08ec6e3682495f8d8","F1","batch6","","2333","tol_tohand","","","","tol_peg_2","2333","2333","0","[[2,0,0],[0,0],[1]]","4","[[0,0,0],[1,2],[3]]","18","0","","","","","","7","","","","","","","","",""
"","","","","","single-stim-button","306","822152","0.0-2.0-65.3-1.3","628261a08ec6e3682495f8d8","F1","batch6","","526","tol_toboard","","","","tol_peg_1","526","526","0","[[2,3,0],[0,0],[1]]","4","[[0,0,0],[1,2],[3]]","18","0","","","","","","7","","","","","","","","",""
"","","","","","single-stim-button","307","822694","0.0-2.0-65.4-0.4","628261a08ec6e3682495f8d8","F1","batch6","","542","tol_tohand","","","","tol_peg_3","542","542","0","[[2,3,0],[0,0],[0]]","5","[[0,0,0],[1,2],[3]]","18","0","","","","","","7","","","","","","","","",""
"","","","","","single-stim-button","308","823377","0.0-2.0-65.4-1.4","628261a08ec6e3682495f8d8","F1","batch6","","681","tol_toboard","","","","tol_peg_2","681","681","0","[[2,3,0],[1,0],[0]]","5","[[0,0,0],[1,2],[3]]","18","0","","","","","","7","","","","","","","","",""
"","","","","","single-stim-button","309","824119","0.0-2.0-65.5-0.5","628261a08ec6e3682495f8d8","F1","batch6","","742","tol_tohand","","","","tol_peg_1","742","742","0","[[2,0,0],[1,0],[0]]","6","[[0,0,0],[1,2],[3]]","18","0","","","","","","7","","","","","","","","",""
"","","","","","single-stim-button","310","824654","0.0-2.0-65.5-1.5","628261a08ec6e3682495f8d8","F1","batch6","","533","tol_toboard","","","","tol_peg_3","533","533","0","[[2,0,0],[1,0],[3]]","6","[[0,0,0],[1,2],[3]]","18","0","","","","","","7","","","","","","","","",""
"","","","","","single-stim-button","311","825476","0.0-2.0-65.6-0.6","628261a08ec6e3682495f8d8","F1","batch6","","822","tol_tohand","","","","tol_peg_1","822","822","0","[[0,0,0],[1,0],[3]]","7","[[0,0,0],[1,2],[3]]","18","0","","","","","","7","","","","","","","","",""
"","","","","","single-stim-button","312","825935","0.0-2.0-65.6-1.6","628261a08ec6e3682495f8d8","F1","batch6","","459","tol_toboard","","","","tol_peg_2","459","459","0","[[0,0,0],[1,2],[3]]","7","[[0,0,0],[1,2],[3]]","18","0","","","","","","7","","","","","","","","",""
"","","","","","poldrack-single-stim","313","826939","0.0-2.0-66.0","628261a08ec6e3682495f8d8","F1","batch6","","-1","tol_feedback","","","true","","1000","1000","500","","","","","","-1","none","true","15135","20683","","","","","","","","","",""
"","","","","","html-button-response","314","827544","0.0-2.0-67.0","628261a08ec6e3682495f8d8","F1","batch6","","603.2999999523163","tol_trial_num","<div class = centerbox><p class = center-block-text>problem <strong>20</strong> out of 25 problems</p></div>","0","","","","","","","","","","","","","","","","","","","","","","","","",""
"","","","","","single-stim-button","315","833153","0.0-2.0-68.0-0.0","628261a08ec6e3682495f8d8","F1","batch6","","5608","tol_tohand","","","","tol_peg_1","5608","5608","0","[[1,0,0],[3,0],[0]]","1","[[2,1,0],[0,0],[3]]","19","0","","","","","","5","","","","","","","","",""
"","","","","","single-stim-button","316","833887","0.0-2.0-68.0-1.0","628261a08ec6e3682495f8d8","F1","batch6","","733","tol_toboard","","","","tol_peg_3","733","733","0","[[1,0,0],[3,0],[2]]","1","[[2,1,0],[0,0],[3]]","19","0","","","","","","5","","","","","","","","",""
"","","","","","single-stim-button","317","834643","0.0-2.0-68.1-0.1","628261a08ec6e3682495f8d8","F1","batch6","","755","tol_tohand","","","","tol_peg_1","755","755","0","[[0,0,0],[3,0],[2]]","2","[[2,1,0],[0,0],[3]]","19","0","","","","","","5","","","","","","","","",""
"","","","","","single-stim-button","318","835120","0.0-2.0-68.1-1.1","628261a08ec6e3682495f8d8","F1","batch6","","476","tol_toboard","","","","tol_peg_2","476","476","0","[[0,0,0],[3,1],[2]]","2","[[2,1,0],[0,0],[3]]","19","0","","","","","","5","","","","","","","","",""
"","","","","","single-stim-button","319","835593","0.0-2.0-68.2-0.2","628261a08ec6e3682495f8d8","F1","batch6","","471","tol_tohand","","","","tol_peg_3","471","471","0","[[0,0,0],[3,1],[0]]","3","[[2,1,0],[0,0],[3]]","19","0","","","","","","5","","","","","","","","",""
"","","","","","single-stim-button","320","836015","0.0-2.0-68.2-1.2","628261a08ec6e3682495f8d8","F1","batch6","","422","tol_toboard","","","","tol_peg_1","422","422","0","[[2,0,0],[3,1],[0]]","3","[[2,1,0],[0,0],[3]]","19","0","","","","","","5","","","","","","","","",""
"","","","","","single-stim-button","321","836500","0.0-2.0-68.3-0.3","628261a08ec6e3682495f8d8","F1","batch6","","483","tol_tohand","","","","tol_peg_2","483","483","0","[[2,0,0],[3,0],[0]]","4","[[2,1,0],[0,0],[3]]","19","0","","","","","","5","","","","","","","","",""
"","","","","","single-stim-button","322","836927","0.0-2.0-68.3-1.3","628261a08ec6e3682495f8d8","F1","batch6","","426","tol_toboard","","","","tol_peg_1","426","426","0","[[2,1,0],[3,0],[0]]","4","[[2,1,0],[0,0],[3]]","19","0","","","","","","5","","","","","","","","",""
"","","","","","single-stim-button","323","837327","0.0-2.0-68.4-0.4","628261a08ec6e3682495f8d8","F1","batch6","","400","tol_tohand","","","","tol_peg_2","400","400","0","[[2,1,0],[0,0],[0]]","5","[[2,1,0],[0,0],[3]]","19","0","","","","","","5","","","","","","","","",""
"","","","","","single-stim-button","324","837688","0.0-2.0-68.4-1.4","628261a08ec6e3682495f8d8","F1","batch6","","359","tol_toboard","","","","tol_peg_3","359","359","0","[[2,1,0],[0,0],[3]]","5","[[2,1,0],[0,0],[3]]","19","0","","","","","","5","","","","","","","","",""
"","","","","","poldrack-single-stim","325","838702","0.0-2.0-69.0","628261a08ec6e3682495f8d8","F1","batch6","","-1","tol_feedback","","","true","","1000","1000","500","","","","","","-1","none","true","5608","7717","","","","","","","","","",""
"","","","","","html-button-response","326","839111","0.0-2.0-70.0","628261a08ec6e3682495f8d8","F1","batch6","","408.10000014305115","tol_trial_num","<div class = centerbox><p class = center-block-text>problem <strong>21</strong> out of 25 problems</p></div>","0","","","","","","","","","","","","","","","","","","","","","","","","",""
"","","","","","single-stim-button","327","855352","0.0-2.0-71.0-0.0","628261a08ec6e3682495f8d8","F1","batch6","","16239","tol_tohand","","","","tol_peg_2","16239","16239","0","[[1,2,0],[0,0],[0]]","1","[[3,2,0],[0,0],[1]]","20","0","","","","","","6","","","","","","","","",""
"","","","","","single-stim-button","328","855828","0.0-2.0-71.0-1.0","628261a08ec6e3682495f8d8","F1","batch6","","475","tol_toboard","","","","tol_peg_3","475","475","0","[[1,2,0],[0,0],[3]]","1","[[3,2,0],[0,0],[1]]","20","0","","","","","","6","","","","","","","","",""
"","","","","","single-stim-button","329","856421","0.0-2.0-71.1-0.1","628261a08ec6e3682495f8d8","F1","batch6","","593","tol_tohand","","","","tol_peg_1","593","593","0","[[1,0,0],[0,0],[3]]","2","[[3,2,0],[0,0],[1]]","20","0","","","","","","6","","","","","","","","",""
"","","","","","single-stim-button","330","857128","0.0-2.0-71.1-1.1","628261a08ec6e3682495f8d8","F1","batch6","","706","tol_toboard","","","","tol_peg_2","706","706","0","[[1,0,0],[2,0],[3]]","2","[[3,2,0],[0,0],[1]]","20","0","","","","","","6","","","","","","","","",""
"","","","","","single-stim-button","331","858388","0.0-2.0-71.2-0.2","628261a08ec6e3682495f8d8","F1","batch6","","1259","tol_tohand","","","","tol_peg_1","1259","1259","0","[[0,0,0],[2,0],[3]]","3","[[3,2,0],[0,0],[1]]","20","0","","","","","","6","","","","","","","","",""
"","","","","","single-stim-button","332","858845","0.0-2.0-71.2-1.2","628261a08ec6e3682495f8d8","F1","batch6","","457","tol_toboard","","","","tol_peg_2","457","457","0","[[0,0,0],[2,1],[3]]","3","[[3,2,0],[0,0],[1]]","20","0","","","","","","6","","","","","","","","",""
"","","","","","single-stim-button","333","859278","0.0-2.0-71.3-0.3","628261a08ec6e3682495f8d8","F1","batch6","","432","tol_tohand","","","","tol_peg_3","432","432","0","[[0,0,0],[2,1],[0]]","4","[[3,2,0],[0,0],[1]]","20","0","","","","","","6","","","","","","","","",""
"","","","","","single-stim-button","334","859864","0.0-2.0-71.3-1.3","628261a08ec6e3682495f8d8","F1","batch6","","585","tol_toboard","","","","tol_peg_1","585","585","0","[[3,0,0],[2,1],[0]]","4","[[3,2,0],[0,0],[1]]","20","0","","","","","","6","","","","","","","","",""
"","","","","","single-stim-button","335","860291","0.0-2.0-71.4-0.4","628261a08ec6e3682495f8d8","F1","batch6","","426","tol_tohand","","","","tol_peg_2","426","426","0","[[3,0,0],[2,0],[0]]","5","[[3,2,0],[0,0],[1]]","20","0","","","","","","6","","","","","","","","",""
"","","","","","single-stim-button","336","860802","0.0-2.0-71.4-1.4","628261a08ec6e3682495f8d8","F1","batch6","","511","tol_toboard","","","","tol_peg_3","511","511","0","[[3,0,0],[2,0],[1]]","5","[[3,2,0],[0,0],[1]]","20","0","","","","","","6","","","","","","","","",""
"","","","","","single-stim-button","337","861207","0.0-2.0-71.5-0.5","628261a08ec6e3682495f8d8","F1","batch6","","404","tol_tohand","","","","tol_peg_2","404","404","0","[[3,0,0],[0,0],[1]]","6","[[3,2,0],[0,0],[1]]","20","0","","","","","","6","","","","","","","","",""
"","","","","","single-stim-button","338","861577","0.0-2.0-71.5-1.5","628261a08ec6e3682495f8d8","F1","batch6","","370","tol_toboard","","","","tol_peg_1","370","370","0","[[3,2,0],[0,0],[1]]","6","[[3,2,0],[0,0],[1]]","20","0","","","","","","6","","","","","","","","",""
"","","","","","poldrack-single-stim","339","862589","0.0-2.0-72.0","628261a08ec6e3682495f8d8","F1","batch6","","-1","tol_feedback","","","true","","1000","1000","500","","","","","","-1","none","true","16239","19353","","","","","","","","","",""
"","","","","","html-button-response","340","863350","0.0-2.0-73.0","628261a08ec6e3682495f8d8","F1","batch6","","759.3999998569489","tol_trial_num","<div class = centerbox><p class = center-block-text>problem <strong>22</strong> out of 25 problems</p></div>","0","","","","","","","","","","","","","","","","","","","","","","","","",""
"","","","","","single-stim-button","341","874912","0.0-2.0-74.0-0.0","628261a08ec6e3682495f8d8","F1","batch6","","11561","tol_tohand","","","","tol_peg_2","11561","11561","0","[[1,0,0],[2,0],[0]]","1","[[0,0,0],[1,2],[3]]","21","0","","","","","","6","","","","","","","","",""
"","","","","","single-stim-button","342","876426","0.0-2.0-74.0-1.0","628261a08ec6e3682495f8d8","F1","batch6","","1514","tol_toboard","","","","tol_peg_1","1514","1514","0","[[1,3,0],[2,0],[0]]","1","[[0,0,0],[1,2],[3]]","21","0","","","","","","6","","","","","","","","",""
"","","","","","single-stim-button","343","877028","0.0-2.0-74.1-0.1","628261a08ec6e3682495f8d8","F1","batch6","","601","tol_tohand","","","","tol_peg_2","601","601","0","[[1,3,0],[0,0],[0]]","2","[[0,0,0],[1,2],[3]]","21","0","","","","","","6","","","","","","","","",""
"","","","","","single-stim-button","344","877527","0.0-2.0-74.1-1.1","628261a08ec6e3682495f8d8","F1","batch6","","497","tol_toboard","","","","tol_peg_3","497","497","0","[[1,3,0],[0,0],[2]]","2","[[0,0,0],[1,2],[3]]","21","0","","","","","","6","","","","","","","","",""
"","","","","","single-stim-button","345","878031","0.0-2.0-74.2-0.2","628261a08ec6e3682495f8d8","F1","batch6","","504","tol_tohand","","","","tol_peg_1","504","504","0","[[1,0,0],[0,0],[2]]","3","[[0,0,0],[1,2],[3]]","21","0","","","","","","6","","","","","","","","",""
"","","","","","single-stim-button","346","878682","0.0-2.0-74.2-1.2","628261a08ec6e3682495f8d8","F1","batch6","","650","tol_toboard","","","","tol_peg_2","650","650","0","[[1,0,0],[3,0],[2]]","3","[[0,0,0],[1,2],[3]]","21","0","","","","","","6","","","","","","","","",""
"","","","","","single-stim-button","347","879896","0.0-2.0-74.3-0.3","628261a08ec6e3682495f8d8","F1","batch6","","1213","tol_tohand","","","","tol_peg_1","1213","1213","0","[[0,0,0],[3,0],[2]]","4","[[0,0,0],[1,2],[3]]","21","0","","","","","","6","","","","","","","","",""
"","","","","","single-stim-button","348","880353","0.0-2.0-74.3-1.3","628261a08ec6e3682495f8d8","F1","batch6","","457","tol_toboard","","","","tol_peg_2","457","457","0","[[0,0,0],[3,1],[2]]","4","[[0,0,0],[1,2],[3]]","21","0","","","","","","6","","","","","","","","",""
"","","","","","single-stim-button","349","880894","0.0-2.0-74.4-0.4","628261a08ec6e3682495f8d8","F1","batch6","","539","tol_tohand","","","","tol_peg_3","539","539","0","[[0,0,0],[3,1],[0]]","5","[[0,0,0],[1,2],[3]]","21","0","","","","","","6","","","","","","","","",""
"","","","","","single-stim-button","350","881516","0.0-2.0-74.4-1.4","628261a08ec6e3682495f8d8","F1","batch6","","621","tol_toboard","","","","tol_peg_1","621","621","0","[[2,0,0],[3,1],[0]]","5","[[0,0,0],[1,2],[3]]","21","0","","","","","","6","","","","","","","","",""
"","","","","","single-stim-button","351","882098","0.0-2.0-74.5-0.5","628261a08ec6e3682495f8d8","F1","batch6","","581","tol_tohand","","","","tol_peg_2","581","581","0","[[2,0,0],[3,0],[0]]","6","[[0,0,0],[1,2],[3]]","21","0","","","","","","6","","","","","","","","",""
"","","","","","single-stim-button","352","882530","0.0-2.0-74.5-1.5","628261a08ec6e3682495f8d8","F1","batch6","","431","tol_toboard","","","","tol_peg_3","431","431","0","[[2,0,0],[3,0],[1]]","6","[[0,0,0],[1,2],[3]]","21","0","","","","","","6","","","","","","","","",""
"","","","","","single-stim-button","353","883040","0.0-2.0-74.6-0.6","628261a08ec6e3682495f8d8","F1","batch6","","509","tol_tohand","","","","tol_peg_2","509","509","0","[[2,0,0],[0,0],[1]]","7","[[0,0,0],[1,2],[3]]","21","0","","","","","","6","","","","","","","","",""
"","","","","","single-stim-button","354","883559","0.0-2.0-74.6-1.6","628261a08ec6e3682495f8d8","F1","batch6","","519","tol_toboard","","","","tol_peg_1","519","519","0","[[2,3,0],[0,0],[1]]","7","[[0,0,0],[1,2],[3]]","21","0","","","","","","6","","","","","","","","",""
"","","","","","single-stim-button","355","884031","0.0-2.0-74.7-0.7","628261a08ec6e3682495f8d8","F1","batch6","","471","tol_tohand","","","","tol_peg_3","471","471","0","[[2,3,0],[0,0],[0]]","8","[[0,0,0],[1,2],[3]]","21","0","","","","","","6","","","","","","","","",""
"","","","","","single-stim-button","356","884538","0.0-2.0-74.7-1.7","628261a08ec6e3682495f8d8","F1","batch6","","505","tol_toboard","","","","tol_peg_2","505","505","0","[[2,3,0],[1,0],[0]]","8","[[0,0,0],[1,2],[3]]","21","0","","","","","","6","","","","","","","","",""
