"success","timeout","failed_images","failed_audio","failed_video","trial_type","trial_index","time_elapsed","internal_node_id","subject_id","study_id","session_id","task","rt","stimulus","response","item","answer","correct","spm_correct","spm_rt","view_history","mouse_click","stim_duration","block_duration","timing_post_trial","current_position","tol_num_moves_made","tol_target","tol_problem_id","tol_rt","key_press","possible_responses","tol_correct","preplanning","tol_rt_per_trial","tol_min_moves","fiar_detect_rt","fiar_detect_correct","total_correct_fiar_detect","post_trial_gap","choices"
"true","false","[]","[]","[]","preload","0","6585","0.0-0.0","62851102d56842a48361f9d4","C3","batch3","","","","","","","","","","","","","","","","","","","","","","","","","","","","","",""
"true","","","","","fullscreen","1","29208","0.0-1.0-0.0","62851102d56842a48361f9d4","C3","batch3","","","","","","","","","","","","","","","","","","","","","","","","","","","","","",""
"true","","","","","fullscreen","2","32561","0.0-2.0-0.0","62851102d56842a48361f9d4","C3","batch3","spm_fullscreen","","","","","","","","","","","","","","","","","","","","","","","","","","","","",""
"","","","","","html-button-response","3","41964","0.0-2.0-1.0","62851102d56842a48361f9d4","C3","batch3","","9401.400000095367","<p class = block-text><b>Instructions</b> <br>This is a widely used intelligence test in research. <br>In this test, a figure with a missing piece will be presented.<br>Below the figure are alternative pieces to complete the figure, only one of which is correct.<br> Different figures might involve different principles for obtaining the missing piece<br>Your job is to select the most logical piece to complete the figure.</p>","0","","","","","","","","","","","","","","","","","","","","","","","","","",""
"","","","","","html-keyboard-response","4","42774","0.0-2.0-2.0-0.0","62851102d56842a48361f9d4","C3","batch3","spm_show_trial_num","null","<p class=block-text>Trial 1 out of 60</p>","null","","","","","","","","","","","","","","","","","","","","","","","","","",""
"","","","","","image-button-response","5","51861","0.0-2.0-2.0-1.0","62851102d56842a48361f9d4","C3","batch3","spm_respsonse","9083.299999952316","img/question_1_1.jpeg","3","mat_01","4","1","1","9083.299999952316","","","","","","","","","","","","","","","","","","","","",""
"","","","","","html-keyboard-response","6","52928","0.0-2.0-2.0-0.1","62851102d56842a48361f9d4","C3","batch3","spm_show_trial_num","null","<p class=block-text>Trial 2 out of 60</p>","null","","","","","","","","","","","","","","","","","","","","","","","","","",""
"","","","","","image-button-response","7","55839","0.0-2.0-2.0-1.1","62851102d56842a48361f9d4","C3","batch3","spm_respsonse","2909","img/question_1_2.jpeg","4","mat_02","5","1","1","2909","","","","","","","","","","","","","","","","","","","","",""
"","","","","","html-keyboard-response","8","56907","0.0-2.0-2.0-0.2","62851102d56842a48361f9d4","C3","batch3","spm_show_trial_num","null","<p class=block-text>Trial 3 out of 60</p>","null","","","","","","","","","","","","","","","","","","","","","","","","","",""
"","","","","","image-button-response","9","62090","0.0-2.0-2.0-1.2","62851102d56842a48361f9d4","C3","batch3","spm_respsonse","5179.700000047684","img/question_1_3.jpeg","0","mat_03","1","1","1","5179.700000047684","","","","","","","","","","","","","","","","","","","","",""
"","","","","","html-keyboard-response","10","63161","0.0-2.0-2.0-0.3","62851102d56842a48361f9d4","C3","batch3","spm_show_trial_num","null","<p class=block-text>Trial 4 out of 60</p>","null","","","","","","","","","","","","","","","","","","","","","","","","","",""
"","","","","","image-button-response","11","67148","0.0-2.0-2.0-1.3","62851102d56842a48361f9d4","C3","batch3","spm_respsonse","3984.7000000476837","img/question_1_4.jpeg","1","mat_04","2","1","1","3984.7000000476837","","","","","","","","","","","","","","","","","","","","",""
"","","","","","html-keyboard-response","12","68215","0.0-2.0-2.0-0.4","62851102d56842a48361f9d4","C3","batch3","spm_show_trial_num","null","<p class=block-text>Trial 5 out of 60</p>","null","","","","","","","","","","","","","","","","","","","","","","","","","",""
"","","","","","image-button-response","13","72209","0.0-2.0-2.0-1.4","62851102d56842a48361f9d4","C3","batch3","spm_respsonse","3992.7999999523163","img/question_1_5.jpeg","5","mat_05","6","1","1","3992.7999999523163","","","","","","","","","","","","","","","","","","","","",""
"","","","","","html-keyboard-response","14","73272","0.0-2.0-2.0-0.5","62851102d56842a48361f9d4","C3","batch3","spm_show_trial_num","null","<p class=block-text>Trial 6 out of 60</p>","null","","","","","","","","","","","","","","","","","","","","","","","","","",""
"","","","","","image-button-response","15","77895","0.0-2.0-2.0-1.5","62851102d56842a48361f9d4","C3","batch3","spm_respsonse","4621.099999904633","img/question_1_6.jpeg","2","mat_06","3","1","1","4621.099999904633","","","","","","","","","","","","","","","","","","","","",""
"","","","","","html-keyboard-response","16","78961","0.0-2.0-2.0-0.6","62851102d56842a48361f9d4","C3","batch3","spm_show_trial_num","null","<p class=block-text>Trial 7 out of 60</p>","null","","","","","","","","","","","","","","","","","","","","","","","","","",""
"","","","","","image-button-response","17","85808","0.0-2.0-2.0-1.6","62851102d56842a48361f9d4","C3","batch3","spm_respsonse","6845.700000047684","img/question_1_7.jpeg","5","mat_07","6","1","1","6845.700000047684","","","","","","","","","","","","","","","","","","","","",""
"","","","","","html-keyboard-response","18","86872","0.0-2.0-2.0-0.7","62851102d56842a48361f9d4","C3","batch3","spm_show_trial_num","null","<p class=block-text>Trial 8 out of 60</p>","null","","","","","","","","","","","","","","","","","","","","","","","","","",""
"","","","","","image-button-response","19","96514","0.0-2.0-2.0-1.7","62851102d56842a48361f9d4","C3","batch3","spm_respsonse","9640.900000095367","img/question_1_8.jpeg","1","mat_08","2","1","1","9640.900000095367","","","","","","","","","","","","","","","","","","","","",""
"","","","","","html-keyboard-response","20","97584","0.0-2.0-2.0-0.8","62851102d56842a48361f9d4","C3","batch3","spm_show_trial_num","null","<p class=block-text>Trial 9 out of 60</p>","null","","","","","","","","","","","","","","","","","","","","","","","","","",""
"","","","","","image-button-response","21","104305","0.0-2.0-2.0-1.8","62851102d56842a48361f9d4","C3","batch3","spm_respsonse","6719.199999809265","img/question_1_9.jpeg","0","mat_09","1","1","1","6719.199999809265","","","","","","","","","","","","","","","","","","","","",""
"","","","","","html-keyboard-response","22","105367","0.0-2.0-2.0-0.9","62851102d56842a48361f9d4","C3","batch3","spm_show_trial_num","null","<p class=block-text>Trial 10 out of 60</p>","null","","","","","","","","","","","","","","","","","","","","","","","","","",""
"","","","","","image-button-response","23","123826","0.0-2.0-2.0-1.9","62851102d56842a48361f9d4","C3","batch3","spm_respsonse","18458.299999952316","img/question_1_10.jpeg","2","mat_10","3","1","1","18458.299999952316","","","","","","","","","","","","","","","","","","","","",""
"","","","","","html-keyboard-response","24","124887","0.0-2.0-2.0-0.10","62851102d56842a48361f9d4","C3","batch3","spm_show_trial_num","null","<p class=block-text>Trial 11 out of 60</p>","null","","","","","","","","","","","","","","","","","","","","","","","","","",""
"","","","","","image-button-response","25","137575","0.0-2.0-2.0-1.10","62851102d56842a48361f9d4","C3","batch3","spm_respsonse","12687","img/question_1_11.jpeg","3","mat_11","4","1","1","12687","","","","","","","","","","","","","","","","","","","","",""
"","","","","","html-keyboard-response","26","138632","0.0-2.0-2.0-0.11","62851102d56842a48361f9d4","C3","batch3","spm_show_trial_num","null","<p class=block-text>Trial 12 out of 60</p>","null","","","","","","","","","","","","","","","","","","","","","","","","","",""
"","","","","","image-button-response","27","152369","0.0-2.0-2.0-1.11","62851102d56842a48361f9d4","C3","batch3","spm_respsonse","13735.900000095367","img/question_1_12.jpeg","1","mat_12","5","0","0","13735.900000095367","","","","","","","","","","","","","","","","","","","","",""
"","","","","","html-keyboard-response","28","153432","0.0-2.0-2.0-0.12","62851102d56842a48361f9d4","C3","batch3","spm_show_trial_num","null","<p class=block-text>Trial 13 out of 60</p>","null","","","","","","","","","","","","","","","","","","","","","","","","","",""
"","","","","","image-button-response","29","157660","0.0-2.0-2.0-1.12","62851102d56842a48361f9d4","C3","batch3","spm_respsonse","4226.5","img/question_2_1.jpeg","1","mat_13","2","1","1","4226.5","","","","","","","","","","","","","","","","","","","","",""
"","","","","","html-keyboard-response","30","158727","0.0-2.0-2.0-0.13","62851102d56842a48361f9d4","C3","batch3","spm_show_trial_num","null","<p class=block-text>Trial 14 out of 60</p>","null","","","","","","","","","","","","","","","","","","","","","","","","","",""
"","","","","","image-button-response","31","164241","0.0-2.0-2.0-1.13","62851102d56842a48361f9d4","C3","batch3","spm_respsonse","5509.899999856949","img/question_2_2.jpeg","5","mat_14","6","1","1","5509.899999856949","","","","","","","","","","","","","","","","","","","","",""
"","","","","","html-keyboard-response","32","165305","0.0-2.0-2.0-0.14","62851102d56842a48361f9d4","C3","batch3","spm_show_trial_num","null","<p class=block-text>Trial 15 out of 60</p>","null","","","","","","","","","","","","","","","","","","","","","","","","","",""
"","","","","","image-button-response","33","170332","0.0-2.0-2.0-1.14","62851102d56842a48361f9d4","C3","batch3","spm_respsonse","5024.299999952316","img/question_2_3.jpeg","0","mat_15","1","1","1","5024.299999952316","","","","","","","","","","","","","","","","","","","","",""
"","","","","","html-keyboard-response","34","171400","0.0-2.0-2.0-0.15","62851102d56842a48361f9d4","C3","batch3","spm_show_trial_num","null","<p class=block-text>Trial 16 out of 60</p>","null","","","","","","","","","","","","","","","","","","","","","","","","","",""
"","","","","","image-button-response","35","175879","0.0-2.0-2.0-1.15","62851102d56842a48361f9d4","C3","batch3","spm_respsonse","4476.800000190735","img/question_2_4.jpeg","1","mat_16","2","1","1","4476.800000190735","","","","","","","","","","","","","","","","","","","","",""
"","","","","","html-keyboard-response","36","176945","0.0-2.0-2.0-0.16","62851102d56842a48361f9d4","C3","batch3","spm_show_trial_num","null","<p class=block-text>Trial 17 out of 60</p>","null","","","","","","","","","","","","","","","","","","","","","","","","","",""
"","","","","","image-button-response","37","182457","0.0-2.0-2.0-1.16","62851102d56842a48361f9d4","C3","batch3","spm_respsonse","5510.100000143051","img/question_2_5.jpeg","0","mat_17","1","1","1","5510.100000143051","","","","","","","","","","","","","","","","","","","","",""
"","","","","","html-keyboard-response","38","183520","0.0-2.0-2.0-0.17","62851102d56842a48361f9d4","C3","batch3","spm_show_trial_num","null","<p class=block-text>Trial 18 out of 60</p>","null","","","","","","","","","","","","","","","","","","","","","","","","","",""
"","","","","","image-button-response","39","188269","0.0-2.0-2.0-1.17","62851102d56842a48361f9d4","C3","batch3","spm_respsonse","4748","img/question_2_6.jpeg","3","mat_18","3","0","0","4748","","","","","","","","","","","","","","","","","","","","",""
"","","","","","html-keyboard-response","40","189337","0.0-2.0-2.0-0.18","62851102d56842a48361f9d4","C3","batch3","spm_show_trial_num","null","<p class=block-text>Trial 19 out of 60</p>","null","","","","","","","","","","","","","","","","","","","","","","","","","",""
"","","","","","image-button-response","41","195848","0.0-2.0-2.0-1.18","62851102d56842a48361f9d4","C3","batch3","spm_respsonse","6508.900000095367","img/question_2_7.jpeg","4","mat_19","5","1","1","6508.900000095367","","","","","","","","","","","","","","","","","","","","",""
"","","","","","html-keyboard-response","42","196920","0.0-2.0-2.0-0.19","62851102d56842a48361f9d4","C3","batch3","spm_show_trial_num","null","<p class=block-text>Trial 20 out of 60</p>","null","","","","","","","","","","","","","","","","","","","","","","","","","",""
"","","","","","image-button-response","43","202602","0.0-2.0-2.0-1.19","62851102d56842a48361f9d4","C3","batch3","spm_respsonse","5680.299999952316","img/question_2_8.jpeg","5","mat_20","6","1","1","5680.299999952316","","","","","","","","","","","","","","","","","","","","",""
"","","","","","html-keyboard-response","44","203665","0.0-2.0-2.0-0.20","62851102d56842a48361f9d4","C3","batch3","spm_show_trial_num","null","<p class=block-text>Trial 21 out of 60</p>","null","","","","","","","","","","","","","","","","","","","","","","","","","",""
"","","","","","image-button-response","45","209088","0.0-2.0-2.0-1.20","62851102d56842a48361f9d4","C3","batch3","spm_respsonse","5421.900000095367","img/question_2_9.jpeg","3","mat_21","4","1","1","5421.900000095367","","","","","","","","","","","","","","","","","","","","",""
"","","","","","html-keyboard-response","46","210151","0.0-2.0-2.0-0.21","62851102d56842a48361f9d4","C3","batch3","spm_show_trial_num","null","<p class=block-text>Trial 22 out of 60</p>","null","","","","","","","","","","","","","","","","","","","","","","","","","",""
"","","","","","image-button-response","47","214200","0.0-2.0-2.0-1.21","62851102d56842a48361f9d4","C3","batch3","spm_respsonse","4047.300000190735","img/question_2_10.jpeg","2","mat_22","3","1","1","4047.300000190735","","","","","","","","","","","","","","","","","","","","",""
"","","","","","html-keyboard-response","48","215263","0.0-2.0-2.0-0.22","62851102d56842a48361f9d4","C3","batch3","spm_show_trial_num","null","<p class=block-text>Trial 23 out of 60</p>","null","","","","","","","","","","","","","","","","","","","","","","","","","",""
"","","","","","image-button-response","49","220814","0.0-2.0-2.0-1.22","62851102d56842a48361f9d4","C3","batch3","spm_respsonse","5549.900000095367","img/question_2_11.jpeg","3","mat_23","4","1","1","5549.900000095367","","","","","","","","","","","","","","","","","","","","",""
"","","","","","html-keyboard-response","50","221882","0.0-2.0-2.0-0.23","62851102d56842a48361f9d4","C3","batch3","spm_show_trial_num","null","<p class=block-text>Trial 24 out of 60</p>","null","","","","","","","","","","","","","","","","","","","","","","","","","",""
"","","","","","image-button-response","51","227844","0.0-2.0-2.0-1.23","62851102d56842a48361f9d4","C3","batch3","spm_respsonse","5960.900000095367","img/question_2_12.jpeg","4","mat_24","5","1","1","5960.900000095367","","","","","","","","","","","","","","","","","","","","",""
"","","","","","html-button-response","52","230094","0.0-2.0-3.0","62851102d56842a48361f9d4","C3","batch3","attention_check","1988.2999999523163","<p class = block-text>Attention check: Please choose 1<br></p>","0","","","true","","","","","","","","","","","","","","","","","","","","","","",""
"","","","","","html-keyboard-response","53","230905","0.0-2.0-4.0-0.0","62851102d56842a48361f9d4","C3","batch3","spm_show_trial_num","null","<p class=block-text>Trial 25 out of 60</p>","null","","","","","","","","","","","","","","","","","","","","","","","","","",""
"","","","","","image-button-response","54","240246","0.0-2.0-4.0-1.0","62851102d56842a48361f9d4","C3","batch3","spm_respsonse","9339.200000047684","img/question_3_1.jpeg","7","mat_25","8","1","1","9339.200000047684","","","","","","","","","","","","","","","","","","","","",""
"","","","","","html-keyboard-response","55","241312","0.0-2.0-4.0-0.1","62851102d56842a48361f9d4","C3","batch3","spm_show_trial_num","null","<p class=block-text>Trial 26 out of 60</p>","null","","","","","","","","","","","","","","","","","","","","","","","","","",""
"","","","","","image-button-response","56","251788","0.0-2.0-4.0-1.1","62851102d56842a48361f9d4","C3","batch3","spm_respsonse","10474.5","img/question_3_2.jpeg","1","mat_26","2","1","1","10474.5","","","","","","","","","","","","","","","","","","","","",""
"","","","","","html-keyboard-response","57","252856","0.0-2.0-4.0-0.2","62851102d56842a48361f9d4","C3","batch3","spm_show_trial_num","null","<p class=block-text>Trial 27 out of 60</p>","null","","","","","","","","","","","","","","","","","","","","","","","","","",""
"","","","","","image-button-response","58","272055","0.0-2.0-4.0-1.2","62851102d56842a48361f9d4","C3","batch3","spm_respsonse","19197.099999904633","img/question_3_3.jpeg","2","mat_27","3","1","1","19197.099999904633","","","","","","","","","","","","","","","","","","","","",""
"","","","","","html-keyboard-response","59","273122","0.0-2.0-4.0-0.3","62851102d56842a48361f9d4","C3","batch3","spm_show_trial_num","null","<p class=block-text>Trial 28 out of 60</p>","null","","","","","","","","","","","","","","","","","","","","","","","","","",""
"","","","","","image-button-response","60","308520","0.0-2.0-4.0-1.3","62851102d56842a48361f9d4","C3","batch3","spm_respsonse","35397","img/question_3_4.jpeg","7","mat_28","8","1","1","35397","","","","","","","","","","","","","","","","","","","","",""
"","","","","","html-keyboard-response","61","309585","0.0-2.0-4.0-0.4","62851102d56842a48361f9d4","C3","batch3","spm_show_trial_num","null","<p class=block-text>Trial 29 out of 60</p>","null","","","","","","","","","","","","","","","","","","","","","","","","","",""
"","","","","","image-button-response","62","318979","0.0-2.0-4.0-1.4","62851102d56842a48361f9d4","C3","batch3","spm_respsonse","9392.100000143051","img/question_3_5.jpeg","6","mat_29","7","1","1","9392.100000143051","","","","","","","","","","","","","","","","","","","","",""
"","","","","","html-keyboard-response","63","320057","0.0-2.0-4.0-0.5","62851102d56842a48361f9d4","C3","batch3","spm_show_trial_num","null","<p class=block-text>Trial 30 out of 60</p>","null","","","","","","","","","","","","","","","","","","","","","","","","","",""
"","","","","","image-button-response","64","328545","0.0-2.0-4.0-1.5","62851102d56842a48361f9d4","C3","batch3","spm_respsonse","8487.5","img/question_3_6.jpeg","3","mat_30","4","1","1","8487.5","","","","","","","","","","","","","","","","","","","","",""
"","","","","","html-keyboard-response","65","329609","0.0-2.0-4.0-0.6","62851102d56842a48361f9d4","C3","batch3","spm_show_trial_num","null","<p class=block-text>Trial 31 out of 60</p>","null","","","","","","","","","","","","","","","","","","","","","","","","","",""
"","","","","","image-button-response","66","336170","0.0-2.0-4.0-1.6","62851102d56842a48361f9d4","C3","batch3","spm_respsonse","6560","img/question_3_7.jpeg","4","mat_31","5","1","1","6560","","","","","","","","","","","","","","","","","","","","",""
"","","","","","html-keyboard-response","67","337234","0.0-2.0-4.0-0.7","62851102d56842a48361f9d4","C3","batch3","spm_show_trial_num","null","<p class=block-text>Trial 32 out of 60</p>","null","","","","","","","","","","","","","","","","","","","","","","","","","",""
"","","","","","image-button-response","68","372023","0.0-2.0-4.0-1.7","62851102d56842a48361f9d4","C3","batch3","spm_respsonse","34787.40000009537","img/question_3_8.jpeg","0","mat_32","1","1","1","34787.40000009537","","","","","","","","","","","","","","","","","","","","",""
"","","","","","html-keyboard-response","69","373088","0.0-2.0-4.0-0.8","62851102d56842a48361f9d4","C3","batch3","spm_show_trial_num","null","<p class=block-text>Trial 33 out of 60</p>","null","","","","","","","","","","","","","","","","","","","","","","","","","",""
"","","","","","image-button-response","70","381377","0.0-2.0-4.0-1.8","62851102d56842a48361f9d4","C3","batch3","spm_respsonse","8287.100000143051","img/question_3_9.jpeg","6","mat_33","7","1","1","8287.100000143051","","","","","","","","","","","","","","","","","","","","",""
"","","","","","html-keyboard-response","71","382443","0.0-2.0-4.0-0.9","62851102d56842a48361f9d4","C3","batch3","spm_show_trial_num","null","<p class=block-text>Trial 34 out of 60</p>","null","","","","","","","","","","","","","","","","","","","","","","","","","",""
"","","","","","image-button-response","72","388475","0.0-2.0-4.0-1.9","62851102d56842a48361f9d4","C3","batch3","spm_respsonse","6029.800000190735","img/question_3_10.jpeg","5","mat_34","6","1","1","6029.800000190735","","","","","","","","","","","","","","","","","","","","",""
"","","","","","html-keyboard-response","73","389543","0.0-2.0-4.0-0.10","62851102d56842a48361f9d4","C3","batch3","spm_show_trial_num","null","<p class=block-text>Trial 35 out of 60</p>","null","","","","","","","","","","","","","","","","","","","","","","","","","",""
"","","","","","image-button-response","74","414528","0.0-2.0-4.0-1.10","62851102d56842a48361f9d4","C3","batch3","spm_respsonse","24982.89999985695","img/question_3_11.jpeg","0","mat_35","1","1","1","24982.89999985695","","","","","","","","","","","","","","","","","","","","",""
"","","","","","html-keyboard-response","75","415593","0.0-2.0-4.0-0.11","62851102d56842a48361f9d4","C3","batch3","spm_show_trial_num","null","<p class=block-text>Trial 36 out of 60</p>","null","","","","","","","","","","","","","","","","","","","","","","","","","",""
"","","","","","image-button-response","76","431586","0.0-2.0-4.0-1.11","62851102d56842a48361f9d4","C3","batch3","spm_respsonse","15992.5","img/question_3_12.jpeg","1","mat_36","2","1","1","15992.5","","","","","","","","","","","","","","","","","","","","",""
"","","","","","html-keyboard-response","77","432651","0.0-2.0-4.0-0.12","62851102d56842a48361f9d4","C3","batch3","spm_show_trial_num","null","<p class=block-text>Trial 37 out of 60</p>","null","","","","","","","","","","","","","","","","","","","","","","","","","",""
"","","","","","image-button-response","78","438480","0.0-2.0-4.0-1.12","62851102d56842a48361f9d4","C3","batch3","spm_respsonse","5825.600000143051","img/question_4_1.jpeg","2","mat_37","3","1","1","5825.600000143051","","","","","","","","","","","","","","","","","","","","",""
"","","","","","html-keyboard-response","79","439547","0.0-2.0-4.0-0.13","62851102d56842a48361f9d4","C3","batch3","spm_show_trial_num","null","<p class=block-text>Trial 38 out of 60</p>","null","","","","","","","","","","","","","","","","","","","","","","","","","",""
"","","","","","image-button-response","80","445855","0.0-2.0-4.0-1.13","62851102d56842a48361f9d4","C3","batch3","spm_respsonse","6305.5","img/question_4_2.jpeg","3","mat_38","4","1","1","6305.5","","","","","","","","","","","","","","","","","","","","",""
"","","","","","html-keyboard-response","81","446923","0.0-2.0-4.0-0.14","62851102d56842a48361f9d4","C3","batch3","spm_show_trial_num","null","<p class=block-text>Trial 39 out of 60</p>","null","","","","","","","","","","","","","","","","","","","","","","","","","",""
"","","","","","image-button-response","82","453741","0.0-2.0-4.0-1.14","62851102d56842a48361f9d4","C3","batch3","spm_respsonse","6816.800000190735","img/question_4_3.jpeg","2","mat_39","3","1","1","6816.800000190735","","","","","","","","","","","","","","","","","","","","",""
"","","","","","html-keyboard-response","83","454803","0.0-2.0-4.0-0.15","62851102d56842a48361f9d4","C3","batch3","spm_show_trial_num","null","<p class=block-text>Trial 40 out of 60</p>","null","","","","","","","","","","","","","","","","","","","","","","","","","",""
"","","","","","image-button-response","84","463109","0.0-2.0-4.0-1.15","62851102d56842a48361f9d4","C3","batch3","spm_respsonse","8303.700000047684","img/question_4_4.jpeg","6","mat_40","7","1","1","8303.700000047684","","","","","","","","","","","","","","","","","","","","",""
"","","","","","html-keyboard-response","85","464177","0.0-2.0-4.0-0.16","62851102d56842a48361f9d4","C3","batch3","spm_show_trial_num","null","<p class=block-text>Trial 41 out of 60</p>","null","","","","","","","","","","","","","","","","","","","","","","","","","",""
"","","","","","image-button-response","86","472517","0.0-2.0-4.0-1.16","62851102d56842a48361f9d4","C3","batch3","spm_respsonse","8336.700000047684","img/question_4_5.jpeg","7","mat_41","8","1","1","8336.700000047684","","","","","","","","","","","","","","","","","","","","",""
"","","","","","html-keyboard-response","87","473586","0.0-2.0-4.0-0.17","62851102d56842a48361f9d4","C3","batch3","spm_show_trial_num","null","<p class=block-text>Trial 42 out of 60</p>","null","","","","","","","","","","","","","","","","","","","","","","","","","",""
"","","","","","image-button-response","88","483990","0.0-2.0-4.0-1.17","62851102d56842a48361f9d4","C3","batch3","spm_respsonse","10402.400000095367","img/question_4_6.jpeg","5","mat_42","6","1","1","10402.400000095367","","","","","","","","","","","","","","","","","","","","",""
"","","","","","html-keyboard-response","89","485045","0.0-2.0-4.0-0.18","62851102d56842a48361f9d4","C3","batch3","spm_show_trial_num","null","<p class=block-text>Trial 43 out of 60</p>","null","","","","","","","","","","","","","","","","","","","","","","","","","",""
"","","","","","image-button-response","90","500709","0.0-2.0-4.0-1.18","62851102d56842a48361f9d4","C3","batch3","spm_respsonse","15662.199999809265","img/question_4_7.jpeg","3","mat_43","5","0","0","15662.199999809265","","","","","","","","","","","","","","","","","","","","",""
"","","","","","html-keyboard-response","91","501778","0.0-2.0-4.0-0.19","62851102d56842a48361f9d4","C3","batch3","spm_show_trial_num","null","<p class=block-text>Trial 44 out of 60</p>","null","","","","","","","","","","","","","","","","","","","","","","","","","",""
"","","","","","image-button-response","92","523923","0.0-2.0-4.0-1.19","62851102d56842a48361f9d4","C3","batch3","spm_respsonse","22142.799999952316","img/question_4_8.jpeg","3","mat_44","4","1","1","22142.799999952316","","","","","","","","","","","","","","","","","","","","",""
"","","","","","html-keyboard-response","93","524985","0.0-2.0-4.0-0.20","62851102d56842a48361f9d4","C3","batch3","spm_show_trial_num","null","<p class=block-text>Trial 45 out of 60</p>","null","","","","","","","","","","","","","","","","","","","","","","","","","",""
"","","","","","image-button-response","94","547963","0.0-2.0-4.0-1.20","62851102d56842a48361f9d4","C3","batch3","spm_respsonse","22976.5","img/question_4_9.jpeg","0","mat_45","1","1","1","22976.5","","","","","","","","","","","","","","","","","","","","",""
"","","","","","html-keyboard-response","95","549027","0.0-2.0-4.0-0.21","62851102d56842a48361f9d4","C3","batch3","spm_show_trial_num","null","<p class=block-text>Trial 46 out of 60</p>","null","","","","","","","","","","","","","","","","","","","","","","","","","",""
"","","","","","image-button-response","96","584810","0.0-2.0-4.0-1.21","62851102d56842a48361f9d4","C3","batch3","spm_respsonse","35778.699999809265","img/question_4_10.jpeg","1","mat_46","2","1","1","35778.699999809265","","","","","","","","","","","","","","","","","","","","",""
"","","","","","html-keyboard-response","97","585873","0.0-2.0-4.0-0.22","62851102d56842a48361f9d4","C3","batch3","spm_show_trial_num","null","<p class=block-text>Trial 47 out of 60</p>","null","","","","","","","","","","","","","","","","","","","","","","","","","",""
"","","","","","image-button-response","98","642781","0.0-2.0-4.0-1.22","62851102d56842a48361f9d4","C3","batch3","spm_respsonse","56906.40000009537","img/question_4_11.jpeg","4","mat_47","5","1","1","56906.40000009537","","","","","","","","","","","","","","","","","","","","",""
"","","","","","html-keyboard-response","99","643850","0.0-2.0-4.0-0.23","62851102d56842a48361f9d4","C3","batch3","spm_show_trial_num","null","<p class=block-text>Trial 48 out of 60</p>","null","","","","","","","","","","","","","","","","","","","","","","","","","",""
"","","","","","image-button-response","100","693027","0.0-2.0-4.0-1.23","62851102d56842a48361f9d4","C3","batch3","spm_respsonse","49174.700000047684","img/question_4_12.jpeg","5","mat_48","6","1","1","49174.700000047684","","","","","","","","","","","","","","","","","","","","",""
"","","","","","html-keyboard-response","101","694091","0.0-2.0-4.0-0.24","62851102d56842a48361f9d4","C3","batch3","spm_show_trial_num","null","<p class=block-text>Trial 49 out of 60</p>","null","","","","","","","","","","","","","","","","","","","","","","","","","",""
"","","","","","image-button-response","102","713549","0.0-2.0-4.0-1.24","62851102d56842a48361f9d4","C3","batch3","spm_respsonse","19456.799999952316","img/question_5_1.jpeg","6","mat_49","7","1","1","19456.799999952316","","","","","","","","","","","","","","","","","","","","",""
"","","","","","html-keyboard-response","103","714619","0.0-2.0-4.0-0.25","62851102d56842a48361f9d4","C3","batch3","spm_show_trial_num","null","<p class=block-text>Trial 50 out of 60</p>","null","","","","","","","","","","","","","","","","","","","","","","","","","",""
"","","","","","image-button-response","104","762680","0.0-2.0-4.0-1.25","62851102d56842a48361f9d4","C3","batch3","spm_respsonse","48058.90000009537","img/question_5_2.jpeg","5","mat_50","6","1","1","48058.90000009537","","","","","","","","","","","","","","","","","","","","",""
"","","","","","html-keyboard-response","105","763747","0.0-2.0-4.0-0.26","62851102d56842a48361f9d4","C3","batch3","spm_show_trial_num","null","<p class=block-text>Trial 51 out of 60</p>","null","","","","","","","","","","","","","","","","","","","","","","","","","",""
"","","","","","image-button-response","106","780117","0.0-2.0-4.0-1.26","62851102d56842a48361f9d4","C3","batch3","spm_respsonse","16369.099999904633","img/question_5_3.jpeg","7","mat_51","8","1","1","16369.099999904633","","","","","","","","","","","","","","","","","","","","",""
"","","","","","html-keyboard-response","107","781186","0.0-2.0-4.0-0.27","62851102d56842a48361f9d4","C3","batch3","spm_show_trial_num","null","<p class=block-text>Trial 52 out of 60</p>","null","","","","","","","","","","","","","","","","","","","","","","","","","",""
"","","","","","image-button-response","108","793177","0.0-2.0-4.0-1.27","62851102d56842a48361f9d4","C3","batch3","spm_respsonse","11989.899999856949","img/question_5_4.jpeg","1","mat_52","2","1","1","11989.899999856949","","","","","","","","","","","","","","","","","","","","",""
"","","","","","html-keyboard-response","109","794244","0.0-2.0-4.0-0.28","62851102d56842a48361f9d4","C3","batch3","spm_show_trial_num","null","<p class=block-text>Trial 53 out of 60</p>","null","","","","","","","","","","","","","","","","","","","","","","","","","",""
"","","","","","image-button-response","110","812478","0.0-2.0-4.0-1.28","62851102d56842a48361f9d4","C3","batch3","spm_respsonse","18233.199999809265","img/question_5_5.jpeg","0","mat_53","1","1","1","18233.199999809265","","","","","","","","","","","","","","","","","","","","",""
"","","","","","html-keyboard-response","111","813540","0.0-2.0-4.0-0.29","62851102d56842a48361f9d4","C3","batch3","spm_show_trial_num","null","<p class=block-text>Trial 54 out of 60</p>","null","","","","","","","","","","","","","","","","","","","","","","","","","",""
"","","","","","image-button-response","112","830487","0.0-2.0-4.0-1.29","62851102d56842a48361f9d4","C3","batch3","spm_respsonse","16944.900000095367","img/question_5_6.jpeg","4","mat_54","5","1","1","16944.900000095367","","","","","","","","","","","","","","","","","","","","",""
"","","","","","html-keyboard-response","113","831555","0.0-2.0-4.0-0.30","62851102d56842a48361f9d4","C3","batch3","spm_show_trial_num","null","<p class=block-text>Trial 55 out of 60</p>","null","","","","","","","","","","","","","","","","","","","","","","","","","",""
"","","","","","image-button-response","114","860310","0.0-2.0-4.0-1.30","62851102d56842a48361f9d4","C3","batch3","spm_respsonse","28753.299999952316","img/question_5_7.jpeg","0","mat_55","1","1","1","28753.299999952316","","","","","","","","","","","","","","","","","","","","",""
"","","","","","html-keyboard-response","115","861378","0.0-2.0-4.0-0.31","62851102d56842a48361f9d4","C3","batch3","spm_show_trial_num","null","<p class=block-text>Trial 56 out of 60</p>","null","","","","","","","","","","","","","","","","","","","","","","","","","",""
"","","","","","image-button-response","116","880094","0.0-2.0-4.0-1.31","62851102d56842a48361f9d4","C3","batch3","spm_respsonse","18715","img/question_5_8.jpeg","5","mat_56","6","1","1","18715","","","","","","","","","","","","","","","","","","","","",""
"","","","","","html-keyboard-response","117","881164","0.0-2.0-4.0-0.32","62851102d56842a48361f9d4","C3","batch3","spm_show_trial_num","null","<p class=block-text>Trial 57 out of 60</p>","null","","","","","","","","","","","","","","","","","","","","","","","","","",""
"","","","","","image-button-response","118","910464","0.0-2.0-4.0-1.32","62851102d56842a48361f9d4","C3","batch3","spm_respsonse","29297.89999985695","img/question_5_9.jpeg","2","mat_57","3","1","1","29297.89999985695","","","","","","","","","","","","","","","","","","","","",""
"","","","","","html-keyboard-response","119","911524","0.0-2.0-4.0-0.33","62851102d56842a48361f9d4","C3","batch3","spm_show_trial_num","null","<p class=block-text>Trial 58 out of 60</p>","null","","","","","","","","","","","","","","","","","","","","","","","","","",""
"","","","","","image-button-response","120","944442","0.0-2.0-4.0-1.33","62851102d56842a48361f9d4","C3","batch3","spm_respsonse","32916","img/question_5_10.jpeg","5","mat_58","2","0","0","32916","","","","","","","","","","","","","","","","","","","","",""
"","","","","","html-keyboard-response","121","945507","0.0-2.0-4.0-0.34","62851102d56842a48361f9d4","C3","batch3","spm_show_trial_num","null","<p class=block-text>Trial 59 out of 60</p>","null","","","","","","","","","","","","","","","","","","","","","","","","","",""
"","","","","","image-button-response","122","969977","0.0-2.0-4.0-1.34","62851102d56842a48361f9d4","C3","batch3","spm_respsonse","24467.699999809265","img/question_5_11.jpeg","6","mat_59","4","0","0","24467.699999809265","","","","","","","","","","","","","","","","","","","","",""
"","","","","","html-keyboard-response","123","971036","0.0-2.0-4.0-0.35","62851102d56842a48361f9d4","C3","batch3","spm_show_trial_num","null","<p class=block-text>Trial 60 out of 60</p>","null","","","","","","","","","","","","","","","","","","","","","","","","","",""
"","","","","","image-button-response","124","986890","0.0-2.0-4.0-1.35","62851102d56842a48361f9d4","C3","batch3","spm_respsonse","15852.799999952316","img/question_5_12.jpeg","0","mat_60","5","0","0","15852.799999952316","","","","","","","","","","","","","","","","","","","","",""
"","","","","","html-button-response","125","990049","0.0-2.0-5.0","62851102d56842a48361f9d4","C3","batch3","spm_goodbye","2899.7000000476837","<p class= block-text>This concludes the Standard Progressive Matrix game. Thank you for your responses!<br> When you are ready, click the button continue</p>","0","","","","","","","","","","","","","","","","","","","","","","","","","",""
"true","","","","","fullscreen","126","993268","0.0-3.0-0.0","62851102d56842a48361f9d4","C3","batch3","","","","","","","","","","","","","","","","","","","","","","","","","","","","","",""
"","","","","","instructions","127","1043160","0.0-3.0-1.0-0.0-0.0","62851102d56842a48361f9d4","C3","batch3","tol-instructions","49891.800000190735","","","","","","","","[{""page_index"":0,""viewing_time"":12967.200000047684},{""page_index"":1,""viewing_time"":7719.299999952316},{""page_index"":2,""viewing_time"":3209},{""page_index"":3,""viewing_time"":7550},{""page_index"":4,""viewing_time"":4174.100000143051},{""page_index"":5,""viewing_time"":10878.5},{""page_index"":6,""viewing_time"":3392.7999999523163}]","","","","","","","","","","","","","","","","","","","",""
"","","","","","html-button-response","128","1044216","0.0-3.0-1.0-1.0-0.0","62851102d56842a48361f9d4","C3","batch3","tol_enter_quiz","1054.3000001907349","<p class=block-text> Let's answer a few questions <br>","0","","","","","","","","","","","","","","","","","","","","","","","","","",""
"","","","","","html-button-response","129","1047670","0.0-3.0-1.0-1.0-1.0","62851102d56842a48361f9d4","C3","batch3","tol_quiz","3452.600000143051","<p class = block-text>True or False: You can only move the ball on top of a peg. <br></p>","0","","","true","","","","","","","","","","","","","","","","","","","","","","",""
"","","","","","html-button-response","130","1048833","0.0-3.0-1.0-1.0-2.0","62851102d56842a48361f9d4","C3","batch3","tol_quiz_feedback","1162.2999999523163","<p class = block-text>Correct! You can only move the ball on top of a peg.</p>","0","","","","","","","","","","","","","","","","","","","","","","","","","",""
"","","","","","html-button-response","131","1051343","0.0-3.0-1.0-1.0-3.0","62851102d56842a48361f9d4","C3","batch3","tol_quiz","2508.300000190735","<p class = block-text>True or False: You should try to match your board with the target board with fewest moves possible. <br></p>","0","","","true","","","","","","","","","","","","","","","","","","","","","","",""
"","","","","","html-button-response","132","1051996","0.0-3.0-1.0-1.0-4.0","62851102d56842a48361f9d4","C3","batch3","tol_quiz_feedback","652.2999999523163","<p class = block-text>Correct! </p>","0","","","","","","","","","","","","","","","","","","","","","","","","","",""
"","","","","","html-button-response","133","1054152","0.0-3.0-2.0","62851102d56842a48361f9d4","C3","batch3","","2154.2999999523163","<p class=block-text> Now that you've understood the game, let's practice a few easier examples before we start!<br> <br>","0","","","","","","","","","","","","","","","","","","","","","","","","","",""
"","","","","","single-stim-button","134","1055814","0.0-3.0-3.0-0.0","62851102d56842a48361f9d4","C3","batch3","tol_practice","1660","","","","","","","","","tol_peg_2","1660","1660","0","[[1,2,0],[0,0],[0]]","1","[[1,2,0],[0,0],[3]]","practice","1660","","","","","","","","","","",""
"","","","","","single-stim-button","135","1056712","0.0-3.0-3.0-1.0","62851102d56842a48361f9d4","C3","batch3","tol_practice","896","","","","","","","","","tol_peg_3","896","896","0","[[1,2,0],[0,0],[3]]","1","[[1,2,0],[0,0],[3]]","practice","896","","","","","","","","","","",""
"","","","","","poldrack-single-stim","136","1057725","0.0-3.0-4.0","62851102d56842a48361f9d4","C3","batch3","tol_feedback","-1","","","","","true","","","","","1000","1000","500","","","","","","-1","none","true","","0","","","","","",""
"","","","","","single-stim-button","137","1060608","0.0-3.0-5.0-0.0","62851102d56842a48361f9d4","C3","batch3","tol_practice","2882","","","","","","","","","tol_peg_1","2882","2882","0","[[1,0,0],[3,0],[0]]","2","[[0,0,0],[3,1],[2]]","practice","2882","","","","","","","","","","",""
"","","","","","single-stim-button","138","1061685","0.0-3.0-5.0-1.0","62851102d56842a48361f9d4","C3","batch3","tol_practice","1076","","","","","","","","","tol_peg_3","1076","1076","0","[[1,0,0],[3,0],[2]]","2","[[0,0,0],[3,1],[2]]","practice","1076","","","","","","","","","","",""
"","","","","","single-stim-button","139","1062374","0.0-3.0-5.1-0.1","62851102d56842a48361f9d4","C3","batch3","tol_practice","688","","","","","","","","","tol_peg_1","688","688","0","[[0,0,0],[3,0],[2]]","3","[[0,0,0],[3,1],[2]]","practice","688","","","","","","","","","","",""
"","","","","","single-stim-button","140","1063069","0.0-3.0-5.1-1.1","62851102d56842a48361f9d4","C3","batch3","tol_practice","695","","","","","","","","","tol_peg_2","695","695","0","[[0,0,0],[3,1],[2]]","3","[[0,0,0],[3,1],[2]]","practice","695","","","","","","","","","","",""
"","","","","","poldrack-single-stim","141","1064076","0.0-3.0-6.0","62851102d56842a48361f9d4","C3","batch3","tol_feedback","-1","","","","","true","","","","","1000","1000","500","","","","","","-1","none","true","","0","","","","","",""
"","","","","","single-stim-button","142","1069268","0.0-3.0-7.0-0.0","62851102d56842a48361f9d4","C3","batch3","tol_practice","5192","","","","","","","","","tol_peg_1","5192","5192","0","[[1,0,0],[3,0],[0]]","4","[[1,0,0],[2,0],[3]]","practice","5192","","","","","","","","","","",""
"","","","","","single-stim-button","143","1072483","0.0-3.0-7.0-1.0","62851102d56842a48361f9d4","C3","batch3","tol_practice","3214","","","","","","","","","tol_peg_1","3214","3214","0","[[1,2,0],[3,0],[0]]","4","[[1,0,0],[2,0],[3]]","practice","3214","","","","","","","","","","",""
"","","","","","single-stim-button","144","1073489","0.0-3.0-7.1-0.1","62851102d56842a48361f9d4","C3","batch3","tol_practice","1006","","","","","","","","","tol_peg_2","1006","1006","0","[[1,2,0],[0,0],[0]]","5","[[1,0,0],[2,0],[3]]","practice","1006","","","","","","","","","","",""
"","","","","","single-stim-button","145","1074271","0.0-3.0-7.1-1.1","62851102d56842a48361f9d4","C3","batch3","tol_practice","780","","","","","","","","","tol_peg_3","780","780","0","[[1,2,0],[0,0],[3]]","5","[[1,0,0],[2,0],[3]]","practice","780","","","","","","","","","","",""
"","","","","","single-stim-button","146","1074915","0.0-3.0-7.2-0.2","62851102d56842a48361f9d4","C3","batch3","tol_practice","643","","","","","","","","","tol_peg_1","643","643","0","[[1,0,0],[0,0],[3]]","6","[[1,0,0],[2,0],[3]]","practice","643","","","","","","","","","","",""
"","","","","","single-stim-button","147","1075631","0.0-3.0-7.2-1.2","62851102d56842a48361f9d4","C3","batch3","tol_practice","716","","","","","","","","","tol_peg_2","716","716","0","[[1,0,0],[2,0],[3]]","6","[[1,0,0],[2,0],[3]]","practice","716","","","","","","","","","","",""
"","","","","","poldrack-single-stim","148","1076636","0.0-3.0-8.0","62851102d56842a48361f9d4","C3","batch3","tol_feedback","-1","","","","","true","","","","","1000","1000","500","","","","","","-1","none","true","","0","","","","","",""
"","","","","","html-button-response","149","1079972","0.0-3.0-9.0","62851102d56842a48361f9d4","C3","batch3","tol_instruction","3334.7999999523163","<div class = centerbox><p class = center-block-text>Great job! You are done with practice trials<br>You are about to start official trials.<br> <br> Problem <strong>1</strong> out of 25 problems</p></div>","0","","","","","","","","","","","","","","","","","","","","","","","","","",""
"","","","","","single-stim-button","150","1087778","0.0-3.0-10.0-0.0","62851102d56842a48361f9d4","C3","batch3","tol_tohand","6796","","","","","","","","","tol_peg_1","6796","6796","0","[[1,0,0],[3,0],[0]]","1","[[1,3,0],[2,0],[0]]","0","0","","","","","","3","","","","",""
"","","","","","single-stim-button","151","1089138","0.0-3.0-10.0-1.0","62851102d56842a48361f9d4","C3","batch3","tol_toboard","1360","","","","","","","","","tol_peg_3","1360","1360","0","[[1,0,0],[3,0],[2]]","1","[[1,3,0],[2,0],[0]]","0","0","","","","","","3","","","","",""
"","","","","","single-stim-button","152","1089690","0.0-3.0-10.1-0.1","62851102d56842a48361f9d4","C3","batch3","tol_tohand","552","","","","","","","","","tol_peg_2","552","552","0","[[1,0,0],[0,0],[2]]","2","[[1,3,0],[2,0],[0]]","0","0","","","","","","3","","","","",""
"","","","","","single-stim-button","153","1090402","0.0-3.0-10.1-1.1","62851102d56842a48361f9d4","C3","batch3","tol_toboard","711","","","","","","","","","tol_peg_1","711","711","0","[[1,3,0],[0,0],[2]]","2","[[1,3,0],[2,0],[0]]","0","0","","","","","","3","","","","",""
"","","","","","single-stim-button","154","1091054","0.0-3.0-10.2-0.2","62851102d56842a48361f9d4","C3","batch3","tol_tohand","652","","","","","","","","","tol_peg_3","652","652","0","[[1,3,0],[0,0],[0]]","3","[[1,3,0],[2,0],[0]]","0","0","","","","","","3","","","","",""
"","","","","","single-stim-button","155","1091596","0.0-3.0-10.2-1.2","62851102d56842a48361f9d4","C3","batch3","tol_toboard","542","","","","","","","","","tol_peg_2","542","542","0","[[1,3,0],[2,0],[0]]","3","[[1,3,0],[2,0],[0]]","0","0","","","","","","3","","","","",""
"","","","","","poldrack-single-stim","156","1092605","0.0-3.0-11.0","62851102d56842a48361f9d4","C3","batch3","tol_feedback","-1","","","","","true","","","","","1000","1000","500","","","","","","-1","none","true","6796","8000","","","","","",""
"","","","","","html-button-response","157","1093747","0.0-3.0-12.0","62851102d56842a48361f9d4","C3","batch3","tol_trial_num","1140.5","<div class = centerbox><p class = center-block-text>problem <strong>2</strong> out of 25 problems</p></div>","0","","","","","","","","","","","","","","","","","","","","","","","","","",""
"","","","","","single-stim-button","158","1109045","0.0-3.0-13.0-0.0","62851102d56842a48361f9d4","C3","batch3","tol_tohand","15297","","","","","","","","","tol_peg_1","15297","15297","0","[[1,0,0],[3,0],[0]]","1","[[2,1,3],[0,0],[0]]","1","0","","","","","","5","","","","",""
"","","","","","single-stim-button","159","1109617","0.0-3.0-13.0-1.0","62851102d56842a48361f9d4","C3","batch3","tol_toboard","571","","","","","","","","","tol_peg_2","571","571","0","[[1,0,0],[3,2],[0]]","1","[[2,1,3],[0,0],[0]]","1","0","","","","","","5","","","","",""
"","","","","","single-stim-button","160","1110330","0.0-3.0-13.1-0.1","62851102d56842a48361f9d4","C3","batch3","tol_tohand","713","","","","","","","","","tol_peg_1","713","713","0","[[0,0,0],[3,2],[0]]","2","[[2,1,3],[0,0],[0]]","1","0","","","","","","5","","","","",""
"","","","","","single-stim-button","161","1111184","0.0-3.0-13.1-1.1","62851102d56842a48361f9d4","C3","batch3","tol_toboard","853","","","","","","","","","tol_peg_3","853","853","0","[[0,0,0],[3,2],[1]]","2","[[2,1,3],[0,0],[0]]","1","0","","","","","","5","","","","",""
"","","","","","single-stim-button","162","1111690","0.0-3.0-13.2-0.2","62851102d56842a48361f9d4","C3","batch3","tol_tohand","505","","","","","","","","","tol_peg_2","505","505","0","[[0,0,0],[3,0],[1]]","3","[[2,1,3],[0,0],[0]]","1","0","","","","","","5","","","","",""
"","","","","","single-stim-button","163","1112155","0.0-3.0-13.2-1.2","62851102d56842a48361f9d4","C3","batch3","tol_toboard","465","","","","","","","","","tol_peg_1","465","465","0","[[2,0,0],[3,0],[1]]","3","[[2,1,3],[0,0],[0]]","1","0","","","","","","5","","","","",""
"","","","","","single-stim-button","164","1113106","0.0-3.0-13.3-0.3","62851102d56842a48361f9d4","C3","batch3","tol_tohand","950","","","","","","","","","tol_peg_3","950","950","0","[[2,0,0],[3,0],[0]]","4","[[2,1,3],[0,0],[0]]","1","0","","","","","","5","","","","",""
"","","","","","single-stim-button","165","1114159","0.0-3.0-13.3-1.3","62851102d56842a48361f9d4","C3","batch3","tol_toboard","1052","","","","","","","","","tol_peg_1","1052","1052","0","[[2,1,0],[3,0],[0]]","4","[[2,1,3],[0,0],[0]]","1","0","","","","","","5","","","","",""
"","","","","","single-stim-button","166","1114742","0.0-3.0-13.4-0.4","62851102d56842a48361f9d4","C3","batch3","tol_tohand","583","","","","","","","","","tol_peg_2","583","583","0","[[2,1,0],[0,0],[0]]","5","[[2,1,3],[0,0],[0]]","1","0","","","","","","5","","","","",""
"","","","","","single-stim-button","167","1115248","0.0-3.0-13.4-1.4","62851102d56842a48361f9d4","C3","batch3","tol_toboard","505","","","","","","","","","tol_peg_1","505","505","0","[[2,1,3],[0,0],[0]]","5","[[2,1,3],[0,0],[0]]","1","0","","","","","","5","","","","",""
"","","","","","poldrack-single-stim","168","1116257","0.0-3.0-14.0","62851102d56842a48361f9d4","C3","batch3","tol_feedback","-1","","","","","true","","","","","1000","1000","500","","","","","","-1","none","true","15297","18048","","","","","",""
"","","","","","html-button-response","169","1117033","0.0-3.0-15.0","62851102d56842a48361f9d4","C3","batch3","tol_trial_num","774.3999998569489","<div class = centerbox><p class = center-block-text>problem <strong>3</strong> out of 25 problems</p></div>","0","","","","","","","","","","","","","","","","","","","","","","","","","",""
"","","","","","single-stim-button","170","1128171","0.0-3.0-16.0-0.0","62851102d56842a48361f9d4","C3","batch3","tol_tohand","11138","","","","","","","","","tol_peg_1","11138","11138","0","[[2,0,0],[0,0],[1]]","1","[[1,2,0],[3,0],[0]]","2","0","","","","","","4","","","","",""
"","","","","","single-stim-button","171","1128970","0.0-3.0-16.0-1.0","62851102d56842a48361f9d4","C3","batch3","tol_toboard","798","","","","","","","","","tol_peg_2","798","798","0","[[2,0,0],[3,0],[1]]","1","[[1,2,0],[3,0],[0]]","2","0","","","","","","4","","","","",""
"","","","","","single-stim-button","172","1130285","0.0-3.0-16.1-0.1","62851102d56842a48361f9d4","C3","batch3","tol_tohand","1314","","","","","","","","","tol_peg_1","1314","1314","0","[[0,0,0],[3,0],[1]]","2","[[1,2,0],[3,0],[0]]","2","0","","","","","","4","","","","",""
"","","","","","single-stim-button","173","1130883","0.0-3.0-16.1-1.1","62851102d56842a48361f9d4","C3","batch3","tol_toboard","596","","","","","","","","","tol_peg_2","596","596","0","[[0,0,0],[3,2],[1]]","2","[[1,2,0],[3,0],[0]]","2","0","","","","","","4","","","","",""
"","","","","","single-stim-button","174","1131577","0.0-3.0-16.2-0.2","62851102d56842a48361f9d4","C3","batch3","tol_tohand","694","","","","","","","","","tol_peg_3","694","694","0","[[0,0,0],[3,2],[0]]","3","[[1,2,0],[3,0],[0]]","2","0","","","","","","4","","","","",""
"","","","","","single-stim-button","175","1132362","0.0-3.0-16.2-1.2","62851102d56842a48361f9d4","C3","batch3","tol_toboard","784","","","","","","","","","tol_peg_1","784","784","0","[[1,0,0],[3,2],[0]]","3","[[1,2,0],[3,0],[0]]","2","0","","","","","","4","","","","",""
"","","","","","single-stim-button","176","1132876","0.0-3.0-16.3-0.3","62851102d56842a48361f9d4","C3","batch3","tol_tohand","513","","","","","","","","","tol_peg_2","513","513","0","[[1,0,0],[3,0],[0]]","4","[[1,2,0],[3,0],[0]]","2","0","","","","","","4","","","","",""
"","","","","","single-stim-button","177","1133490","0.0-3.0-16.3-1.3","62851102d56842a48361f9d4","C3","batch3","tol_toboard","613","","","","","","","","","tol_peg_1","613","613","0","[[1,2,0],[3,0],[0]]","4","[[1,2,0],[3,0],[0]]","2","0","","","","","","4","","","","",""
"","","","","","poldrack-single-stim","178","1134501","0.0-3.0-17.0","62851102d56842a48361f9d4","C3","batch3","tol_feedback","-1","","","","","true","","","","","1000","1000","500","","","","","","-1","none","true","11138","13659","","","","","",""
"","","","","","html-button-response","179","1135695","0.0-3.0-18.0","62851102d56842a48361f9d4","C3","batch3","tol_trial_num","1193.2999999523163","<div class = centerbox><p class = center-block-text>problem <strong>4</strong> out of 25 problems</p></div>","0","","","","","","","","","","","","","","","","","","","","","","","","","",""
"","","","","","single-stim-button","180","1145132","0.0-3.0-19.0-0.0","62851102d56842a48361f9d4","C3","batch3","tol_tohand","9436","","","","","","","","","tol_peg_2","9436","9436","0","[[3,0,0],[2,0],[0]]","1","[[3,0,0],[1,0],[2]]","3","0","","","","","","3","","","","",""
"","","","","","single-stim-button","181","1145695","0.0-3.0-19.0-1.0","62851102d56842a48361f9d4","C3","batch3","tol_toboard","561","","","","","","","","","tol_peg_1","561","561","0","[[3,1,0],[2,0],[0]]","1","[[3,0,0],[1,0],[2]]","3","0","","","","","","3","","","","",""
"","","","","","single-stim-button","182","1146237","0.0-3.0-19.1-0.1","62851102d56842a48361f9d4","C3","batch3","tol_tohand","542","","","","","","","","","tol_peg_2","542","542","0","[[3,1,0],[0,0],[0]]","2","[[3,0,0],[1,0],[2]]","3","0","","","","","","3","","","","",""
"","","","","","single-stim-button","183","1147115","0.0-3.0-19.1-1.1","62851102d56842a48361f9d4","C3","batch3","tol_toboard","877","","","","","","","","","tol_peg_3","877","877","0","[[3,1,0],[0,0],[2]]","2","[[3,0,0],[1,0],[2]]","3","0","","","","","","3","","","","",""
"","","","","","single-stim-button","184","1147695","0.0-3.0-19.2-0.2","62851102d56842a48361f9d4","C3","batch3","tol_tohand","580","","","","","","","","","tol_peg_1","580","580","0","[[3,0,0],[0,0],[2]]","3","[[3,0,0],[1,0],[2]]","3","0","","","","","","3","","","","",""
"","","","","","single-stim-button","185","1148296","0.0-3.0-19.2-1.2","62851102d56842a48361f9d4","C3","batch3","tol_toboard","601","","","","","","","","","tol_peg_2","601","601","0","[[3,0,0],[1,0],[2]]","3","[[3,0,0],[1,0],[2]]","3","0","","","","","","3","","","","",""
"","","","","","poldrack-single-stim","186","1149310","0.0-3.0-20.0","62851102d56842a48361f9d4","C3","batch3","tol_feedback","-1","","","","","true","","","","","1000","1000","500","","","","","","-1","none","true","9436","10558","","","","","",""
"","","","","","html-button-response","187","1150108","0.0-3.0-21.0","62851102d56842a48361f9d4","C3","batch3","tol_trial_num","797.7000000476837","<div class = centerbox><p class = center-block-text>problem <strong>5</strong> out of 25 problems</p></div>","0","","","","","","","","","","","","","","","","","","","","","","","","","",""
"","","","","","single-stim-button","188","1174062","0.0-3.0-22.0-0.0","62851102d56842a48361f9d4","C3","batch3","tol_tohand","23953","","","","","","","","","tol_peg_3","23953","23953","0","[[1,0,0],[2,0],[0]]","1","[[0,0,0],[1,2],[3]]","4","0","","","","","","7","","","","",""
"","","","","","single-stim-button","189","1174874","0.0-3.0-22.0-1.0","62851102d56842a48361f9d4","C3","batch3","tol_toboard","811","","","","","","","","","tol_peg_2","811","811","0","[[1,0,0],[2,3],[0]]","1","[[0,0,0],[1,2],[3]]","4","0","","","","","","7","","","","",""
"","","","","","single-stim-button","190","1175587","0.0-3.0-22.1-0.1","62851102d56842a48361f9d4","C3","batch3","tol_tohand","713","","","","","","","","","tol_peg_1","713","713","0","[[0,0,0],[2,3],[0]]","2","[[0,0,0],[1,2],[3]]","4","0","","","","","","7","","","","",""
"","","","","","single-stim-button","191","1177125","0.0-3.0-22.1-1.1","62851102d56842a48361f9d4","C3","batch3","tol_toboard","1537","","","","","","","","","tol_peg_3","1537","1537","0","[[0,0,0],[2,3],[1]]","2","[[0,0,0],[1,2],[3]]","4","0","","","","","","7","","","","",""
"","","","","","single-stim-button","192","1179750","0.0-3.0-22.2-0.2","62851102d56842a48361f9d4","C3","batch3","tol_tohand","2625","","","","","","","","","tol_peg_2","2625","2625","0","[[0,0,0],[2,0],[1]]","3","[[0,0,0],[1,2],[3]]","4","0","","","","","","7","","","","",""
"","","","","","single-stim-button","193","1181416","0.0-3.0-22.2-1.2","62851102d56842a48361f9d4","C3","batch3","tol_toboard","1665","","","","","","","","","tol_peg_1","1665","1665","0","[[3,0,0],[2,0],[1]]","3","[[0,0,0],[1,2],[3]]","4","0","","","","","","7","","","","",""
"","","","","","single-stim-button","194","1182133","0.0-3.0-22.3-0.3","62851102d56842a48361f9d4","C3","batch3","tol_tohand","717","","","","","","","","","tol_peg_2","717","717","0","[[3,0,0],[0,0],[1]]","4","[[0,0,0],[1,2],[3]]","4","0","","","","","","7","","","","",""
"","","","","","single-stim-button","195","1182766","0.0-3.0-22.3-1.3","62851102d56842a48361f9d4","C3","batch3","tol_toboard","632","","","","","","","","","tol_peg_1","632","632","0","[[3,2,0],[0,0],[1]]","4","[[0,0,0],[1,2],[3]]","4","0","","","","","","7","","","","",""
"","","","","","single-stim-button","196","1183324","0.0-3.0-22.4-0.4","62851102d56842a48361f9d4","C3","batch3","tol_tohand","558","","","","","","","","","tol_peg_3","558","558","0","[[3,2,0],[0,0],[0]]","5","[[0,0,0],[1,2],[3]]","4","0","","","","","","7","","","","",""
"","","","","","single-stim-button","197","1184088","0.0-3.0-22.4-1.4","62851102d56842a48361f9d4","C3","batch3","tol_toboard","764","","","","","","","","","tol_peg_2","764","764","0","[[3,2,0],[1,0],[0]]","5","[[0,0,0],[1,2],[3]]","4","0","","","","","","7","","","","",""
"","","","","","single-stim-button","198","1184784","0.0-3.0-22.5-0.5","62851102d56842a48361f9d4","C3","batch3","tol_tohand","695","","","","","","","","","tol_peg_1","695","695","0","[[3,0,0],[1,0],[0]]","6","[[0,0,0],[1,2],[3]]","4","0","","","","","","7","","","","",""
"","","","","","single-stim-button","199","1185648","0.0-3.0-22.5-1.5","62851102d56842a48361f9d4","C3","batch3","tol_toboard","864","","","","","","","","","tol_peg_2","864","864","0","[[3,0,0],[1,2],[0]]","6","[[0,0,0],[1,2],[3]]","4","0","","","","","","7","","","","",""
"","","","","","single-stim-button","200","1186290","0.0-3.0-22.6-0.6","62851102d56842a48361f9d4","C3","batch3","tol_tohand","641","","","","","","","","","tol_peg_1","641","641","0","[[0,0,0],[1,2],[0]]","7","[[0,0,0],[1,2],[3]]","4","0","","","","","","7","","","","",""
"","","","","","single-stim-button","201","1186997","0.0-3.0-22.6-1.6","62851102d56842a48361f9d4","C3","batch3","tol_toboard","706","","","","","","","","","tol_peg_3","706","706","0","[[0,0,0],[1,2],[3]]","7","[[0,0,0],[1,2],[3]]","4","0","","","","","","7","","","","",""
"","","","","","poldrack-single-stim","202","1188005","0.0-3.0-23.0","62851102d56842a48361f9d4","C3","batch3","tol_feedback","-1","","","","","true","","","","","1000","1000","500","","","","","","-1","none","true","23953","29902","","","","","",""
"","","","","","html-button-response","203","1189206","0.0-3.0-24.0","62851102d56842a48361f9d4","C3","batch3","tol_trial_num","1199.5","<div class = centerbox><p class = center-block-text>problem <strong>6</strong> out of 25 problems</p></div>","0","","","","","","","","","","","","","","","","","","","","","","","","","",""
"","","","","","single-stim-button","204","1205705","0.0-3.0-25.0-0.0","62851102d56842a48361f9d4","C3","batch3","tol_tohand","16499","","","","","","","","","tol_peg_3","16499","16499","0","[[0,0,0],[1,2],[0]]","1","[[1,0,0],[2,3],[0]]","5","0","","","","","","6","","","","",""
"","","","","","single-stim-button","205","1206468","0.0-3.0-25.0-1.0","62851102d56842a48361f9d4","C3","batch3","tol_toboard","762","","","","","","","","","tol_peg_1","762","762","0","[[3,0,0],[1,2],[0]]","1","[[1,0,0],[2,3],[0]]","5","0","","","","","","6","","","","",""
"","","","","","single-stim-button","206","1207020","0.0-3.0-25.1-0.1","62851102d56842a48361f9d4","C3","batch3","tol_tohand","551","","","","","","","","","tol_peg_2","551","551","0","[[3,0,0],[1,0],[0]]","2","[[1,0,0],[2,3],[0]]","5","0","","","","","","6","","","","",""
"","","","","","single-stim-button","207","1214492","0.0-3.0-25.1-1.1","62851102d56842a48361f9d4","C3","batch3","tol_toboard","7472","","","","","","","","","tol_peg_3","7472","7472","0","[[3,0,0],[1,0],[2]]","2","[[1,0,0],[2,3],[0]]","5","0","","","","","","6","","","","",""
"","","","","","single-stim-button","208","1217396","0.0-3.0-25.2-0.2","62851102d56842a48361f9d4","C3","batch3","tol_tohand","2902","","","","","","","","","tol_peg_1","2902","2902","0","[[0,0,0],[1,0],[2]]","3","[[1,0,0],[2,3],[0]]","5","0","","","","","","6","","","","",""
"","","","","","single-stim-button","209","1218146","0.0-3.0-25.2-1.2","62851102d56842a48361f9d4","C3","batch3","tol_toboard","750","","","","","","","","","tol_peg_2","750","750","0","[[0,0,0],[1,3],[2]]","3","[[1,0,0],[2,3],[0]]","5","0","","","","","","6","","","","",""
"","","","","","single-stim-button","210","1218712","0.0-3.0-25.3-0.3","62851102d56842a48361f9d4","C3","batch3","tol_tohand","566","","","","","","","","","tol_peg_3","566","566","0","[[0,0,0],[1,3],[0]]","4","[[1,0,0],[2,3],[0]]","5","0","","","","","","6","","","","",""
"","","","","","single-stim-button","211","1219503","0.0-3.0-25.3-1.3","62851102d56842a48361f9d4","C3","batch3","tol_toboard","790","","","","","","","","","tol_peg_1","790","790","0","[[2,0,0],[1,3],[0]]","4","[[1,0,0],[2,3],[0]]","5","0","","","","","","6","","","","",""
"","","","","","single-stim-button","212","1225137","0.0-3.0-25.4-0.4","62851102d56842a48361f9d4","C3","batch3","tol_tohand","5633","","","","","","","","","tol_peg_2","5633","5633","0","[[2,0,0],[1,0],[0]]","5","[[1,0,0],[2,3],[0]]","5","0","","","","","","6","","","","",""
"","","","","","single-stim-button","213","1225994","0.0-3.0-25.4-1.4","62851102d56842a48361f9d4","C3","batch3","tol_toboard","857","","","","","","","","","tol_peg_3","857","857","0","[[2,0,0],[1,0],[3]]","5","[[1,0,0],[2,3],[0]]","5","0","","","","","","6","","","","",""
"","","","","","single-stim-button","214","1228985","0.0-3.0-25.5-0.5","62851102d56842a48361f9d4","C3","batch3","tol_tohand","2990","","","","","","","","","tol_peg_2","2990","2990","0","[[2,0,0],[0,0],[3]]","6","[[1,0,0],[2,3],[0]]","5","0","","","","","","6","","","","",""
"","","","","","single-stim-button","215","1230291","0.0-3.0-25.5-1.5","62851102d56842a48361f9d4","C3","batch3","tol_toboard","1305","","","","","","","","","tol_peg_2","1305","1305","0","[[2,0,0],[1,0],[3]]","6","[[1,0,0],[2,3],[0]]","5","0","","","","","","6","","","","",""
"","","","","","single-stim-button","216","1230763","0.0-3.0-25.6-0.6","62851102d56842a48361f9d4","C3","batch3","tol_tohand","470","","","","","","","","","tol_peg_1","470","470","0","[[0,0,0],[1,0],[3]]","7","[[1,0,0],[2,3],[0]]","5","0","","","","","","6","","","","",""
"","","","","","single-stim-button","217","1231432","0.0-3.0-25.6-1.6","62851102d56842a48361f9d4","C3","batch3","tol_toboard","668","","","","","","","","","tol_peg_2","668","668","0","[[0,0,0],[1,2],[3]]","7","[[1,0,0],[2,3],[0]]","5","0","","","","","","6","","","","",""
"","","","","","single-stim-button","218","1241285","0.0-3.0-25.7-0.7","62851102d56842a48361f9d4","C3","batch3","tol_tohand","9852","","","","","","","","","tol_peg_3","9852","9852","0","[[0,0,0],[1,2],[0]]","8","[[1,0,0],[2,3],[0]]","5","0","","","","","","6","","","","",""
"","","","","","single-stim-button","219","1242626","0.0-3.0-25.7-1.7","62851102d56842a48361f9d4","C3","batch3","tol_toboard","1341","","","","","","","","","tol_peg_1","1341","1341","0","[[3,0,0],[1,2],[0]]","8","[[1,0,0],[2,3],[0]]","5","0","","","","","","6","","","","",""
"","","","","","single-stim-button","220","1243260","0.0-3.0-25.8-0.8","62851102d56842a48361f9d4","C3","batch3","tol_tohand","633","","","","","","","","","tol_peg_2","633","633","0","[[3,0,0],[1,0],[0]]","9","[[1,0,0],[2,3],[0]]","5","0","","","","","","6","","","","",""
"","","","","","single-stim-button","221","1243713","0.0-3.0-25.8-1.8","62851102d56842a48361f9d4","C3","batch3","tol_toboard","453","","","","","","","","","tol_peg_1","453","453","0","[[3,2,0],[1,0],[0]]","9","[[1,0,0],[2,3],[0]]","5","0","","","","","","6","","","","",""
"","","","","","single-stim-button","222","1244342","0.0-3.0-25.9-0.9","62851102d56842a48361f9d4","C3","batch3","tol_tohand","628","","","","","","","","","tol_peg_2","628","628","0","[[3,2,0],[0,0],[0]]","10","[[1,0,0],[2,3],[0]]","5","0","","","","","","6","","","","",""
"","","","","","single-stim-button","223","1245348","0.0-3.0-25.9-1.9","62851102d56842a48361f9d4","C3","batch3","tol_toboard","1006","","","","","","","","","tol_peg_3","1006","1006","0","[[3,2,0],[0,0],[1]]","10","[[1,0,0],[2,3],[0]]","5","0","","","","","","6","","","","",""
"","","","","","single-stim-button","224","1245952","0.0-3.0-25.10-0.10","62851102d56842a48361f9d4","C3","batch3","tol_tohand","604","","","","","","","","","tol_peg_1","604","604","0","[[3,0,0],[0,0],[1]]","11","[[1,0,0],[2,3],[0]]","5","0","","","","","","6","","","","",""
"","","","","","single-stim-button","225","1246519","0.0-3.0-25.10-1.10","62851102d56842a48361f9d4","C3","batch3","tol_toboard","567","","","","","","","","","tol_peg_2","567","567","0","[[3,0,0],[2,0],[1]]","11","[[1,0,0],[2,3],[0]]","5","0","","","","","","6","","","","",""
"","","","","","single-stim-button","226","1247802","0.0-3.0-25.11-0.11","62851102d56842a48361f9d4","C3","batch3","tol_tohand","1282","","","","","","","","","tol_peg_1","1282","1282","0","[[0,0,0],[2,0],[1]]","12","[[1,0,0],[2,3],[0]]","5","0","","","","","","6","","","","",""
"","","","","","single-stim-button","227","1248447","0.0-3.0-25.11-1.11","62851102d56842a48361f9d4","C3","batch3","tol_toboard","645","","","","","","","","","tol_peg_2","645","645","0","[[0,0,0],[2,3],[1]]","12","[[1,0,0],[2,3],[0]]","5","0","","","","","","6","","","","",""
"","","","","","single-stim-button","228","1249321","0.0-3.0-25.12-0.12","62851102d56842a48361f9d4","C3","batch3","tol_tohand","873","","","","","","","","","tol_peg_3","873","873","0","[[0,0,0],[2,3],[0]]","13","[[1,0,0],[2,3],[0]]","5","0","","","","","","6","","","","",""
"","","","","","single-stim-button","229","1250114","0.0-3.0-25.12-1.12","62851102d56842a48361f9d4","C3","batch3","tol_toboard","793","","","","","","","","","tol_peg_1","793","793","0","[[1,0,0],[2,3],[0]]","13","[[1,0,0],[2,3],[0]]","5","0","","","","","","6","","","","",""
"","","","","","poldrack-single-stim","230","1251127","0.0-3.0-26.0","62851102d56842a48361f9d4","C3","batch3","tol_feedback","-1","","","","","true","","","","","1000","1000","500","","","","","","-1","none","true","16499","43483","","","","","",""
"","","","","","html-button-response","231","1252413","0.0-3.0-27.0","62851102d56842a48361f9d4","C3","batch3","tol_trial_num","1284.2999999523163","<div class = centerbox><p class = center-block-text>problem <strong>7</strong> out of 25 problems</p></div>","0","","","","","","","","","","","","","","","","","","","","","","","","","",""
"","","","","","single-stim-button","232","1259648","0.0-3.0-28.0-0.0","62851102d56842a48361f9d4","C3","batch3","tol_tohand","7234","","","","","","","","","tol_peg_1","7234","7234","0","[[2,0,0],[0,0],[3]]","1","[[1,2,0],[3,0],[0]]","6","0","","","","","","5","","","","",""
"","","","","","single-stim-button","233","1260823","0.0-3.0-28.0-1.0","62851102d56842a48361f9d4","C3","batch3","tol_toboard","1175","","","","","","","","","tol_peg_2","1175","1175","0","[[2,0,0],[1,0],[3]]","1","[[1,2,0],[3,0],[0]]","6","0","","","","","","5","","","","",""
"","","","","","single-stim-button","234","1261388","0.0-3.0-28.1-0.1","62851102d56842a48361f9d4","C3","batch3","tol_tohand","564","","","","","","","","","tol_peg_1","564","564","0","[[0,0,0],[1,0],[3]]","2","[[1,2,0],[3,0],[0]]","6","0","","","","","","5","","","","",""
"","","","","","single-stim-button","235","1263911","0.0-3.0-28.1-1.1","62851102d56842a48361f9d4","C3","batch3","tol_toboard","2523","","","","","","","","","tol_peg_1","2523","2523","0","[[2,0,0],[1,0],[3]]","2","[[1,2,0],[3,0],[0]]","6","0","","","","","","5","","","","",""
"","","","","","single-stim-button","236","1265112","0.0-3.0-28.2-0.2","62851102d56842a48361f9d4","C3","batch3","tol_tohand","1201","","","","","","","","","tol_peg_3","1201","1201","0","[[2,0,0],[1,0],[0]]","3","[[1,2,0],[3,0],[0]]","6","0","","","","","","5","","","","",""
"","","","","","single-stim-button","237","1265772","0.0-3.0-28.2-1.2","62851102d56842a48361f9d4","C3","batch3","tol_toboard","660","","","","","","","","","tol_peg_2","660","660","0","[[2,0,0],[1,3],[0]]","3","[[1,2,0],[3,0],[0]]","6","0","","","","","","5","","","","",""
"","","","","","single-stim-button","238","1266282","0.0-3.0-28.3-0.3","62851102d56842a48361f9d4","C3","batch3","tol_tohand","510","","","","","","","","","tol_peg_1","510","510","0","[[0,0,0],[1,3],[0]]","4","[[1,2,0],[3,0],[0]]","6","0","","","","","","5","","","","",""
"","","","","","single-stim-button","239","1269576","0.0-3.0-28.3-1.3","62851102d56842a48361f9d4","C3","batch3","tol_toboard","3294","","","","","","","","","tol_peg_3","3294","3294","0","[[0,0,0],[1,3],[2]]","4","[[1,2,0],[3,0],[0]]","6","0","","","","","","5","","","","",""
"","","","","","single-stim-button","240","1271978","0.0-3.0-28.4-0.4","62851102d56842a48361f9d4","C3","batch3","tol_tohand","2402","","","","","","","","","tol_peg_2","2402","2402","0","[[0,0,0],[1,0],[2]]","5","[[1,2,0],[3,0],[0]]","6","0","","","","","","5","","","","",""
"","","","","","single-stim-button","241","1272948","0.0-3.0-28.4-1.4","62851102d56842a48361f9d4","C3","batch3","tol_toboard","969","","","","","","","","","tol_peg_1","969","969","0","[[3,0,0],[1,0],[2]]","5","[[1,2,0],[3,0],[0]]","6","0","","","","","","5","","","","",""
"","","","","","single-stim-button","242","1274546","0.0-3.0-28.5-0.5","62851102d56842a48361f9d4","C3","batch3","tol_tohand","1598","","","","","","","","","tol_peg_3","1598","1598","0","[[3,0,0],[1,0],[0]]","6","[[1,2,0],[3,0],[0]]","6","0","","","","","","5","","","","",""
"","","","","","single-stim-button","243","1275040","0.0-3.0-28.5-1.5","62851102d56842a48361f9d4","C3","batch3","tol_toboard","493","","","","","","","","","tol_peg_2","493","493","0","[[3,0,0],[1,2],[0]]","6","[[1,2,0],[3,0],[0]]","6","0","","","","","","5","","","","",""
"","","","","","single-stim-button","244","1278227","0.0-3.0-28.6-0.6","62851102d56842a48361f9d4","C3","batch3","tol_tohand","3187","","","","","","","","","tol_peg_2","3187","3187","0","[[3,0,0],[1,0],[0]]","7","[[1,2,0],[3,0],[0]]","6","0","","","","","","5","","","","",""
"","","","","","single-stim-button","245","1278639","0.0-3.0-28.6-1.6","62851102d56842a48361f9d4","C3","batch3","tol_toboard","411","","","","","","","","","tol_peg_1","411","411","0","[[3,2,0],[1,0],[0]]","7","[[1,2,0],[3,0],[0]]","6","0","","","","","","5","","","","",""
"","","","","","single-stim-button","246","1279276","0.0-3.0-28.7-0.7","62851102d56842a48361f9d4","C3","batch3","tol_tohand","637","","","","","","","","","tol_peg_2","637","637","0","[[3,2,0],[0,0],[0]]","8","[[1,2,0],[3,0],[0]]","6","0","","","","","","5","","","","",""
"","","","","","single-stim-button","247","1279944","0.0-3.0-28.7-1.7","62851102d56842a48361f9d4","C3","batch3","tol_toboard","668","","","","","","","","","tol_peg_3","668","668","0","[[3,2,0],[0,0],[1]]","8","[[1,2,0],[3,0],[0]]","6","0","","","","","","5","","","","",""
"","","","","","single-stim-button","248","1280931","0.0-3.0-28.8-0.8","62851102d56842a48361f9d4","C3","batch3","tol_tohand","986","","","","","","","","","tol_peg_1","986","986","0","[[3,0,0],[0,0],[1]]","9","[[1,2,0],[3,0],[0]]","6","0","","","","","","5","","","","",""
"","","","","","single-stim-button","249","1281865","0.0-3.0-28.8-1.8","62851102d56842a48361f9d4","C3","batch3","tol_toboard","934","","","","","","","","","tol_peg_2","934","934","0","[[3,0,0],[2,0],[1]]","9","[[1,2,0],[3,0],[0]]","6","0","","","","","","5","","","","",""
"","","","","","single-stim-button","250","1283250","0.0-3.0-28.9-0.9","62851102d56842a48361f9d4","C3","batch3","tol_tohand","1383","","","","","","","","","tol_peg_1","1383","1383","0","[[0,0,0],[2,0],[1]]","10","[[1,2,0],[3,0],[0]]","6","0","","","","","","5","","","","",""
"","","","","","single-stim-button","251","1284584","0.0-3.0-28.9-1.9","62851102d56842a48361f9d4","C3","batch3","tol_toboard","1333","","","","","","","","","tol_peg_2","1333","1333","0","[[0,0,0],[2,3],[1]]","10","[[1,2,0],[3,0],[0]]","6","0","","","","","","5","","","","",""
"","","","","","single-stim-button","252","1285088","0.0-3.0-28.10-0.10","62851102d56842a48361f9d4","C3","batch3","tol_tohand","504","","","","","","","","","tol_peg_3","504","504","0","[[0,0,0],[2,3],[0]]","11","[[1,2,0],[3,0],[0]]","6","0","","","","","","5","","","","",""
"","","","","","single-stim-button","253","1285713","0.0-3.0-28.10-1.10","62851102d56842a48361f9d4","C3","batch3","tol_toboard","624","","","","","","","","","tol_peg_1","624","624","0","[[1,0,0],[2,3],[0]]","11","[[1,2,0],[3,0],[0]]","6","0","","","","","","5","","","","",""
"","","","","","single-stim-button","254","1286640","0.0-3.0-28.11-0.11","62851102d56842a48361f9d4","C3","batch3","tol_tohand","927","","","","","","","","","tol_peg_2","927","927","0","[[1,0,0],[2,0],[0]]","12","[[1,2,0],[3,0],[0]]","6","0","","","","","","5","","","","",""
"","","","","","single-stim-button","255","1287242","0.0-3.0-28.11-1.11","62851102d56842a48361f9d4","C3","batch3","tol_toboard","602","","","","","","","","","tol_peg_3","602","602","0","[[1,0,0],[2,0],[3]]","12","[[1,2,0],[3,0],[0]]","6","0","","","","","","5","","","","",""
"","","","","","single-stim-button","256","1287722","0.0-3.0-28.12-0.12","62851102d56842a48361f9d4","C3","batch3","tol_tohand","479","","","","","","","","","tol_peg_2","479","479","0","[[1,0,0],[0,0],[3]]","13","[[1,2,0],[3,0],[0]]","6","0","","","","","","5","","","","",""
"","","","","","single-stim-button","257","1288099","0.0-3.0-28.12-1.12","62851102d56842a48361f9d4","C3","batch3","tol_toboard","377","","","","","","","","","tol_peg_1","377","377","0","[[1,2,0],[0,0],[3]]","13","[[1,2,0],[3,0],[0]]","6","0","","","","","","5","","","","",""
"","","","","","single-stim-button","258","1288724","0.0-3.0-28.13-0.13","62851102d56842a48361f9d4","C3","batch3","tol_tohand","623","","","","","","","","","tol_peg_3","623","623","0","[[1,2,0],[0,0],[0]]","14","[[1,2,0],[3,0],[0]]","6","0","","","","","","5","","","","",""
"","","","","","single-stim-button","259","1289270","0.0-3.0-28.13-1.13","62851102d56842a48361f9d4","C3","batch3","tol_toboard","546","","","","","","","","","tol_peg_2","546","546","0","[[1,2,0],[3,0],[0]]","14","[[1,2,0],[3,0],[0]]","6","0","","","","","","5","","","","",""
"","","","","","poldrack-single-stim","260","1290278","0.0-3.0-29.0","62851102d56842a48361f9d4","C3","batch3","tol_feedback","-1","","","","","true","","","","","1000","1000","500","","","","","","-1","none","true","7234","22235","","","","","",""
"","","","","","html-button-response","261","1291224","0.0-3.0-30.0","62851102d56842a48361f9d4","C3","batch3","tol_trial_num","944.3999998569489","<div class = centerbox><p class = center-block-text>problem <strong>8</strong> out of 25 problems</p></div>","0","","","","","","","","","","","","","","","","","","","","","","","","","",""
"","","","","","single-stim-button","262","1298440","0.0-3.0-31.0-0.0","62851102d56842a48361f9d4","C3","batch3","tol_tohand","7216","","","","","","","","","tol_peg_3","7216","7216","0","[[0,0,0],[2,3],[0]]","1","[[1,2,0],[3,0],[0]]","7","0","","","","","","4","","","","",""
"","","","","","single-stim-button","263","1299585","0.0-3.0-31.0-1.0","62851102d56842a48361f9d4","C3","batch3","tol_toboard","1143","","","","","","","","","tol_peg_1","1143","1143","0","[[1,0,0],[2,3],[0]]","1","[[1,2,0],[3,0],[0]]","7","0","","","","","","4","","","","",""
"","","","","","single-stim-button","264","1300178","0.0-3.0-31.1-0.1","62851102d56842a48361f9d4","C3","batch3","tol_tohand","593","","","","","","","","","tol_peg_2","593","593","0","[[1,0,0],[2,0],[0]]","2","[[1,2,0],[3,0],[0]]","7","0","","","","","","4","","","","",""
"","","","","","single-stim-button","265","1300761","0.0-3.0-31.1-1.1","62851102d56842a48361f9d4","C3","batch3","tol_toboard","582","","","","","","","","","tol_peg_3","582","582","0","[[1,0,0],[2,0],[3]]","2","[[1,2,0],[3,0],[0]]","7","0","","","","","","4","","","","",""
"","","","","","single-stim-button","266","1301339","0.0-3.0-31.2-0.2","62851102d56842a48361f9d4","C3","batch3","tol_tohand","577","","","","","","","","","tol_peg_2","577","577","0","[[1,0,0],[0,0],[3]]","3","[[1,2,0],[3,0],[0]]","7","0","","","","","","4","","","","",""
"","","","","","single-stim-button","267","1301946","0.0-3.0-31.2-1.2","62851102d56842a48361f9d4","C3","batch3","tol_toboard","605","","","","","","","","","tol_peg_1","605","605","0","[[1,2,0],[0,0],[3]]","3","[[1,2,0],[3,0],[0]]","7","0","","","","","","4","","","","",""
"","","","","","single-stim-button","268","1302654","0.0-3.0-31.3-0.3","62851102d56842a48361f9d4","C3","batch3","tol_tohand","708","","","","","","","","","tol_peg_3","708","708","0","[[1,2,0],[0,0],[0]]","4","[[1,2,0],[3,0],[0]]","7","0","","","","","","4","","","","",""
"","","","","","single-stim-button","269","1303313","0.0-3.0-31.3-1.3","62851102d56842a48361f9d4","C3","batch3","tol_toboard","658","","","","","","","","","tol_peg_2","658","658","0","[[1,2,0],[3,0],[0]]","4","[[1,2,0],[3,0],[0]]","7","0","","","","","","4","","","","",""
"","","","","","poldrack-single-stim","270","1304324","0.0-3.0-32.0","62851102d56842a48361f9d4","C3","batch3","tol_feedback","-1","","","","","true","","","","","1000","1000","500","","","","","","-1","none","true","7216","9094","","","","","",""
"","","","","","html-button-response","271","1305140","0.0-3.0-33.0","62851102d56842a48361f9d4","C3","batch3","tol_trial_num","815.7000000476837","<div class = centerbox><p class = center-block-text>problem <strong>9</strong> out of 25 problems</p></div>","0","","","","","","","","","","","","","","","","","","","","","","","","","",""
"","","","","","single-stim-button","272","1311365","0.0-3.0-34.0-0.0","62851102d56842a48361f9d4","C3","batch3","tol_tohand","6225","","","","","","","","","tol_peg_3","6225","6225","0","[[3,2,0],[0,0],[0]]","1","[[2,1,0],[3,0],[0]]","8","0","","","","","","6","","","","",""
"","","","","","single-stim-button","273","1311934","0.0-3.0-34.0-1.0","62851102d56842a48361f9d4","C3","batch3","tol_toboard","568","","","","","","","","","tol_peg_2","568","568","0","[[3,2,0],[1,0],[0]]","1","[[2,1,0],[3,0],[0]]","8","0","","","","","","6","","","","",""
"","","","","","single-stim-button","274","1312486","0.0-3.0-34.1-0.1","62851102d56842a48361f9d4","C3","batch3","tol_tohand","550","","","","","","","","","tol_peg_1","550","550","0","[[3,0,0],[1,0],[0]]","2","[[2,1,0],[3,0],[0]]","8","0","","","","","","6","","","","",""
"","","","","","single-stim-button","275","1316362","0.0-3.0-34.1-1.1","62851102d56842a48361f9d4","C3","batch3","tol_toboard","3874","","","","","","","","","tol_peg_2","3874","3874","0","[[3,0,0],[1,2],[0]]","2","[[2,1,0],[3,0],[0]]","8","0","","","","","","6","","","","",""
"","","","","","single-stim-button","276","1317595","0.0-3.0-34.2-0.2","62851102d56842a48361f9d4","C3","batch3","tol_tohand","1232","","","","","","","","","tol_peg_1","1232","1232","0","[[0,0,0],[1,2],[0]]","3","[[2,1,0],[3,0],[0]]","8","0","","","","","","6","","","","",""
"","","","","","single-stim-button","277","1318560","0.0-3.0-34.2-1.2","62851102d56842a48361f9d4","C3","batch3","tol_toboard","964","","","","","","","","","tol_peg_3","964","964","0","[[0,0,0],[1,2],[3]]","3","[[2,1,0],[3,0],[0]]","8","0","","","","","","6","","","","",""
"","","","","","single-stim-button","278","1319009","0.0-3.0-34.3-0.3","62851102d56842a48361f9d4","C3","batch3","tol_tohand","448","","","","","","","","","tol_peg_2","448","448","0","[[0,0,0],[1,0],[3]]","4","[[2,1,0],[3,0],[0]]","8","0","","","","","","6","","","","",""
"","","","","","single-stim-button","279","1319579","0.0-3.0-34.3-1.3","62851102d56842a48361f9d4","C3","batch3","tol_toboard","570","","","","","","","","","tol_peg_1","570","570","0","[[2,0,0],[1,0],[3]]","4","[[2,1,0],[3,0],[0]]","8","0","","","","","","6","","","","",""
"","","","","","single-stim-button","280","1320179","0.0-3.0-34.4-0.4","62851102d56842a48361f9d4","C3","batch3","tol_tohand","599","","","","","","","","","tol_peg_2","599","599","0","[[2,0,0],[0,0],[3]]","5","[[2,1,0],[3,0],[0]]","8","0","","","","","","6","","","","",""
"","","","","","single-stim-button","281","1320792","0.0-3.0-34.4-1.4","62851102d56842a48361f9d4","C3","batch3","tol_toboard","612","","","","","","","","","tol_peg_1","612","612","0","[[2,1,0],[0,0],[3]]","5","[[2,1,0],[3,0],[0]]","8","0","","","","","","6","","","","",""
"","","","","","single-stim-button","282","1321344","0.0-3.0-34.5-0.5","62851102d56842a48361f9d4","C3","batch3","tol_tohand","550","","","","","","","","","tol_peg_3","550","550","0","[[2,1,0],[0,0],[0]]","6","[[2,1,0],[3,0],[0]]","8","0","","","","","","6","","","","",""
"","","","","","single-stim-button","283","1321828","0.0-3.0-34.5-1.5","62851102d56842a48361f9d4","C3","batch3","tol_toboard","484","","","","","","","","","tol_peg_2","484","484","0","[[2,1,0],[3,0],[0]]","6","[[2,1,0],[3,0],[0]]","8","0","","","","","","6","","","","",""
"","","","","","poldrack-single-stim","284","1322836","0.0-3.0-35.0","62851102d56842a48361f9d4","C3","batch3","tol_feedback","-1","","","","","true","","","","","1000","1000","500","","","","","","-1","none","true","6225","9604","","","","","",""
"","","","","","html-button-response","285","1323559","0.0-3.0-36.0","62851102d56842a48361f9d4","C3","batch3","tol_trial_num","722.5999999046326","<div class = centerbox><p class = center-block-text>problem <strong>10</strong> out of 25 problems</p></div>","0","","","","","","","","","","","","","","","","","","","","","","","","","",""
"","","","","","single-stim-button","286","1337491","0.0-3.0-37.0-0.0","62851102d56842a48361f9d4","C3","batch3","tol_tohand","13931","","","","","","","","","tol_peg_2","13931","13931","0","[[3,0,0],[0,0],[2]]","1","[[3,0,0],[2,1],[0]]","9","0","","","","","","3","","","","",""
"","","","","","single-stim-button","287","1338119","0.0-3.0-37.0-1.0","62851102d56842a48361f9d4","C3","batch3","tol_toboard","628","","","","","","","","","tol_peg_1","628","628","0","[[3,1,0],[0,0],[2]]","1","[[3,0,0],[2,1],[0]]","9","0","","","","","","3","","","","",""
"","","","","","single-stim-button","288","1338679","0.0-3.0-37.1-0.1","62851102d56842a48361f9d4","C3","batch3","tol_tohand","560","","","","","","","","","tol_peg_3","560","560","0","[[3,1,0],[0,0],[0]]","2","[[3,0,0],[2,1],[0]]","9","0","","","","","","3","","","","",""
"","","","","","single-stim-button","289","1339241","0.0-3.0-37.1-1.1","62851102d56842a48361f9d4","C3","batch3","tol_toboard","562","","","","","","","","","tol_peg_2","562","562","0","[[3,1,0],[2,0],[0]]","2","[[3,0,0],[2,1],[0]]","9","0","","","","","","3","","","","",""
"","","","","","single-stim-button","290","1339655","0.0-3.0-37.2-0.2","62851102d56842a48361f9d4","C3","batch3","tol_tohand","413","","","","","","","","","tol_peg_1","413","413","0","[[3,0,0],[2,0],[0]]","3","[[3,0,0],[2,1],[0]]","9","0","","","","","","3","","","","",""
"","","","","","single-stim-button","291","1340135","0.0-3.0-37.2-1.2","62851102d56842a48361f9d4","C3","batch3","tol_toboard","479","","","","","","","","","tol_peg_2","479","479","0","[[3,0,0],[2,1],[0]]","3","[[3,0,0],[2,1],[0]]","9","0","","","","","","3","","","","",""
"","","","","","poldrack-single-stim","292","1341143","0.0-3.0-38.0","62851102d56842a48361f9d4","C3","batch3","tol_feedback","-1","","","","","true","","","","","1000","1000","500","","","","","","-1","none","true","13931","14904","","","","","",""
"","","","","","html-button-response","293","1342153","0.0-3.0-39.0","62851102d56842a48361f9d4","C3","batch3","tol_trial_num","1009.2999999523163","<div class = centerbox><p class = center-block-text>problem <strong>11</strong> out of 25 problems</p></div>","0","","","","","","","","","","","","","","","","","","","","","","","","","",""
"","","","","","single-stim-button","294","1362105","0.0-3.0-40.0-0.0","62851102d56842a48361f9d4","C3","batch3","tol_tohand","19950","","","","","","","","","tol_peg_2","19950","19950","0","[[1,2,0],[0,0],[0]]","1","[[2,0,0],[1,3],[0]]","10","0","","","","","","6","","","","",""
"","","","","","single-stim-button","295","1362914","0.0-3.0-40.0-1.0","62851102d56842a48361f9d4","C3","batch3","tol_toboard","808","","","","","","","","","tol_peg_3","808","808","0","[[1,2,0],[0,0],[3]]","1","[[2,0,0],[1,3],[0]]","10","0","","","","","","6","","","","",""
"","","","","","single-stim-button","296","1364135","0.0-3.0-40.1-0.1","62851102d56842a48361f9d4","C3","batch3","tol_tohand","1220","","","","","","","","","tol_peg_1","1220","1220","0","[[1,0,0],[0,0],[3]]","2","[[2,0,0],[1,3],[0]]","10","0","","","","","","6","","","","",""
"","","","","","single-stim-button","297","1365345","0.0-3.0-40.1-1.1","62851102d56842a48361f9d4","C3","batch3","tol_toboard","1209","","","","","","","","","tol_peg_2","1209","1209","0","[[1,0,0],[2,0],[3]]","2","[[2,0,0],[1,3],[0]]","10","0","","","","","","6","","","","",""
"","","","","","single-stim-button","298","1370283","0.0-3.0-40.2-0.2","62851102d56842a48361f9d4","C3","batch3","tol_tohand","4937","","","","","","","","","tol_peg_2","4937","4937","0","[[1,0,0],[0,0],[3]]","3","[[2,0,0],[1,3],[0]]","10","0","","","","","","6","","","","",""
"","","","","","single-stim-button","299","1370789","0.0-3.0-40.2-1.2","62851102d56842a48361f9d4","C3","batch3","tol_toboard","505","","","","","","","","","tol_peg_1","505","505","0","[[1,2,0],[0,0],[3]]","3","[[2,0,0],[1,3],[0]]","10","0","","","","","","6","","","","",""
"","","","","","single-stim-button","300","1371371","0.0-3.0-40.3-0.3","62851102d56842a48361f9d4","C3","batch3","tol_tohand","582","","","","","","","","","tol_peg_3","582","582","0","[[1,2,0],[0,0],[0]]","4","[[2,0,0],[1,3],[0]]","10","0","","","","","","6","","","","",""
"","","","","","single-stim-button","301","1371883","0.0-3.0-40.3-1.3","62851102d56842a48361f9d4","C3","batch3","tol_toboard","511","","","","","","","","","tol_peg_2","511","511","0","[[1,2,0],[3,0],[0]]","4","[[2,0,0],[1,3],[0]]","10","0","","","","","","6","","","","",""
"","","","","","single-stim-button","302","1372905","0.0-3.0-40.4-0.4","62851102d56842a48361f9d4","C3","batch3","tol_tohand","1021","","","","","","","","","tol_peg_1","1021","1021","0","[[1,0,0],[3,0],[0]]","5","[[2,0,0],[1,3],[0]]","10","0","","","","","","6","","","","",""
"","","","","","single-stim-button","303","1373544","0.0-3.0-40.4-1.4","62851102d56842a48361f9d4","C3","batch3","tol_toboard","638","","","","","","","","","tol_peg_3","638","638","0","[[1,0,0],[3,0],[2]]","5","[[2,0,0],[1,3],[0]]","10","0","","","","","","6","","","","",""
"","","","","","single-stim-button","304","1378870","0.0-3.0-40.5-0.5","62851102d56842a48361f9d4","C3","batch3","tol_tohand","5326","","","","","","","","","tol_peg_1","5326","5326","0","[[0,0,0],[3,0],[2]]","6","[[2,0,0],[1,3],[0]]","10","0","","","","","","6","","","","",""
"","","","","","single-stim-button","305","1379464","0.0-3.0-40.5-1.5","62851102d56842a48361f9d4","C3","batch3","tol_toboard","594","","","","","","","","","tol_peg_2","594","594","0","[[0,0,0],[3,1],[2]]","6","[[2,0,0],[1,3],[0]]","10","0","","","","","","6","","","","",""
"","","","","","single-stim-button","306","1380059","0.0-3.0-40.6-0.6","62851102d56842a48361f9d4","C3","batch3","tol_tohand","594","","","","","","","","","tol_peg_3","594","594","0","[[0,0,0],[3,1],[0]]","7","[[2,0,0],[1,3],[0]]","10","0","","","","","","6","","","","",""
"","","","","","single-stim-button","307","1380760","0.0-3.0-40.6-1.6","62851102d56842a48361f9d4","C3","batch3","tol_toboard","701","","","","","","","","","tol_peg_1","701","701","0","[[2,0,0],[3,1],[0]]","7","[[2,0,0],[1,3],[0]]","10","0","","","","","","6","","","","",""
"","","","","","single-stim-button","308","1383474","0.0-3.0-40.7-0.7","62851102d56842a48361f9d4","C3","batch3","tol_tohand","2713","","","","","","","","","tol_peg_2","2713","2713","0","[[2,0,0],[3,0],[0]]","8","[[2,0,0],[1,3],[0]]","10","0","","","","","","6","","","","",""
"","","","","","single-stim-button","309","1384220","0.0-3.0-40.7-1.7","62851102d56842a48361f9d4","C3","batch3","tol_toboard","746","","","","","","","","","tol_peg_3","746","746","0","[[2,0,0],[3,0],[1]]","8","[[2,0,0],[1,3],[0]]","10","0","","","","","","6","","","","",""
"","","","","","single-stim-button","310","1384836","0.0-3.0-40.8-0.8","62851102d56842a48361f9d4","C3","batch3","tol_tohand","616","","","","","","","","","tol_peg_2","616","616","0","[[2,0,0],[0,0],[1]]","9","[[2,0,0],[1,3],[0]]","10","0","","","","","","6","","","","",""
"","","","","","single-stim-button","311","1385395","0.0-3.0-40.8-1.8","62851102d56842a48361f9d4","C3","batch3","tol_toboard","559","","","","","","","","","tol_peg_1","559","559","0","[[2,3,0],[0,0],[1]]","9","[[2,0,0],[1,3],[0]]","10","0","","","","","","6","","","","",""
"","","","","","single-stim-button","312","1386426","0.0-3.0-40.9-0.9","62851102d56842a48361f9d4","C3","batch3","tol_tohand","1029","","","","","","","","","tol_peg_3","1029","1029","0","[[2,3,0],[0,0],[0]]","10","[[2,0,0],[1,3],[0]]","10","0","","","","","","6","","","","",""
"","","","","","single-stim-button","313","1386891","0.0-3.0-40.9-1.9","62851102d56842a48361f9d4","C3","batch3","tol_toboard","464","","","","","","","","","tol_peg_2","464","464","0","[[2,3,0],[1,0],[0]]","10","[[2,0,0],[1,3],[0]]","10","0","","","","","","6","","","","",""
"","","","","","single-stim-button","314","1387556","0.0-3.0-40.10-0.10","62851102d56842a48361f9d4","C3","batch3","tol_tohand","665","","","","","","","","","tol_peg_1","665","665","0","[[2,0,0],[1,0],[0]]","11","[[2,0,0],[1,3],[0]]","10","0","","","","","","6","","","","",""
"","","","","","single-stim-button","315","1388170","0.0-3.0-40.10-1.10","62851102d56842a48361f9d4","C3","batch3","tol_toboard","613","","","","","","","","","tol_peg_2","613","613","0","[[2,0,0],[1,3],[0]]","11","[[2,0,0],[1,3],[0]]","10","0","","","","","","6","","","","",""
"","","","","","poldrack-single-stim","316","1389177","0.0-3.0-41.0","62851102d56842a48361f9d4","C3","batch3","tol_feedback","-1","","","","","true","","","","","1000","1000","500","","","","","","-1","none","true","19950","38653","","","","","",""
"","","","","","html-button-response","317","1389825","0.0-3.0-42.0","62851102d56842a48361f9d4","C3","batch3","tol_trial_num","647.0999999046326","<div class = centerbox><p class = center-block-text>problem <strong>12</strong> out of 25 problems</p></div>","0","","","","","","","","","","","","","","","","","","","","","","","","","",""
"","","","","","single-stim-button","318","1411457","0.0-3.0-43.0-0.0","62851102d56842a48361f9d4","C3","batch3","tol_tohand","21632","","","","","","","","","tol_peg_1","21632","21632","0","[[1,0,0],[3,0],[0]]","1","[[2,3,0],[0,0],[1]]","11","0","","","","","","4","","","","",""
"","","","","","single-stim-button","319","1412193","0.0-3.0-43.0-1.0","62851102d56842a48361f9d4","C3","batch3","tol_toboard","735","","","","","","","","","tol_peg_3","735","735","0","[[1,0,0],[3,0],[2]]","1","[[2,3,0],[0,0],[1]]","11","0","","","","","","4","","","","",""
"","","","","","single-stim-button","320","1418919","0.0-3.0-43.1-0.1","62851102d56842a48361f9d4","C3","batch3","tol_tohand","6725","","","","","","","","","tol_peg_1","6725","6725","0","[[0,0,0],[3,0],[2]]","2","[[2,3,0],[0,0],[1]]","11","0","","","","","","4","","","","",""
"","","","","","single-stim-button","321","1419558","0.0-3.0-43.1-1.1","62851102d56842a48361f9d4","C3","batch3","tol_toboard","637","","","","","","","","","tol_peg_2","637","637","0","[[0,0,0],[3,1],[2]]","2","[[2,3,0],[0,0],[1]]","11","0","","","","","","4","","","","",""
"","","","","","single-stim-button","322","1420154","0.0-3.0-43.2-0.2","62851102d56842a48361f9d4","C3","batch3","tol_tohand","596","","","","","","","","","tol_peg_3","596","596","0","[[0,0,0],[3,1],[0]]","3","[[2,3,0],[0,0],[1]]","11","0","","","","","","4","","","","",""
"","","","","","single-stim-button","323","1420871","0.0-3.0-43.2-1.2","62851102d56842a48361f9d4","C3","batch3","tol_toboard","715","","","","","","","","","tol_peg_1","715","715","0","[[2,0,0],[3,1],[0]]","3","[[2,3,0],[0,0],[1]]","11","0","","","","","","4","","","","",""
"","","","","","single-stim-button","324","1421871","0.0-3.0-43.3-0.3","62851102d56842a48361f9d4","C3","batch3","tol_tohand","999","","","","","","","","","tol_peg_2","999","999","0","[[2,0,0],[3,0],[0]]","4","[[2,3,0],[0,0],[1]]","11","0","","","","","","4","","","","",""
"","","","","","single-stim-button","325","1422582","0.0-3.0-43.3-1.3","62851102d56842a48361f9d4","C3","batch3","tol_toboard","711","","","","","","","","","tol_peg_3","711","711","0","[[2,0,0],[3,0],[1]]","4","[[2,3,0],[0,0],[1]]","11","0","","","","","","4","","","","",""
"","","","","","single-stim-button","326","1423052","0.0-3.0-43.4-0.4","62851102d56842a48361f9d4","C3","batch3","tol_tohand","470","","","","","","","","","tol_peg_2","470","470","0","[[2,0,0],[0,0],[1]]","5","[[2,3,0],[0,0],[1]]","11","0","","","","","","4","","","","",""
"","","","","","single-stim-button","327","1423606","0.0-3.0-43.4-1.4","62851102d56842a48361f9d4","C3","batch3","tol_toboard","553","","","","","","","","","tol_peg_1","553","553","0","[[2,3,0],[0,0],[1]]","5","[[2,3,0],[0,0],[1]]","11","0","","","","","","4","","","","",""
"","","","","","poldrack-single-stim","328","1424614","0.0-3.0-44.0","62851102d56842a48361f9d4","C3","batch3","tol_feedback","-1","","","","","true","","","","","1000","1000","500","","","","","","-1","none","true","21632","30422","","","","","",""
"","","","","","html-button-response","329","1425595","0.0-3.0-45.0","62851102d56842a48361f9d4","C3","batch3","tol_trial_num","980.9000000953674","<div class = centerbox><p class = center-block-text>problem <strong>13</strong> out of 25 problems</p></div>","0","","","","","","","","","","","","","","","","","","","","","","","","","",""
"","","","","","single-stim-button","330","1437827","0.0-3.0-46.0-0.0","62851102d56842a48361f9d4","C3","batch3","tol_tohand","12230","","","","","","","","","tol_peg_1","12230","12230","0","[[1,0,0],[3,0],[0]]","1","[[0,0,0],[2,3],[1]]","12","0","","","","","","4","","","","",""
"","","","","","single-stim-button","331","1438375","0.0-3.0-46.0-1.0","62851102d56842a48361f9d4","C3","batch3","tol_toboard","548","","","","","","","","","tol_peg_2","548","548","0","[[1,0,0],[3,2],[0]]","1","[[0,0,0],[2,3],[1]]","12","0","","","","","","4","","","","",""
"","","","","","single-stim-button","332","1439090","0.0-3.0-46.1-0.1","62851102d56842a48361f9d4","C3","batch3","tol_tohand","713","","","","","","","","","tol_peg_1","713","713","0","[[0,0,0],[3,2],[0]]","2","[[0,0,0],[2,3],[1]]","12","0","","","","","","4","","","","",""
"","","","","","single-stim-button","333","1439871","0.0-3.0-46.1-1.1","62851102d56842a48361f9d4","C3","batch3","tol_toboard","781","","","","","","","","","tol_peg_3","781","781","0","[[0,0,0],[3,2],[1]]","2","[[0,0,0],[2,3],[1]]","12","0","","","","","","4","","","","",""
"","","","","","single-stim-button","334","1440555","0.0-3.0-46.2-0.2","62851102d56842a48361f9d4","C3","batch3","tol_tohand","682","","","","","","","","","tol_peg_2","682","682","0","[[0,0,0],[3,0],[1]]","3","[[0,0,0],[2,3],[1]]","12","0","","","","","","4","","","","",""
"","","","","","single-stim-button","335","1449028","0.0-3.0-46.2-1.2","62851102d56842a48361f9d4","C3","batch3","tol_toboard","8472","","","","","","","","","tol_peg_2","8472","8472","0","[[0,0,0],[3,2],[1]]","3","[[0,0,0],[2,3],[1]]","12","0","","","","","","4","","","","",""
"","","","","","single-stim-button","336","1449597","0.0-3.0-46.3-0.3","62851102d56842a48361f9d4","C3","batch3","tol_tohand","569","","","","","","","","","tol_peg_3","569","569","0","[[0,0,0],[3,2],[0]]","4","[[0,0,0],[2,3],[1]]","12","0","","","","","","4","","","","",""
"","","","","","single-stim-button","337","1450262","0.0-3.0-46.3-1.3","62851102d56842a48361f9d4","C3","batch3","tol_toboard","664","","","","","","","","","tol_peg_1","664","664","0","[[1,0,0],[3,2],[0]]","4","[[0,0,0],[2,3],[1]]","12","0","","","","","","4","","","","",""
"","","","","","single-stim-button","338","1450691","0.0-3.0-46.4-0.4","62851102d56842a48361f9d4","C3","batch3","tol_tohand","428","","","","","","","","","tol_peg_2","428","428","0","[[1,0,0],[3,0],[0]]","5","[[0,0,0],[2,3],[1]]","12","0","","","","","","4","","","","",""
"","","","","","single-stim-button","339","1451239","0.0-3.0-46.4-1.4","62851102d56842a48361f9d4","C3","batch3","tol_toboard","548","","","","","","","","","tol_peg_3","548","548","0","[[1,0,0],[3,0],[2]]","5","[[0,0,0],[2,3],[1]]","12","0","","","","","","4","","","","",""
"","","","","","single-stim-button","340","1454634","0.0-3.0-46.5-0.5","62851102d56842a48361f9d4","C3","batch3","tol_tohand","3394","","","","","","","","","tol_peg_2","3394","3394","0","[[1,0,0],[0,0],[2]]","6","[[0,0,0],[2,3],[1]]","12","0","","","","","","4","","","","",""
"","","","","","single-stim-button","341","1455240","0.0-3.0-46.5-1.5","62851102d56842a48361f9d4","C3","batch3","tol_toboard","604","","","","","","","","","tol_peg_1","604","604","0","[[1,3,0],[0,0],[2]]","6","[[0,0,0],[2,3],[1]]","12","0","","","","","","4","","","","",""
"","","","","","single-stim-button","342","1455838","0.0-3.0-46.6-0.6","62851102d56842a48361f9d4","C3","batch3","tol_tohand","597","","","","","","","","","tol_peg_3","597","597","0","[[1,3,0],[0,0],[0]]","7","[[0,0,0],[2,3],[1]]","12","0","","","","","","4","","","","",""
"","","","","","single-stim-button","343","1456465","0.0-3.0-46.6-1.6","62851102d56842a48361f9d4","C3","batch3","tol_toboard","627","","","","","","","","","tol_peg_2","627","627","0","[[1,3,0],[2,0],[0]]","7","[[0,0,0],[2,3],[1]]","12","0","","","","","","4","","","","",""
"","","","","","single-stim-button","344","1457644","0.0-3.0-46.7-0.7","62851102d56842a48361f9d4","C3","batch3","tol_tohand","1177","","","","","","","","","tol_peg_1","1177","1177","0","[[1,0,0],[2,0],[0]]","8","[[0,0,0],[2,3],[1]]","12","0","","","","","","4","","","","",""
"","","","","","single-stim-button","345","1458168","0.0-3.0-46.7-1.7","62851102d56842a48361f9d4","C3","batch3","tol_toboard","523","","","","","","","","","tol_peg_2","523","523","0","[[1,0,0],[2,3],[0]]","8","[[0,0,0],[2,3],[1]]","12","0","","","","","","4","","","","",""
"","","","","","single-stim-button","346","1459098","0.0-3.0-46.8-0.8","62851102d56842a48361f9d4","C3","batch3","tol_tohand","929","","","","","","","","","tol_peg_1","929","929","0","[[0,0,0],[2,3],[0]]","9","[[0,0,0],[2,3],[1]]","12","0","","","","","","4","","","","",""
"","","","","","single-stim-button","347","1459798","0.0-3.0-46.8-1.8","62851102d56842a48361f9d4","C3","batch3","tol_toboard","700","","","","","","","","","tol_peg_3","700","700","0","[[0,0,0],[2,3],[1]]","9","[[0,0,0],[2,3],[1]]","12","0","","","","","","4","","","","",""
"","","","","","poldrack-single-stim","348","1460806","0.0-3.0-47.0","62851102d56842a48361f9d4","C3","batch3","tol_feedback","-1","","","","","true","","","","","1000","1000","500","","","","","","-1","none","true","12230","20719","","","","","",""
"","","","","","html-button-response","349","1465232","0.0-3.0-48.0","62851102d56842a48361f9d4","C3","batch3","attention_check","4424.800000190735","<p class = block-text>How many balls are in your board<br></p>","1","","","true","","","","","","","","","","","","","","","","","","","","","","",""
"","","","","","html-button-response","350","1466056","0.0-3.0-49.0","62851102d56842a48361f9d4","C3","batch3","tol_trial_num","821.2999999523163","<div class = centerbox><p class = center-block-text>problem <strong>14</strong> out of 25 problems</p></div>","0","","","","","","","","","","","","","","","","","","","","","","","","","",""
"","","","","","single-stim-button","351","1479533","0.0-3.0-50.0-0.0","62851102d56842a48361f9d4","C3","batch3","tol_tohand","13477","","","","","","","","","tol_peg_1","13477","13477","0","[[2,0,0],[3,0],[0]]","1","[[1,2,0],[3,0],[0]]","13","0","","","","","","4","","","","",""
"","","","","","single-stim-button","352","1481383","0.0-3.0-50.0-1.0","62851102d56842a48361f9d4","C3","batch3","tol_toboard","1848","","","","","","","","","tol_peg_3","1848","1848","0","[[2,0,0],[3,0],[1]]","1","[[1,2,0],[3,0],[0]]","13","0","","","","","","4","","","","",""
"","","","","","single-stim-button","353","1482103","0.0-3.0-50.1-0.1","62851102d56842a48361f9d4","C3","batch3","tol_tohand","719","","","","","","","","","tol_peg_1","719","719","0","[[0,0,0],[3,0],[1]]","2","[[1,2,0],[3,0],[0]]","13","0","","","","","","4","","","","",""
"","","","","","single-stim-button","354","1482749","0.0-3.0-50.1-1.1","62851102d56842a48361f9d4","C3","batch3","tol_toboard","645","","","","","","","","","tol_peg_2","645","645","0","[[0,0,0],[3,2],[1]]","2","[[1,2,0],[3,0],[0]]","13","0","","","","","","4","","","","",""
