"success","timeout","failed_images","failed_audio","failed_video","trial_type","trial_index","time_elapsed","internal_node_id","subject_id","study_id","session_id","task","rt","stimulus","response","item","answer","correct","spm_correct","spm_rt","view_history","mouse_click","stim_duration","block_duration","timing_post_trial","current_position","tol_num_moves_made","tol_target","tol_problem_id","tol_rt","key_press","possible_responses","tol_correct","preplanning","tol_rt_per_trial","tol_min_moves","fiar_detect_rt","fiar_detect_correct","total_correct_fiar_detect","post_trial_gap","choices"
"true","false","[]","[]","[]","preload","0","1536","0.0-0.0","6287d7ec96fff020be1d9237","C3","batch3","","","","","","","","","","","","","","","","","","","","","","","","","","","","","",""
"true","","","","","fullscreen","1","17405","0.0-1.0-0.0","6287d7ec96fff020be1d9237","C3","batch3","","","","","","","","","","","","","","","","","","","","","","","","","","","","","",""
"true","","","","","fullscreen","2","203823","0.0-2.0-0.0","6287d7ec96fff020be1d9237","C3","batch3","spm_fullscreen","","","","","","","","","","","","","","","","","","","","","","","","","","","","",""
"","","","","","html-button-response","3","249894","0.0-2.0-1.0","6287d7ec96fff020be1d9237","C3","batch3","","46067.30000001192","<p class = block-text><b>Instructions</b> <br>This is a widely used intelligence test in research. <br>In this test, a figure with a missing piece will be presented.<br>Below the figure are alternative pieces to complete the figure, only one of which is correct.<br> Different figures might involve different principles for obtaining the missing piece<br>Your job is to select the most logical piece to complete the figure.</p>","0","","","","","","","","","","","","","","","","","","","","","","","","","",""
"","","","","","html-keyboard-response","4","250695","0.0-2.0-2.0-0.0","6287d7ec96fff020be1d9237","C3","batch3","spm_show_trial_num","null","<p class=block-text>Trial 1 out of 60</p>","null","","","","","","","","","","","","","","","","","","","","","","","","","",""
"","","","","","image-button-response","5","260479","0.0-2.0-2.0-1.0","6287d7ec96fff020be1d9237","C3","batch3","spm_respsonse","9779.5","img/question_1_1.jpeg","3","mat_01","4","1","1","9779.5","","","","","","","","","","","","","","","","","","","","",""
"","","","","","html-keyboard-response","6","261538","0.0-2.0-2.0-0.1","6287d7ec96fff020be1d9237","C3","batch3","spm_show_trial_num","null","<p class=block-text>Trial 2 out of 60</p>","null","","","","","","","","","","","","","","","","","","","","","","","","","",""
"","","","","","image-button-response","7","266643","0.0-2.0-2.0-1.1","6287d7ec96fff020be1d9237","C3","batch3","spm_respsonse","5102.699999988079","img/question_1_2.jpeg","4","mat_02","5","1","1","5102.699999988079","","","","","","","","","","","","","","","","","","","","",""
"","","","","","html-keyboard-response","8","267695","0.0-2.0-2.0-0.2","6287d7ec96fff020be1d9237","C3","batch3","spm_show_trial_num","null","<p class=block-text>Trial 3 out of 60</p>","null","","","","","","","","","","","","","","","","","","","","","","","","","",""
"","","","","","image-button-response","9","273157","0.0-2.0-2.0-1.2","6287d7ec96fff020be1d9237","C3","batch3","spm_respsonse","5460.399999976158","img/question_1_3.jpeg","0","mat_03","1","1","1","5460.399999976158","","","","","","","","","","","","","","","","","","","","",""
"","","","","","html-keyboard-response","10","274210","0.0-2.0-2.0-0.3","6287d7ec96fff020be1d9237","C3","batch3","spm_show_trial_num","null","<p class=block-text>Trial 4 out of 60</p>","null","","","","","","","","","","","","","","","","","","","","","","","","","",""
"","","","","","image-button-response","11","282945","0.0-2.0-2.0-1.3","6287d7ec96fff020be1d9237","C3","batch3","spm_respsonse","8727.800000011921","img/question_1_4.jpeg","2","mat_04","2","0","0","8727.800000011921","","","","","","","","","","","","","","","","","","","","",""
"","","","","","html-keyboard-response","12","284018","0.0-2.0-2.0-0.4","6287d7ec96fff020be1d9237","C3","batch3","spm_show_trial_num","null","<p class=block-text>Trial 5 out of 60</p>","null","","","","","","","","","","","","","","","","","","","","","","","","","",""
"","","","","","image-button-response","13","296141","0.0-2.0-2.0-1.4","6287d7ec96fff020be1d9237","C3","batch3","spm_respsonse","12118.699999988079","img/question_1_5.jpeg","5","mat_05","6","1","1","12118.699999988079","","","","","","","","","","","","","","","","","","","","",""
"","","","","","html-keyboard-response","14","297194","0.0-2.0-2.0-0.5","6287d7ec96fff020be1d9237","C3","batch3","spm_show_trial_num","null","<p class=block-text>Trial 6 out of 60</p>","null","","","","","","","","","","","","","","","","","","","","","","","","","",""
"","","","","","image-button-response","15","308864","0.0-2.0-2.0-1.5","6287d7ec96fff020be1d9237","C3","batch3","spm_respsonse","11667.5","img/question_1_6.jpeg","2","mat_06","3","1","1","11667.5","","","","","","","","","","","","","","","","","","","","",""
"","","","","","html-keyboard-response","16","309917","0.0-2.0-2.0-0.6","6287d7ec96fff020be1d9237","C3","batch3","spm_show_trial_num","null","<p class=block-text>Trial 7 out of 60</p>","null","","","","","","","","","","","","","","","","","","","","","","","","","",""
"","","","","","image-button-response","17","325074","0.0-2.0-2.0-1.6","6287d7ec96fff020be1d9237","C3","batch3","spm_respsonse","15155.300000011921","img/question_1_7.jpeg","5","mat_07","6","1","1","15155.300000011921","","","","","","","","","","","","","","","","","","","","",""
"","","","","","html-keyboard-response","18","326136","0.0-2.0-2.0-0.7","6287d7ec96fff020be1d9237","C3","batch3","spm_show_trial_num","null","<p class=block-text>Trial 8 out of 60</p>","null","","","","","","","","","","","","","","","","","","","","","","","","","",""
"","","","","","image-button-response","19","340116","0.0-2.0-2.0-1.7","6287d7ec96fff020be1d9237","C3","batch3","spm_respsonse","13975.199999988079","img/question_1_8.jpeg","1","mat_08","2","1","1","13975.199999988079","","","","","","","","","","","","","","","","","","","","",""
"","","","","","html-keyboard-response","20","341184","0.0-2.0-2.0-0.8","6287d7ec96fff020be1d9237","C3","batch3","spm_show_trial_num","null","<p class=block-text>Trial 9 out of 60</p>","null","","","","","","","","","","","","","","","","","","","","","","","","","",""
"","","","","","image-button-response","21","348790","0.0-2.0-2.0-1.8","6287d7ec96fff020be1d9237","C3","batch3","spm_respsonse","7602.5","img/question_1_9.jpeg","0","mat_09","1","1","1","7602.5","","","","","","","","","","","","","","","","","","","","",""
"","","","","","html-keyboard-response","22","349865","0.0-2.0-2.0-0.9","6287d7ec96fff020be1d9237","C3","batch3","spm_show_trial_num","null","<p class=block-text>Trial 10 out of 60</p>","null","","","","","","","","","","","","","","","","","","","","","","","","","",""
"","","","","","image-button-response","23","359895","0.0-2.0-2.0-1.9","6287d7ec96fff020be1d9237","C3","batch3","spm_respsonse","10026.099999964237","img/question_1_10.jpeg","2","mat_10","3","1","1","10026.099999964237","","","","","","","","","","","","","","","","","","","","",""
"","","","","","html-keyboard-response","24","360948","0.0-2.0-2.0-0.10","6287d7ec96fff020be1d9237","C3","batch3","spm_show_trial_num","null","<p class=block-text>Trial 11 out of 60</p>","null","","","","","","","","","","","","","","","","","","","","","","","","","",""
"","","","","","image-button-response","25","387030","0.0-2.0-2.0-1.10","6287d7ec96fff020be1d9237","C3","batch3","spm_respsonse","26079.299999952316","img/question_1_11.jpeg","3","mat_11","4","1","1","26079.299999952316","","","","","","","","","","","","","","","","","","","","",""
"","","","","","html-keyboard-response","26","388083","0.0-2.0-2.0-0.11","6287d7ec96fff020be1d9237","C3","batch3","spm_show_trial_num","null","<p class=block-text>Trial 12 out of 60</p>","null","","","","","","","","","","","","","","","","","","","","","","","","","",""
"","","","","","image-button-response","27","405321","0.0-2.0-2.0-1.11","6287d7ec96fff020be1d9237","C3","batch3","spm_respsonse","17235.399999976158","img/question_1_12.jpeg","4","mat_12","5","1","1","17235.399999976158","","","","","","","","","","","","","","","","","","","","",""
"","","","","","html-keyboard-response","28","406389","0.0-2.0-2.0-0.12","6287d7ec96fff020be1d9237","C3","batch3","spm_show_trial_num","null","<p class=block-text>Trial 13 out of 60</p>","null","","","","","","","","","","","","","","","","","","","","","","","","","",""
"","","","","","image-button-response","29","424638","0.0-2.0-2.0-1.12","6287d7ec96fff020be1d9237","C3","batch3","spm_respsonse","18246.400000035763","img/question_2_1.jpeg","1","mat_13","2","1","1","18246.400000035763","","","","","","","","","","","","","","","","","","","","",""
"","","","","","html-keyboard-response","30","425707","0.0-2.0-2.0-0.13","6287d7ec96fff020be1d9237","C3","batch3","spm_show_trial_num","null","<p class=block-text>Trial 14 out of 60</p>","null","","","","","","","","","","","","","","","","","","","","","","","","","",""
"","","","","","image-button-response","31","441603","0.0-2.0-2.0-1.13","6287d7ec96fff020be1d9237","C3","batch3","spm_respsonse","15891.099999964237","img/question_2_2.jpeg","5","mat_14","6","1","1","15891.099999964237","","","","","","","","","","","","","","","","","","","","",""
"","","","","","html-keyboard-response","32","442658","0.0-2.0-2.0-0.14","6287d7ec96fff020be1d9237","C3","batch3","spm_show_trial_num","null","<p class=block-text>Trial 15 out of 60</p>","null","","","","","","","","","","","","","","","","","","","","","","","","","",""
"","","","","","image-button-response","33","447183","0.0-2.0-2.0-1.14","6287d7ec96fff020be1d9237","C3","batch3","spm_respsonse","4521.600000023842","img/question_2_3.jpeg","0","mat_15","1","1","1","4521.600000023842","","","","","","","","","","","","","","","","","","","","",""
"","","","","","html-keyboard-response","34","448251","0.0-2.0-2.0-0.15","6287d7ec96fff020be1d9237","C3","batch3","spm_show_trial_num","null","<p class=block-text>Trial 16 out of 60</p>","null","","","","","","","","","","","","","","","","","","","","","","","","","",""
"","","","","","image-button-response","35","460885","0.0-2.0-2.0-1.15","6287d7ec96fff020be1d9237","C3","batch3","spm_respsonse","12632.100000023842","img/question_2_4.jpeg","1","mat_16","2","1","1","12632.100000023842","","","","","","","","","","","","","","","","","","","","",""
"","","","","","html-keyboard-response","36","461953","0.0-2.0-2.0-0.16","6287d7ec96fff020be1d9237","C3","batch3","spm_show_trial_num","null","<p class=block-text>Trial 17 out of 60</p>","null","","","","","","","","","","","","","","","","","","","","","","","","","",""
"","","","","","image-button-response","37","477006","0.0-2.0-2.0-1.16","6287d7ec96fff020be1d9237","C3","batch3","spm_respsonse","15050.300000011921","img/question_2_5.jpeg","0","mat_17","1","1","1","15050.300000011921","","","","","","","","","","","","","","","","","","","","",""
"","","","","","html-keyboard-response","38","478060","0.0-2.0-2.0-0.17","6287d7ec96fff020be1d9237","C3","batch3","spm_show_trial_num","null","<p class=block-text>Trial 18 out of 60</p>","null","","","","","","","","","","","","","","","","","","","","","","","","","",""
"","","","","","image-button-response","39","488898","0.0-2.0-2.0-1.17","6287d7ec96fff020be1d9237","C3","batch3","spm_respsonse","10836.199999988079","img/question_2_6.jpeg","2","mat_18","3","1","1","10836.199999988079","","","","","","","","","","","","","","","","","","","","",""
"","","","","","html-keyboard-response","40","489953","0.0-2.0-2.0-0.18","6287d7ec96fff020be1d9237","C3","batch3","spm_show_trial_num","null","<p class=block-text>Trial 19 out of 60</p>","null","","","","","","","","","","","","","","","","","","","","","","","","","",""
"","","","","","image-button-response","41","500025","0.0-2.0-2.0-1.18","6287d7ec96fff020be1d9237","C3","batch3","spm_respsonse","10068.599999964237","img/question_2_7.jpeg","4","mat_19","5","1","1","10068.599999964237","","","","","","","","","","","","","","","","","","","","",""
"","","","","","html-keyboard-response","42","501078","0.0-2.0-2.0-0.19","6287d7ec96fff020be1d9237","C3","batch3","spm_show_trial_num","null","<p class=block-text>Trial 20 out of 60</p>","null","","","","","","","","","","","","","","","","","","","","","","","","","",""
"","","","","","image-button-response","43","514805","0.0-2.0-2.0-1.19","6287d7ec96fff020be1d9237","C3","batch3","spm_respsonse","13726","img/question_2_8.jpeg","5","mat_20","6","1","1","13726","","","","","","","","","","","","","","","","","","","","",""
"","","","","","html-keyboard-response","44","515857","0.0-2.0-2.0-0.20","6287d7ec96fff020be1d9237","C3","batch3","spm_show_trial_num","null","<p class=block-text>Trial 21 out of 60</p>","null","","","","","","","","","","","","","","","","","","","","","","","","","",""
"","","","","","image-button-response","45","523378","0.0-2.0-2.0-1.20","6287d7ec96fff020be1d9237","C3","batch3","spm_respsonse","7519.100000023842","img/question_2_9.jpeg","3","mat_21","4","1","1","7519.100000023842","","","","","","","","","","","","","","","","","","","","",""
"","","","","","html-keyboard-response","46","524446","0.0-2.0-2.0-0.21","6287d7ec96fff020be1d9237","C3","batch3","spm_show_trial_num","null","<p class=block-text>Trial 22 out of 60</p>","null","","","","","","","","","","","","","","","","","","","","","","","","","",""
"","","","","","image-button-response","47","531209","0.0-2.0-2.0-1.21","6287d7ec96fff020be1d9237","C3","batch3","spm_respsonse","6761.100000023842","img/question_2_10.jpeg","2","mat_22","3","1","1","6761.100000023842","","","","","","","","","","","","","","","","","","","","",""
"","","","","","html-keyboard-response","48","532282","0.0-2.0-2.0-0.22","6287d7ec96fff020be1d9237","C3","batch3","spm_show_trial_num","null","<p class=block-text>Trial 23 out of 60</p>","null","","","","","","","","","","","","","","","","","","","","","","","","","",""
"","","","","","image-button-response","49","543909","0.0-2.0-2.0-1.22","6287d7ec96fff020be1d9237","C3","batch3","spm_respsonse","11623.100000023842","img/question_2_11.jpeg","3","mat_23","4","1","1","11623.100000023842","","","","","","","","","","","","","","","","","","","","",""
"","","","","","html-keyboard-response","50","544961","0.0-2.0-2.0-0.23","6287d7ec96fff020be1d9237","C3","batch3","spm_show_trial_num","null","<p class=block-text>Trial 24 out of 60</p>","null","","","","","","","","","","","","","","","","","","","","","","","","","",""
"","","","","","image-button-response","51","655824","0.0-2.0-2.0-1.23","6287d7ec96fff020be1d9237","C3","batch3","spm_respsonse","110859.69999998808","img/question_2_12.jpeg","4","mat_24","5","1","1","110859.69999998808","","","","","","","","","","","","","","","","","","","","",""
"","","","","","html-button-response","52","658377","0.0-2.0-3.0","6287d7ec96fff020be1d9237","C3","batch3","attention_check","2300.800000011921","<p class = block-text>Attention check: Please choose 1<br></p>","0","","","true","","","","","","","","","","","","","","","","","","","","","","",""
"","","","","","html-keyboard-response","53","659179","0.0-2.0-4.0-0.0","6287d7ec96fff020be1d9237","C3","batch3","spm_show_trial_num","null","<p class=block-text>Trial 25 out of 60</p>","null","","","","","","","","","","","","","","","","","","","","","","","","","",""
"","","","","","image-button-response","54","679539","0.0-2.0-4.0-1.0","6287d7ec96fff020be1d9237","C3","batch3","spm_respsonse","20353.399999976158","img/question_3_1.jpeg","7","mat_25","8","1","1","20353.399999976158","","","","","","","","","","","","","","","","","","","","",""
"","","","","","html-keyboard-response","55","680593","0.0-2.0-4.0-0.1","6287d7ec96fff020be1d9237","C3","batch3","spm_show_trial_num","null","<p class=block-text>Trial 26 out of 60</p>","null","","","","","","","","","","","","","","","","","","","","","","","","","",""
"","","","","","image-button-response","56","700723","0.0-2.0-4.0-1.1","6287d7ec96fff020be1d9237","C3","batch3","spm_respsonse","20127.799999952316","img/question_3_2.jpeg","1","mat_26","2","1","1","20127.799999952316","","","","","","","","","","","","","","","","","","","","",""
"","","","","","html-keyboard-response","57","701792","0.0-2.0-4.0-0.2","6287d7ec96fff020be1d9237","C3","batch3","spm_show_trial_num","null","<p class=block-text>Trial 27 out of 60</p>","null","","","","","","","","","","","","","","","","","","","","","","","","","",""
"","","","","","image-button-response","58","722503","0.0-2.0-4.0-1.2","6287d7ec96fff020be1d9237","C3","batch3","spm_respsonse","20708.600000023842","img/question_3_3.jpeg","2","mat_27","3","1","1","20708.600000023842","","","","","","","","","","","","","","","","","","","","",""
"","","","","","html-keyboard-response","59","723571","0.0-2.0-4.0-0.3","6287d7ec96fff020be1d9237","C3","batch3","spm_show_trial_num","null","<p class=block-text>Trial 28 out of 60</p>","null","","","","","","","","","","","","","","","","","","","","","","","","","",""
"","","","","","image-button-response","60","807418","0.0-2.0-4.0-1.3","6287d7ec96fff020be1d9237","C3","batch3","spm_respsonse","83844.59999996424","img/question_3_4.jpeg","7","mat_28","8","1","1","83844.59999996424","","","","","","","","","","","","","","","","","","","","",""
"","","","","","html-keyboard-response","61","808470","0.0-2.0-4.0-0.4","6287d7ec96fff020be1d9237","C3","batch3","spm_show_trial_num","null","<p class=block-text>Trial 29 out of 60</p>","null","","","","","","","","","","","","","","","","","","","","","","","","","",""
"","","","","","image-button-response","62","823145","0.0-2.0-4.0-1.4","6287d7ec96fff020be1d9237","C3","batch3","spm_respsonse","14671.899999976158","img/question_3_5.jpeg","6","mat_29","7","1","1","14671.899999976158","","","","","","","","","","","","","","","","","","","","",""
"","","","","","html-keyboard-response","63","824204","0.0-2.0-4.0-0.5","6287d7ec96fff020be1d9237","C3","batch3","spm_show_trial_num","null","<p class=block-text>Trial 30 out of 60</p>","null","","","","","","","","","","","","","","","","","","","","","","","","","",""
"","","","","","image-button-response","64","849707","0.0-2.0-4.0-1.5","6287d7ec96fff020be1d9237","C3","batch3","spm_respsonse","25501","img/question_3_6.jpeg","3","mat_30","4","1","1","25501","","","","","","","","","","","","","","","","","","","","",""
"","","","","","html-keyboard-response","65","850777","0.0-2.0-4.0-0.6","6287d7ec96fff020be1d9237","C3","batch3","spm_show_trial_num","null","<p class=block-text>Trial 31 out of 60</p>","null","","","","","","","","","","","","","","","","","","","","","","","","","",""
"","","","","","image-button-response","66","868257","0.0-2.0-4.0-1.6","6287d7ec96fff020be1d9237","C3","batch3","spm_respsonse","17478.600000023842","img/question_3_7.jpeg","4","mat_31","5","1","1","17478.600000023842","","","","","","","","","","","","","","","","","","","","",""
"","","","","","html-keyboard-response","67","869316","0.0-2.0-4.0-0.7","6287d7ec96fff020be1d9237","C3","batch3","spm_show_trial_num","null","<p class=block-text>Trial 32 out of 60</p>","null","","","","","","","","","","","","","","","","","","","","","","","","","",""
"","","","","","image-button-response","68","884738","0.0-2.0-4.0-1.7","6287d7ec96fff020be1d9237","C3","batch3","spm_respsonse","15420.300000011921","img/question_3_8.jpeg","0","mat_32","1","1","1","15420.300000011921","","","","","","","","","","","","","","","","","","","","",""
"","","","","","html-keyboard-response","69","885801","0.0-2.0-4.0-0.8","6287d7ec96fff020be1d9237","C3","batch3","spm_show_trial_num","null","<p class=block-text>Trial 33 out of 60</p>","null","","","","","","","","","","","","","","","","","","","","","","","","","",""
"","","","","","image-button-response","70","921560","0.0-2.0-4.0-1.8","6287d7ec96fff020be1d9237","C3","batch3","spm_respsonse","35757.5","img/question_3_9.jpeg","6","mat_33","7","1","1","35757.5","","","","","","","","","","","","","","","","","","","","",""
"","","","","","html-keyboard-response","71","922621","0.0-2.0-4.0-0.9","6287d7ec96fff020be1d9237","C3","batch3","spm_show_trial_num","null","<p class=block-text>Trial 34 out of 60</p>","null","","","","","","","","","","","","","","","","","","","","","","","","","",""
"","","","","","image-button-response","72","969619","0.0-2.0-4.0-1.9","6287d7ec96fff020be1d9237","C3","batch3","spm_respsonse","46995.59999996424","img/question_3_10.jpeg","7","mat_34","6","0","0","46995.59999996424","","","","","","","","","","","","","","","","","","","","",""
"","","","","","html-keyboard-response","73","970685","0.0-2.0-4.0-0.10","6287d7ec96fff020be1d9237","C3","batch3","spm_show_trial_num","null","<p class=block-text>Trial 35 out of 60</p>","null","","","","","","","","","","","","","","","","","","","","","","","","","",""
"","","","","","image-button-response","74","1098342","0.0-2.0-4.0-1.10","6287d7ec96fff020be1d9237","C3","batch3","spm_respsonse","127655","img/question_3_11.jpeg","0","mat_35","1","1","1","127655","","","","","","","","","","","","","","","","","","","","",""
"","","","","","html-keyboard-response","75","1099411","0.0-2.0-4.0-0.11","6287d7ec96fff020be1d9237","C3","batch3","spm_show_trial_num","null","<p class=block-text>Trial 36 out of 60</p>","null","","","","","","","","","","","","","","","","","","","","","","","","","",""
"","","","","","image-button-response","76","1176708","0.0-2.0-4.0-1.11","6287d7ec96fff020be1d9237","C3","batch3","spm_respsonse","77292.59999996424","img/question_3_12.jpeg","1","mat_36","2","1","1","77292.59999996424","","","","","","","","","","","","","","","","","","","","",""
"","","","","","html-keyboard-response","77","1177778","0.0-2.0-4.0-0.12","6287d7ec96fff020be1d9237","C3","batch3","spm_show_trial_num","null","<p class=block-text>Trial 37 out of 60</p>","null","","","","","","","","","","","","","","","","","","","","","","","","","",""
"","","","","","image-button-response","78","1184606","0.0-2.0-4.0-1.12","6287d7ec96fff020be1d9237","C3","batch3","spm_respsonse","6823.600000023842","img/question_4_1.jpeg","2","mat_37","3","1","1","6823.600000023842","","","","","","","","","","","","","","","","","","","","",""
"","","","","","html-keyboard-response","79","1185673","0.0-2.0-4.0-0.13","6287d7ec96fff020be1d9237","C3","batch3","spm_show_trial_num","null","<p class=block-text>Trial 38 out of 60</p>","null","","","","","","","","","","","","","","","","","","","","","","","","","",""
"","","","","","image-button-response","80","1209651","0.0-2.0-4.0-1.13","6287d7ec96fff020be1d9237","C3","batch3","spm_respsonse","23974.19999998808","img/question_4_2.jpeg","3","mat_38","4","1","1","23974.19999998808","","","","","","","","","","","","","","","","","","","","",""
"","","","","","html-keyboard-response","81","1210712","0.0-2.0-4.0-0.14","6287d7ec96fff020be1d9237","C3","batch3","spm_show_trial_num","null","<p class=block-text>Trial 39 out of 60</p>","null","","","","","","","","","","","","","","","","","","","","","","","","","",""
"","","","","","image-button-response","82","1321665","0.0-2.0-4.0-1.14","6287d7ec96fff020be1d9237","C3","batch3","spm_respsonse","110948.30000001192","img/question_4_3.jpeg","2","mat_39","3","1","1","110948.30000001192","","","","","","","","","","","","","","","","","","","","",""
"","","","","","html-keyboard-response","83","1322730","0.0-2.0-4.0-0.15","6287d7ec96fff020be1d9237","C3","batch3","spm_show_trial_num","null","<p class=block-text>Trial 40 out of 60</p>","null","","","","","","","","","","","","","","","","","","","","","","","","","",""
"","","","","","image-button-response","84","1355381","0.0-2.0-4.0-1.15","6287d7ec96fff020be1d9237","C3","batch3","spm_respsonse","32647.100000023842","img/question_4_4.jpeg","6","mat_40","7","1","1","32647.100000023842","","","","","","","","","","","","","","","","","","","","",""
"","","","","","html-keyboard-response","85","1356443","0.0-2.0-4.0-0.16","6287d7ec96fff020be1d9237","C3","batch3","spm_show_trial_num","null","<p class=block-text>Trial 41 out of 60</p>","null","","","","","","","","","","","","","","","","","","","","","","","","","",""
"","","","","","image-button-response","86","1369296","0.0-2.0-4.0-1.16","6287d7ec96fff020be1d9237","C3","batch3","spm_respsonse","12851.699999988079","img/question_4_5.jpeg","3","mat_41","8","0","0","12851.699999988079","","","","","","","","","","","","","","","","","","","","",""
"","","","","","html-keyboard-response","87","1370364","0.0-2.0-4.0-0.17","6287d7ec96fff020be1d9237","C3","batch3","spm_show_trial_num","null","<p class=block-text>Trial 42 out of 60</p>","null","","","","","","","","","","","","","","","","","","","","","","","","","",""
"","","","","","image-button-response","88","1399053","0.0-2.0-4.0-1.17","6287d7ec96fff020be1d9237","C3","batch3","spm_respsonse","28686.19999998808","img/question_4_6.jpeg","5","mat_42","6","1","1","28686.19999998808","","","","","","","","","","","","","","","","","","","","",""
"","","","","","html-keyboard-response","89","1400129","0.0-2.0-4.0-0.18","6287d7ec96fff020be1d9237","C3","batch3","spm_show_trial_num","null","<p class=block-text>Trial 43 out of 60</p>","null","","","","","","","","","","","","","","","","","","","","","","","","","",""
"","","","","","image-button-response","90","1473168","0.0-2.0-4.0-1.18","6287d7ec96fff020be1d9237","C3","batch3","spm_respsonse","73033.40000003576","img/question_4_7.jpeg","4","mat_43","5","1","1","73033.40000003576","","","","","","","","","","","","","","","","","","","","",""
"","","","","","html-keyboard-response","91","1474235","0.0-2.0-4.0-0.19","6287d7ec96fff020be1d9237","C3","batch3","spm_show_trial_num","null","<p class=block-text>Trial 44 out of 60</p>","null","","","","","","","","","","","","","","","","","","","","","","","","","",""
"","","","","","image-button-response","92","1498311","0.0-2.0-4.0-1.19","6287d7ec96fff020be1d9237","C3","batch3","spm_respsonse","24072.899999976158","img/question_4_8.jpeg","3","mat_44","4","1","1","24072.899999976158","","","","","","","","","","","","","","","","","","","","",""
"","","","","","html-keyboard-response","93","1499375","0.0-2.0-4.0-0.20","6287d7ec96fff020be1d9237","C3","batch3","spm_show_trial_num","null","<p class=block-text>Trial 45 out of 60</p>","null","","","","","","","","","","","","","","","","","","","","","","","","","",""
"","","","","","image-button-response","94","1552007","0.0-2.0-4.0-1.20","6287d7ec96fff020be1d9237","C3","batch3","spm_respsonse","52627.60000002384","img/question_4_9.jpeg","0","mat_45","1","1","1","52627.60000002384","","","","","","","","","","","","","","","","","","","","",""
"","","","","","html-keyboard-response","95","1553069","0.0-2.0-4.0-0.21","6287d7ec96fff020be1d9237","C3","batch3","spm_show_trial_num","null","<p class=block-text>Trial 46 out of 60</p>","null","","","","","","","","","","","","","","","","","","","","","","","","","",""
"","","","","","image-button-response","96","1592935","0.0-2.0-4.0-1.21","6287d7ec96fff020be1d9237","C3","batch3","spm_respsonse","39863","img/question_4_10.jpeg","1","mat_46","2","1","1","39863","","","","","","","","","","","","","","","","","","","","",""
"","","","","","html-keyboard-response","97","1594000","0.0-2.0-4.0-0.22","6287d7ec96fff020be1d9237","C3","batch3","spm_show_trial_num","null","<p class=block-text>Trial 47 out of 60</p>","null","","","","","","","","","","","","","","","","","","","","","","","","","",""
"","","","","","image-button-response","98","1927733","0.0-2.0-4.0-1.22","6287d7ec96fff020be1d9237","C3","batch3","spm_respsonse","333730.90000003576","img/question_4_11.jpeg","5","mat_47","5","0","0","333730.90000003576","","","","","","","","","","","","","","","","","","","","",""
"","","","","","html-keyboard-response","99","1928797","0.0-2.0-4.0-0.23","6287d7ec96fff020be1d9237","C3","batch3","spm_show_trial_num","null","<p class=block-text>Trial 48 out of 60</p>","null","","","","","","","","","","","","","","","","","","","","","","","","","",""
"","","","","","image-button-response","100","2260856","0.0-2.0-4.0-1.23","6287d7ec96fff020be1d9237","C3","batch3","spm_respsonse","332055.60000002384","img/question_4_12.jpeg","1","mat_48","6","0","0","332055.60000002384","","","","","","","","","","","","","","","","","","","","",""
"","","","","","html-keyboard-response","101","2261909","0.0-2.0-4.0-0.24","6287d7ec96fff020be1d9237","C3","batch3","spm_show_trial_num","null","<p class=block-text>Trial 49 out of 60</p>","null","","","","","","","","","","","","","","","","","","","","","","","","","",""
"","","","","","image-button-response","102","2279250","0.0-2.0-4.0-1.24","6287d7ec96fff020be1d9237","C3","batch3","spm_respsonse","17339.80000001192","img/question_5_1.jpeg","6","mat_49","7","1","1","17339.80000001192","","","","","","","","","","","","","","","","","","","","",""
"","","","","","html-keyboard-response","103","2280317","0.0-2.0-4.0-0.25","6287d7ec96fff020be1d9237","C3","batch3","spm_show_trial_num","null","<p class=block-text>Trial 50 out of 60</p>","null","","","","","","","","","","","","","","","","","","","","","","","","","",""
"","","","","","image-button-response","104","2292760","0.0-2.0-4.0-1.25","6287d7ec96fff020be1d9237","C3","batch3","spm_respsonse","12442.100000023842","img/question_5_2.jpeg","5","mat_50","6","1","1","12442.100000023842","","","","","","","","","","","","","","","","","","","","",""
"","","","","","html-keyboard-response","105","2293828","0.0-2.0-4.0-0.26","6287d7ec96fff020be1d9237","C3","batch3","spm_show_trial_num","null","<p class=block-text>Trial 51 out of 60</p>","null","","","","","","","","","","","","","","","","","","","","","","","","","",""
"","","","","","image-button-response","106","2308409","0.0-2.0-4.0-1.26","6287d7ec96fff020be1d9237","C3","batch3","spm_respsonse","14579.399999976158","img/question_5_3.jpeg","7","mat_51","8","1","1","14579.399999976158","","","","","","","","","","","","","","","","","","","","",""
"","","","","","html-keyboard-response","107","2309479","0.0-2.0-4.0-0.27","6287d7ec96fff020be1d9237","C3","batch3","spm_show_trial_num","null","<p class=block-text>Trial 52 out of 60</p>","null","","","","","","","","","","","","","","","","","","","","","","","","","",""
"","","","","","image-button-response","108","2323599","0.0-2.0-4.0-1.27","6287d7ec96fff020be1d9237","C3","batch3","spm_respsonse","14117.5","img/question_5_4.jpeg","1","mat_52","2","1","1","14117.5","","","","","","","","","","","","","","","","","","","","",""
"","","","","","html-keyboard-response","109","2324668","0.0-2.0-4.0-0.28","6287d7ec96fff020be1d9237","C3","batch3","spm_show_trial_num","null","<p class=block-text>Trial 53 out of 60</p>","null","","","","","","","","","","","","","","","","","","","","","","","","","",""
"","","","","","image-button-response","110","2341992","0.0-2.0-4.0-1.28","6287d7ec96fff020be1d9237","C3","batch3","spm_respsonse","17321.899999976158","img/question_5_5.jpeg","0","mat_53","1","1","1","17321.899999976158","","","","","","","","","","","","","","","","","","","","",""
"","","","","","html-keyboard-response","111","2343057","0.0-2.0-4.0-0.29","6287d7ec96fff020be1d9237","C3","batch3","spm_show_trial_num","null","<p class=block-text>Trial 54 out of 60</p>","null","","","","","","","","","","","","","","","","","","","","","","","","","",""
"","","","","","image-button-response","112","2356098","0.0-2.0-4.0-1.29","6287d7ec96fff020be1d9237","C3","batch3","spm_respsonse","13038.5","img/question_5_6.jpeg","4","mat_54","5","1","1","13038.5","","","","","","","","","","","","","","","","","","","","",""
"","","","","","html-keyboard-response","113","2357166","0.0-2.0-4.0-0.30","6287d7ec96fff020be1d9237","C3","batch3","spm_show_trial_num","null","<p class=block-text>Trial 55 out of 60</p>","null","","","","","","","","","","","","","","","","","","","","","","","","","",""
"","","","","","image-button-response","114","2519773","0.0-2.0-4.0-1.30","6287d7ec96fff020be1d9237","C3","batch3","spm_respsonse","162605.80000001192","img/question_5_7.jpeg","5","mat_55","1","0","0","162605.80000001192","","","","","","","","","","","","","","","","","","","","",""
"","","","","","html-keyboard-response","115","2520833","0.0-2.0-4.0-0.31","6287d7ec96fff020be1d9237","C3","batch3","spm_show_trial_num","null","<p class=block-text>Trial 56 out of 60</p>","null","","","","","","","","","","","","","","","","","","","","","","","","","",""
"","","","","","image-button-response","116","2555526","0.0-2.0-4.0-1.31","6287d7ec96fff020be1d9237","C3","batch3","spm_respsonse","34691.200000047684","img/question_5_8.jpeg","5","mat_56","6","1","1","34691.200000047684","","","","","","","","","","","","","","","","","","","","",""
"","","","","","html-keyboard-response","117","2556578","0.0-2.0-4.0-0.32","6287d7ec96fff020be1d9237","C3","batch3","spm_show_trial_num","null","<p class=block-text>Trial 57 out of 60</p>","null","","","","","","","","","","","","","","","","","","","","","","","","","",""
"","","","","","image-button-response","118","2638236","0.0-2.0-4.0-1.32","6287d7ec96fff020be1d9237","C3","batch3","spm_respsonse","81652.80000001192","img/question_5_9.jpeg","7","mat_57","3","0","0","81652.80000001192","","","","","","","","","","","","","","","","","","","","",""
"","","","","","html-keyboard-response","119","2639296","0.0-2.0-4.0-0.33","6287d7ec96fff020be1d9237","C3","batch3","spm_show_trial_num","null","<p class=block-text>Trial 58 out of 60</p>","null","","","","","","","","","","","","","","","","","","","","","","","","","",""
"","","","","","image-button-response","120","2715118","0.0-2.0-4.0-1.33","6287d7ec96fff020be1d9237","C3","batch3","spm_respsonse","75819","img/question_5_10.jpeg","2","mat_58","2","0","0","75819","","","","","","","","","","","","","","","","","","","","",""
"","","","","","html-keyboard-response","121","2716189","0.0-2.0-4.0-0.34","6287d7ec96fff020be1d9237","C3","batch3","spm_show_trial_num","null","<p class=block-text>Trial 59 out of 60</p>","null","","","","","","","","","","","","","","","","","","","","","","","","","",""
"","","","","","image-button-response","122","2823511","0.0-2.0-4.0-1.34","6287d7ec96fff020be1d9237","C3","batch3","spm_respsonse","107316.69999998808","img/question_5_11.jpeg","0","mat_59","4","0","0","107316.69999998808","","","","","","","","","","","","","","","","","","","","",""
"","","","","","html-keyboard-response","123","2824575","0.0-2.0-4.0-0.35","6287d7ec96fff020be1d9237","C3","batch3","spm_show_trial_num","null","<p class=block-text>Trial 60 out of 60</p>","null","","","","","","","","","","","","","","","","","","","","","","","","","",""
"","","","","","image-button-response","124","2908437","0.0-2.0-4.0-1.35","6287d7ec96fff020be1d9237","C3","batch3","spm_respsonse","83858.89999997616","img/question_5_12.jpeg","1","mat_60","5","0","0","83858.89999997616","","","","","","","","","","","","","","","","","","","","",""
"","","","","","html-button-response","125","2912420","0.0-2.0-5.0","6287d7ec96fff020be1d9237","C3","batch3","spm_goodbye","3725.599999964237","<p class= block-text>This concludes the Standard Progressive Matrix game. Thank you for your responses!<br> When you are ready, click the button continue</p>","0","","","","","","","","","","","","","","","","","","","","","","","","","",""
"true","","","","","fullscreen","126","2916667","0.0-3.0-0.0","6287d7ec96fff020be1d9237","C3","batch3","","","","","","","","","","","","","","","","","","","","","","","","","","","","","",""
"","","","","","instructions","127","3044911","0.0-3.0-1.0-0.0-0.0","6287d7ec96fff020be1d9237","C3","batch3","tol-instructions","128240.59999996424","","","","","","","","[{""page_index"":0,""viewing_time"":68569.79999995232},{""page_index"":1,""viewing_time"":8572.700000047684},{""page_index"":2,""viewing_time"":9393.899999976158},{""page_index"":3,""viewing_time"":18742.19999998808},{""page_index"":4,""viewing_time"":11609.900000035763},{""page_index"":5,""viewing_time"":6975.5},{""page_index"":6,""viewing_time"":4376.199999988079}]","","","","","","","","","","","","","","","","","","","",""
"","","","","","html-button-response","128","3046463","0.0-3.0-1.0-1.0-0.0","6287d7ec96fff020be1d9237","C3","batch3","tol_enter_quiz","1551","<p class=block-text> Let's answer a few questions <br>","0","","","","","","","","","","","","","","","","","","","","","","","","","",""
"","","","","","html-button-response","129","3052460","0.0-3.0-1.0-1.0-1.0","6287d7ec96fff020be1d9237","C3","batch3","tol_quiz","5995.699999988079","<p class = block-text>True or False: You can only move the ball on top of a peg. <br></p>","0","","","true","","","","","","","","","","","","","","","","","","","","","","",""
"","","","","","html-button-response","130","3054552","0.0-3.0-1.0-1.0-2.0","6287d7ec96fff020be1d9237","C3","batch3","tol_quiz_feedback","2090.7999999523163","<p class = block-text>Correct! You can only move the ball on top of a peg.</p>","0","","","","","","","","","","","","","","","","","","","","","","","","","",""
"","","","","","html-button-response","131","3059682","0.0-3.0-1.0-1.0-3.0","6287d7ec96fff020be1d9237","C3","batch3","tol_quiz","5128.600000023842","<p class = block-text>True or False: You should try to match your board with the target board with fewest moves possible. <br></p>","0","","","true","","","","","","","","","","","","","","","","","","","","","","",""
"","","","","","html-button-response","132","3060919","0.0-3.0-1.0-1.0-4.0","6287d7ec96fff020be1d9237","C3","batch3","tol_quiz_feedback","1235.699999988079","<p class = block-text>Correct! </p>","0","","","","","","","","","","","","","","","","","","","","","","","","","",""
"","","","","","html-button-response","133","3062990","0.0-3.0-2.0","6287d7ec96fff020be1d9237","C3","batch3","","2068.900000035763","<p class=block-text> Now that you've understood the game, let's practice a few easier examples before we start!<br> <br>","0","","","","","","","","","","","","","","","","","","","","","","","","","",""
"","","","","","single-stim-button","134","3067041","0.0-3.0-3.0-0.0","6287d7ec96fff020be1d9237","C3","batch3","tol_practice","4048","","","","","","","","","tol_peg_2","4048","4048","0","[[1,2,0],[0,0],[0]]","1","[[1,2,0],[0,0],[3]]","practice","4048","","","","","","","","","","",""
"","","","","","single-stim-button","135","3069772","0.0-3.0-3.0-1.0","6287d7ec96fff020be1d9237","C3","batch3","tol_practice","2731","","","","","","","","","tol_peg_3","2731","2731","0","[[1,2,0],[0,0],[3]]","1","[[1,2,0],[0,0],[3]]","practice","2731","","","","","","","","","","",""
"","","","","","poldrack-single-stim","136","3070775","0.0-3.0-4.0","6287d7ec96fff020be1d9237","C3","batch3","tol_feedback","-1","","","","","true","","","","","1000","1000","500","","","","","","-1","none","true","","0","","","","","",""
"","","","","","single-stim-button","137","3077243","0.0-3.0-5.0-0.0","6287d7ec96fff020be1d9237","C3","batch3","tol_practice","6468","","","","","","","","","tol_peg_1","6468","6468","0","[[1,0,0],[3,0],[0]]","2","[[0,0,0],[3,1],[2]]","practice","6468","","","","","","","","","","",""
"","","","","","single-stim-button","138","3078853","0.0-3.0-5.0-1.0","6287d7ec96fff020be1d9237","C3","batch3","tol_practice","1608","","","","","","","","","tol_peg_3","1608","1608","0","[[1,0,0],[3,0],[2]]","2","[[0,0,0],[3,1],[2]]","practice","1608","","","","","","","","","","",""
"","","","","","single-stim-button","139","3080067","0.0-3.0-5.1-0.1","6287d7ec96fff020be1d9237","C3","batch3","tol_practice","1214","","","","","","","","","tol_peg_1","1214","1214","0","[[0,0,0],[3,0],[2]]","3","[[0,0,0],[3,1],[2]]","practice","1214","","","","","","","","","","",""
"","","","","","single-stim-button","140","3081215","0.0-3.0-5.1-1.1","6287d7ec96fff020be1d9237","C3","batch3","tol_practice","1147","","","","","","","","","tol_peg_2","1147","1147","0","[[0,0,0],[3,1],[2]]","3","[[0,0,0],[3,1],[2]]","practice","1147","","","","","","","","","","",""
"","","","","","poldrack-single-stim","141","3082223","0.0-3.0-6.0","6287d7ec96fff020be1d9237","C3","batch3","tol_feedback","-1","","","","","true","","","","","1000","1000","500","","","","","","-1","none","true","","0","","","","","",""
"","","","","","single-stim-button","142","3086142","0.0-3.0-7.0-0.0","6287d7ec96fff020be1d9237","C3","batch3","tol_practice","3917","","","","","","","","","tol_peg_2","3917","3917","0","[[1,2,0],[0,0],[0]]","4","[[1,0,0],[2,0],[3]]","practice","3917","","","","","","","","","","",""
"","","","","","single-stim-button","143","3087627","0.0-3.0-7.0-1.0","6287d7ec96fff020be1d9237","C3","batch3","tol_practice","1483","","","","","","","","","tol_peg_3","1483","1483","0","[[1,2,0],[0,0],[3]]","4","[[1,0,0],[2,0],[3]]","practice","1483","","","","","","","","","","",""
"","","","","","single-stim-button","144","3089989","0.0-3.0-7.1-0.1","6287d7ec96fff020be1d9237","C3","batch3","tol_practice","2361","","","","","","","","","tol_peg_1","2361","2361","0","[[1,0,0],[0,0],[3]]","5","[[1,0,0],[2,0],[3]]","practice","2361","","","","","","","","","","",""
"","","","","","single-stim-button","145","3090866","0.0-3.0-7.1-1.1","6287d7ec96fff020be1d9237","C3","batch3","tol_practice","877","","","","","","","","","tol_peg_2","877","877","0","[[1,0,0],[2,0],[3]]","5","[[1,0,0],[2,0],[3]]","practice","877","","","","","","","","","","",""
"","","","","","poldrack-single-stim","146","3091870","0.0-3.0-8.0","6287d7ec96fff020be1d9237","C3","batch3","tol_feedback","-1","","","","","true","","","","","1000","1000","500","","","","","","-1","none","true","","0","","","","","",""
"","","","","","html-button-response","147","3101677","0.0-3.0-9.0","6287d7ec96fff020be1d9237","C3","batch3","tol_instruction","9806","<div class = centerbox><p class = center-block-text>Great job! You are done with practice trials<br>You are about to start official trials.<br> <br> Problem <strong>1</strong> out of 25 problems</p></div>","0","","","","","","","","","","","","","","","","","","","","","","","","","",""
"","","","","","single-stim-button","148","3116336","0.0-3.0-10.0-0.0","6287d7ec96fff020be1d9237","C3","batch3","tol_tohand","13657","","","","","","","","","tol_peg_1","13657","13657","0","[[1,0,0],[3,0],[0]]","1","[[1,3,0],[2,0],[0]]","0","0","","","","","","3","","","","",""
"","","","","","single-stim-button","149","3118554","0.0-3.0-10.0-1.0","6287d7ec96fff020be1d9237","C3","batch3","tol_toboard","2216","","","","","","","","","tol_peg_3","2216","2216","0","[[1,0,0],[3,0],[2]]","1","[[1,3,0],[2,0],[0]]","0","0","","","","","","3","","","","",""
"","","","","","single-stim-button","150","3119588","0.0-3.0-10.1-0.1","6287d7ec96fff020be1d9237","C3","batch3","tol_tohand","1034","","","","","","","","","tol_peg_2","1034","1034","0","[[1,0,0],[0,0],[2]]","2","[[1,3,0],[2,0],[0]]","0","0","","","","","","3","","","","",""
"","","","","","single-stim-button","151","3120534","0.0-3.0-10.1-1.1","6287d7ec96fff020be1d9237","C3","batch3","tol_toboard","945","","","","","","","","","tol_peg_1","945","945","0","[[1,3,0],[0,0],[2]]","2","[[1,3,0],[2,0],[0]]","0","0","","","","","","3","","","","",""
"","","","","","single-stim-button","152","3121884","0.0-3.0-10.2-0.2","6287d7ec96fff020be1d9237","C3","batch3","tol_tohand","1348","","","","","","","","","tol_peg_3","1348","1348","0","[[1,3,0],[0,0],[0]]","3","[[1,3,0],[2,0],[0]]","0","0","","","","","","3","","","","",""
"","","","","","single-stim-button","153","3122760","0.0-3.0-10.2-1.2","6287d7ec96fff020be1d9237","C3","batch3","tol_toboard","875","","","","","","","","","tol_peg_2","875","875","0","[[1,3,0],[2,0],[0]]","3","[[1,3,0],[2,0],[0]]","0","0","","","","","","3","","","","",""
"","","","","","poldrack-single-stim","154","3123769","0.0-3.0-11.0","6287d7ec96fff020be1d9237","C3","batch3","tol_feedback","-1","","","","","true","","","","","1000","1000","500","","","","","","-1","none","true","13657","16039","","","","","",""
"","","","","","html-button-response","155","3124830","0.0-3.0-12.0","6287d7ec96fff020be1d9237","C3","batch3","tol_trial_num","1060.699999988079","<div class = centerbox><p class = center-block-text>problem <strong>2</strong> out of 25 problems</p></div>","0","","","","","","","","","","","","","","","","","","","","","","","","","",""
"","","","","","single-stim-button","156","3136463","0.0-3.0-13.0-0.0","6287d7ec96fff020be1d9237","C3","batch3","tol_tohand","11632","","","","","","","","","tol_peg_1","11632","11632","0","[[1,0,0],[3,0],[0]]","1","[[2,1,3],[0,0],[0]]","1","0","","","","","","5","","","","",""
"","","","","","single-stim-button","157","3138118","0.0-3.0-13.0-1.0","6287d7ec96fff020be1d9237","C3","batch3","tol_toboard","1653","","","","","","","","","tol_peg_3","1653","1653","0","[[1,0,0],[3,0],[2]]","1","[[2,1,3],[0,0],[0]]","1","0","","","","","","5","","","","",""
"","","","","","single-stim-button","158","3141964","0.0-3.0-13.1-0.1","6287d7ec96fff020be1d9237","C3","batch3","tol_tohand","3845","","","","","","","","","tol_peg_3","3845","3845","0","[[1,0,0],[3,0],[0]]","2","[[2,1,3],[0,0],[0]]","1","0","","","","","","5","","","","",""
"","","","","","single-stim-button","159","3145238","0.0-3.0-13.1-1.1","6287d7ec96fff020be1d9237","C3","batch3","tol_toboard","3273","","","","","","","","","tol_peg_2","3273","3273","0","[[1,0,0],[3,2],[0]]","2","[[2,1,3],[0,0],[0]]","1","0","","","","","","5","","","","",""
"","","","","","single-stim-button","160","3146307","0.0-3.0-13.2-0.2","6287d7ec96fff020be1d9237","C3","batch3","tol_tohand","1067","","","","","","","","","tol_peg_1","1067","1067","0","[[0,0,0],[3,2],[0]]","3","[[2,1,3],[0,0],[0]]","1","0","","","","","","5","","","","",""
"","","","","","single-stim-button","161","3148130","0.0-3.0-13.2-1.2","6287d7ec96fff020be1d9237","C3","batch3","tol_toboard","1822","","","","","","","","","tol_peg_3","1822","1822","0","[[0,0,0],[3,2],[1]]","3","[[2,1,3],[0,0],[0]]","1","0","","","","","","5","","","","",""
"","","","","","single-stim-button","162","3149401","0.0-3.0-13.3-0.3","6287d7ec96fff020be1d9237","C3","batch3","tol_tohand","1271","","","","","","","","","tol_peg_2","1271","1271","0","[[0,0,0],[3,0],[1]]","4","[[2,1,3],[0,0],[0]]","1","0","","","","","","5","","","","",""
"","","","","","single-stim-button","163","3151988","0.0-3.0-13.3-1.3","6287d7ec96fff020be1d9237","C3","batch3","tol_toboard","2586","","","","","","","","","tol_peg_1","2586","2586","0","[[2,0,0],[3,0],[1]]","4","[[2,1,3],[0,0],[0]]","1","0","","","","","","5","","","","",""
"","","","","","single-stim-button","164","3153372","0.0-3.0-13.4-0.4","6287d7ec96fff020be1d9237","C3","batch3","tol_tohand","1383","","","","","","","","","tol_peg_3","1383","1383","0","[[2,0,0],[3,0],[0]]","5","[[2,1,3],[0,0],[0]]","1","0","","","","","","5","","","","",""
"","","","","","single-stim-button","165","3154665","0.0-3.0-13.4-1.4","6287d7ec96fff020be1d9237","C3","batch3","tol_toboard","1292","","","","","","","","","tol_peg_1","1292","1292","0","[[2,1,0],[3,0],[0]]","5","[[2,1,3],[0,0],[0]]","1","0","","","","","","5","","","","",""
"","","","","","single-stim-button","166","3155554","0.0-3.0-13.5-0.5","6287d7ec96fff020be1d9237","C3","batch3","tol_tohand","888","","","","","","","","","tol_peg_2","888","888","0","[[2,1,0],[0,0],[0]]","6","[[2,1,3],[0,0],[0]]","1","0","","","","","","5","","","","",""
"","","","","","single-stim-button","167","3156703","0.0-3.0-13.5-1.5","6287d7ec96fff020be1d9237","C3","batch3","tol_toboard","1148","","","","","","","","","tol_peg_1","1148","1148","0","[[2,1,3],[0,0],[0]]","6","[[2,1,3],[0,0],[0]]","1","0","","","","","","5","","","","",""
"","","","","","poldrack-single-stim","168","3157709","0.0-3.0-14.0","6287d7ec96fff020be1d9237","C3","batch3","tol_feedback","-1","","","","","true","","","","","1000","1000","500","","","","","","-1","none","true","11632","20086","","","","","",""
"","","","","","html-button-response","169","3158535","0.0-3.0-15.0","6287d7ec96fff020be1d9237","C3","batch3","tol_trial_num","823.7000000476837","<div class = centerbox><p class = center-block-text>problem <strong>3</strong> out of 25 problems</p></div>","0","","","","","","","","","","","","","","","","","","","","","","","","","",""
"","","","","","single-stim-button","170","3162090","0.0-3.0-16.0-0.0","6287d7ec96fff020be1d9237","C3","batch3","tol_tohand","3554","","","","","","","","","tol_peg_1","3554","3554","0","[[2,0,0],[0,0],[1]]","1","[[1,2,0],[3,0],[0]]","2","0","","","","","","4","","","","",""
"","","","","","single-stim-button","171","3163171","0.0-3.0-16.0-1.0","6287d7ec96fff020be1d9237","C3","batch3","tol_toboard","1081","","","","","","","","","tol_peg_2","1081","1081","0","[[2,0,0],[3,0],[1]]","1","[[1,2,0],[3,0],[0]]","2","0","","","","","","4","","","","",""
"","","","","","single-stim-button","172","3165342","0.0-3.0-16.1-0.1","6287d7ec96fff020be1d9237","C3","batch3","tol_tohand","2170","","","","","","","","","tol_peg_1","2170","2170","0","[[0,0,0],[3,0],[1]]","2","[[1,2,0],[3,0],[0]]","2","0","","","","","","4","","","","",""
"","","","","","single-stim-button","173","3166603","0.0-3.0-16.1-1.1","6287d7ec96fff020be1d9237","C3","batch3","tol_toboard","1260","","","","","","","","","tol_peg_2","1260","1260","0","[[0,0,0],[3,2],[1]]","2","[[1,2,0],[3,0],[0]]","2","0","","","","","","4","","","","",""
"","","","","","single-stim-button","174","3167220","0.0-3.0-16.2-0.2","6287d7ec96fff020be1d9237","C3","batch3","tol_tohand","617","","","","","","","","","tol_peg_3","617","617","0","[[0,0,0],[3,2],[0]]","3","[[1,2,0],[3,0],[0]]","2","0","","","","","","4","","","","",""
"","","","","","single-stim-button","175","3168290","0.0-3.0-16.2-1.2","6287d7ec96fff020be1d9237","C3","batch3","tol_toboard","1068","","","","","","","","","tol_peg_1","1068","1068","0","[[1,0,0],[3,2],[0]]","3","[[1,2,0],[3,0],[0]]","2","0","","","","","","4","","","","",""
"","","","","","single-stim-button","176","3168897","0.0-3.0-16.3-0.3","6287d7ec96fff020be1d9237","C3","batch3","tol_tohand","606","","","","","","","","","tol_peg_2","606","606","0","[[1,0,0],[3,0],[0]]","4","[[1,2,0],[3,0],[0]]","2","0","","","","","","4","","","","",""
"","","","","","single-stim-button","177","3169976","0.0-3.0-16.3-1.3","6287d7ec96fff020be1d9237","C3","batch3","tol_toboard","1079","","","","","","","","","tol_peg_1","1079","1079","0","[[1,2,0],[3,0],[0]]","4","[[1,2,0],[3,0],[0]]","2","0","","","","","","4","","","","",""
"","","","","","poldrack-single-stim","178","3170986","0.0-3.0-17.0","6287d7ec96fff020be1d9237","C3","batch3","tol_feedback","-1","","","","","true","","","","","1000","1000","500","","","","","","-1","none","true","3554","6947","","","","","",""
"","","","","","html-button-response","179","3171956","0.0-3.0-18.0","6287d7ec96fff020be1d9237","C3","batch3","tol_trial_num","968.6000000238419","<div class = centerbox><p class = center-block-text>problem <strong>4</strong> out of 25 problems</p></div>","0","","","","","","","","","","","","","","","","","","","","","","","","","",""
"","","","","","single-stim-button","180","3176186","0.0-3.0-19.0-0.0","6287d7ec96fff020be1d9237","C3","batch3","tol_tohand","4229","","","","","","","","","tol_peg_2","4229","4229","0","[[3,0,0],[2,0],[0]]","1","[[3,0,0],[1,0],[2]]","3","0","","","","","","3","","","","",""
"","","","","","single-stim-button","181","3176933","0.0-3.0-19.0-1.0","6287d7ec96fff020be1d9237","C3","batch3","tol_toboard","746","","","","","","","","","tol_peg_1","746","746","0","[[3,1,0],[2,0],[0]]","1","[[3,0,0],[1,0],[2]]","3","0","","","","","","3","","","","",""
"","","","","","single-stim-button","182","3177739","0.0-3.0-19.1-0.1","6287d7ec96fff020be1d9237","C3","batch3","tol_tohand","804","","","","","","","","","tol_peg_2","804","804","0","[[3,1,0],[0,0],[0]]","2","[[3,0,0],[1,0],[2]]","3","0","","","","","","3","","","","",""
"","","","","","single-stim-button","183","3178854","0.0-3.0-19.1-1.1","6287d7ec96fff020be1d9237","C3","batch3","tol_toboard","1114","","","","","","","","","tol_peg_3","1114","1114","0","[[3,1,0],[0,0],[2]]","2","[[3,0,0],[1,0],[2]]","3","0","","","","","","3","","","","",""
"","","","","","single-stim-button","184","3179584","0.0-3.0-19.2-0.2","6287d7ec96fff020be1d9237","C3","batch3","tol_tohand","730","","","","","","","","","tol_peg_1","730","730","0","[[3,0,0],[0,0],[2]]","3","[[3,0,0],[1,0],[2]]","3","0","","","","","","3","","","","",""
"","","","","","single-stim-button","185","3180067","0.0-3.0-19.2-1.2","6287d7ec96fff020be1d9237","C3","batch3","tol_toboard","482","","","","","","","","","tol_peg_2","482","482","0","[[3,0,0],[1,0],[2]]","3","[[3,0,0],[1,0],[2]]","3","0","","","","","","3","","","","",""
"","","","","","poldrack-single-stim","186","3181069","0.0-3.0-20.0","6287d7ec96fff020be1d9237","C3","batch3","tol_feedback","-1","","","","","true","","","","","1000","1000","500","","","","","","-1","none","true","4229","5763","","","","","",""
"","","","","","html-button-response","187","3182013","0.0-3.0-21.0","6287d7ec96fff020be1d9237","C3","batch3","tol_trial_num","942.8000000119209","<div class = centerbox><p class = center-block-text>problem <strong>5</strong> out of 25 problems</p></div>","0","","","","","","","","","","","","","","","","","","","","","","","","","",""
"","","","","","single-stim-button","188","3209554","0.0-3.0-22.0-0.0","6287d7ec96fff020be1d9237","C3","batch3","tol_tohand","27539","","","","","","","","","tol_peg_3","27539","27539","0","[[1,0,0],[2,0],[0]]","1","[[0,0,0],[1,2],[3]]","4","0","","","","","","7","","","","",""
"","","","","","single-stim-button","189","3227497","0.0-3.0-22.0-1.0","6287d7ec96fff020be1d9237","C3","batch3","tol_toboard","17943","","","","","","","","","tol_peg_3","17943","17943","0","[[1,0,0],[2,0],[3]]","1","[[0,0,0],[1,2],[3]]","4","0","","","","","","7","","","","",""
"","","","","","single-stim-button","190","3231154","0.0-3.0-22.1-0.1","6287d7ec96fff020be1d9237","C3","batch3","tol_tohand","3656","","","","","","","","","tol_peg_1","3656","3656","0","[[0,0,0],[2,0],[3]]","2","[[0,0,0],[1,2],[3]]","4","0","","","","","","7","","","","",""
"","","","","","single-stim-button","191","3232447","0.0-3.0-22.1-1.1","6287d7ec96fff020be1d9237","C3","batch3","tol_toboard","1293","","","","","","","","","tol_peg_2","1293","1293","0","[[0,0,0],[2,1],[3]]","2","[[0,0,0],[1,2],[3]]","4","0","","","","","","7","","","","",""
"","","","","","single-stim-button","192","3233494","0.0-3.0-22.2-0.2","6287d7ec96fff020be1d9237","C3","batch3","tol_tohand","1046","","","","","","","","","tol_peg_2","1046","1046","0","[[0,0,0],[2,0],[3]]","3","[[0,0,0],[1,2],[3]]","4","0","","","","","","7","","","","",""
"","","","","","single-stim-button","193","3236532","0.0-3.0-22.2-1.2","6287d7ec96fff020be1d9237","C3","batch3","tol_toboard","3037","","","","","","","","","tol_peg_1","3037","3037","0","[[1,0,0],[2,0],[3]]","3","[[0,0,0],[1,2],[3]]","4","0","","","","","","7","","","","",""
"","","","","","single-stim-button","194","3240784","0.0-3.0-22.3-0.3","6287d7ec96fff020be1d9237","C3","batch3","tol_tohand","4252","","","","","","","","","tol_peg_3","4252","4252","0","[[1,0,0],[2,0],[0]]","4","[[0,0,0],[1,2],[3]]","4","0","","","","","","7","","","","",""
"","","","","","single-stim-button","195","3245114","0.0-3.0-22.3-1.3","6287d7ec96fff020be1d9237","C3","batch3","tol_toboard","4329","","","","","","","","","tol_peg_2","4329","4329","0","[[1,0,0],[2,3],[0]]","4","[[0,0,0],[1,2],[3]]","4","0","","","","","","7","","","","",""
"","","","","","single-stim-button","196","3245947","0.0-3.0-22.4-0.4","6287d7ec96fff020be1d9237","C3","batch3","tol_tohand","832","","","","","","","","","tol_peg_1","832","832","0","[[0,0,0],[2,3],[0]]","5","[[0,0,0],[1,2],[3]]","4","0","","","","","","7","","","","",""
"","","","","","single-stim-button","197","3247073","0.0-3.0-22.4-1.4","6287d7ec96fff020be1d9237","C3","batch3","tol_toboard","1124","","","","","","","","","tol_peg_3","1124","1124","0","[[0,0,0],[2,3],[1]]","5","[[0,0,0],[1,2],[3]]","4","0","","","","","","7","","","","",""
"","","","","","single-stim-button","198","3249019","0.0-3.0-22.5-0.5","6287d7ec96fff020be1d9237","C3","batch3","tol_tohand","1946","","","","","","","","","tol_peg_2","1946","1946","0","[[0,0,0],[2,0],[1]]","6","[[0,0,0],[1,2],[3]]","4","0","","","","","","7","","","","",""
"","","","","","single-stim-button","199","3251246","0.0-3.0-22.5-1.5","6287d7ec96fff020be1d9237","C3","batch3","tol_toboard","2227","","","","","","","","","tol_peg_1","2227","2227","0","[[3,0,0],[2,0],[1]]","6","[[0,0,0],[1,2],[3]]","4","0","","","","","","7","","","","",""
"","","","","","single-stim-button","200","3252326","0.0-3.0-22.6-0.6","6287d7ec96fff020be1d9237","C3","batch3","tol_tohand","1079","","","","","","","","","tol_peg_2","1079","1079","0","[[3,0,0],[0,0],[1]]","7","[[0,0,0],[1,2],[3]]","4","0","","","","","","7","","","","",""
"","","","","","single-stim-button","201","3253340","0.0-3.0-22.6-1.6","6287d7ec96fff020be1d9237","C3","batch3","tol_toboard","1013","","","","","","","","","tol_peg_1","1013","1013","0","[[3,2,0],[0,0],[1]]","7","[[0,0,0],[1,2],[3]]","4","0","","","","","","7","","","","",""
"","","","","","single-stim-button","202","3254036","0.0-3.0-22.7-0.7","6287d7ec96fff020be1d9237","C3","batch3","tol_tohand","694","","","","","","","","","tol_peg_3","694","694","0","[[3,2,0],[0,0],[0]]","8","[[0,0,0],[1,2],[3]]","4","0","","","","","","7","","","","",""
"","","","","","single-stim-button","203","3254824","0.0-3.0-22.7-1.7","6287d7ec96fff020be1d9237","C3","batch3","tol_toboard","788","","","","","","","","","tol_peg_2","788","788","0","[[3,2,0],[1,0],[0]]","8","[[0,0,0],[1,2],[3]]","4","0","","","","","","7","","","","",""
"","","","","","single-stim-button","204","3256264","0.0-3.0-22.8-0.8","6287d7ec96fff020be1d9237","C3","batch3","tol_tohand","1440","","","","","","","","","tol_peg_1","1440","1440","0","[[3,0,0],[1,0],[0]]","9","[[0,0,0],[1,2],[3]]","4","0","","","","","","7","","","","",""
"","","","","","single-stim-button","205","3257401","0.0-3.0-22.8-1.8","6287d7ec96fff020be1d9237","C3","batch3","tol_toboard","1136","","","","","","","","","tol_peg_2","1136","1136","0","[[3,0,0],[1,2],[0]]","9","[[0,0,0],[1,2],[3]]","4","0","","","","","","7","","","","",""
"","","","","","single-stim-button","206","3258413","0.0-3.0-22.9-0.9","6287d7ec96fff020be1d9237","C3","batch3","tol_tohand","1011","","","","","","","","","tol_peg_1","1011","1011","0","[[0,0,0],[1,2],[0]]","10","[[0,0,0],[1,2],[3]]","4","0","","","","","","7","","","","",""
"","","","","","single-stim-button","207","3259314","0.0-3.0-22.9-1.9","6287d7ec96fff020be1d9237","C3","batch3","tol_toboard","900","","","","","","","","","tol_peg_3","900","900","0","[[0,0,0],[1,2],[3]]","10","[[0,0,0],[1,2],[3]]","4","0","","","","","","7","","","","",""
"","","","","","poldrack-single-stim","208","3260320","0.0-3.0-23.0","6287d7ec96fff020be1d9237","C3","batch3","tol_feedback","-1","","","","","true","","","","","1000","1000","500","","","","","","-1","none","true","27539","43495","","","","","",""
"","","","","","html-button-response","209","3261169","0.0-3.0-24.0","6287d7ec96fff020be1d9237","C3","batch3","tol_trial_num","848.1999999880791","<div class = centerbox><p class = center-block-text>problem <strong>6</strong> out of 25 problems</p></div>","0","","","","","","","","","","","","","","","","","","","","","","","","","",""
"","","","","","single-stim-button","210","3270563","0.0-3.0-25.0-0.0","6287d7ec96fff020be1d9237","C3","batch3","tol_tohand","9393","","","","","","","","","tol_peg_3","9393","9393","0","[[0,0,0],[1,2],[0]]","1","[[1,0,0],[2,3],[0]]","5","0","","","","","","6","","","","",""
"","","","","","single-stim-button","211","3278921","0.0-3.0-25.0-1.0","6287d7ec96fff020be1d9237","C3","batch3","tol_toboard","8357","","","","","","","","","tol_peg_3","8357","8357","0","[[0,0,0],[1,2],[3]]","1","[[1,0,0],[2,3],[0]]","5","0","","","","","","6","","","","",""
"","","","","","single-stim-button","212","3279935","0.0-3.0-25.1-0.1","6287d7ec96fff020be1d9237","C3","batch3","tol_tohand","1012","","","","","","","","","tol_peg_2","1012","1012","0","[[0,0,0],[1,0],[3]]","2","[[1,0,0],[2,3],[0]]","5","0","","","","","","6","","","","",""
"","","","","","single-stim-button","213","3280947","0.0-3.0-25.1-1.1","6287d7ec96fff020be1d9237","C3","batch3","tol_toboard","1011","","","","","","","","","tol_peg_1","1011","1011","0","[[2,0,0],[1,0],[3]]","2","[[1,0,0],[2,3],[0]]","5","0","","","","","","6","","","","",""
"","","","","","single-stim-button","214","3284198","0.0-3.0-25.2-0.2","6287d7ec96fff020be1d9237","C3","batch3","tol_tohand","3251","","","","","","","","","tol_peg_2","3251","3251","0","[[2,0,0],[0,0],[3]]","3","[[1,0,0],[2,3],[0]]","5","0","","","","","","6","","","","",""
"","","","","","single-stim-button","215","3285154","0.0-3.0-25.2-1.2","6287d7ec96fff020be1d9237","C3","batch3","tol_toboard","954","","","","","","","","","tol_peg_1","954","954","0","[[2,1,0],[0,0],[3]]","3","[[1,0,0],[2,3],[0]]","5","0","","","","","","6","","","","",""
"","","","","","single-stim-button","216","3287562","0.0-3.0-25.3-0.3","6287d7ec96fff020be1d9237","C3","batch3","tol_tohand","2407","","","","","","","","","tol_peg_3","2407","2407","0","[[2,1,0],[0,0],[0]]","4","[[1,0,0],[2,3],[0]]","5","0","","","","","","6","","","","",""
"","","","","","single-stim-button","217","3288787","0.0-3.0-25.3-1.3","6287d7ec96fff020be1d9237","C3","batch3","tol_toboard","1225","","","","","","","","","tol_peg_2","1225","1225","0","[[2,1,0],[3,0],[0]]","4","[[1,0,0],[2,3],[0]]","5","0","","","","","","6","","","","",""
"","","","","","single-stim-button","218","3290869","0.0-3.0-25.4-0.4","6287d7ec96fff020be1d9237","C3","batch3","tol_tohand","2080","","","","","","","","","tol_peg_1","2080","2080","0","[[2,0,0],[3,0],[0]]","5","[[1,0,0],[2,3],[0]]","5","0","","","","","","6","","","","",""
"","","","","","single-stim-button","219","3294726","0.0-3.0-25.4-1.4","6287d7ec96fff020be1d9237","C3","batch3","tol_toboard","3857","","","","","","","","","tol_peg_2","3857","3857","0","[[2,0,0],[3,1],[0]]","5","[[1,0,0],[2,3],[0]]","5","0","","","","","","6","","","","",""
"","","","","","single-stim-button","220","3295897","0.0-3.0-25.5-0.5","6287d7ec96fff020be1d9237","C3","batch3","tol_tohand","1170","","","","","","","","","tol_peg_1","1170","1170","0","[[0,0,0],[3,1],[0]]","6","[[1,0,0],[2,3],[0]]","5","0","","","","","","6","","","","",""
"","","","","","single-stim-button","221","3297418","0.0-3.0-25.5-1.5","6287d7ec96fff020be1d9237","C3","batch3","tol_toboard","1519","","","","","","","","","tol_peg_3","1519","1519","0","[[0,0,0],[3,1],[2]]","6","[[1,0,0],[2,3],[0]]","5","0","","","","","","6","","","","",""
"","","","","","single-stim-button","222","3298169","0.0-3.0-25.6-0.6","6287d7ec96fff020be1d9237","C3","batch3","tol_tohand","751","","","","","","","","","tol_peg_2","751","751","0","[[0,0,0],[3,0],[2]]","7","[[1,0,0],[2,3],[0]]","5","0","","","","","","6","","","","",""
"","","","","","single-stim-button","223","3298934","0.0-3.0-25.6-1.6","6287d7ec96fff020be1d9237","C3","batch3","tol_toboard","764","","","","","","","","","tol_peg_1","764","764","0","[[1,0,0],[3,0],[2]]","7","[[1,0,0],[2,3],[0]]","5","0","","","","","","6","","","","",""
"","","","","","single-stim-button","224","3301600","0.0-3.0-25.7-0.7","6287d7ec96fff020be1d9237","C3","batch3","tol_tohand","2665","","","","","","","","","tol_peg_2","2665","2665","0","[[1,0,0],[0,0],[2]]","8","[[1,0,0],[2,3],[0]]","5","0","","","","","","6","","","","",""
"","","","","","single-stim-button","225","3302286","0.0-3.0-25.7-1.7","6287d7ec96fff020be1d9237","C3","batch3","tol_toboard","686","","","","","","","","","tol_peg_1","686","686","0","[[1,3,0],[0,0],[2]]","8","[[1,0,0],[2,3],[0]]","5","0","","","","","","6","","","","",""
"","","","","","single-stim-button","226","3303020","0.0-3.0-25.8-0.8","6287d7ec96fff020be1d9237","C3","batch3","tol_tohand","733","","","","","","","","","tol_peg_3","733","733","0","[[1,3,0],[0,0],[0]]","9","[[1,0,0],[2,3],[0]]","5","0","","","","","","6","","","","",""
"","","","","","single-stim-button","227","3303704","0.0-3.0-25.8-1.8","6287d7ec96fff020be1d9237","C3","batch3","tol_toboard","684","","","","","","","","","tol_peg_2","684","684","0","[[1,3,0],[2,0],[0]]","9","[[1,0,0],[2,3],[0]]","5","0","","","","","","6","","","","",""
"","","","","","single-stim-button","228","3304874","0.0-3.0-25.9-0.9","6287d7ec96fff020be1d9237","C3","batch3","tol_tohand","1168","","","","","","","","","tol_peg_1","1168","1168","0","[[1,0,0],[2,0],[0]]","10","[[1,0,0],[2,3],[0]]","5","0","","","","","","6","","","","",""
"","","","","","single-stim-button","229","3305652","0.0-3.0-25.9-1.9","6287d7ec96fff020be1d9237","C3","batch3","tol_toboard","777","","","","","","","","","tol_peg_2","777","777","0","[[1,0,0],[2,3],[0]]","10","[[1,0,0],[2,3],[0]]","5","0","","","","","","6","","","","",""
"","","","","","poldrack-single-stim","230","3306653","0.0-3.0-26.0","6287d7ec96fff020be1d9237","C3","batch3","tol_feedback","-1","","","","","true","","","","","1000","1000","500","","","","","","-1","none","true","9393","24630","","","","","",""
"","","","","","html-button-response","231","3307475","0.0-3.0-27.0","6287d7ec96fff020be1d9237","C3","batch3","tol_trial_num","820.9000000357628","<div class = centerbox><p class = center-block-text>problem <strong>7</strong> out of 25 problems</p></div>","0","","","","","","","","","","","","","","","","","","","","","","","","","",""
"","","","","","single-stim-button","232","3319222","0.0-3.0-28.0-0.0","6287d7ec96fff020be1d9237","C3","batch3","tol_tohand","11746","","","","","","","","","tol_peg_1","11746","11746","0","[[2,0,0],[0,0],[3]]","1","[[1,2,0],[3,0],[0]]","6","0","","","","","","5","","","","",""
"","","","","","single-stim-button","233","3319993","0.0-3.0-28.0-1.0","6287d7ec96fff020be1d9237","C3","batch3","tol_toboard","771","","","","","","","","","tol_peg_2","771","771","0","[[2,0,0],[1,0],[3]]","1","[[1,2,0],[3,0],[0]]","6","0","","","","","","5","","","","",""
"","","","","","single-stim-button","234","3320715","0.0-3.0-28.1-0.1","6287d7ec96fff020be1d9237","C3","batch3","tol_tohand","720","","","","","","","","","tol_peg_3","720","720","0","[[2,0,0],[1,0],[0]]","2","[[1,2,0],[3,0],[0]]","6","0","","","","","","5","","","","",""
"","","","","","single-stim-button","235","3321850","0.0-3.0-28.1-1.1","6287d7ec96fff020be1d9237","C3","batch3","tol_toboard","1135","","","","","","","","","tol_peg_2","1135","1135","0","[[2,0,0],[1,3],[0]]","2","[[1,2,0],[3,0],[0]]","6","0","","","","","","5","","","","",""
"","","","","","single-stim-button","236","3322998","0.0-3.0-28.2-0.2","6287d7ec96fff020be1d9237","C3","batch3","tol_tohand","1146","","","","","","","","","tol_peg_1","1146","1146","0","[[0,0,0],[1,3],[0]]","3","[[1,2,0],[3,0],[0]]","6","0","","","","","","5","","","","",""
"","","","","","single-stim-button","237","3324485","0.0-3.0-28.2-1.2","6287d7ec96fff020be1d9237","C3","batch3","tol_toboard","1487","","","","","","","","","tol_peg_3","1487","1487","0","[[0,0,0],[1,3],[2]]","3","[[1,2,0],[3,0],[0]]","6","0","","","","","","5","","","","",""
"","","","","","single-stim-button","238","3328773","0.0-3.0-28.3-0.3","6287d7ec96fff020be1d9237","C3","batch3","tol_tohand","4287","","","","","","","","","tol_peg_2","4287","4287","0","[[0,0,0],[1,0],[2]]","4","[[1,2,0],[3,0],[0]]","6","0","","","","","","5","","","","",""
"","","","","","single-stim-button","239","3336194","0.0-3.0-28.3-1.3","6287d7ec96fff020be1d9237","C3","batch3","tol_toboard","7420","","","","","","","","","tol_peg_1","7420","7420","0","[[3,0,0],[1,0],[2]]","4","[[1,2,0],[3,0],[0]]","6","0","","","","","","5","","","","",""
"","","","","","single-stim-button","240","3336971","0.0-3.0-28.4-0.4","6287d7ec96fff020be1d9237","C3","batch3","tol_tohand","776","","","","","","","","","tol_peg_3","776","776","0","[[3,0,0],[1,0],[0]]","5","[[1,2,0],[3,0],[0]]","6","0","","","","","","5","","","","",""
"","","","","","single-stim-button","241","3337915","0.0-3.0-28.4-1.4","6287d7ec96fff020be1d9237","C3","batch3","tol_toboard","944","","","","","","","","","tol_peg_2","944","944","0","[[3,0,0],[1,2],[0]]","5","[[1,2,0],[3,0],[0]]","6","0","","","","","","5","","","","",""
"","","","","","single-stim-button","242","3338928","0.0-3.0-28.5-0.5","6287d7ec96fff020be1d9237","C3","batch3","tol_tohand","1011","","","","","","","","","tol_peg_1","1011","1011","0","[[0,0,0],[1,2],[0]]","6","[[1,2,0],[3,0],[0]]","6","0","","","","","","5","","","","",""
"","","","","","single-stim-button","243","3340424","0.0-3.0-28.5-1.5","6287d7ec96fff020be1d9237","C3","batch3","tol_toboard","1496","","","","","","","","","tol_peg_3","1496","1496","0","[[0,0,0],[1,2],[3]]","6","[[1,2,0],[3,0],[0]]","6","0","","","","","","5","","","","",""
"","","","","","single-stim-button","244","3344362","0.0-3.0-28.6-0.6","6287d7ec96fff020be1d9237","C3","batch3","tol_tohand","3938","","","","","","","","","tol_peg_3","3938","3938","0","[[0,0,0],[1,2],[0]]","7","[[1,2,0],[3,0],[0]]","6","0","","","","","","5","","","","",""
"","","","","","single-stim-button","245","3345475","0.0-3.0-28.6-1.6","6287d7ec96fff020be1d9237","C3","batch3","tol_toboard","1112","","","","","","","","","tol_peg_1","1112","1112","0","[[3,0,0],[1,2],[0]]","7","[[1,2,0],[3,0],[0]]","6","0","","","","","","5","","","","",""
"","","","","","single-stim-button","246","3346150","0.0-3.0-28.7-0.7","6287d7ec96fff020be1d9237","C3","batch3","tol_tohand","675","","","","","","","","","tol_peg_2","675","675","0","[[3,0,0],[1,0],[0]]","8","[[1,2,0],[3,0],[0]]","6","0","","","","","","5","","","","",""
"","","","","","single-stim-button","247","3346825","0.0-3.0-28.7-1.7","6287d7ec96fff020be1d9237","C3","batch3","tol_toboard","673","","","","","","","","","tol_peg_1","673","673","0","[[3,2,0],[1,0],[0]]","8","[[1,2,0],[3,0],[0]]","6","0","","","","","","5","","","","",""
"","","","","","single-stim-button","248","3347907","0.0-3.0-28.8-0.8","6287d7ec96fff020be1d9237","C3","batch3","tol_tohand","1081","","","","","","","","","tol_peg_2","1081","1081","0","[[3,2,0],[0,0],[0]]","9","[[1,2,0],[3,0],[0]]","6","0","","","","","","5","","","","",""
"","","","","","single-stim-button","249","3348738","0.0-3.0-28.8-1.8","6287d7ec96fff020be1d9237","C3","batch3","tol_toboard","829","","","","","","","","","tol_peg_3","829","829","0","[[3,2,0],[0,0],[1]]","9","[[1,2,0],[3,0],[0]]","6","0","","","","","","5","","","","",""
"","","","","","single-stim-button","250","3351382","0.0-3.0-28.9-0.9","6287d7ec96fff020be1d9237","C3","batch3","tol_tohand","2643","","","","","","","","","tol_peg_1","2643","2643","0","[[3,0,0],[0,0],[1]]","10","[[1,2,0],[3,0],[0]]","6","0","","","","","","5","","","","",""
"","","","","","single-stim-button","251","3352429","0.0-3.0-28.9-1.9","6287d7ec96fff020be1d9237","C3","batch3","tol_toboard","1046","","","","","","","","","tol_peg_2","1046","1046","0","[[3,0,0],[2,0],[1]]","10","[[1,2,0],[3,0],[0]]","6","0","","","","","","5","","","","",""
"","","","","","single-stim-button","252","3354049","0.0-3.0-28.10-0.10","6287d7ec96fff020be1d9237","C3","batch3","tol_tohand","1618","","","","","","","","","tol_peg_1","1618","1618","0","[[0,0,0],[2,0],[1]]","11","[[1,2,0],[3,0],[0]]","6","0","","","","","","5","","","","",""
"","","","","","single-stim-button","253","3355128","0.0-3.0-28.10-1.10","6287d7ec96fff020be1d9237","C3","batch3","tol_toboard","1078","","","","","","","","","tol_peg_2","1078","1078","0","[[0,0,0],[2,3],[1]]","11","[[1,2,0],[3,0],[0]]","6","0","","","","","","5","","","","",""
"","","","","","single-stim-button","254","3355949","0.0-3.0-28.11-0.11","6287d7ec96fff020be1d9237","C3","batch3","tol_tohand","820","","","","","","","","","tol_peg_3","820","820","0","[[0,0,0],[2,3],[0]]","12","[[1,2,0],[3,0],[0]]","6","0","","","","","","5","","","","",""
"","","","","","single-stim-button","255","3357019","0.0-3.0-28.11-1.11","6287d7ec96fff020be1d9237","C3","batch3","tol_toboard","1070","","","","","","","","","tol_peg_1","1070","1070","0","[[1,0,0],[2,3],[0]]","12","[[1,2,0],[3,0],[0]]","6","0","","","","","","5","","","","",""
"","","","","","single-stim-button","256","3358233","0.0-3.0-28.12-0.12","6287d7ec96fff020be1d9237","C3","batch3","tol_tohand","1214","","","","","","","","","tol_peg_2","1214","1214","0","[[1,0,0],[2,0],[0]]","13","[[1,2,0],[3,0],[0]]","6","0","","","","","","5","","","","",""
"","","","","","single-stim-button","257","3359046","0.0-3.0-28.12-1.12","6287d7ec96fff020be1d9237","C3","batch3","tol_toboard","811","","","","","","","","","tol_peg_3","811","811","0","[[1,0,0],[2,0],[3]]","13","[[1,2,0],[3,0],[0]]","6","0","","","","","","5","","","","",""
"","","","","","single-stim-button","258","3359582","0.0-3.0-28.13-0.13","6287d7ec96fff020be1d9237","C3","batch3","tol_tohand","536","","","","","","","","","tol_peg_2","536","536","0","[[1,0,0],[0,0],[3]]","14","[[1,2,0],[3,0],[0]]","6","0","","","","","","5","","","","",""
"","","","","","single-stim-button","259","3360493","0.0-3.0-28.13-1.13","6287d7ec96fff020be1d9237","C3","batch3","tol_toboard","910","","","","","","","","","tol_peg_1","910","910","0","[[1,2,0],[0,0],[3]]","14","[[1,2,0],[3,0],[0]]","6","0","","","","","","5","","","","",""
"","","","","","single-stim-button","260","3361405","0.0-3.0-28.14-0.14","6287d7ec96fff020be1d9237","C3","batch3","tol_tohand","911","","","","","","","","","tol_peg_3","911","911","0","[[1,2,0],[0,0],[0]]","15","[[1,2,0],[3,0],[0]]","6","0","","","","","","5","","","","",""
"","","","","","single-stim-button","261","3362147","0.0-3.0-28.14-1.14","6287d7ec96fff020be1d9237","C3","batch3","tol_toboard","741","","","","","","","","","tol_peg_2","741","741","0","[[1,2,0],[3,0],[0]]","15","[[1,2,0],[3,0],[0]]","6","0","","","","","","5","","","","",""
"","","","","","poldrack-single-stim","262","3363150","0.0-3.0-29.0","6287d7ec96fff020be1d9237","C3","batch3","tol_feedback","-1","","","","","true","","","","","1000","1000","500","","","","","","-1","none","true","11746","33122","","","","","",""
"","","","","","html-button-response","263","3364533","0.0-3.0-30.0","6287d7ec96fff020be1d9237","C3","batch3","tol_trial_num","1381.5","<div class = centerbox><p class = center-block-text>problem <strong>8</strong> out of 25 problems</p></div>","0","","","","","","","","","","","","","","","","","","","","","","","","","",""
"","","","","","single-stim-button","264","3378348","0.0-3.0-31.0-0.0","6287d7ec96fff020be1d9237","C3","batch3","tol_tohand","13815","","","","","","","","","tol_peg_3","13815","13815","0","[[0,0,0],[2,3],[0]]","1","[[1,2,0],[3,0],[0]]","7","0","","","","","","4","","","","",""
"","","","","","single-stim-button","265","3379574","0.0-3.0-31.0-1.0","6287d7ec96fff020be1d9237","C3","batch3","tol_toboard","1224","","","","","","","","","tol_peg_1","1224","1224","0","[[1,0,0],[2,3],[0]]","1","[[1,2,0],[3,0],[0]]","7","0","","","","","","4","","","","",""
"","","","","","single-stim-button","266","3381351","0.0-3.0-31.1-0.1","6287d7ec96fff020be1d9237","C3","batch3","tol_tohand","1777","","","","","","","","","tol_peg_2","1777","1777","0","[[1,0,0],[2,0],[0]]","2","[[1,2,0],[3,0],[0]]","7","0","","","","","","4","","","","",""
"","","","","","single-stim-button","267","3382465","0.0-3.0-31.1-1.1","6287d7ec96fff020be1d9237","C3","batch3","tol_toboard","1112","","","","","","","","","tol_peg_1","1112","1112","0","[[1,3,0],[2,0],[0]]","2","[[1,2,0],[3,0],[0]]","7","0","","","","","","4","","","","",""
"","","","","","single-stim-button","268","3383546","0.0-3.0-31.2-0.2","6287d7ec96fff020be1d9237","C3","batch3","tol_tohand","1081","","","","","","","","","tol_peg_2","1081","1081","0","[[1,3,0],[0,0],[0]]","3","[[1,2,0],[3,0],[0]]","7","0","","","","","","4","","","","",""
"","","","","","single-stim-button","269","3384445","0.0-3.0-31.2-1.2","6287d7ec96fff020be1d9237","C3","batch3","tol_toboard","899","","","","","","","","","tol_peg_3","899","899","0","[[1,3,0],[0,0],[2]]","3","[[1,2,0],[3,0],[0]]","7","0","","","","","","4","","","","",""
"","","","","","single-stim-button","270","3385266","0.0-3.0-31.3-0.3","6287d7ec96fff020be1d9237","C3","batch3","tol_tohand","821","","","","","","","","","tol_peg_1","821","821","0","[[1,0,0],[0,0],[2]]","4","[[1,2,0],[3,0],[0]]","7","0","","","","","","4","","","","",""
"","","","","","single-stim-button","271","3386065","0.0-3.0-31.3-1.3","6287d7ec96fff020be1d9237","C3","batch3","tol_toboard","798","","","","","","","","","tol_peg_2","798","798","0","[[1,0,0],[3,0],[2]]","4","[[1,2,0],[3,0],[0]]","7","0","","","","","","4","","","","",""
"","","","","","single-stim-button","272","3386718","0.0-3.0-31.4-0.4","6287d7ec96fff020be1d9237","C3","batch3","tol_tohand","653","","","","","","","","","tol_peg_3","653","653","0","[[1,0,0],[3,0],[0]]","5","[[1,2,0],[3,0],[0]]","7","0","","","","","","4","","","","",""
"","","","","","single-stim-button","273","3387528","0.0-3.0-31.4-1.4","6287d7ec96fff020be1d9237","C3","batch3","tol_toboard","809","","","","","","","","","tol_peg_1","809","809","0","[[1,2,0],[3,0],[0]]","5","[[1,2,0],[3,0],[0]]","7","0","","","","","","4","","","","",""
"","","","","","poldrack-single-stim","274","3388536","0.0-3.0-32.0","6287d7ec96fff020be1d9237","C3","batch3","tol_feedback","-1","","","","","true","","","","","1000","1000","500","","","","","","-1","none","true","13815","18147","","","","","",""
"","","","","","html-button-response","275","3389452","0.0-3.0-33.0","6287d7ec96fff020be1d9237","C3","batch3","tol_trial_num","914.3000000119209","<div class = centerbox><p class = center-block-text>problem <strong>9</strong> out of 25 problems</p></div>","0","","","","","","","","","","","","","","","","","","","","","","","","","",""
"","","","","","single-stim-button","276","3395154","0.0-3.0-34.0-0.0","6287d7ec96fff020be1d9237","C3","batch3","tol_tohand","5702","","","","","","","","","tol_peg_1","5702","5702","0","[[3,0,0],[0,0],[1]]","1","[[2,1,0],[3,0],[0]]","8","0","","","","","","6","","","","",""
"","","","","","single-stim-button","277","3396720","0.0-3.0-34.0-1.0","6287d7ec96fff020be1d9237","C3","batch3","tol_toboard","1565","","","","","","","","","tol_peg_2","1565","1565","0","[[3,0,0],[2,0],[1]]","1","[[2,1,0],[3,0],[0]]","8","0","","","","","","6","","","","",""
"","","","","","single-stim-button","278","3398598","0.0-3.0-34.1-0.1","6287d7ec96fff020be1d9237","C3","batch3","tol_tohand","1878","","","","","","","","","tol_peg_3","1878","1878","0","[[3,0,0],[2,0],[0]]","2","[[2,1,0],[3,0],[0]]","8","0","","","","","","6","","","","",""
"","","","","","single-stim-button","279","3399981","0.0-3.0-34.1-1.1","6287d7ec96fff020be1d9237","C3","batch3","tol_toboard","1383","","","","","","","","","tol_peg_2","1383","1383","0","[[3,0,0],[2,1],[0]]","2","[[2,1,0],[3,0],[0]]","8","0","","","","","","6","","","","",""
"","","","","","single-stim-button","280","3400691","0.0-3.0-34.2-0.2","6287d7ec96fff020be1d9237","C3","batch3","tol_tohand","708","","","","","","","","","tol_peg_1","708","708","0","[[0,0,0],[2,1],[0]]","3","[[2,1,0],[3,0],[0]]","8","0","","","","","","6","","","","",""
"","","","","","single-stim-button","281","3401569","0.0-3.0-34.2-1.2","6287d7ec96fff020be1d9237","C3","batch3","tol_toboard","878","","","","","","","","","tol_peg_3","878","878","0","[[0,0,0],[2,1],[3]]","3","[[2,1,0],[3,0],[0]]","8","0","","","","","","6","","","","",""
"","","","","","single-stim-button","282","3407103","0.0-3.0-34.3-0.3","6287d7ec96fff020be1d9237","C3","batch3","tol_tohand","5533","","","","","","","","","tol_peg_3","5533","5533","0","[[0,0,0],[2,1],[0]]","4","[[2,1,0],[3,0],[0]]","8","0","","","","","","6","","","","",""
"","","","","","single-stim-button","283","3408195","0.0-3.0-34.3-1.3","6287d7ec96fff020be1d9237","C3","batch3","tol_toboard","1090","","","","","","","","","tol_peg_1","1090","1090","0","[[3,0,0],[2,1],[0]]","4","[[2,1,0],[3,0],[0]]","8","0","","","","","","6","","","","",""
"","","","","","single-stim-button","284","3409331","0.0-3.0-34.4-0.4","6287d7ec96fff020be1d9237","C3","batch3","tol_tohand","1135","","","","","","","","","tol_peg_2","1135","1135","0","[[3,0,0],[2,0],[0]]","5","[[2,1,0],[3,0],[0]]","8","0","","","","","","6","","","","",""
"","","","","","single-stim-button","285","3410366","0.0-3.0-34.4-1.4","6287d7ec96fff020be1d9237","C3","batch3","tol_toboard","1035","","","","","","","","","tol_peg_3","1035","1035","0","[[3,0,0],[2,0],[1]]","5","[[2,1,0],[3,0],[0]]","8","0","","","","","","6","","","","",""
"","","","","","single-stim-button","286","3414629","0.0-3.0-34.5-0.5","6287d7ec96fff020be1d9237","C3","batch3","tol_tohand","4261","","","","","","","","","tol_peg_2","4261","4261","0","[[3,0,0],[0,0],[1]]","6","[[2,1,0],[3,0],[0]]","8","0","","","","","","6","","","","",""
"","","","","","single-stim-button","287","3417768","0.0-3.0-34.5-1.5","6287d7ec96fff020be1d9237","C3","batch3","tol_toboard","3138","","","","","","","","","tol_peg_2","3138","3138","0","[[3,0,0],[2,0],[1]]","6","[[2,1,0],[3,0],[0]]","8","0","","","","","","6","","","","",""
"","","","","","single-stim-button","288","3420152","0.0-3.0-34.6-0.6","6287d7ec96fff020be1d9237","C3","batch3","tol_tohand","2384","","","","","","","","","tol_peg_2","2384","2384","0","[[3,0,0],[0,0],[1]]","7","[[2,1,0],[3,0],[0]]","8","0","","","","","","6","","","","",""
"","","","","","single-stim-button","289","3422031","0.0-3.0-34.6-1.6","6287d7ec96fff020be1d9237","C3","batch3","tol_toboard","1877","","","","","","","","","tol_peg_1","1877","1877","0","[[3,2,0],[0,0],[1]]","7","[[2,1,0],[3,0],[0]]","8","0","","","","","","6","","","","",""
"","","","","","single-stim-button","290","3422707","0.0-3.0-34.7-0.7","6287d7ec96fff020be1d9237","C3","batch3","tol_tohand","675","","","","","","","","","tol_peg_3","675","675","0","[[3,2,0],[0,0],[0]]","8","[[2,1,0],[3,0],[0]]","8","0","","","","","","6","","","","",""
"","","","","","single-stim-button","291","3423774","0.0-3.0-34.7-1.7","6287d7ec96fff020be1d9237","C3","batch3","tol_toboard","1067","","","","","","","","","tol_peg_2","1067","1067","0","[[3,2,0],[1,0],[0]]","8","[[2,1,0],[3,0],[0]]","8","0","","","","","","6","","","","",""
"","","","","","single-stim-button","292","3424461","0.0-3.0-34.8-0.8","6287d7ec96fff020be1d9237","C3","batch3","tol_tohand","686","","","","","","","","","tol_peg_1","686","686","0","[[3,0,0],[1,0],[0]]","9","[[2,1,0],[3,0],[0]]","8","0","","","","","","6","","","","",""
"","","","","","single-stim-button","293","3425137","0.0-3.0-34.8-1.8","6287d7ec96fff020be1d9237","C3","batch3","tol_toboard","675","","","","","","","","","tol_peg_3","675","675","0","[[3,0,0],[1,0],[2]]","9","[[2,1,0],[3,0],[0]]","8","0","","","","","","6","","","","",""
"","","","","","single-stim-button","294","3425935","0.0-3.0-34.9-0.9","6287d7ec96fff020be1d9237","C3","batch3","tol_tohand","797","","","","","","","","","tol_peg_1","797","797","0","[[0,0,0],[1,0],[2]]","10","[[2,1,0],[3,0],[0]]","8","0","","","","","","6","","","","",""
"","","","","","single-stim-button","295","3427026","0.0-3.0-34.9-1.9","6287d7ec96fff020be1d9237","C3","batch3","tol_toboard","1090","","","","","","","","","tol_peg_2","1090","1090","0","[[0,0,0],[1,3],[2]]","10","[[2,1,0],[3,0],[0]]","8","0","","","","","","6","","","","",""
"","","","","","single-stim-button","296","3427692","0.0-3.0-34.10-0.10","6287d7ec96fff020be1d9237","C3","batch3","tol_tohand","666","","","","","","","","","tol_peg_3","666","666","0","[[0,0,0],[1,3],[0]]","11","[[2,1,0],[3,0],[0]]","8","0","","","","","","6","","","","",""
"","","","","","single-stim-button","297","3428714","0.0-3.0-34.10-1.10","6287d7ec96fff020be1d9237","C3","batch3","tol_toboard","1020","","","","","","","","","tol_peg_1","1020","1020","0","[[2,0,0],[1,3],[0]]","11","[[2,1,0],[3,0],[0]]","8","0","","","","","","6","","","","",""
"","","","","","single-stim-button","298","3429310","0.0-3.0-34.11-0.11","6287d7ec96fff020be1d9237","C3","batch3","tol_tohand","596","","","","","","","","","tol_peg_2","596","596","0","[[2,0,0],[1,0],[0]]","12","[[2,1,0],[3,0],[0]]","8","0","","","","","","6","","","","",""
"","","","","","single-stim-button","299","3429941","0.0-3.0-34.11-1.11","6287d7ec96fff020be1d9237","C3","batch3","tol_toboard","631","","","","","","","","","tol_peg_3","631","631","0","[[2,0,0],[1,0],[3]]","12","[[2,1,0],[3,0],[0]]","8","0","","","","","","6","","","","",""
"","","","","","single-stim-button","300","3430537","0.0-3.0-34.12-0.12","6287d7ec96fff020be1d9237","C3","batch3","tol_tohand","595","","","","","","","","","tol_peg_2","595","595","0","[[2,0,0],[0,0],[3]]","13","[[2,1,0],[3,0],[0]]","8","0","","","","","","6","","","","",""
"","","","","","single-stim-button","301","3431357","0.0-3.0-34.12-1.12","6287d7ec96fff020be1d9237","C3","batch3","tol_toboard","819","","","","","","","","","tol_peg_1","819","819","0","[[2,1,0],[0,0],[3]]","13","[[2,1,0],[3,0],[0]]","8","0","","","","","","6","","","","",""
"","","","","","single-stim-button","302","3431945","0.0-3.0-34.13-0.13","6287d7ec96fff020be1d9237","C3","batch3","tol_tohand","587","","","","","","","","","tol_peg_3","587","587","0","[[2,1,0],[0,0],[0]]","14","[[2,1,0],[3,0],[0]]","8","0","","","","","","6","","","","",""
"","","","","","single-stim-button","303","3432572","0.0-3.0-34.13-1.13","6287d7ec96fff020be1d9237","C3","batch3","tol_toboard","627","","","","","","","","","tol_peg_2","627","627","0","[[2,1,0],[3,0],[0]]","14","[[2,1,0],[3,0],[0]]","8","0","","","","","","6","","","","",""
"","","","","","poldrack-single-stim","304","3433574","0.0-3.0-35.0","6287d7ec96fff020be1d9237","C3","batch3","tol_feedback","-1","","","","","true","","","","","1000","1000","500","","","","","","-1","none","true","5702","26203","","","","","",""
"","","","","","html-button-response","305","3435082","0.0-3.0-36.0","6287d7ec96fff020be1d9237","C3","batch3","tol_trial_num","1507.4000000357628","<div class = centerbox><p class = center-block-text>problem <strong>10</strong> out of 25 problems</p></div>","0","","","","","","","","","","","","","","","","","","","","","","","","","",""
"","","","","","single-stim-button","306","3440582","0.0-3.0-37.0-0.0","6287d7ec96fff020be1d9237","C3","batch3","tol_tohand","5499","","","","","","","","","tol_peg_2","5499","5499","0","[[3,0,0],[0,0],[2]]","1","[[3,0,0],[2,1],[0]]","9","0","","","","","","3","","","","",""
"","","","","","single-stim-button","307","3441359","0.0-3.0-37.0-1.0","6287d7ec96fff020be1d9237","C3","batch3","tol_toboard","775","","","","","","","","","tol_peg_1","775","775","0","[[3,1,0],[0,0],[2]]","1","[[3,0,0],[2,1],[0]]","9","0","","","","","","3","","","","",""
"","","","","","single-stim-button","308","3442011","0.0-3.0-37.1-0.1","6287d7ec96fff020be1d9237","C3","batch3","tol_tohand","652","","","","","","","","","tol_peg_3","652","652","0","[[3,1,0],[0,0],[0]]","2","[[3,0,0],[2,1],[0]]","9","0","","","","","","3","","","","",""
"","","","","","single-stim-button","309","3442744","0.0-3.0-37.1-1.1","6287d7ec96fff020be1d9237","C3","batch3","tol_toboard","731","","","","","","","","","tol_peg_2","731","731","0","[[3,1,0],[2,0],[0]]","2","[[3,0,0],[2,1],[0]]","9","0","","","","","","3","","","","",""
"","","","","","single-stim-button","310","3443452","0.0-3.0-37.2-0.2","6287d7ec96fff020be1d9237","C3","batch3","tol_tohand","706","","","","","","","","","tol_peg_1","706","706","0","[[3,0,0],[2,0],[0]]","3","[[3,0,0],[2,1],[0]]","9","0","","","","","","3","","","","",""
"","","","","","single-stim-button","311","3444060","0.0-3.0-37.2-1.2","6287d7ec96fff020be1d9237","C3","batch3","tol_toboard","608","","","","","","","","","tol_peg_2","608","608","0","[[3,0,0],[2,1],[0]]","3","[[3,0,0],[2,1],[0]]","9","0","","","","","","3","","","","",""
"","","","","","poldrack-single-stim","312","3445071","0.0-3.0-38.0","6287d7ec96fff020be1d9237","C3","batch3","tol_feedback","-1","","","","","true","","","","","1000","1000","500","","","","","","-1","none","true","5499","6857","","","","","",""
"","","","","","html-button-response","313","3446253","0.0-3.0-39.0","6287d7ec96fff020be1d9237","C3","batch3","tol_trial_num","1180.6000000238419","<div class = centerbox><p class = center-block-text>problem <strong>11</strong> out of 25 problems</p></div>","0","","","","","","","","","","","","","","","","","","","","","","","","","",""
"","","","","","single-stim-button","314","3452399","0.0-3.0-40.0-0.0","6287d7ec96fff020be1d9237","C3","batch3","tol_tohand","6144","","","","","","","","","tol_peg_2","6144","6144","0","[[1,2,0],[0,0],[0]]","1","[[2,0,0],[1,3],[0]]","10","0","","","","","","6","","","","",""
"","","","","","single-stim-button","315","3454116","0.0-3.0-40.0-1.0","6287d7ec96fff020be1d9237","C3","batch3","tol_toboard","1716","","","","","","","","","tol_peg_3","1716","1716","0","[[1,2,0],[0,0],[3]]","1","[[2,0,0],[1,3],[0]]","10","0","","","","","","6","","","","",""
"","","","","","single-stim-button","316","3455454","0.0-3.0-40.1-0.1","6287d7ec96fff020be1d9237","C3","batch3","tol_tohand","1338","","","","","","","","","tol_peg_1","1338","1338","0","[[1,0,0],[0,0],[3]]","2","[[2,0,0],[1,3],[0]]","10","0","","","","","","6","","","","",""
"","","","","","single-stim-button","317","3458897","0.0-3.0-40.1-1.1","6287d7ec96fff020be1d9237","C3","batch3","tol_toboard","3442","","","","","","","","","tol_peg_1","3442","3442","0","[[1,2,0],[0,0],[3]]","2","[[2,0,0],[1,3],[0]]","10","0","","","","","","6","","","","",""
"","","","","","single-stim-button","318","3459774","0.0-3.0-40.2-0.2","6287d7ec96fff020be1d9237","C3","batch3","tol_tohand","876","","","","","","","","","tol_peg_3","876","876","0","[[1,2,0],[0,0],[0]]","3","[[2,0,0],[1,3],[0]]","10","0","","","","","","6","","","","",""
"","","","","","single-stim-button","319","3460529","0.0-3.0-40.2-1.2","6287d7ec96fff020be1d9237","C3","batch3","tol_toboard","754","","","","","","","","","tol_peg_2","754","754","0","[[1,2,0],[3,0],[0]]","3","[[2,0,0],[1,3],[0]]","10","0","","","","","","6","","","","",""
"","","","","","single-stim-button","320","3461103","0.0-3.0-40.3-0.3","6287d7ec96fff020be1d9237","C3","batch3","tol_tohand","573","","","","","","","","","tol_peg_1","573","573","0","[[1,0,0],[3,0],[0]]","4","[[2,0,0],[1,3],[0]]","10","0","","","","","","6","","","","",""
"","","","","","single-stim-button","321","3462126","0.0-3.0-40.3-1.3","6287d7ec96fff020be1d9237","C3","batch3","tol_toboard","1022","","","","","","","","","tol_peg_3","1022","1022","0","[[1,0,0],[3,0],[2]]","4","[[2,0,0],[1,3],[0]]","10","0","","","","","","6","","","","",""
"","","","","","single-stim-button","322","3462858","0.0-3.0-40.4-0.4","6287d7ec96fff020be1d9237","C3","batch3","tol_tohand","731","","","","","","","","","tol_peg_1","731","731","0","[[0,0,0],[3,0],[2]]","5","[[2,0,0],[1,3],[0]]","10","0","","","","","","6","","","","",""
"","","","","","single-stim-button","323","3463948","0.0-3.0-40.4-1.4","6287d7ec96fff020be1d9237","C3","batch3","tol_toboard","1088","","","","","","","","","tol_peg_2","1088","1088","0","[[0,0,0],[3,1],[2]]","5","[[2,0,0],[1,3],[0]]","10","0","","","","","","6","","","","",""
"","","","","","single-stim-button","324","3464893","0.0-3.0-40.5-0.5","6287d7ec96fff020be1d9237","C3","batch3","tol_tohand","944","","","","","","","","","tol_peg_3","944","944","0","[[0,0,0],[3,1],[0]]","6","[[2,0,0],[1,3],[0]]","10","0","","","","","","6","","","","",""
"","","","","","single-stim-button","325","3465895","0.0-3.0-40.5-1.5","6287d7ec96fff020be1d9237","C3","batch3","tol_toboard","1002","","","","","","","","","tol_peg_1","1002","1002","0","[[2,0,0],[3,1],[0]]","6","[[2,0,0],[1,3],[0]]","10","0","","","","","","6","","","","",""
"","","","","","single-stim-button","326","3466704","0.0-3.0-40.6-0.6","6287d7ec96fff020be1d9237","C3","batch3","tol_tohand","808","","","","","","","","","tol_peg_2","808","808","0","[[2,0,0],[3,0],[0]]","7","[[2,0,0],[1,3],[0]]","10","0","","","","","","6","","","","",""
"","","","","","single-stim-button","327","3468618","0.0-3.0-40.6-1.6","6287d7ec96fff020be1d9237","C3","batch3","tol_toboard","1913","","","","","","","","","tol_peg_3","1913","1913","0","[[2,0,0],[3,0],[1]]","7","[[2,0,0],[1,3],[0]]","10","0","","","","","","6","","","","",""
"","","","","","single-stim-button","328","3472533","0.0-3.0-40.7-0.7","6287d7ec96fff020be1d9237","C3","batch3","tol_tohand","3913","","","","","","","","","tol_peg_2","3913","3913","0","[[2,0,0],[0,0],[1]]","8","[[2,0,0],[1,3],[0]]","10","0","","","","","","6","","","","",""
"","","","","","single-stim-button","329","3475356","0.0-3.0-40.7-1.7","6287d7ec96fff020be1d9237","C3","batch3","tol_toboard","2823","","","","","","","","","tol_peg_2","2823","2823","0","[[2,0,0],[3,0],[1]]","8","[[2,0,0],[1,3],[0]]","10","0","","","","","","6","","","","",""
"","","","","","single-stim-button","330","3476313","0.0-3.0-40.8-0.8","6287d7ec96fff020be1d9237","C3","batch3","tol_tohand","955","","","","","","","","","tol_peg_3","955","955","0","[[2,0,0],[3,0],[0]]","9","[[2,0,0],[1,3],[0]]","10","0","","","","","","6","","","","",""
"","","","","","single-stim-button","331","3478079","0.0-3.0-40.8-1.8","6287d7ec96fff020be1d9237","C3","batch3","tol_toboard","1766","","","","","","","","","tol_peg_1","1766","1766","0","[[2,1,0],[3,0],[0]]","9","[[2,0,0],[1,3],[0]]","10","0","","","","","","6","","","","",""
"","","","","","single-stim-button","332","3479328","0.0-3.0-40.9-0.9","6287d7ec96fff020be1d9237","C3","batch3","tol_tohand","1247","","","","","","","","","tol_peg_2","1247","1247","0","[[2,1,0],[0,0],[0]]","10","[[2,0,0],[1,3],[0]]","10","0","","","","","","6","","","","",""
"","","","","","single-stim-button","333","3479935","0.0-3.0-40.9-1.9","6287d7ec96fff020be1d9237","C3","batch3","tol_toboard","607","","","","","","","","","tol_peg_3","607","607","0","[[2,1,0],[0,0],[3]]","10","[[2,0,0],[1,3],[0]]","10","0","","","","","","6","","","","",""
"","","","","","single-stim-button","334","3480779","0.0-3.0-40.10-0.10","6287d7ec96fff020be1d9237","C3","batch3","tol_tohand","843","","","","","","","","","tol_peg_1","843","843","0","[[2,0,0],[0,0],[3]]","11","[[2,0,0],[1,3],[0]]","10","0","","","","","","6","","","","",""
"","","","","","single-stim-button","335","3481443","0.0-3.0-40.10-1.10","6287d7ec96fff020be1d9237","C3","batch3","tol_toboard","664","","","","","","","","","tol_peg_2","664","664","0","[[2,0,0],[1,0],[3]]","11","[[2,0,0],[1,3],[0]]","10","0","","","","","","6","","","","",""
"","","","","","single-stim-button","336","3482185","0.0-3.0-40.11-0.11","6287d7ec96fff020be1d9237","C3","batch3","tol_tohand","741","","","","","","","","","tol_peg_3","741","741","0","[[2,0,0],[1,0],[0]]","12","[[2,0,0],[1,3],[0]]","10","0","","","","","","6","","","","",""
"","","","","","single-stim-button","337","3482851","0.0-3.0-40.11-1.11","6287d7ec96fff020be1d9237","C3","batch3","tol_toboard","664","","","","","","","","","tol_peg_2","664","664","0","[[2,0,0],[1,3],[0]]","12","[[2,0,0],[1,3],[0]]","10","0","","","","","","6","","","","",""
"","","","","","poldrack-single-stim","338","3483866","0.0-3.0-41.0","6287d7ec96fff020be1d9237","C3","batch3","tol_feedback","-1","","","","","true","","","","","1000","1000","500","","","","","","-1","none","true","6144","19113","","","","","",""
"","","","","","html-button-response","339","3484864","0.0-3.0-42.0","6287d7ec96fff020be1d9237","C3","batch3","tol_trial_num","997","<div class = centerbox><p class = center-block-text>problem <strong>12</strong> out of 25 problems</p></div>","0","","","","","","","","","","","","","","","","","","","","","","","","","",""
"","","","","","single-stim-button","340","3490139","0.0-3.0-43.0-0.0","6287d7ec96fff020be1d9237","C3","batch3","tol_tohand","5275","","","","","","","","","tol_peg_2","5275","5275","0","[[1,2,0],[0,0],[0]]","1","[[2,3,0],[0,0],[1]]","11","0","","","","","","4","","","","",""
"","","","","","single-stim-button","341","3491838","0.0-3.0-43.0-1.0","6287d7ec96fff020be1d9237","C3","batch3","tol_toboard","1697","","","","","","","","","tol_peg_2","1697","1697","0","[[1,2,0],[3,0],[0]]","1","[[2,3,0],[0,0],[1]]","11","0","","","","","","4","","","","",""
"","","","","","single-stim-button","342","3497080","0.0-3.0-43.1-0.1","6287d7ec96fff020be1d9237","C3","batch3","tol_tohand","5242","","","","","","","","","tol_peg_1","5242","5242","0","[[1,0,0],[3,0],[0]]","2","[[2,3,0],[0,0],[1]]","11","0","","","","","","4","","","","",""
"","","","","","single-stim-button","343","3498430","0.0-3.0-43.1-1.1","6287d7ec96fff020be1d9237","C3","batch3","tol_toboard","1348","","","","","","","","","tol_peg_3","1348","1348","0","[[1,0,0],[3,0],[2]]","2","[[2,3,0],[0,0],[1]]","11","0","","","","","","4","","","","",""
"","","","","","single-stim-button","344","3502278","0.0-3.0-43.2-0.2","6287d7ec96fff020be1d9237","C3","batch3","tol_tohand","3847","","","","","","","","","tol_peg_1","3847","3847","0","[[0,0,0],[3,0],[2]]","3","[[2,3,0],[0,0],[1]]","11","0","","","","","","4","","","","",""
"","","","","","single-stim-button","345","3503987","0.0-3.0-43.2-1.2","6287d7ec96fff020be1d9237","C3","batch3","tol_toboard","1709","","","","","","","","","tol_peg_2","1709","1709","0","[[0,0,0],[3,1],[2]]","3","[[2,3,0],[0,0],[1]]","11","0","","","","","","4","","","","",""
"","","","","","single-stim-button","346","3504913","0.0-3.0-43.3-0.3","6287d7ec96fff020be1d9237","C3","batch3","tol_tohand","924","","","","","","","","","tol_peg_3","924","924","0","[[0,0,0],[3,1],[0]]","4","[[2,3,0],[0,0],[1]]","11","0","","","","","","4","","","","",""
"","","","","","single-stim-button","347","3505991","0.0-3.0-43.3-1.3","6287d7ec96fff020be1d9237","C3","batch3","tol_toboard","1078","","","","","","","","","tol_peg_1","1078","1078","0","[[2,0,0],[3,1],[0]]","4","[[2,3,0],[0,0],[1]]","11","0","","","","","","4","","","","",""
"","","","","","single-stim-button","348","3507443","0.0-3.0-43.4-0.4","6287d7ec96fff020be1d9237","C3","batch3","tol_tohand","1451","","","","","","","","","tol_peg_2","1451","1451","0","[[2,0,0],[3,0],[0]]","5","[[2,3,0],[0,0],[1]]","11","0","","","","","","4","","","","",""
"","","","","","single-stim-button","349","3508431","0.0-3.0-43.4-1.4","6287d7ec96fff020be1d9237","C3","batch3","tol_toboard","988","","","","","","","","","tol_peg_3","988","988","0","[[2,0,0],[3,0],[1]]","5","[[2,3,0],[0,0],[1]]","11","0","","","","","","4","","","","",""
"","","","","","single-stim-button","350","3509230","0.0-3.0-43.5-0.5","6287d7ec96fff020be1d9237","C3","batch3","tol_tohand","798","","","","","","","","","tol_peg_2","798","798","0","[[2,0,0],[0,0],[1]]","6","[[2,3,0],[0,0],[1]]","11","0","","","","","","4","","","","",""
"","","","","","single-stim-button","351","3509850","0.0-3.0-43.5-1.5","6287d7ec96fff020be1d9237","C3","batch3","tol_toboard","619","","","","","","","","","tol_peg_1","619","619","0","[[2,3,0],[0,0],[1]]","6","[[2,3,0],[0,0],[1]]","11","0","","","","","","4","","","","",""
"","","","","","poldrack-single-stim","352","3510853","0.0-3.0-44.0","6287d7ec96fff020be1d9237","C3","batch3","tol_feedback","-1","","","","","true","","","","","1000","1000","500","","","","","","-1","none","true","5275","17537","","","","","",""
"","","","","","html-button-response","353","3511930","0.0-3.0-45.0","6287d7ec96fff020be1d9237","C3","batch3","tol_trial_num","1075.199999988079","<div class = centerbox><p class = center-block-text>problem <strong>13</strong> out of 25 problems</p></div>","0","","","","","","","","","","","","","","","","","","","","","","","","","",""
