"success","timeout","failed_images","failed_audio","failed_video","trial_type","trial_index","time_elapsed","internal_node_id","subject_id","study_id","session_id","view_history","rt","task","stimulus","response","correct","mouse_click","stim_duration","block_duration","timing_post_trial","current_position","tol_num_moves_made","tol_target","tol_problem_id","tol_rt","key_press","possible_responses","tol_correct","preplanning","tol_rt_per_trial","tol_min_moves","item","answer","spm_correct","spm_rt","fiar_detect_rt","fiar_detect_correct","total_correct_fiar_detect","post_trial_gap","choices"
"true","false","[]","[]","[]","preload","0","4396","0.0-0.0","628f827eeb876ed2617881e7","E1","batch5","","","","","","","","","","","","","","","","","","","","","","","","","","","","","",""
"true","","","","","fullscreen","1","28568","0.0-1.0-0.0","628f827eeb876ed2617881e7","E1","batch5","","","","","","","","","","","","","","","","","","","","","","","","","","","","","",""
"true","","","","","fullscreen","2","56841","0.0-2.0-0.0","628f827eeb876ed2617881e7","E1","batch5","","","","","","","","","","","","","","","","","","","","","","","","","","","","","",""
"","","","","","instructions","3","386906","0.0-2.0-1.0-0.0-0.0","628f827eeb876ed2617881e7","E1","batch5","[{""page_index"":0,""viewing_time"":118157.79999995232},{""page_index"":1,""viewing_time"":72344},{""page_index"":2,""viewing_time"":11031.5},{""page_index"":3,""viewing_time"":18039},{""page_index"":4,""viewing_time"":78993.80000007153},{""page_index"":5,""viewing_time"":25782},{""page_index"":6,""viewing_time"":5714.799999952316}]","330063.5","tol-instructions","","","","","","","","","","","","","","","","","","","","","","","","","","",""
"","","","","","html-button-response","4","388673","0.0-2.0-1.0-1.0-0.0","628f827eeb876ed2617881e7","E1","batch5","","1764.8999999761581","tol_enter_quiz","<p class=block-text> Let's answer a few questions <br>","0","","","","","","","","","","","","","","","","","","","","","","","","",""
"","","","","","html-button-response","5","394830","0.0-2.0-1.0-1.0-1.0","628f827eeb876ed2617881e7","E1","batch5","","6153.800000071526","tol_quiz","<p class = block-text>True or False: You can only move the ball on top of a peg. <br></p>","1","false","","","","","","","","","","","","","","","","","","","","","","","",""
"","","","","","html-button-response","6","398972","0.0-2.0-1.0-1.0-2.0","628f827eeb876ed2617881e7","E1","batch5","","4136.700000047684","tol_quiz_feedback","<p class = block-text>Incorrect. Remember, you can only move the ball on top of a peg.</p>","0","","","","","","","","","","","","","","","","","","","","","","","","",""
"","","","","","html-button-response","7","403705","0.0-2.0-1.0-1.0-3.0","628f827eeb876ed2617881e7","E1","batch5","","4730.199999928474","tol_quiz","<p class = block-text>True or False: You should try to match your board with the target board with fewest moves possible. <br></p>","0","true","","","","","","","","","","","","","","","","","","","","","","","",""
"","","","","","html-button-response","8","405059","0.0-2.0-1.0-1.0-4.0","628f827eeb876ed2617881e7","E1","batch5","","1351.2999999523163","tol_quiz_feedback","<p class = block-text>Correct! </p>","0","","","","","","","","","","","","","","","","","","","","","","","","",""
"","","","","","html-button-response","9","408498","0.0-2.0-1.0-2.0-0.0","628f827eeb876ed2617881e7","E1","batch5","","3436.3000000715256","","<p class = block-text>You made too many incorrect choices.</p><p class = block-text>You will now repeat the instructions and quiz</p>","0","","","","","","","","","","","","","","","","","","","","","","","","",""
"","","","","","instructions","10","420506","0.0-2.0-1.1-0.1-0.1","628f827eeb876ed2617881e7","E1","batch5","[{""page_index"":0,""viewing_time"":1381.6000000238419},{""page_index"":1,""viewing_time"":864.1999999284744},{""page_index"":2,""viewing_time"":845.9000000953674},{""page_index"":3,""viewing_time"":1796.1999999284744},{""page_index"":4,""viewing_time"":1565.8000000715256},{""page_index"":5,""viewing_time"":1037.7999999523163},{""page_index"":6,""viewing_time"":4515.200000047684}]","12007.100000023842","tol-instructions","","","","","","","","","","","","","","","","","","","","","","","","","","",""
"","","","","","html-button-response","11","421678","0.0-2.0-1.1-1.1-0.1","628f827eeb876ed2617881e7","E1","batch5","","1170.5","tol_enter_quiz","<p class=block-text> Let's answer a few questions <br>","0","","","","","","","","","","","","","","","","","","","","","","","","",""
"","","","","","html-button-response","12","425095","0.0-2.0-1.1-1.1-1.1","628f827eeb876ed2617881e7","E1","batch5","","3415","tol_quiz","<p class = block-text>True or False: You can only move the ball on top of a peg. <br></p>","0","true","","","","","","","","","","","","","","","","","","","","","","","",""
"","","","","","html-button-response","13","426443","0.0-2.0-1.1-1.1-2.1","628f827eeb876ed2617881e7","E1","batch5","","1346","tol_quiz_feedback","<p class = block-text>Correct! You can only move the ball on top of a peg.</p>","0","","","","","","","","","","","","","","","","","","","","","","","","",""
"","","","","","html-button-response","14","429209","0.0-2.0-1.1-1.1-3.1","628f827eeb876ed2617881e7","E1","batch5","","2764.7999999523163","tol_quiz","<p class = block-text>True or False: You should try to match your board with the target board with fewest moves possible. <br></p>","0","true","","","","","","","","","","","","","","","","","","","","","","","",""
"","","","","","html-button-response","15","429940","0.0-2.0-1.1-1.1-4.1","628f827eeb876ed2617881e7","E1","batch5","","729","tol_quiz_feedback","<p class = block-text>Correct! </p>","0","","","","","","","","","","","","","","","","","","","","","","","","",""
"","","","","","html-button-response","16","433013","0.0-2.0-2.0","628f827eeb876ed2617881e7","E1","batch5","","3071.2999999523163","","<p class=block-text> Now that you've understood the game, let's practice a few easier examples before we start!<br> <br>","0","","","","","","","","","","","","","","","","","","","","","","","","",""
"","","","","","single-stim-button","17","439931","0.0-2.0-3.0-0.0","628f827eeb876ed2617881e7","E1","batch5","","6915","tol_practice","","","","tol_peg_2","6915","6915","0","[[1,2,0],[0,0],[0]]","1","[[1,2,0],[0,0],[3]]","practice","6915","","","","","","","","","","","","","","",""
"","","","","","single-stim-button","18","441802","0.0-2.0-3.0-1.0","628f827eeb876ed2617881e7","E1","batch5","","1868","tol_practice","","","","tol_peg_3","1868","1868","0","[[1,2,0],[0,0],[3]]","1","[[1,2,0],[0,0],[3]]","practice","1868","","","","","","","","","","","","","","",""
"","","","","","poldrack-single-stim","19","442805","0.0-2.0-4.0","628f827eeb876ed2617881e7","E1","batch5","","-1","tol_feedback","","","true","","1000","1000","500","","","","","","-1","none","true","","0","","","","","","","","","",""
"","","","","","single-stim-button","20","453473","0.0-2.0-5.0-0.0","628f827eeb876ed2617881e7","E1","batch5","","10666","tol_practice","","","","tol_peg_1","10666","10666","0","[[1,0,0],[3,0],[0]]","2","[[0,0,0],[3,1],[2]]","practice","10666","","","","","","","","","","","","","","",""
"","","","","","single-stim-button","21","455750","0.0-2.0-5.0-1.0","628f827eeb876ed2617881e7","E1","batch5","","2275","tol_practice","","","","tol_peg_3","2275","2275","0","[[1,0,0],[3,0],[2]]","2","[[0,0,0],[3,1],[2]]","practice","2275","","","","","","","","","","","","","","",""
"","","","","","single-stim-button","22","458219","0.0-2.0-5.1-0.1","628f827eeb876ed2617881e7","E1","batch5","","2467","tol_practice","","","","tol_peg_1","2467","2467","0","[[0,0,0],[3,0],[2]]","3","[[0,0,0],[3,1],[2]]","practice","2467","","","","","","","","","","","","","","",""
"","","","","","single-stim-button","23","459314","0.0-2.0-5.1-1.1","628f827eeb876ed2617881e7","E1","batch5","","1093","tol_practice","","","","tol_peg_2","1093","1093","0","[[0,0,0],[3,1],[2]]","3","[[0,0,0],[3,1],[2]]","practice","1093","","","","","","","","","","","","","","",""
"","","","","","poldrack-single-stim","24","460321","0.0-2.0-6.0","628f827eeb876ed2617881e7","E1","batch5","","-1","tol_feedback","","","true","","1000","1000","500","","","","","","-1","none","true","","0","","","","","","","","","",""
"","","","","","single-stim-button","25","467800","0.0-2.0-7.0-0.0","628f827eeb876ed2617881e7","E1","batch5","","7478","tol_practice","","","","tol_peg_2","7478","7478","0","[[1,2,0],[0,0],[0]]","4","[[1,0,0],[2,0],[3]]","practice","7478","","","","","","","","","","","","","","",""
"","","","","","single-stim-button","26","469405","0.0-2.0-7.0-1.0","628f827eeb876ed2617881e7","E1","batch5","","1603","tol_practice","","","","tol_peg_3","1603","1603","0","[[1,2,0],[0,0],[3]]","4","[[1,0,0],[2,0],[3]]","practice","1603","","","","","","","","","","","","","","",""
"","","","","","single-stim-button","27","470865","0.0-2.0-7.1-0.1","628f827eeb876ed2617881e7","E1","batch5","","1459","tol_practice","","","","tol_peg_1","1459","1459","0","[[1,0,0],[0,0],[3]]","5","[[1,0,0],[2,0],[3]]","practice","1459","","","","","","","","","","","","","","",""
"","","","","","single-stim-button","28","472019","0.0-2.0-7.1-1.1","628f827eeb876ed2617881e7","E1","batch5","","1152","tol_practice","","","","tol_peg_2","1152","1152","0","[[1,0,0],[2,0],[3]]","5","[[1,0,0],[2,0],[3]]","practice","1152","","","","","","","","","","","","","","",""
"","","","","","poldrack-single-stim","29","473025","0.0-2.0-8.0","628f827eeb876ed2617881e7","E1","batch5","","-1","tol_feedback","","","true","","1000","1000","500","","","","","","-1","none","true","","0","","","","","","","","","",""
"","","","","","html-button-response","30","478572","0.0-2.0-9.0","628f827eeb876ed2617881e7","E1","batch5","","5545.700000047684","tol_instruction","<div class = centerbox><p class = center-block-text>Great job! You are done with practice trials<br>You are about to start official trials.<br> <br> Problem <strong>1</strong> out of 25 problems</p></div>","0","","","","","","","","","","","","","","","","","","","","","","","","",""
"","","","","","single-stim-button","31","493797","0.0-2.0-10.0-0.0","628f827eeb876ed2617881e7","E1","batch5","","14220","tol_tohand","","","","tol_peg_1","14220","14220","0","[[1,0,0],[3,0],[0]]","1","[[1,3,0],[2,0],[0]]","0","0","","","","","","3","","","","","","","","",""
"","","","","","single-stim-button","32","496671","0.0-2.0-10.0-1.0","628f827eeb876ed2617881e7","E1","batch5","","2873","tol_toboard","","","","tol_peg_3","2873","2873","0","[[1,0,0],[3,0],[2]]","1","[[1,3,0],[2,0],[0]]","0","0","","","","","","3","","","","","","","","",""
"","","","","","single-stim-button","33","497854","0.0-2.0-10.1-0.1","628f827eeb876ed2617881e7","E1","batch5","","1181","tol_tohand","","","","tol_peg_2","1181","1181","0","[[1,0,0],[0,0],[2]]","2","[[1,3,0],[2,0],[0]]","0","0","","","","","","3","","","","","","","","",""
"","","","","","single-stim-button","34","499325","0.0-2.0-10.1-1.1","628f827eeb876ed2617881e7","E1","batch5","","1470","tol_toboard","","","","tol_peg_1","1470","1470","0","[[1,3,0],[0,0],[2]]","2","[[1,3,0],[2,0],[0]]","0","0","","","","","","3","","","","","","","","",""
"","","","","","single-stim-button","35","500470","0.0-2.0-10.2-0.2","628f827eeb876ed2617881e7","E1","batch5","","1143","tol_tohand","","","","tol_peg_3","1143","1143","0","[[1,3,0],[0,0],[0]]","3","[[1,3,0],[2,0],[0]]","0","0","","","","","","3","","","","","","","","",""
"","","","","","single-stim-button","36","501432","0.0-2.0-10.2-1.2","628f827eeb876ed2617881e7","E1","batch5","","961","tol_toboard","","","","tol_peg_2","961","961","0","[[1,3,0],[2,0],[0]]","3","[[1,3,0],[2,0],[0]]","0","0","","","","","","3","","","","","","","","",""
"","","","","","poldrack-single-stim","37","502441","0.0-2.0-11.0","628f827eeb876ed2617881e7","E1","batch5","","-1","tol_feedback","","","true","","1000","1000","500","","","","","","-1","none","true","14220","16544","","","","","","","","","",""
"","","","","","html-button-response","38","504047","0.0-2.0-12.0","628f827eeb876ed2617881e7","E1","batch5","","1604.3999999761581","tol_trial_num","<div class = centerbox><p class = center-block-text>problem <strong>2</strong> out of 25 problems</p></div>","0","","","","","","","","","","","","","","","","","","","","","","","","",""
"","","","","","single-stim-button","39","512155","0.0-2.0-13.0-0.0","628f827eeb876ed2617881e7","E1","batch5","","8106","tol_tohand","","","","tol_peg_1","8106","8106","0","[[1,0,0],[3,0],[0]]","1","[[2,1,3],[0,0],[0]]","1","0","","","","","","5","","","","","","","","",""
"","","","","","single-stim-button","40","514329","0.0-2.0-13.0-1.0","628f827eeb876ed2617881e7","E1","batch5","","2172","tol_toboard","","","","tol_peg_3","2172","2172","0","[[1,0,0],[3,0],[2]]","1","[[2,1,3],[0,0],[0]]","1","0","","","","","","5","","","","","","","","",""
"","","","","","single-stim-button","41","518427","0.0-2.0-13.1-0.1","628f827eeb876ed2617881e7","E1","batch5","","4095","tol_tohand","","","","tol_peg_1","4095","4095","0","[[0,0,0],[3,0],[2]]","2","[[2,1,3],[0,0],[0]]","1","0","","","","","","5","","","","","","","","",""
"","","","","","single-stim-button","42","522628","0.0-2.0-13.1-1.1","628f827eeb876ed2617881e7","E1","batch5","","4200","tol_toboard","","","","tol_peg_2","4200","4200","0","[[0,0,0],[3,1],[2]]","2","[[2,1,3],[0,0],[0]]","1","0","","","","","","5","","","","","","","","",""
"","","","","","single-stim-button","43","523628","0.0-2.0-13.2-0.2","628f827eeb876ed2617881e7","E1","batch5","","999","tol_tohand","","","","tol_peg_3","999","999","0","[[0,0,0],[3,1],[0]]","3","[[2,1,3],[0,0],[0]]","1","0","","","","","","5","","","","","","","","",""
"","","","","","single-stim-button","44","525485","0.0-2.0-13.2-1.2","628f827eeb876ed2617881e7","E1","batch5","","1855","tol_toboard","","","","tol_peg_1","1855","1855","0","[[2,0,0],[3,1],[0]]","3","[[2,1,3],[0,0],[0]]","1","0","","","","","","5","","","","","","","","",""
"","","","","","single-stim-button","45","526668","0.0-2.0-13.3-0.3","628f827eeb876ed2617881e7","E1","batch5","","1182","tol_tohand","","","","tol_peg_2","1182","1182","0","[[2,0,0],[3,0],[0]]","4","[[2,1,3],[0,0],[0]]","1","0","","","","","","5","","","","","","","","",""
"","","","","","single-stim-button","46","527735","0.0-2.0-13.3-1.3","628f827eeb876ed2617881e7","E1","batch5","","1066","tol_toboard","","","","tol_peg_1","1066","1066","0","[[2,1,0],[3,0],[0]]","4","[[2,1,3],[0,0],[0]]","1","0","","","","","","5","","","","","","","","",""
"","","","","","single-stim-button","47","528976","0.0-2.0-13.4-0.4","628f827eeb876ed2617881e7","E1","batch5","","1240","tol_tohand","","","","tol_peg_2","1240","1240","0","[[2,1,0],[0,0],[0]]","5","[[2,1,3],[0,0],[0]]","1","0","","","","","","5","","","","","","","","",""
"","","","","","single-stim-button","48","530197","0.0-2.0-13.4-1.4","628f827eeb876ed2617881e7","E1","batch5","","1219","tol_toboard","","","","tol_peg_1","1219","1219","0","[[2,1,3],[0,0],[0]]","5","[[2,1,3],[0,0],[0]]","1","0","","","","","","5","","","","","","","","",""
"","","","","","poldrack-single-stim","49","531201","0.0-2.0-14.0","628f827eeb876ed2617881e7","E1","batch5","","-1","tol_feedback","","","true","","1000","1000","500","","","","","","-1","none","true","8106","15622","","","","","","","","","",""
"","","","","","html-button-response","50","532745","0.0-2.0-15.0","628f827eeb876ed2617881e7","E1","batch5","","1543.1000000238419","tol_trial_num","<div class = centerbox><p class = center-block-text>problem <strong>3</strong> out of 25 problems</p></div>","0","","","","","","","","","","","","","","","","","","","","","","","","",""
"","","","","","single-stim-button","51","542207","0.0-2.0-16.0-0.0","628f827eeb876ed2617881e7","E1","batch5","","9460","tol_tohand","","","","tol_peg_1","9460","9460","0","[[2,0,0],[0,0],[1]]","1","[[1,2,0],[3,0],[0]]","2","0","","","","","","4","","","","","","","","",""
"","","","","","single-stim-button","52","545650","0.0-2.0-16.0-1.0","628f827eeb876ed2617881e7","E1","batch5","","3441","tol_toboard","","","","tol_peg_2","3441","3441","0","[[2,0,0],[3,0],[1]]","1","[[1,2,0],[3,0],[0]]","2","0","","","","","","4","","","","","","","","",""
"","","","","","single-stim-button","53","549439","0.0-2.0-16.1-0.1","628f827eeb876ed2617881e7","E1","batch5","","3787","tol_tohand","","","","tol_peg_1","3787","3787","0","[[0,0,0],[3,0],[1]]","2","[[1,2,0],[3,0],[0]]","2","0","","","","","","4","","","","","","","","",""
"","","","","","single-stim-button","54","550603","0.0-2.0-16.1-1.1","628f827eeb876ed2617881e7","E1","batch5","","1162","tol_toboard","","","","tol_peg_2","1162","1162","0","[[0,0,0],[3,2],[1]]","2","[[1,2,0],[3,0],[0]]","2","0","","","","","","4","","","","","","","","",""
"","","","","","single-stim-button","55","551661","0.0-2.0-16.2-0.2","628f827eeb876ed2617881e7","E1","batch5","","1057","tol_tohand","","","","tol_peg_3","1057","1057","0","[[0,0,0],[3,2],[0]]","3","[[1,2,0],[3,0],[0]]","2","0","","","","","","4","","","","","","","","",""
"","","","","","single-stim-button","56","552979","0.0-2.0-16.2-1.2","628f827eeb876ed2617881e7","E1","batch5","","1316","tol_toboard","","","","tol_peg_1","1316","1316","0","[[1,0,0],[3,2],[0]]","3","[[1,2,0],[3,0],[0]]","2","0","","","","","","4","","","","","","","","",""
"","","","","","single-stim-button","57","553864","0.0-2.0-16.3-0.3","628f827eeb876ed2617881e7","E1","batch5","","884","tol_tohand","","","","tol_peg_2","884","884","0","[[1,0,0],[3,0],[0]]","4","[[1,2,0],[3,0],[0]]","2","0","","","","","","4","","","","","","","","",""
"","","","","","single-stim-button","58","555056","0.0-2.0-16.3-1.3","628f827eeb876ed2617881e7","E1","batch5","","1191","tol_toboard","","","","tol_peg_1","1191","1191","0","[[1,2,0],[3,0],[0]]","4","[[1,2,0],[3,0],[0]]","2","0","","","","","","4","","","","","","","","",""
"","","","","","poldrack-single-stim","59","556063","0.0-2.0-17.0","628f827eeb876ed2617881e7","E1","batch5","","-1","tol_feedback","","","true","","1000","1000","500","","","","","","-1","none","true","9460","15188","","","","","","","","","",""
"","","","","","html-button-response","60","557124","0.0-2.0-18.0","628f827eeb876ed2617881e7","E1","batch5","","1059.2999999523163","tol_trial_num","<div class = centerbox><p class = center-block-text>problem <strong>4</strong> out of 25 problems</p></div>","0","","","","","","","","","","","","","","","","","","","","","","","","",""
"","","","","","single-stim-button","61","576097","0.0-2.0-19.0-0.0","628f827eeb876ed2617881e7","E1","batch5","","18970","tol_tohand","","","","tol_peg_2","18970","18970","0","[[3,0,0],[2,0],[0]]","1","[[3,0,0],[1,0],[2]]","3","0","","","","","","3","","","","","","","","",""
"","","","","","single-stim-button","62","577106","0.0-2.0-19.0-1.0","628f827eeb876ed2617881e7","E1","batch5","","1008","tol_toboard","","","","tol_peg_1","1008","1008","0","[[3,1,0],[2,0],[0]]","1","[[3,0,0],[1,0],[2]]","3","0","","","","","","3","","","","","","","","",""
"","","","","","single-stim-button","63","578019","0.0-2.0-19.1-0.1","628f827eeb876ed2617881e7","E1","batch5","","912","tol_tohand","","","","tol_peg_2","912","912","0","[[3,1,0],[0,0],[0]]","2","[[3,0,0],[1,0],[2]]","3","0","","","","","","3","","","","","","","","",""
"","","","","","single-stim-button","64","579432","0.0-2.0-19.1-1.1","628f827eeb876ed2617881e7","E1","batch5","","1412","tol_toboard","","","","tol_peg_3","1412","1412","0","[[3,1,0],[0,0],[2]]","2","[[3,0,0],[1,0],[2]]","3","0","","","","","","3","","","","","","","","",""
"","","","","","single-stim-button","65","580327","0.0-2.0-19.2-0.2","628f827eeb876ed2617881e7","E1","batch5","","893","tol_tohand","","","","tol_peg_1","893","893","0","[[3,0,0],[0,0],[2]]","3","[[3,0,0],[1,0],[2]]","3","0","","","","","","3","","","","","","","","",""
"","","","","","single-stim-button","66","581471","0.0-2.0-19.2-1.2","628f827eeb876ed2617881e7","E1","batch5","","1143","tol_toboard","","","","tol_peg_2","1143","1143","0","[[3,0,0],[1,0],[2]]","3","[[3,0,0],[1,0],[2]]","3","0","","","","","","3","","","","","","","","",""
"","","","","","poldrack-single-stim","67","582481","0.0-2.0-20.0","628f827eeb876ed2617881e7","E1","batch5","","-1","tol_feedback","","","true","","1000","1000","500","","","","","","-1","none","true","18970","20775","","","","","","","","","",""
"","","","","","html-button-response","68","584048","0.0-2.0-21.0","628f827eeb876ed2617881e7","E1","batch5","","1565.8000000715256","tol_trial_num","<div class = centerbox><p class = center-block-text>problem <strong>5</strong> out of 25 problems</p></div>","0","","","","","","","","","","","","","","","","","","","","","","","","",""
"","","","","","single-stim-button","69","625700","0.0-2.0-22.0-0.0","628f827eeb876ed2617881e7","E1","batch5","","41650","tol_tohand","","","","tol_peg_3","41650","41650","0","[[1,0,0],[2,0],[0]]","1","[[0,0,0],[1,2],[3]]","4","0","","","","","","7","","","","","","","","",""
"","","","","","single-stim-button","70","631583","0.0-2.0-22.0-1.0","628f827eeb876ed2617881e7","E1","batch5","","5881","tol_toboard","","","","tol_peg_1","5881","5881","0","[[1,3,0],[2,0],[0]]","1","[[0,0,0],[1,2],[3]]","4","0","","","","","","7","","","","","","","","",""
"","","","","","single-stim-button","71","632660","0.0-2.0-22.1-0.1","628f827eeb876ed2617881e7","E1","batch5","","1074","tol_tohand","","","","tol_peg_2","1074","1074","0","[[1,3,0],[0,0],[0]]","2","[[0,0,0],[1,2],[3]]","4","0","","","","","","7","","","","","","","","",""
"","","","","","single-stim-button","72","634400","0.0-2.0-22.1-1.1","628f827eeb876ed2617881e7","E1","batch5","","1739","tol_toboard","","","","tol_peg_3","1739","1739","0","[[1,3,0],[0,0],[2]]","2","[[0,0,0],[1,2],[3]]","4","0","","","","","","7","","","","","","","","",""
"","","","","","single-stim-button","73","636824","0.0-2.0-22.2-0.2","628f827eeb876ed2617881e7","E1","batch5","","2422","tol_tohand","","","","tol_peg_1","2422","2422","0","[[1,0,0],[0,0],[2]]","3","[[0,0,0],[1,2],[3]]","4","0","","","","","","7","","","","","","","","",""
"","","","","","single-stim-button","74","642862","0.0-2.0-22.2-1.2","628f827eeb876ed2617881e7","E1","batch5","","6038","tol_toboard","","","","tol_peg_2","6038","6038","0","[[1,0,0],[3,0],[2]]","3","[[0,0,0],[1,2],[3]]","4","0","","","","","","7","","","","","","","","",""
"","","","","","single-stim-button","75","650506","0.0-2.0-22.3-0.3","628f827eeb876ed2617881e7","E1","batch5","","7643","tol_tohand","","","","tol_peg_3","7643","7643","0","[[1,0,0],[3,0],[0]]","4","[[0,0,0],[1,2],[3]]","4","0","","","","","","7","","","","","","","","",""
"","","","","","single-stim-button","76","653315","0.0-2.0-22.3-1.3","628f827eeb876ed2617881e7","E1","batch5","","2808","tol_toboard","","","","tol_peg_1","2808","2808","0","[[1,2,0],[3,0],[0]]","4","[[0,0,0],[1,2],[3]]","4","0","","","","","","7","","","","","","","","",""
"","","","","","single-stim-button","77","654411","0.0-2.0-22.4-0.4","628f827eeb876ed2617881e7","E1","batch5","","1095","tol_tohand","","","","tol_peg_2","1095","1095","0","[[1,2,0],[0,0],[0]]","5","[[0,0,0],[1,2],[3]]","4","0","","","","","","7","","","","","","","","",""
"","","","","","single-stim-button","78","655228","0.0-2.0-22.4-1.4","628f827eeb876ed2617881e7","E1","batch5","","816","tol_toboard","","","","tol_peg_3","816","816","0","[[1,2,0],[0,0],[3]]","5","[[0,0,0],[1,2],[3]]","4","0","","","","","","7","","","","","","","","",""
"","","","","","single-stim-button","79","661432","0.0-2.0-22.5-0.5","628f827eeb876ed2617881e7","E1","batch5","","6202","tol_tohand","","","","tol_peg_3","6202","6202","0","[[1,2,0],[0,0],[0]]","6","[[0,0,0],[1,2],[3]]","4","0","","","","","","7","","","","","","","","",""
"","","","","","single-stim-button","80","663335","0.0-2.0-22.5-1.5","628f827eeb876ed2617881e7","E1","batch5","","1903","tol_toboard","","","","tol_peg_2","1903","1903","0","[[1,2,0],[3,0],[0]]","6","[[0,0,0],[1,2],[3]]","4","0","","","","","","7","","","","","","","","",""
"","","","","","single-stim-button","81","666192","0.0-2.0-22.6-0.6","628f827eeb876ed2617881e7","E1","batch5","","2855","tol_tohand","","","","tol_peg_1","2855","2855","0","[[1,0,0],[3,0],[0]]","7","[[0,0,0],[1,2],[3]]","4","0","","","","","","7","","","","","","","","",""
"","","","","","single-stim-button","82","672347","0.0-2.0-22.6-1.6","628f827eeb876ed2617881e7","E1","batch5","","6153","tol_toboard","","","","tol_peg_3","6153","6153","0","[[1,0,0],[3,0],[2]]","7","[[0,0,0],[1,2],[3]]","4","0","","","","","","7","","","","","","","","",""
"","","","","","single-stim-button","83","675126","0.0-2.0-22.7-0.7","628f827eeb876ed2617881e7","E1","batch5","","2778","tol_tohand","","","","tol_peg_1","2778","2778","0","[[0,0,0],[3,0],[2]]","8","[[0,0,0],[1,2],[3]]","4","0","","","","","","7","","","","","","","","",""
"","","","","","single-stim-button","84","681724","0.0-2.0-22.7-1.7","628f827eeb876ed2617881e7","E1","batch5","","6597","tol_toboard","","","","tol_peg_1","6597","6597","0","[[1,0,0],[3,0],[2]]","8","[[0,0,0],[1,2],[3]]","4","0","","","","","","7","","","","","","","","",""
"","","","","","single-stim-button","85","682984","0.0-2.0-22.8-0.8","628f827eeb876ed2617881e7","E1","batch5","","1258","tol_tohand","","","","tol_peg_3","1258","1258","0","[[1,0,0],[3,0],[0]]","9","[[0,0,0],[1,2],[3]]","4","0","","","","","","7","","","","","","","","",""
"","","","","","single-stim-button","86","684464","0.0-2.0-22.8-1.8","628f827eeb876ed2617881e7","E1","batch5","","1479","tol_toboard","","","","tol_peg_2","1479","1479","0","[[1,0,0],[3,2],[0]]","9","[[0,0,0],[1,2],[3]]","4","0","","","","","","7","","","","","","","","",""
"","","","","","single-stim-button","87","685359","0.0-2.0-22.9-0.9","628f827eeb876ed2617881e7","E1","batch5","","893","tol_tohand","","","","tol_peg_1","893","893","0","[[0,0,0],[3,2],[0]]","10","[[0,0,0],[1,2],[3]]","4","0","","","","","","7","","","","","","","","",""
"","","","","","single-stim-button","88","686898","0.0-2.0-22.9-1.9","628f827eeb876ed2617881e7","E1","batch5","","1537","tol_toboard","","","","tol_peg_3","1537","1537","0","[[0,0,0],[3,2],[1]]","10","[[0,0,0],[1,2],[3]]","4","0","","","","","","7","","","","","","","","",""
"","","","","","single-stim-button","89","692390","0.0-2.0-22.10-0.10","628f827eeb876ed2617881e7","E1","batch5","","5491","tol_tohand","","","","tol_peg_2","5491","5491","0","[[0,0,0],[3,0],[1]]","11","[[0,0,0],[1,2],[3]]","4","0","","","","","","7","","","","","","","","",""
"","","","","","single-stim-button","90","693689","0.0-2.0-22.10-1.10","628f827eeb876ed2617881e7","E1","batch5","","1298","tol_toboard","","","","tol_peg_1","1298","1298","0","[[2,0,0],[3,0],[1]]","11","[[0,0,0],[1,2],[3]]","4","0","","","","","","7","","","","","","","","",""
"","","","","","single-stim-button","91","712659","0.0-2.0-22.11-0.11","628f827eeb876ed2617881e7","E1","batch5","","18968","tol_tohand","","","","tol_peg_3","18968","18968","0","[[2,0,0],[3,0],[0]]","12","[[0,0,0],[1,2],[3]]","4","0","","","","","","7","","","","","","","","",""
"","","","","","single-stim-button","92","714717","0.0-2.0-22.11-1.11","628f827eeb876ed2617881e7","E1","batch5","","2056","tol_toboard","","","","tol_peg_1","2056","2056","0","[[2,1,0],[3,0],[0]]","12","[[0,0,0],[1,2],[3]]","4","0","","","","","","7","","","","","","","","",""
"","","","","","single-stim-button","93","715650","0.0-2.0-22.12-0.12","628f827eeb876ed2617881e7","E1","batch5","","931","tol_tohand","","","","tol_peg_2","931","931","0","[[2,1,0],[0,0],[0]]","13","[[0,0,0],[1,2],[3]]","4","0","","","","","","7","","","","","","","","",""
"","","","","","single-stim-button","94","716794","0.0-2.0-22.12-1.12","628f827eeb876ed2617881e7","E1","batch5","","1143","tol_toboard","","","","tol_peg_3","1143","1143","0","[[2,1,0],[0,0],[3]]","13","[[0,0,0],[1,2],[3]]","4","0","","","","","","7","","","","","","","","",""
"","","","","","single-stim-button","95","718573","0.0-2.0-22.13-0.13","628f827eeb876ed2617881e7","E1","batch5","","1772","tol_tohand","","","","tol_peg_1","1772","1772","0","[[2,0,0],[0,0],[3]]","14","[[0,0,0],[1,2],[3]]","4","0","","","","","","7","","","","","","","","",""
"","","","","","single-stim-button","96","719910","0.0-2.0-22.13-1.13","628f827eeb876ed2617881e7","E1","batch5","","1335","tol_toboard","","","","tol_peg_2","1335","1335","0","[[2,0,0],[1,0],[3]]","14","[[0,0,0],[1,2],[3]]","4","0","","","","","","7","","","","","","","","",""
"","","","","","single-stim-button","97","720843","0.0-2.0-22.14-0.14","628f827eeb876ed2617881e7","E1","batch5","","931","tol_tohand","","","","tol_peg_1","931","931","0","[[0,0,0],[1,0],[3]]","15","[[0,0,0],[1,2],[3]]","4","0","","","","","","7","","","","","","","","",""
"","","","","","single-stim-button","98","721977","0.0-2.0-22.14-1.14","628f827eeb876ed2617881e7","E1","batch5","","1133","tol_toboard","","","","tol_peg_2","1133","1133","0","[[0,0,0],[1,2],[3]]","15","[[0,0,0],[1,2],[3]]","4","0","","","","","","7","","","","","","","","",""
"","","","","","poldrack-single-stim","99","722985","0.0-2.0-23.0","628f827eeb876ed2617881e7","E1","batch5","","-1","tol_feedback","","","true","","1000","1000","500","","","","","","-1","none","true","41650","95963","","","","","","","","","",""
"","","","","","html-button-response","100","724255","0.0-2.0-24.0","628f827eeb876ed2617881e7","E1","batch5","","1268.2999999523163","tol_trial_num","<div class = centerbox><p class = center-block-text>problem <strong>6</strong> out of 25 problems</p></div>","0","","","","","","","","","","","","","","","","","","","","","","","","",""
"","","","","","single-stim-button","101","728429","0.0-2.0-25.0-0.0","628f827eeb876ed2617881e7","E1","batch5","","4172","tol_tohand","","","","tol_peg_2","4172","4172","0","[[0,0,0],[1,0],[3]]","1","[[1,0,0],[2,3],[0]]","5","0","","","","","","6","","","","","","","","",""
"","","","","","single-stim-button","102","730525","0.0-2.0-25.0-1.0","628f827eeb876ed2617881e7","E1","batch5","","2095","tol_toboard","","","","tol_peg_1","2095","2095","0","[[2,0,0],[1,0],[3]]","1","[[1,0,0],[2,3],[0]]","5","0","","","","","","6","","","","","","","","",""
"","","","","","single-stim-button","103","739681","0.0-2.0-25.1-0.1","628f827eeb876ed2617881e7","E1","batch5","","9154","tol_tohand","","","","tol_peg_3","9154","9154","0","[[2,0,0],[1,0],[0]]","2","[[1,0,0],[2,3],[0]]","5","0","","","","","","6","","","","","","","","",""
"","","","","","single-stim-button","104","741210","0.0-2.0-25.1-1.1","628f827eeb876ed2617881e7","E1","batch5","","1527","tol_toboard","","","","tol_peg_1","1527","1527","0","[[2,3,0],[1,0],[0]]","2","[[1,0,0],[2,3],[0]]","5","0","","","","","","6","","","","","","","","",""
"","","","","","single-stim-button","105","742124","0.0-2.0-25.2-0.2","628f827eeb876ed2617881e7","E1","batch5","","911","tol_tohand","","","","tol_peg_2","911","911","0","[[2,3,0],[0,0],[0]]","3","[[1,0,0],[2,3],[0]]","5","0","","","","","","6","","","","","","","","",""
"","","","","","single-stim-button","106","743451","0.0-2.0-25.2-1.2","628f827eeb876ed2617881e7","E1","batch5","","1326","tol_toboard","","","","tol_peg_3","1326","1326","0","[[2,3,0],[0,0],[1]]","3","[[1,0,0],[2,3],[0]]","5","0","","","","","","6","","","","","","","","",""
"","","","","","single-stim-button","107","747404","0.0-2.0-25.3-0.3","628f827eeb876ed2617881e7","E1","batch5","","3952","tol_tohand","","","","tol_peg_1","3952","3952","0","[[2,0,0],[0,0],[1]]","4","[[1,0,0],[2,3],[0]]","5","0","","","","","","6","","","","","","","","",""
"","","","","","single-stim-button","108","752281","0.0-2.0-25.3-1.3","628f827eeb876ed2617881e7","E1","batch5","","4877","tol_toboard","","","","tol_peg_2","4877","4877","0","[[2,0,0],[3,0],[1]]","4","[[1,0,0],[2,3],[0]]","5","0","","","","","","6","","","","","","","","",""
"","","","","","single-stim-button","109","757100","0.0-2.0-25.4-0.4","628f827eeb876ed2617881e7","E1","batch5","","4818","tol_tohand","","","","tol_peg_3","4818","4818","0","[[2,0,0],[3,0],[0]]","5","[[1,0,0],[2,3],[0]]","5","0","","","","","","6","","","","","","","","",""
"","","","","","single-stim-button","110","758380","0.0-2.0-25.4-1.4","628f827eeb876ed2617881e7","E1","batch5","","1278","tol_toboard","","","","tol_peg_1","1278","1278","0","[[2,1,0],[3,0],[0]]","5","[[1,0,0],[2,3],[0]]","5","0","","","","","","6","","","","","","","","",""
"","","","","","single-stim-button","111","759361","0.0-2.0-25.5-0.5","628f827eeb876ed2617881e7","E1","batch5","","979","tol_tohand","","","","tol_peg_2","979","979","0","[[2,1,0],[0,0],[0]]","6","[[1,0,0],[2,3],[0]]","5","0","","","","","","6","","","","","","","","",""
"","","","","","single-stim-button","112","761852","0.0-2.0-25.5-1.5","628f827eeb876ed2617881e7","E1","batch5","","2491","tol_toboard","","","","tol_peg_3","2491","2491","0","[[2,1,0],[0,0],[3]]","6","[[1,0,0],[2,3],[0]]","5","0","","","","","","6","","","","","","","","",""
"","","","","","single-stim-button","113","766892","0.0-2.0-25.6-0.6","628f827eeb876ed2617881e7","E1","batch5","","5038","tol_tohand","","","","tol_peg_1","5038","5038","0","[[2,0,0],[0,0],[3]]","7","[[1,0,0],[2,3],[0]]","5","0","","","","","","6","","","","","","","","",""
"","","","","","single-stim-button","114","769700","0.0-2.0-25.6-1.6","628f827eeb876ed2617881e7","E1","batch5","","2806","tol_toboard","","","","tol_peg_2","2806","2806","0","[[2,0,0],[1,0],[3]]","7","[[1,0,0],[2,3],[0]]","5","0","","","","","","6","","","","","","","","",""
"","","","","","single-stim-button","115","773595","0.0-2.0-25.7-0.7","628f827eeb876ed2617881e7","E1","batch5","","3892","tol_tohand","","","","tol_peg_3","3892","3892","0","[[2,0,0],[1,0],[0]]","8","[[1,0,0],[2,3],[0]]","5","0","","","","","","6","","","","","","","","",""
"","","","","","single-stim-button","116","776114","0.0-2.0-25.7-1.7","628f827eeb876ed2617881e7","E1","batch5","","2518","tol_toboard","","","","tol_peg_1","2518","2518","0","[[2,3,0],[1,0],[0]]","8","[[1,0,0],[2,3],[0]]","5","0","","","","","","6","","","","","","","","",""
"","","","","","single-stim-button","117","779883","0.0-2.0-25.8-0.8","628f827eeb876ed2617881e7","E1","batch5","","3768","tol_tohand","","","","tol_peg_2","3768","3768","0","[[2,3,0],[0,0],[0]]","9","[[1,0,0],[2,3],[0]]","5","0","","","","","","6","","","","","","","","",""
"","","","","","single-stim-button","118","781315","0.0-2.0-25.8-1.8","628f827eeb876ed2617881e7","E1","batch5","","1432","tol_toboard","","","","tol_peg_3","1432","1432","0","[[2,3,0],[0,0],[1]]","9","[[1,0,0],[2,3],[0]]","5","0","","","","","","6","","","","","","","","",""
"","","","","","single-stim-button","119","783536","0.0-2.0-25.9-0.9","628f827eeb876ed2617881e7","E1","batch5","","2219","tol_tohand","","","","tol_peg_1","2219","2219","0","[[2,0,0],[0,0],[1]]","10","[[1,0,0],[2,3],[0]]","5","0","","","","","","6","","","","","","","","",""
"","","","","","single-stim-button","120","784825","0.0-2.0-25.9-1.9","628f827eeb876ed2617881e7","E1","batch5","","1287","tol_toboard","","","","tol_peg_2","1287","1287","0","[[2,0,0],[3,0],[1]]","10","[[1,0,0],[2,3],[0]]","5","0","","","","","","6","","","","","","","","",""
"","","","","","single-stim-button","121","791440","0.0-2.0-25.10-0.10","628f827eeb876ed2617881e7","E1","batch5","","6614","tol_tohand","","","","tol_peg_1","6614","6614","0","[[0,0,0],[3,0],[1]]","11","[[1,0,0],[2,3],[0]]","5","0","","","","","","6","","","","","","","","",""
"","","","","","single-stim-button","122","795767","0.0-2.0-25.10-1.10","628f827eeb876ed2617881e7","E1","batch5","","4325","tol_toboard","","","","tol_peg_2","4325","4325","0","[[0,0,0],[3,2],[1]]","11","[[1,0,0],[2,3],[0]]","5","0","","","","","","6","","","","","","","","",""
"","","","","","single-stim-button","123","797488","0.0-2.0-25.11-0.11","628f827eeb876ed2617881e7","E1","batch5","","1719","tol_tohand","","","","tol_peg_3","1719","1719","0","[[0,0,0],[3,2],[0]]","12","[[1,0,0],[2,3],[0]]","5","0","","","","","","6","","","","","","","","",""
"","","","","","single-stim-button","124","799104","0.0-2.0-25.11-1.11","628f827eeb876ed2617881e7","E1","batch5","","1614","tol_toboard","","","","tol_peg_1","1614","1614","0","[[1,0,0],[3,2],[0]]","12","[[1,0,0],[2,3],[0]]","5","0","","","","","","6","","","","","","","","",""
"","","","","","single-stim-button","125","801652","0.0-2.0-25.12-0.12","628f827eeb876ed2617881e7","E1","batch5","","2546","tol_tohand","","","","tol_peg_2","2546","2546","0","[[1,0,0],[3,0],[0]]","13","[[1,0,0],[2,3],[0]]","5","0","","","","","","6","","","","","","","","",""
"","","","","","single-stim-button","126","803316","0.0-2.0-25.12-1.12","628f827eeb876ed2617881e7","E1","batch5","","1664","tol_toboard","","","","tol_peg_1","1664","1664","0","[[1,2,0],[3,0],[0]]","13","[[1,0,0],[2,3],[0]]","5","0","","","","","","6","","","","","","","","",""
"","","","","","single-stim-button","127","804259","0.0-2.0-25.13-0.13","628f827eeb876ed2617881e7","E1","batch5","","941","tol_tohand","","","","tol_peg_2","941","941","0","[[1,2,0],[0,0],[0]]","14","[[1,0,0],[2,3],[0]]","5","0","","","","","","6","","","","","","","","",""
"","","","","","single-stim-button","128","805451","0.0-2.0-25.13-1.13","628f827eeb876ed2617881e7","E1","batch5","","1192","tol_toboard","","","","tol_peg_3","1192","1192","0","[[1,2,0],[0,0],[3]]","14","[[1,0,0],[2,3],[0]]","5","0","","","","","","6","","","","","","","","",""
"","","","","","single-stim-button","129","806759","0.0-2.0-25.14-0.14","628f827eeb876ed2617881e7","E1","batch5","","1307","tol_tohand","","","","tol_peg_1","1307","1307","0","[[1,0,0],[0,0],[3]]","15","[[1,0,0],[2,3],[0]]","5","0","","","","","","6","","","","","","","","",""
"","","","","","single-stim-button","130","808808","0.0-2.0-25.14-1.14","628f827eeb876ed2617881e7","E1","batch5","","2048","tol_toboard","","","","tol_peg_2","2048","2048","0","[[1,0,0],[2,0],[3]]","15","[[1,0,0],[2,3],[0]]","5","0","","","","","","6","","","","","","","","",""
"","","","","","single-stim-button","131","809771","0.0-2.0-25.15-0.15","628f827eeb876ed2617881e7","E1","batch5","","961","tol_tohand","","","","tol_peg_3","961","961","0","[[1,0,0],[2,0],[0]]","16","[[1,0,0],[2,3],[0]]","5","0","","","","","","6","","","","","","","","",""
"","","","","","single-stim-button","132","810954","0.0-2.0-25.15-1.15","628f827eeb876ed2617881e7","E1","batch5","","1182","tol_toboard","","","","tol_peg_2","1182","1182","0","[[1,0,0],[2,3],[0]]","16","[[1,0,0],[2,3],[0]]","5","0","","","","","","6","","","","","","","","",""
"","","","","","poldrack-single-stim","133","811961","0.0-2.0-26.0","628f827eeb876ed2617881e7","E1","batch5","","-1","tol_feedback","","","true","","1000","1000","500","","","","","","-1","none","true","4172","52991","","","","","","","","","",""
"","","","","","html-button-response","134","813253","0.0-2.0-27.0","628f827eeb876ed2617881e7","E1","batch5","","1290.7000000476837","tol_trial_num","<div class = centerbox><p class = center-block-text>problem <strong>7</strong> out of 25 problems</p></div>","0","","","","","","","","","","","","","","","","","","","","","","","","",""
"","","","","","single-stim-button","135","821814","0.0-2.0-28.0-0.0","628f827eeb876ed2617881e7","E1","batch5","","8558","tol_tohand","","","","tol_peg_3","8558","8558","0","[[2,1,0],[0,0],[0]]","1","[[1,2,0],[3,0],[0]]","6","0","","","","","","5","","","","","","","","",""
"","","","","","single-stim-button","136","823237","0.0-2.0-28.0-1.0","628f827eeb876ed2617881e7","E1","batch5","","1422","tol_toboard","","","","tol_peg_2","1422","1422","0","[[2,1,0],[3,0],[0]]","1","[[1,2,0],[3,0],[0]]","6","0","","","","","","5","","","","","","","","",""
"","","","","","single-stim-button","137","824468","0.0-2.0-28.1-0.1","628f827eeb876ed2617881e7","E1","batch5","","1230","tol_tohand","","","","tol_peg_1","1230","1230","0","[[2,0,0],[3,0],[0]]","2","[[1,2,0],[3,0],[0]]","6","0","","","","","","5","","","","","","","","",""
"","","","","","single-stim-button","138","829623","0.0-2.0-28.1-1.1","628f827eeb876ed2617881e7","E1","batch5","","5154","tol_toboard","","","","tol_peg_2","5154","5154","0","[[2,0,0],[3,1],[0]]","2","[[1,2,0],[3,0],[0]]","6","0","","","","","","5","","","","","","","","",""
"","","","","","single-stim-button","139","830480","0.0-2.0-28.2-0.2","628f827eeb876ed2617881e7","E1","batch5","","855","tol_tohand","","","","tol_peg_1","855","855","0","[[0,0,0],[3,1],[0]]","3","[[1,2,0],[3,0],[0]]","6","0","","","","","","5","","","","","","","","",""
"","","","","","single-stim-button","140","832211","0.0-2.0-28.2-1.2","628f827eeb876ed2617881e7","E1","batch5","","1729","tol_toboard","","","","tol_peg_3","1729","1729","0","[[0,0,0],[3,1],[2]]","3","[[1,2,0],[3,0],[0]]","6","0","","","","","","5","","","","","","","","",""
"","","","","","single-stim-button","141","834163","0.0-2.0-28.3-0.3","628f827eeb876ed2617881e7","E1","batch5","","1951","tol_tohand","","","","tol_peg_2","1951","1951","0","[[0,0,0],[3,0],[2]]","4","[[1,2,0],[3,0],[0]]","6","0","","","","","","5","","","","","","","","",""
"","","","","","single-stim-button","142","836232","0.0-2.0-28.3-1.3","628f827eeb876ed2617881e7","E1","batch5","","2067","tol_toboard","","","","tol_peg_1","2067","2067","0","[[1,0,0],[3,0],[2]]","4","[[1,2,0],[3,0],[0]]","6","0","","","","","","5","","","","","","","","",""
"","","","","","single-stim-button","143","838588","0.0-2.0-28.4-0.4","628f827eeb876ed2617881e7","E1","batch5","","2354","tol_tohand","","","","tol_peg_3","2354","2354","0","[[1,0,0],[3,0],[0]]","5","[[1,2,0],[3,0],[0]]","6","0","","","","","","5","","","","","","","","",""
"","","","","","single-stim-button","144","839656","0.0-2.0-28.4-1.4","628f827eeb876ed2617881e7","E1","batch5","","1066","tol_toboard","","","","tol_peg_1","1066","1066","0","[[1,2,0],[3,0],[0]]","5","[[1,2,0],[3,0],[0]]","6","0","","","","","","5","","","","","","","","",""
"","","","","","poldrack-single-stim","145","840665","0.0-2.0-29.0","628f827eeb876ed2617881e7","E1","batch5","","-1","tol_feedback","","","true","","1000","1000","500","","","","","","-1","none","true","8558","14948","","","","","","","","","",""
"","","","","","html-button-response","146","841560","0.0-2.0-30.0","628f827eeb876ed2617881e7","E1","batch5","","893.7999999523163","tol_trial_num","<div class = centerbox><p class = center-block-text>problem <strong>8</strong> out of 25 problems</p></div>","0","","","","","","","","","","","","","","","","","","","","","","","","",""
"","","","","","single-stim-button","147","847562","0.0-2.0-31.0-0.0","628f827eeb876ed2617881e7","E1","batch5","","6001","tol_tohand","","","","tol_peg_3","6001","6001","0","[[0,0,0],[2,3],[0]]","1","[[1,2,0],[3,0],[0]]","7","0","","","","","","4","","","","","","","","",""
"","","","","","single-stim-button","148","848841","0.0-2.0-31.0-1.0","628f827eeb876ed2617881e7","E1","batch5","","1277","tol_toboard","","","","tol_peg_1","1277","1277","0","[[1,0,0],[2,3],[0]]","1","[[1,2,0],[3,0],[0]]","7","0","","","","","","4","","","","","","","","",""
"","","","","","single-stim-button","149","850053","0.0-2.0-31.1-0.1","628f827eeb876ed2617881e7","E1","batch5","","1211","tol_tohand","","","","tol_peg_2","1211","1211","0","[[1,0,0],[2,0],[0]]","2","[[1,2,0],[3,0],[0]]","7","0","","","","","","4","","","","","","","","",""
"","","","","","single-stim-button","150","851592","0.0-2.0-31.1-1.1","628f827eeb876ed2617881e7","E1","batch5","","1538","tol_toboard","","","","tol_peg_3","1538","1538","0","[[1,0,0],[2,0],[3]]","2","[[1,2,0],[3,0],[0]]","7","0","","","","","","4","","","","","","","","",""
"","","","","","single-stim-button","151","852823","0.0-2.0-31.2-0.2","628f827eeb876ed2617881e7","E1","batch5","","1230","tol_tohand","","","","tol_peg_2","1230","1230","0","[[1,0,0],[0,0],[3]]","3","[[1,2,0],[3,0],[0]]","7","0","","","","","","4","","","","","","","","",""
"","","","","","single-stim-button","152","854362","0.0-2.0-31.2-1.2","628f827eeb876ed2617881e7","E1","batch5","","1538","tol_toboard","","","","tol_peg_1","1538","1538","0","[[1,2,0],[0,0],[3]]","3","[[1,2,0],[3,0],[0]]","7","0","","","","","","4","","","","","","","","",""
"","","","","","single-stim-button","153","855786","0.0-2.0-31.3-0.3","628f827eeb876ed2617881e7","E1","batch5","","1422","tol_tohand","","","","tol_peg_3","1422","1422","0","[[1,2,0],[0,0],[0]]","4","[[1,2,0],[3,0],[0]]","7","0","","","","","","4","","","","","","","","",""
"","","","","","single-stim-button","154","856931","0.0-2.0-31.3-1.3","628f827eeb876ed2617881e7","E1","batch5","","1143","tol_toboard","","","","tol_peg_2","1143","1143","0","[[1,2,0],[3,0],[0]]","4","[[1,2,0],[3,0],[0]]","7","0","","","","","","4","","","","","","","","",""
"","","","","","poldrack-single-stim","155","857936","0.0-2.0-32.0","628f827eeb876ed2617881e7","E1","batch5","","-1","tol_feedback","","","true","","1000","1000","500","","","","","","-1","none","true","6001","9864","","","","","","","","","",""
"","","","","","html-button-response","156","858864","0.0-2.0-33.0","628f827eeb876ed2617881e7","E1","batch5","","926.3999999761581","tol_trial_num","<div class = centerbox><p class = center-block-text>problem <strong>9</strong> out of 25 problems</p></div>","0","","","","","","","","","","","","","","","","","","","","","","","","",""
"","","","","","single-stim-button","157","867455","0.0-2.0-34.0-0.0","628f827eeb876ed2617881e7","E1","batch5","","8589","tol_tohand","","","","tol_peg_1","8589","8589","0","[[3,0,0],[0,0],[1]]","1","[[2,1,0],[3,0],[0]]","8","0","","","","","","6","","","","","","","","",""
"","","","","","single-stim-button","158","869148","0.0-2.0-34.0-1.0","628f827eeb876ed2617881e7","E1","batch5","","1692","tol_toboard","","","","tol_peg_2","1692","1692","0","[[3,0,0],[2,0],[1]]","1","[[2,1,0],[3,0],[0]]","8","0","","","","","","6","","","","","","","","",""
"","","","","","single-stim-button","159","870889","0.0-2.0-34.1-0.1","628f827eeb876ed2617881e7","E1","batch5","","1739","tol_tohand","","","","tol_peg_1","1739","1739","0","[[0,0,0],[2,0],[1]]","2","[[2,1,0],[3,0],[0]]","8","0","","","","","","6","","","","","","","","",""
"","","","","","single-stim-button","160","872399","0.0-2.0-34.1-1.1","628f827eeb876ed2617881e7","E1","batch5","","1509","tol_toboard","","","","tol_peg_2","1509","1509","0","[[0,0,0],[2,3],[1]]","2","[[2,1,0],[3,0],[0]]","8","0","","","","","","6","","","","","","","","",""
"","","","","","single-stim-button","161","878045","0.0-2.0-34.2-0.2","628f827eeb876ed2617881e7","E1","batch5","","5644","tol_tohand","","","","tol_peg_3","5644","5644","0","[[0,0,0],[2,3],[0]]","3","[[2,1,0],[3,0],[0]]","8","0","","","","","","6","","","","","","","","",""
"","","","","","single-stim-button","162","879862","0.0-2.0-34.2-1.2","628f827eeb876ed2617881e7","E1","batch5","","1815","tol_toboard","","","","tol_peg_1","1815","1815","0","[[1,0,0],[2,3],[0]]","3","[[2,1,0],[3,0],[0]]","8","0","","","","","","6","","","","","","","","",""
"","","","","","single-stim-button","163","881275","0.0-2.0-34.3-0.3","628f827eeb876ed2617881e7","E1","batch5","","1412","tol_tohand","","","","tol_peg_2","1412","1412","0","[[1,0,0],[2,0],[0]]","4","[[2,1,0],[3,0],[0]]","8","0","","","","","","6","","","","","","","","",""
"","","","","","single-stim-button","164","882622","0.0-2.0-34.3-1.3","628f827eeb876ed2617881e7","E1","batch5","","1345","tol_toboard","","","","tol_peg_3","1345","1345","0","[[1,0,0],[2,0],[3]]","4","[[2,1,0],[3,0],[0]]","8","0","","","","","","6","","","","","","","","",""
"","","","","","single-stim-button","165","901859","0.0-2.0-34.4-0.4","628f827eeb876ed2617881e7","E1","batch5","","19235","tol_tohand","","","","tol_peg_3","19235","19235","0","[[1,0,0],[2,0],[0]]","5","[[2,1,0],[3,0],[0]]","8","0","","","","","","6","","","","","","","","",""
"","","","","","single-stim-button","166","904244","0.0-2.0-34.4-1.4","628f827eeb876ed2617881e7","E1","batch5","","2383","tol_toboard","","","","tol_peg_2","2383","2383","0","[[1,0,0],[2,3],[0]]","5","[[2,1,0],[3,0],[0]]","8","0","","","","","","6","","","","","","","","",""
"","","","","","single-stim-button","167","905061","0.0-2.0-34.5-0.5","628f827eeb876ed2617881e7","E1","batch5","","816","tol_tohand","","","","tol_peg_1","816","816","0","[[0,0,0],[2,3],[0]]","6","[[2,1,0],[3,0],[0]]","8","0","","","","","","6","","","","","","","","",""
"","","","","","single-stim-button","168","907273","0.0-2.0-34.5-1.5","628f827eeb876ed2617881e7","E1","batch5","","2211","tol_toboard","","","","tol_peg_3","2211","2211","0","[[0,0,0],[2,3],[1]]","6","[[2,1,0],[3,0],[0]]","8","0","","","","","","6","","","","","","","","",""
"","","","","","single-stim-button","169","909389","0.0-2.0-34.6-0.6","628f827eeb876ed2617881e7","E1","batch5","","2115","tol_tohand","","","","tol_peg_2","2115","2115","0","[[0,0,0],[2,0],[1]]","7","[[2,1,0],[3,0],[0]]","8","0","","","","","","6","","","","","","","","",""
"","","","","","single-stim-button","170","912265","0.0-2.0-34.6-1.6","628f827eeb876ed2617881e7","E1","batch5","","2874","tol_toboard","","","","tol_peg_1","2874","2874","0","[[3,0,0],[2,0],[1]]","7","[[2,1,0],[3,0],[0]]","8","0","","","","","","6","","","","","","","","",""
"","","","","","single-stim-button","171","913813","0.0-2.0-34.7-0.7","628f827eeb876ed2617881e7","E1","batch5","","1547","tol_tohand","","","","tol_peg_2","1547","1547","0","[[3,0,0],[0,0],[1]]","8","[[2,1,0],[3,0],[0]]","8","0","","","","","","6","","","","","","","","",""
"","","","","","single-stim-button","172","915410","0.0-2.0-34.7-1.7","628f827eeb876ed2617881e7","E1","batch5","","1596","tol_toboard","","","","tol_peg_1","1596","1596","0","[[3,2,0],[0,0],[1]]","8","[[2,1,0],[3,0],[0]]","8","0","","","","","","6","","","","","","","","",""
"","","","","","single-stim-button","173","918950","0.0-2.0-34.8-0.8","628f827eeb876ed2617881e7","E1","batch5","","3538","tol_tohand","","","","tol_peg_3","3538","3538","0","[[3,2,0],[0,0],[0]]","9","[[2,1,0],[3,0],[0]]","8","0","","","","","","6","","","","","","","","",""
"","","","","","single-stim-button","174","920152","0.0-2.0-34.8-1.8","628f827eeb876ed2617881e7","E1","batch5","","1201","tol_toboard","","","","tol_peg_2","1201","1201","0","[[3,2,0],[1,0],[0]]","9","[[2,1,0],[3,0],[0]]","8","0","","","","","","6","","","","","","","","",""
"","","","","","single-stim-button","175","923122","0.0-2.0-34.9-0.9","628f827eeb876ed2617881e7","E1","batch5","","2969","tol_tohand","","","","tol_peg_1","2969","2969","0","[[3,0,0],[1,0],[0]]","10","[[2,1,0],[3,0],[0]]","8","0","","","","","","6","","","","","","","","",""
"","","","","","single-stim-button","176","926190","0.0-2.0-34.9-1.9","628f827eeb876ed2617881e7","E1","batch5","","3066","tol_toboard","","","","tol_peg_2","3066","3066","0","[[3,0,0],[1,2],[0]]","10","[[2,1,0],[3,0],[0]]","8","0","","","","","","6","","","","","","","","",""
"","","","","","single-stim-button","177","930558","0.0-2.0-34.10-0.10","628f827eeb876ed2617881e7","E1","batch5","","4365","tol_tohand","","","","tol_peg_2","4365","4365","0","[[3,0,0],[1,0],[0]]","11","[[2,1,0],[3,0],[0]]","8","0","","","","","","6","","","","","","","","",""
"","","","","","single-stim-button","178","931721","0.0-2.0-34.10-1.10","628f827eeb876ed2617881e7","E1","batch5","","1162","tol_toboard","","","","tol_peg_3","1162","1162","0","[[3,0,0],[1,0],[2]]","11","[[2,1,0],[3,0],[0]]","8","0","","","","","","6","","","","","","","","",""
"","","","","","single-stim-button","179","935474","0.0-2.0-34.11-0.11","628f827eeb876ed2617881e7","E1","batch5","","3751","tol_tohand","","","","tol_peg_1","3751","3751","0","[[0,0,0],[1,0],[2]]","12","[[2,1,0],[3,0],[0]]","8","0","","","","","","6","","","","","","","","",""
"","","","","","single-stim-button","180","936571","0.0-2.0-34.11-1.11","628f827eeb876ed2617881e7","E1","batch5","","1095","tol_toboard","","","","tol_peg_2","1095","1095","0","[[0,0,0],[1,3],[2]]","12","[[2,1,0],[3,0],[0]]","8","0","","","","","","6","","","","","","","","",""
"","","","","","single-stim-button","181","937861","0.0-2.0-34.12-0.12","628f827eeb876ed2617881e7","E1","batch5","","1288","tol_tohand","","","","tol_peg_3","1288","1288","0","[[0,0,0],[1,3],[0]]","13","[[2,1,0],[3,0],[0]]","8","0","","","","","","6","","","","","","","","",""
"","","","","","single-stim-button","182","940613","0.0-2.0-34.12-1.12","628f827eeb876ed2617881e7","E1","batch5","","2751","tol_toboard","","","","tol_peg_1","2751","2751","0","[[2,0,0],[1,3],[0]]","13","[[2,1,0],[3,0],[0]]","8","0","","","","","","6","","","","","","","","",""
"","","","","","single-stim-button","183","941643","0.0-2.0-34.13-0.13","628f827eeb876ed2617881e7","E1","batch5","","1028","tol_tohand","","","","tol_peg_2","1028","1028","0","[[2,0,0],[1,0],[0]]","14","[[2,1,0],[3,0],[0]]","8","0","","","","","","6","","","","","","","","",""
"","","","","","single-stim-button","184","942778","0.0-2.0-34.13-1.13","628f827eeb876ed2617881e7","E1","batch5","","1134","tol_toboard","","","","tol_peg_3","1134","1134","0","[[2,0,0],[1,0],[3]]","14","[[2,1,0],[3,0],[0]]","8","0","","","","","","6","","","","","","","","",""
"","","","","","single-stim-button","185","943875","0.0-2.0-34.14-0.14","628f827eeb876ed2617881e7","E1","batch5","","1096","tol_tohand","","","","tol_peg_2","1096","1096","0","[[2,0,0],[0,0],[3]]","15","[[2,1,0],[3,0],[0]]","8","0","","","","","","6","","","","","","","","",""
"","","","","","single-stim-button","186","944953","0.0-2.0-34.14-1.14","628f827eeb876ed2617881e7","E1","batch5","","1077","tol_toboard","","","","tol_peg_1","1077","1077","0","[[2,1,0],[0,0],[3]]","15","[[2,1,0],[3,0],[0]]","8","0","","","","","","6","","","","","","","","",""
"","","","","","single-stim-button","187","947523","0.0-2.0-34.15-0.15","628f827eeb876ed2617881e7","E1","batch5","","2568","tol_tohand","","","","tol_peg_3","2568","2568","0","[[2,1,0],[0,0],[0]]","16","[[2,1,0],[3,0],[0]]","8","0","","","","","","6","","","","","","","","",""
"","","","","","single-stim-button","188","948668","0.0-2.0-34.15-1.15","628f827eeb876ed2617881e7","E1","batch5","","1144","tol_toboard","","","","tol_peg_2","1144","1144","0","[[2,1,0],[3,0],[0]]","16","[[2,1,0],[3,0],[0]]","8","0","","","","","","6","","","","","","","","",""
"","","","","","poldrack-single-stim","189","949673","0.0-2.0-35.0","628f827eeb876ed2617881e7","E1","batch5","","-1","tol_feedback","","","true","","1000","1000","500","","","","","","-1","none","true","8589","61700","","","","","","","","","",""
"","","","","","html-button-response","190","950709","0.0-2.0-36.0","628f827eeb876ed2617881e7","E1","batch5","","1034.1000000238419","tol_trial_num","<div class = centerbox><p class = center-block-text>problem <strong>10</strong> out of 25 problems</p></div>","0","","","","","","","","","","","","","","","","","","","","","","","","",""
"","","","","","single-stim-button","191","958945","0.0-2.0-37.0-0.0","628f827eeb876ed2617881e7","E1","batch5","","8234","tol_tohand","","","","tol_peg_2","8234","8234","0","[[3,0,0],[0,0],[2]]","1","[[3,0,0],[2,1],[0]]","9","0","","","","","","3","","","","","","","","",""
"","","","","","single-stim-button","192","959791","0.0-2.0-37.0-1.0","628f827eeb876ed2617881e7","E1","batch5","","846","tol_toboard","","","","tol_peg_1","846","846","0","[[3,1,0],[0,0],[2]]","1","[[3,0,0],[2,1],[0]]","9","0","","","","","","3","","","","","","","","",""
"","","","","","single-stim-button","193","960763","0.0-2.0-37.1-0.1","628f827eeb876ed2617881e7","E1","batch5","","970","tol_tohand","","","","tol_peg_3","970","970","0","[[3,1,0],[0,0],[0]]","2","[[3,0,0],[2,1],[0]]","9","0","","","","","","3","","","","","","","","",""
"","","","","","single-stim-button","194","961879","0.0-2.0-37.1-1.1","628f827eeb876ed2617881e7","E1","batch5","","1115","tol_toboard","","","","tol_peg_2","1115","1115","0","[[3,1,0],[2,0],[0]]","2","[[3,0,0],[2,1],[0]]","9","0","","","","","","3","","","","","","","","",""
"","","","","","single-stim-button","195","962822","0.0-2.0-37.2-0.2","628f827eeb876ed2617881e7","E1","batch5","","941","tol_tohand","","","","tol_peg_1","941","941","0","[[3,0,0],[2,0],[0]]","3","[[3,0,0],[2,1],[0]]","9","0","","","","","","3","","","","","","","","",""
"","","","","","single-stim-button","196","963679","0.0-2.0-37.2-1.2","628f827eeb876ed2617881e7","E1","batch5","","855","tol_toboard","","","","tol_peg_2","855","855","0","[[3,0,0],[2,1],[0]]","3","[[3,0,0],[2,1],[0]]","9","0","","","","","","3","","","","","","","","",""
"","","","","","poldrack-single-stim","197","964689","0.0-2.0-38.0","628f827eeb876ed2617881e7","E1","batch5","","-1","tol_feedback","","","true","","1000","1000","500","","","","","","-1","none","true","8234","10145","","","","","","","","","",""
"","","","","","html-button-response","198","965517","0.0-2.0-39.0","628f827eeb876ed2617881e7","E1","batch5","","826.5","tol_trial_num","<div class = centerbox><p class = center-block-text>problem <strong>11</strong> out of 25 problems</p></div>","0","","","","","","","","","","","","","","","","","","","","","","","","",""
"","","","","","single-stim-button","199","969905","0.0-2.0-40.0-0.0","628f827eeb876ed2617881e7","E1","batch5","","4386","tol_tohand","","","","tol_peg_1","4386","4386","0","[[1,0,0],[3,0],[0]]","1","[[2,0,0],[1,3],[0]]","10","0","","","","","","6","","","","","","","","",""
"","","","","","single-stim-button","200","977602","0.0-2.0-40.0-1.0","628f827eeb876ed2617881e7","E1","batch5","","7696","tol_toboard","","","","tol_peg_2","7696","7696","0","[[1,0,0],[3,2],[0]]","1","[[2,0,0],[1,3],[0]]","10","0","","","","","","6","","","","","","","","",""
"","","","","","single-stim-button","201","978930","0.0-2.0-40.1-0.1","628f827eeb876ed2617881e7","E1","batch5","","1326","tol_tohand","","","","tol_peg_1","1326","1326","0","[[0,0,0],[3,2],[0]]","2","[[2,0,0],[1,3],[0]]","10","0","","","","","","6","","","","","","","","",""
"","","","","","single-stim-button","202","980816","0.0-2.0-40.1-1.1","628f827eeb876ed2617881e7","E1","batch5","","1884","tol_toboard","","","","tol_peg_3","1884","1884","0","[[0,0,0],[3,2],[1]]","2","[[2,0,0],[1,3],[0]]","10","0","","","","","","6","","","","","","","","",""
"","","","","","single-stim-button","203","982037","0.0-2.0-40.2-0.2","628f827eeb876ed2617881e7","E1","batch5","","1220","tol_tohand","","","","tol_peg_2","1220","1220","0","[[0,0,0],[3,0],[1]]","3","[[2,0,0],[1,3],[0]]","10","0","","","","","","6","","","","","","","","",""
"","","","","","single-stim-button","204","983923","0.0-2.0-40.2-1.2","628f827eeb876ed2617881e7","E1","batch5","","1884","tol_toboard","","","","tol_peg_1","1884","1884","0","[[2,0,0],[3,0],[1]]","3","[[2,0,0],[1,3],[0]]","10","0","","","","","","6","","","","","","","","",""
"","","","","","single-stim-button","205","985943","0.0-2.0-40.3-0.3","628f827eeb876ed2617881e7","E1","batch5","","2019","tol_tohand","","","","tol_peg_2","2019","2019","0","[[2,0,0],[0,0],[1]]","4","[[2,0,0],[1,3],[0]]","10","0","","","","","","6","","","","","","","","",""
"","","","","","single-stim-button","206","987204","0.0-2.0-40.3-1.3","628f827eeb876ed2617881e7","E1","batch5","","1259","tol_toboard","","","","tol_peg_1","1259","1259","0","[[2,3,0],[0,0],[1]]","4","[[2,0,0],[1,3],[0]]","10","0","","","","","","6","","","","","","","","",""
"","","","","","single-stim-button","207","988184","0.0-2.0-40.4-0.4","628f827eeb876ed2617881e7","E1","batch5","","979","tol_tohand","","","","tol_peg_3","979","979","0","[[2,3,0],[0,0],[0]]","5","[[2,0,0],[1,3],[0]]","10","0","","","","","","6","","","","","","","","",""
"","","","","","single-stim-button","208","989127","0.0-2.0-40.4-1.4","628f827eeb876ed2617881e7","E1","batch5","","942","tol_toboard","","","","tol_peg_2","942","942","0","[[2,3,0],[1,0],[0]]","5","[[2,0,0],[1,3],[0]]","10","0","","","","","","6","","","","","","","","",""
"","","","","","single-stim-button","209","989993","0.0-2.0-40.5-0.5","628f827eeb876ed2617881e7","E1","batch5","","865","tol_tohand","","","","tol_peg_1","865","865","0","[[2,0,0],[1,0],[0]]","6","[[2,0,0],[1,3],[0]]","10","0","","","","","","6","","","","","","","","",""
"","","","","","single-stim-button","210","990955","0.0-2.0-40.5-1.5","628f827eeb876ed2617881e7","E1","batch5","","960","tol_toboard","","","","tol_peg_2","960","960","0","[[2,0,0],[1,3],[0]]","6","[[2,0,0],[1,3],[0]]","10","0","","","","","","6","","","","","","","","",""
"","","","","","poldrack-single-stim","211","991960","0.0-2.0-41.0","628f827eeb876ed2617881e7","E1","batch5","","-1","tol_feedback","","","true","","1000","1000","500","","","","","","-1","none","true","4386","10795","","","","","","","","","",""
"","","","","","html-button-response","212","993110","0.0-2.0-42.0","628f827eeb876ed2617881e7","E1","batch5","","1148.2000000476837","tol_trial_num","<div class = centerbox><p class = center-block-text>problem <strong>12</strong> out of 25 problems</p></div>","0","","","","","","","","","","","","","","","","","","","","","","","","",""
"","","","","","single-stim-button","213","998689","0.0-2.0-43.0-0.0","628f827eeb876ed2617881e7","E1","batch5","","5578","tol_tohand","","","","tol_peg_1","5578","5578","0","[[1,0,0],[3,0],[0]]","1","[[2,3,0],[0,0],[1]]","11","0","","","","","","4","","","","","","","","",""
"","","","","","single-stim-button","214","999671","0.0-2.0-43.0-1.0","628f827eeb876ed2617881e7","E1","batch5","","980","tol_toboard","","","","tol_peg_2","980","980","0","[[1,0,0],[3,2],[0]]","1","[[2,3,0],[0,0],[1]]","11","0","","","","","","4","","","","","","","","",""
"","","","","","single-stim-button","215","1001585","0.0-2.0-43.1-0.1","628f827eeb876ed2617881e7","E1","batch5","","1913","tol_tohand","","","","tol_peg_1","1913","1913","0","[[0,0,0],[3,2],[0]]","2","[[2,3,0],[0,0],[1]]","11","0","","","","","","4","","","","","","","","",""
"","","","","","single-stim-button","216","1002970","0.0-2.0-43.1-1.1","628f827eeb876ed2617881e7","E1","batch5","","1383","tol_toboard","","","","tol_peg_3","1383","1383","0","[[0,0,0],[3,2],[1]]","2","[[2,3,0],[0,0],[1]]","11","0","","","","","","4","","","","","","","","",""
"","","","","","single-stim-button","217","1004021","0.0-2.0-43.2-0.2","628f827eeb876ed2617881e7","E1","batch5","","1049","tol_tohand","","","","tol_peg_2","1049","1049","0","[[0,0,0],[3,0],[1]]","3","[[2,3,0],[0,0],[1]]","11","0","","","","","","4","","","","","","","","",""
"","","","","","single-stim-button","218","1005694","0.0-2.0-43.2-1.2","628f827eeb876ed2617881e7","E1","batch5","","1672","tol_toboard","","","","tol_peg_1","1672","1672","0","[[2,0,0],[3,0],[1]]","3","[[2,3,0],[0,0],[1]]","11","0","","","","","","4","","","","","","","","",""
"","","","","","single-stim-button","219","1006713","0.0-2.0-43.3-0.3","628f827eeb876ed2617881e7","E1","batch5","","1017","tol_tohand","","","","tol_peg_2","1017","1017","0","[[2,0,0],[0,0],[1]]","4","[[2,3,0],[0,0],[1]]","11","0","","","","","","4","","","","","","","","",""
"","","","","","single-stim-button","220","1007656","0.0-2.0-43.3-1.3","628f827eeb876ed2617881e7","E1","batch5","","942","tol_toboard","","","","tol_peg_1","942","942","0","[[2,3,0],[0,0],[1]]","4","[[2,3,0],[0,0],[1]]","11","0","","","","","","4","","","","","","","","",""
"","","","","","poldrack-single-stim","221","1008664","0.0-2.0-44.0","628f827eeb876ed2617881e7","E1","batch5","","-1","tol_feedback","","","true","","1000","1000","500","","","","","","-1","none","true","5578","9557","","","","","","","","","",""
"","","","","","html-button-response","222","1009791","0.0-2.0-45.0","628f827eeb876ed2617881e7","E1","batch5","","1125.1000000238419","tol_trial_num","<div class = centerbox><p class = center-block-text>problem <strong>13</strong> out of 25 problems</p></div>","0","","","","","","","","","","","","","","","","","","","","","","","","",""
"","","","","","single-stim-button","223","1019412","0.0-2.0-46.0-0.0","628f827eeb876ed2617881e7","E1","batch5","","9618","tol_tohand","","","","tol_peg_2","9618","9618","0","[[1,2,0],[0,0],[0]]","1","[[0,0,0],[2,3],[1]]","12","0","","","","","","4","","","","","","","","",""
"","","","","","single-stim-button","224","1020518","0.0-2.0-46.0-1.0","628f827eeb876ed2617881e7","E1","batch5","","1105","tol_toboard","","","","tol_peg_3","1105","1105","0","[[1,2,0],[0,0],[3]]","1","[[0,0,0],[2,3],[1]]","12","0","","","","","","4","","","","","","","","",""
"","","","","","single-stim-button","225","1021481","0.0-2.0-46.1-0.1","628f827eeb876ed2617881e7","E1","batch5","","960","tol_tohand","","","","tol_peg_1","960","960","0","[[1,0,0],[0,0],[3]]","2","[[0,0,0],[2,3],[1]]","12","0","","","","","","4","","","","","","","","",""
"","","","","","single-stim-button","226","1022741","0.0-2.0-46.1-1.1","628f827eeb876ed2617881e7","E1","batch5","","1259","tol_toboard","","","","tol_peg_2","1259","1259","0","[[1,0,0],[2,0],[3]]","2","[[0,0,0],[2,3],[1]]","12","0","","","","","","4","","","","","","","","",""
"","","","","","single-stim-button","227","1023501","0.0-2.0-46.2-0.2","628f827eeb876ed2617881e7","E1","batch5","","759","tol_tohand","","","","tol_peg_3","759","759","0","[[1,0,0],[2,0],[0]]","3","[[0,0,0],[2,3],[1]]","12","0","","","","","","4","","","","","","","","",""
"","","","","","single-stim-button","228","1024982","0.0-2.0-46.2-1.2","628f827eeb876ed2617881e7","E1","batch5","","1480","tol_toboard","","","","tol_peg_2","1480","1480","0","[[1,0,0],[2,3],[0]]","3","[[0,0,0],[2,3],[1]]","12","0","","","","","","4","","","","","","","","",""
"","","","","","single-stim-button","229","1027484","0.0-2.0-46.3-0.3","628f827eeb876ed2617881e7","E1","batch5","","2500","tol_tohand","","","","tol_peg_1","2500","2500","0","[[0,0,0],[2,3],[0]]","4","[[0,0,0],[2,3],[1]]","12","0","","","","","","4","","","","","","","","",""
"","","","","","single-stim-button","230","1029139","0.0-2.0-46.3-1.3","628f827eeb876ed2617881e7","E1","batch5","","1653","tol_toboard","","","","tol_peg_3","1653","1653","0","[[0,0,0],[2,3],[1]]","4","[[0,0,0],[2,3],[1]]","12","0","","","","","","4","","","","","","","","",""
"","","","","","poldrack-single-stim","231","1030145","0.0-2.0-47.0","628f827eeb876ed2617881e7","E1","batch5","","-1","tol_feedback","","","true","","1000","1000","500","","","","","","-1","none","true","9618","13837","","","","","","","","","",""
"","","","","","html-button-response","232","1034103","0.0-2.0-48.0","628f827eeb876ed2617881e7","E1","batch5","","3956.5","attention_check","<p class = block-text>How many balls are in your board<br></p>","1","true","","","","","","","","","","","","","","","","","","","","","","","",""
"","","","","","html-button-response","233","1035488","0.0-2.0-49.0","628f827eeb876ed2617881e7","E1","batch5","","1382.8999999761581","tol_trial_num","<div class = centerbox><p class = center-block-text>problem <strong>14</strong> out of 25 problems</p></div>","0","","","","","","","","","","","","","","","","","","","","","","","","",""
"","","","","","single-stim-button","234","1041183","0.0-2.0-50.0-0.0","628f827eeb876ed2617881e7","E1","batch5","","5693","tol_tohand","","","","tol_peg_1","5693","5693","0","[[2,0,0],[3,0],[0]]","1","[[1,2,0],[3,0],[0]]","13","0","","","","","","4","","","","","","","","",""
"","","","","","single-stim-button","235","1044107","0.0-2.0-50.0-1.0","628f827eeb876ed2617881e7","E1","batch5","","2922","tol_toboard","","","","tol_peg_2","2922","2922","0","[[2,0,0],[3,1],[0]]","1","[[1,2,0],[3,0],[0]]","13","0","","","","","","4","","","","","","","","",""
"","","","","","single-stim-button","236","1045069","0.0-2.0-50.1-0.1","628f827eeb876ed2617881e7","E1","batch5","","960","tol_tohand","","","","tol_peg_1","960","960","0","[[0,0,0],[3,1],[0]]","2","[[1,2,0],[3,0],[0]]","13","0","","","","","","4","","","","","","","","",""
"","","","","","single-stim-button","237","1046146","0.0-2.0-50.1-1.1","628f827eeb876ed2617881e7","E1","batch5","","1077","tol_toboard","","","","tol_peg_3","1077","1077","0","[[0,0,0],[3,1],[2]]","2","[[1,2,0],[3,0],[0]]","13","0","","","","","","4","","","","","","","","",""
"","","","","","single-stim-button","238","1047724","0.0-2.0-50.2-0.2","628f827eeb876ed2617881e7","E1","batch5","","1576","tol_tohand","","","","tol_peg_2","1576","1576","0","[[0,0,0],[3,0],[2]]","3","[[1,2,0],[3,0],[0]]","13","0","","","","","","4","","","","","","","","",""
"","","","","","single-stim-button","239","1049273","0.0-2.0-50.2-1.2","628f827eeb876ed2617881e7","E1","batch5","","1548","tol_toboard","","","","tol_peg_1","1548","1548","0","[[1,0,0],[3,0],[2]]","3","[[1,2,0],[3,0],[0]]","13","0","","","","","","4","","","","","","","","",""
"","","","","","single-stim-button","240","1050379","0.0-2.0-50.3-0.3","628f827eeb876ed2617881e7","E1","batch5","","1105","tol_tohand","","","","tol_peg_3","1105","1105","0","[[1,0,0],[3,0],[0]]","4","[[1,2,0],[3,0],[0]]","13","0","","","","","","4","","","","","","","","",""
"","","","","","single-stim-button","241","1051447","0.0-2.0-50.3-1.3","628f827eeb876ed2617881e7","E1","batch5","","1066","tol_toboard","","","","tol_peg_1","1066","1066","0","[[1,2,0],[3,0],[0]]","4","[[1,2,0],[3,0],[0]]","13","0","","","","","","4","","","","","","","","",""
"","","","","","poldrack-single-stim","242","1052456","0.0-2.0-51.0","628f827eeb876ed2617881e7","E1","batch5","","-1","tol_feedback","","","true","","1000","1000","500","","","","","","-1","none","true","5693","9334","","","","","","","","","",""
"","","","","","html-button-response","243","1054324","0.0-2.0-52.0","628f827eeb876ed2617881e7","E1","batch5","","1865.6999999284744","tol_trial_num","<div class = centerbox><p class = center-block-text>problem <strong>15</strong> out of 25 problems</p></div>","0","","","","","","","","","","","","","","","","","","","","","","","","",""
"","","","","","single-stim-button","244","1059308","0.0-2.0-53.0-0.0","628f827eeb876ed2617881e7","E1","batch5","","4982","tol_tohand","","","","tol_peg_1","4982","4982","0","[[1,0,0],[3,0],[0]]","1","[[2,0,0],[3,0],[1]]","14","0","","","","","","3","","","","","","","","",""
"","","","","","single-stim-button","245","1060578","0.0-2.0-53.0-1.0","628f827eeb876ed2617881e7","E1","batch5","","1268","tol_toboard","","","","tol_peg_2","1268","1268","0","[[1,0,0],[3,2],[0]]","1","[[2,0,0],[3,0],[1]]","14","0","","","","","","3","","","","","","","","",""
"","","","","","single-stim-button","246","1061550","0.0-2.0-53.1-0.1","628f827eeb876ed2617881e7","E1","batch5","","970","tol_tohand","","","","tol_peg_1","970","970","0","[[0,0,0],[3,2],[0]]","2","[[2,0,0],[3,0],[1]]","14","0","","","","","","3","","","","","","","","",""
"","","","","","single-stim-button","247","1062859","0.0-2.0-53.1-1.1","628f827eeb876ed2617881e7","E1","batch5","","1308","tol_toboard","","","","tol_peg_3","1308","1308","0","[[0,0,0],[3,2],[1]]","2","[[2,0,0],[3,0],[1]]","14","0","","","","","","3","","","","","","","","",""
"","","","","","single-stim-button","248","1063822","0.0-2.0-53.2-0.2","628f827eeb876ed2617881e7","E1","batch5","","959","tol_tohand","","","","tol_peg_2","959","959","0","[[0,0,0],[3,0],[1]]","3","[[2,0,0],[3,0],[1]]","14","0","","","","","","3","","","","","","","","",""
"","","","","","single-stim-button","249","1065130","0.0-2.0-53.2-1.2","628f827eeb876ed2617881e7","E1","batch5","","1308","tol_toboard","","","","tol_peg_1","1308","1308","0","[[2,0,0],[3,0],[1]]","3","[[2,0,0],[3,0],[1]]","14","0","","","","","","3","","","","","","","","",""
"","","","","","poldrack-single-stim","250","1066137","0.0-2.0-54.0","628f827eeb876ed2617881e7","E1","batch5","","-1","tol_feedback","","","true","","1000","1000","500","","","","","","-1","none","true","4982","6911","","","","","","","","","",""
"","","","","","html-button-response","251","1068422","0.0-2.0-55.0","628f827eeb876ed2617881e7","E1","batch5","","2282.5","tol_trial_num","<div class = centerbox><p class = center-block-text>problem <strong>16</strong> out of 25 problems</p></div>","0","","","","","","","","","","","","","","","","","","","","","","","","",""
"","","","","","single-stim-button","252","1092280","0.0-2.0-56.0-0.0","628f827eeb876ed2617881e7","E1","batch5","","23856","tol_tohand","","","","tol_peg_3","23856","23856","0","[[0,0,0],[2,3],[0]]","1","[[2,3,0],[1,0],[0]]","15","0","","","","","","7","","","","","","","","",""
"","","","","","single-stim-button","253","1093954","0.0-2.0-56.0-1.0","628f827eeb876ed2617881e7","E1","batch5","","1673","tol_toboard","","","","tol_peg_1","1673","1673","0","[[1,0,0],[2,3],[0]]","1","[[2,3,0],[1,0],[0]]","15","0","","","","","","7","","","","","","","","",""
"","","","","","single-stim-button","254","1094714","0.0-2.0-56.1-0.1","628f827eeb876ed2617881e7","E1","batch5","","759","tol_tohand","","","","tol_peg_2","759","759","0","[[1,0,0],[2,0],[0]]","2","[[2,3,0],[1,0],[0]]","15","0","","","","","","7","","","","","","","","",""
"","","","","","single-stim-button","255","1095735","0.0-2.0-56.1-1.1","628f827eeb876ed2617881e7","E1","batch5","","1019","tol_toboard","","","","tol_peg_3","1019","1019","0","[[1,0,0],[2,0],[3]]","2","[[2,3,0],[1,0],[0]]","15","0","","","","","","7","","","","","","","","",""
"","","","","","single-stim-button","256","1113191","0.0-2.0-56.2-0.2","628f827eeb876ed2617881e7","E1","batch5","","17456","tol_tohand","","","","tol_peg_3","17456","17456","0","[[1,0,0],[2,0],[0]]","3","[[2,3,0],[1,0],[0]]","15","0","","","","","","7","","","","","","","","",""
"","","","","","single-stim-button","257","1114144","0.0-2.0-56.2-1.2","628f827eeb876ed2617881e7","E1","batch5","","951","tol_toboard","","","","tol_peg_2","951","951","0","[[1,0,0],[2,3],[0]]","3","[[2,3,0],[1,0],[0]]","15","0","","","","","","7","","","","","","","","",""
"","","","","","single-stim-button","258","1115174","0.0-2.0-56.3-0.3","628f827eeb876ed2617881e7","E1","batch5","","1028","tol_tohand","","","","tol_peg_1","1028","1028","0","[[0,0,0],[2,3],[0]]","4","[[2,3,0],[1,0],[0]]","15","0","","","","","","7","","","","","","","","",""
"","","","","","single-stim-button","259","1116925","0.0-2.0-56.3-1.3","628f827eeb876ed2617881e7","E1","batch5","","1750","tol_toboard","","","","tol_peg_3","1750","1750","0","[[0,0,0],[2,3],[1]]","4","[[2,3,0],[1,0],[0]]","15","0","","","","","","7","","","","","","","","",""
"","","","","","single-stim-button","260","1125136","0.0-2.0-56.4-0.4","628f827eeb876ed2617881e7","E1","batch5","","8209","tol_tohand","","","","tol_peg_3","8209","8209","0","[[0,0,0],[2,3],[0]]","5","[[2,3,0],[1,0],[0]]","15","0","","","","","","7","","","","","","","","",""
"","","","","","single-stim-button","261","1127369","0.0-2.0-56.4-1.4","628f827eeb876ed2617881e7","E1","batch5","","2231","tol_toboard","","","","tol_peg_1","2231","2231","0","[[1,0,0],[2,3],[0]]","5","[[2,3,0],[1,0],[0]]","15","0","","","","","","7","","","","","","","","",""
"","","","","","single-stim-button","262","1128861","0.0-2.0-56.5-0.5","628f827eeb876ed2617881e7","E1","batch5","","1490","tol_tohand","","","","tol_peg_2","1490","1490","0","[[1,0,0],[2,0],[0]]","6","[[2,3,0],[1,0],[0]]","15","0","","","","","","7","","","","","","","","",""
"","","","","","single-stim-button","263","1130016","0.0-2.0-56.5-1.5","628f827eeb876ed2617881e7","E1","batch5","","1153","tol_toboard","","","","tol_peg_3","1153","1153","0","[[1,0,0],[2,0],[3]]","6","[[2,3,0],[1,0],[0]]","15","0","","","","","","7","","","","","","","","",""
"","","","","","single-stim-button","264","1132480","0.0-2.0-56.6-0.6","628f827eeb876ed2617881e7","E1","batch5","","2462","tol_tohand","","","","tol_peg_1","2462","2462","0","[[0,0,0],[2,0],[3]]","7","[[2,3,0],[1,0],[0]]","15","0","","","","","","7","","","","","","","","",""
"","","","","","single-stim-button","265","1133617","0.0-2.0-56.6-1.6","628f827eeb876ed2617881e7","E1","batch5","","1134","tol_toboard","","","","tol_peg_2","1134","1134","0","[[0,0,0],[2,1],[3]]","7","[[2,3,0],[1,0],[0]]","15","0","","","","","","7","","","","","","","","",""
"","","","","","single-stim-button","266","1136696","0.0-2.0-56.7-0.7","628f827eeb876ed2617881e7","E1","batch5","","3078","tol_tohand","","","","tol_peg_2","3078","3078","0","[[0,0,0],[2,0],[3]]","8","[[2,3,0],[1,0],[0]]","15","0","","","","","","7","","","","","","","","",""
"","","","","","single-stim-button","267","1138381","0.0-2.0-56.7-1.7","628f827eeb876ed2617881e7","E1","batch5","","1684","tol_toboard","","","","tol_peg_1","1684","1684","0","[[1,0,0],[2,0],[3]]","8","[[2,3,0],[1,0],[0]]","15","0","","","","","","7","","","","","","","","",""
"","","","","","single-stim-button","268","1139371","0.0-2.0-56.8-0.8","628f827eeb876ed2617881e7","E1","batch5","","989","tol_tohand","","","","tol_peg_2","989","989","0","[[1,0,0],[0,0],[3]]","9","[[2,3,0],[1,0],[0]]","15","0","","","","","","7","","","","","","","","",""
"","","","","","single-stim-button","269","1147357","0.0-2.0-56.8-1.8","628f827eeb876ed2617881e7","E1","batch5","","7984","tol_toboard","","","","tol_peg_1","7984","7984","0","[[1,2,0],[0,0],[3]]","9","[[2,3,0],[1,0],[0]]","15","0","","","","","","7","","","","","","","","",""
"","","","","","single-stim-button","270","1148656","0.0-2.0-56.9-0.9","628f827eeb876ed2617881e7","E1","batch5","","1297","tol_tohand","","","","tol_peg_3","1297","1297","0","[[1,2,0],[0,0],[0]]","10","[[2,3,0],[1,0],[0]]","15","0","","","","","","7","","","","","","","","",""
"","","","","","single-stim-button","271","1149686","0.0-2.0-56.9-1.9","628f827eeb876ed2617881e7","E1","batch5","","1028","tol_toboard","","","","tol_peg_2","1028","1028","0","[[1,2,0],[3,0],[0]]","10","[[2,3,0],[1,0],[0]]","15","0","","","","","","7","","","","","","","","",""
"","","","","","single-stim-button","272","1151620","0.0-2.0-56.10-0.10","628f827eeb876ed2617881e7","E1","batch5","","1934","tol_tohand","","","","tol_peg_1","1934","1934","0","[[1,0,0],[3,0],[0]]","11","[[2,3,0],[1,0],[0]]","15","0","","","","","","7","","","","","","","","",""
"","","","","","single-stim-button","273","1152524","0.0-2.0-56.10-1.10","628f827eeb876ed2617881e7","E1","batch5","","902","tol_toboard","","","","tol_peg_2","902","902","0","[[1,0,0],[3,2],[0]]","11","[[2,3,0],[1,0],[0]]","15","0","","","","","","7","","","","","","","","",""
"","","","","","single-stim-button","274","1153842","0.0-2.0-56.11-0.11","628f827eeb876ed2617881e7","E1","batch5","","1317","tol_tohand","","","","tol_peg_1","1317","1317","0","[[0,0,0],[3,2],[0]]","12","[[2,3,0],[1,0],[0]]","15","0","","","","","","7","","","","","","","","",""
"","","","","","single-stim-button","275","1155439","0.0-2.0-56.11-1.11","628f827eeb876ed2617881e7","E1","batch5","","1595","tol_toboard","","","","tol_peg_3","1595","1595","0","[[0,0,0],[3,2],[1]]","12","[[2,3,0],[1,0],[0]]","15","0","","","","","","7","","","","","","","","",""
"","","","","","single-stim-button","276","1156190","0.0-2.0-56.12-0.12","628f827eeb876ed2617881e7","E1","batch5","","749","tol_tohand","","","","tol_peg_2","749","749","0","[[0,0,0],[3,0],[1]]","13","[[2,3,0],[1,0],[0]]","15","0","","","","","","7","","","","","","","","",""
"","","","","","single-stim-button","277","1157806","0.0-2.0-56.12-1.12","628f827eeb876ed2617881e7","E1","batch5","","1614","tol_toboard","","","","tol_peg_1","1614","1614","0","[[2,0,0],[3,0],[1]]","13","[[2,3,0],[1,0],[0]]","15","0","","","","","","7","","","","","","","","",""
"","","","","","single-stim-button","278","1158537","0.0-2.0-56.13-0.13","628f827eeb876ed2617881e7","E1","batch5","","730","tol_tohand","","","","tol_peg_2","730","730","0","[[2,0,0],[0,0],[1]]","14","[[2,3,0],[1,0],[0]]","15","0","","","","","","7","","","","","","","","",""
"","","","","","single-stim-button","279","1160000","0.0-2.0-56.13-1.13","628f827eeb876ed2617881e7","E1","batch5","","1461","tol_toboard","","","","tol_peg_1","1461","1461","0","[[2,3,0],[0,0],[1]]","14","[[2,3,0],[1,0],[0]]","15","0","","","","","","7","","","","","","","","",""
"","","","","","single-stim-button","280","1161020","0.0-2.0-56.14-0.14","628f827eeb876ed2617881e7","E1","batch5","","1019","tol_tohand","","","","tol_peg_3","1019","1019","0","[[2,3,0],[0,0],[0]]","15","[[2,3,0],[1,0],[0]]","15","0","","","","","","7","","","","","","","","",""
"","","","","","single-stim-button","281","1162126","0.0-2.0-56.14-1.14","628f827eeb876ed2617881e7","E1","batch5","","1105","tol_toboard","","","","tol_peg_2","1105","1105","0","[[2,3,0],[1,0],[0]]","15","[[2,3,0],[1,0],[0]]","15","0","","","","","","7","","","","","","","","",""
"","","","","","poldrack-single-stim","282","1163129","0.0-2.0-57.0","628f827eeb876ed2617881e7","E1","batch5","","-1","tol_feedback","","","true","","1000","1000","500","","","","","","-1","none","true","23856","66373","","","","","","","","","",""
"","","","","","html-button-response","283","1164291","0.0-2.0-58.0","628f827eeb876ed2617881e7","E1","batch5","","1160.2000000476837","tol_trial_num","<div class = centerbox><p class = center-block-text>problem <strong>17</strong> out of 25 problems</p></div>","0","","","","","","","","","","","","","","","","","","","","","","","","",""
"","","","","","single-stim-button","284","1189123","0.0-2.0-59.0-0.0","628f827eeb876ed2617881e7","E1","batch5","","24831","tol_tohand","","","","tol_peg_1","24831","24831","0","[[1,0,0],[3,0],[0]]","1","[[3,1,0],[2,0],[0]]","16","0","","","","","","5","","","","","","","","",""
"","","","","","single-stim-button","285","1191490","0.0-2.0-59.0-1.0","628f827eeb876ed2617881e7","E1","batch5","","2365","tol_toboard","","","","tol_peg_3","2365","2365","0","[[1,0,0],[3,0],[2]]","1","[[3,1,0],[2,0],[0]]","16","0","","","","","","5","","","","","","","","",""
"","","","","","single-stim-button","286","1194935","0.0-2.0-59.1-0.1","628f827eeb876ed2617881e7","E1","batch5","","3443","tol_tohand","","","","tol_peg_3","3443","3443","0","[[1,0,0],[3,0],[0]]","2","[[3,1,0],[2,0],[0]]","16","0","","","","","","5","","","","","","","","",""
"","","","","","single-stim-button","287","1195849","0.0-2.0-59.1-1.1","628f827eeb876ed2617881e7","E1","batch5","","913","tol_toboard","","","","tol_peg_2","913","913","0","[[1,0,0],[3,2],[0]]","2","[[3,1,0],[2,0],[0]]","16","0","","","","","","5","","","","","","","","",""
"","","","","","single-stim-button","288","1197446","0.0-2.0-59.2-0.2","628f827eeb876ed2617881e7","E1","batch5","","1595","tol_tohand","","","","tol_peg_1","1595","1595","0","[[0,0,0],[3,2],[0]]","3","[[3,1,0],[2,0],[0]]","16","0","","","","","","5","","","","","","","","",""
"","","","","","single-stim-button","289","1200815","0.0-2.0-59.2-1.2","628f827eeb876ed2617881e7","E1","batch5","","3367","tol_toboard","","","","tol_peg_3","3367","3367","0","[[0,0,0],[3,2],[1]]","3","[[3,1,0],[2,0],[0]]","16","0","","","","","","5","","","","","","","","",""
"","","","","","single-stim-button","290","1205914","0.0-2.0-59.3-0.3","628f827eeb876ed2617881e7","E1","batch5","","5099","tol_tohand","","","","tol_peg_3","5099","5099","0","[[0,0,0],[3,2],[0]]","4","[[3,1,0],[2,0],[0]]","16","0","","","","","","5","","","","","","","","",""
"","","","","","single-stim-button","291","1207088","0.0-2.0-59.3-1.3","628f827eeb876ed2617881e7","E1","batch5","","1172","tol_toboard","","","","tol_peg_1","1172","1172","0","[[1,0,0],[3,2],[0]]","4","[[3,1,0],[2,0],[0]]","16","0","","","","","","5","","","","","","","","",""
"","","","","","single-stim-button","292","1208549","0.0-2.0-59.4-0.4","628f827eeb876ed2617881e7","E1","batch5","","1459","tol_tohand","","","","tol_peg_2","1459","1459","0","[[1,0,0],[3,0],[0]]","5","[[3,1,0],[2,0],[0]]","16","0","","","","","","5","","","","","","","","",""
"","","","","","single-stim-button","293","1214031","0.0-2.0-59.4-1.4","628f827eeb876ed2617881e7","E1","batch5","","5480","tol_toboard","","","","tol_peg_3","5480","5480","0","[[1,0,0],[3,0],[2]]","5","[[3,1,0],[2,0],[0]]","16","0","","","","","","5","","","","","","","","",""
"","","","","","single-stim-button","294","1216080","0.0-2.0-59.5-0.5","628f827eeb876ed2617881e7","E1","batch5","","2047","tol_tohand","","","","tol_peg_2","2047","2047","0","[[1,0,0],[0,0],[2]]","6","[[3,1,0],[2,0],[0]]","16","0","","","","","","5","","","","","","","","",""
"","","","","","single-stim-button","295","1217609","0.0-2.0-59.5-1.5","628f827eeb876ed2617881e7","E1","batch5","","1523","tol_toboard","","","","tol_peg_1","1523","1523","0","[[1,3,0],[0,0],[2]]","6","[[3,1,0],[2,0],[0]]","16","0","","","","","","5","","","","","","","","",""
"","","","","","single-stim-button","296","1218946","0.0-2.0-59.6-0.6","628f827eeb876ed2617881e7","E1","batch5","","1335","tol_tohand","","","","tol_peg_3","1335","1335","0","[[1,3,0],[0,0],[0]]","7","[[3,1,0],[2,0],[0]]","16","0","","","","","","5","","","","","","","","",""
"","","","","","single-stim-button","297","1219975","0.0-2.0-59.6-1.6","628f827eeb876ed2617881e7","E1","batch5","","1028","tol_toboard","","","","tol_peg_2","1028","1028","0","[[1,3,0],[2,0],[0]]","7","[[3,1,0],[2,0],[0]]","16","0","","","","","","5","","","","","","","","",""
"","","","","","single-stim-button","298","1220937","0.0-2.0-59.7-0.7","628f827eeb876ed2617881e7","E1","batch5","","961","tol_tohand","","","","tol_peg_1","961","961","0","[[1,0,0],[2,0],[0]]","8","[[3,1,0],[2,0],[0]]","16","0","","","","","","5","","","","","","","","",""
"","","","","","single-stim-button","299","1222380","0.0-2.0-59.7-1.7","628f827eeb876ed2617881e7","E1","batch5","","1442","tol_toboard","","","","tol_peg_3","1442","1442","0","[[1,0,0],[2,0],[3]]","8","[[3,1,0],[2,0],[0]]","16","0","","","","","","5","","","","","","","","",""
"","","","","","single-stim-button","300","1223409","0.0-2.0-59.8-0.8","628f827eeb876ed2617881e7","E1","batch5","","1027","tol_tohand","","","","tol_peg_1","1027","1027","0","[[0,0,0],[2,0],[3]]","9","[[3,1,0],[2,0],[0]]","16","0","","","","","","5","","","","","","","","",""
"","","","","","single-stim-button","301","1224986","0.0-2.0-59.8-1.8","628f827eeb876ed2617881e7","E1","batch5","","1576","tol_toboard","","","","tol_peg_2","1576","1576","0","[[0,0,0],[2,1],[3]]","9","[[3,1,0],[2,0],[0]]","16","0","","","","","","5","","","","","","","","",""
"","","","","","single-stim-button","302","1226487","0.0-2.0-59.9-0.9","628f827eeb876ed2617881e7","E1","batch5","","1499","tol_tohand","","","","tol_peg_3","1499","1499","0","[[0,0,0],[2,1],[0]]","10","[[3,1,0],[2,0],[0]]","16","0","","","","","","5","","","","","","","","",""
"","","","","","single-stim-button","303","1227555","0.0-2.0-59.9-1.9","628f827eeb876ed2617881e7","E1","batch5","","1066","tol_toboard","","","","tol_peg_1","1066","1066","0","[[3,0,0],[2,1],[0]]","10","[[3,1,0],[2,0],[0]]","16","0","","","","","","5","","","","","","","","",""
"","","","","","single-stim-button","304","1228497","0.0-2.0-59.10-0.10","628f827eeb876ed2617881e7","E1","batch5","","941","tol_tohand","","","","tol_peg_2","941","941","0","[[3,0,0],[2,0],[0]]","11","[[3,1,0],[2,0],[0]]","16","0","","","","","","5","","","","","","","","",""
"","","","","","single-stim-button","305","1229411","0.0-2.0-59.10-1.10","628f827eeb876ed2617881e7","E1","batch5","","913","tol_toboard","","","","tol_peg_1","913","913","0","[[3,1,0],[2,0],[0]]","11","[[3,1,0],[2,0],[0]]","16","0","","","","","","5","","","","","","","","",""
"","","","","","poldrack-single-stim","306","1230416","0.0-2.0-60.0","628f827eeb876ed2617881e7","E1","batch5","","-1","tol_feedback","","","true","","1000","1000","500","","","","","","-1","none","true","24831","44237","","","","","","","","","",""
"","","","","","html-button-response","307","1231605","0.0-2.0-61.0","628f827eeb876ed2617881e7","E1","batch5","","1187.1000000238419","tol_trial_num","<div class = centerbox><p class = center-block-text>problem <strong>18</strong> out of 25 problems</p></div>","0","","","","","","","","","","","","","","","","","","","","","","","","",""
"","","","","","single-stim-button","308","1238811","0.0-2.0-62.0-0.0","628f827eeb876ed2617881e7","E1","batch5","","7204","tol_tohand","","","","tol_peg_2","7204","7204","0","[[1,2,0],[0,0],[0]]","1","[[3,0,0],[2,0],[1]]","17","0","","","","","","5","","","","","","","","",""
"","","","","","single-stim-button","309","1240341","0.0-2.0-62.0-1.0","628f827eeb876ed2617881e7","E1","batch5","","1528","tol_toboard","","","","tol_peg_3","1528","1528","0","[[1,2,0],[0,0],[3]]","1","[[3,0,0],[2,0],[1]]","17","0","","","","","","5","","","","","","","","",""
"","","","","","single-stim-button","310","1261972","0.0-2.0-62.1-0.1","628f827eeb876ed2617881e7","E1","batch5","","21629","tol_tohand","","","","tol_peg_1","21629","21629","0","[[1,0,0],[0,0],[3]]","2","[[3,0,0],[2,0],[1]]","17","0","","","","","","5","","","","","","","","",""
"","","","","","single-stim-button","311","1263492","0.0-2.0-62.1-1.1","628f827eeb876ed2617881e7","E1","batch5","","1518","tol_toboard","","","","tol_peg_2","1518","1518","0","[[1,0,0],[2,0],[3]]","2","[[3,0,0],[2,0],[1]]","17","0","","","","","","5","","","","","","","","",""
"","","","","","single-stim-button","312","1266973","0.0-2.0-62.2-0.2","628f827eeb876ed2617881e7","E1","batch5","","3479","tol_tohand","","","","tol_peg_3","3479","3479","0","[[1,0,0],[2,0],[0]]","3","[[3,0,0],[2,0],[1]]","17","0","","","","","","5","","","","","","","","",""
"","","","","","single-stim-button","313","1268233","0.0-2.0-62.2-1.2","628f827eeb876ed2617881e7","E1","batch5","","1259","tol_toboard","","","","tol_peg_2","1259","1259","0","[[1,0,0],[2,3],[0]]","3","[[3,0,0],[2,0],[1]]","17","0","","","","","","5","","","","","","","","",""
"","","","","","single-stim-button","314","1270157","0.0-2.0-62.3-0.3","628f827eeb876ed2617881e7","E1","batch5","","1922","tol_tohand","","","","tol_peg_1","1922","1922","0","[[0,0,0],[2,3],[0]]","4","[[3,0,0],[2,0],[1]]","17","0","","","","","","5","","","","","","","","",""
"","","","","","single-stim-button","315","1271397","0.0-2.0-62.3-1.3","628f827eeb876ed2617881e7","E1","batch5","","1239","tol_toboard","","","","tol_peg_3","1239","1239","0","[[0,0,0],[2,3],[1]]","4","[[3,0,0],[2,0],[1]]","17","0","","","","","","5","","","","","","","","",""
"","","","","","single-stim-button","316","1272233","0.0-2.0-62.4-0.4","628f827eeb876ed2617881e7","E1","batch5","","835","tol_tohand","","","","tol_peg_2","835","835","0","[[0,0,0],[2,0],[1]]","5","[[3,0,0],[2,0],[1]]","17","0","","","","","","5","","","","","","","","",""
"","","","","","single-stim-button","317","1273263","0.0-2.0-62.4-1.4","628f827eeb876ed2617881e7","E1","batch5","","1028","tol_toboard","","","","tol_peg_1","1028","1028","0","[[3,0,0],[2,0],[1]]","5","[[3,0,0],[2,0],[1]]","17","0","","","","","","5","","","","","","","","",""
"","","","","","poldrack-single-stim","318","1274273","0.0-2.0-63.0","628f827eeb876ed2617881e7","E1","batch5","","-1","tol_feedback","","","true","","1000","1000","500","","","","","","-1","none","true","7204","35069","","","","","","","","","",""
"","","","","","html-button-response","319","1275484","0.0-2.0-64.0","628f827eeb876ed2617881e7","E1","batch5","","1209.5","tol_trial_num","<div class = centerbox><p class = center-block-text>problem <strong>19</strong> out of 25 problems</p></div>","0","","","","","","","","","","","","","","","","","","","","","","","","",""
"","","","","","single-stim-button","320","1279861","0.0-2.0-65.0-0.0","628f827eeb876ed2617881e7","E1","batch5","","4374","tol_tohand","","","","tol_peg_2","4374","4374","0","[[1,2,0],[0,0],[0]]","1","[[0,0,0],[1,2],[3]]","18","0","","","","","","7","","","","","","","","",""
"","","","","","single-stim-button","321","1280697","0.0-2.0-65.0-1.0","628f827eeb876ed2617881e7","E1","batch5","","835","tol_toboard","","","","tol_peg_3","835","835","0","[[1,2,0],[0,0],[3]]","1","[[0,0,0],[1,2],[3]]","18","0","","","","","","7","","","","","","","","",""
"","","","","","single-stim-button","322","1288391","0.0-2.0-65.1-0.1","628f827eeb876ed2617881e7","E1","batch5","","7693","tol_tohand","","","","tol_peg_1","7693","7693","0","[[1,0,0],[0,0],[3]]","2","[[0,0,0],[1,2],[3]]","18","0","","","","","","7","","","","","","","","",""
"","","","","","single-stim-button","323","1289421","0.0-2.0-65.1-1.1","628f827eeb876ed2617881e7","E1","batch5","","1028","tol_toboard","","","","tol_peg_2","1028","1028","0","[[1,0,0],[2,0],[3]]","2","[[0,0,0],[1,2],[3]]","18","0","","","","","","7","","","","","","","","",""
"","","","","","single-stim-button","324","1292653","0.0-2.0-65.2-0.2","628f827eeb876ed2617881e7","E1","batch5","","3231","tol_tohand","","","","tol_peg_3","3231","3231","0","[[1,0,0],[2,0],[0]]","3","[[0,0,0],[1,2],[3]]","18","0","","","","","","7","","","","","","","","",""
"","","","","","single-stim-button","325","1294394","0.0-2.0-65.2-1.2","628f827eeb876ed2617881e7","E1","batch5","","1740","tol_toboard","","","","tol_peg_2","1740","1740","0","[[1,0,0],[2,3],[0]]","3","[[0,0,0],[1,2],[3]]","18","0","","","","","","7","","","","","","","","",""
"","","","","","single-stim-button","326","1295519","0.0-2.0-65.3-0.3","628f827eeb876ed2617881e7","E1","batch5","","1124","tol_tohand","","","","tol_peg_1","1124","1124","0","[[0,0,0],[2,3],[0]]","4","[[0,0,0],[1,2],[3]]","18","0","","","","","","7","","","","","","","","",""
"","","","","","single-stim-button","327","1296981","0.0-2.0-65.3-1.3","628f827eeb876ed2617881e7","E1","batch5","","1460","tol_toboard","","","","tol_peg_3","1460","1460","0","[[0,0,0],[2,3],[1]]","4","[[0,0,0],[1,2],[3]]","18","0","","","","","","7","","","","","","","","",""
"","","","","","single-stim-button","328","1303674","0.0-2.0-65.4-0.4","628f827eeb876ed2617881e7","E1","batch5","","6692","tol_tohand","","","","tol_peg_2","6692","6692","0","[[0,0,0],[2,0],[1]]","5","[[0,0,0],[1,2],[3]]","18","0","","","","","","7","","","","","","","","",""
"","","","","","single-stim-button","329","1306367","0.0-2.0-65.4-1.4","628f827eeb876ed2617881e7","E1","batch5","","2691","tol_toboard","","","","tol_peg_1","2691","2691","0","[[3,0,0],[2,0],[1]]","5","[[0,0,0],[1,2],[3]]","18","0","","","","","","7","","","","","","","","",""
"","","","","","single-stim-button","330","1310473","0.0-2.0-65.5-0.5","628f827eeb876ed2617881e7","E1","batch5","","4106","tol_tohand","","","","tol_peg_2","4106","4106","0","[[3,0,0],[0,0],[1]]","6","[[0,0,0],[1,2],[3]]","18","0","","","","","","7","","","","","","","","",""
"","","","","","single-stim-button","331","1311455","0.0-2.0-65.5-1.5","628f827eeb876ed2617881e7","E1","batch5","","980","tol_toboard","","","","tol_peg_1","980","980","0","[[3,2,0],[0,0],[1]]","6","[[0,0,0],[1,2],[3]]","18","0","","","","","","7","","","","","","","","",""
"","","","","","single-stim-button","332","1312455","0.0-2.0-65.6-0.6","628f827eeb876ed2617881e7","E1","batch5","","999","tol_tohand","","","","tol_peg_3","999","999","0","[[3,2,0],[0,0],[0]]","7","[[0,0,0],[1,2],[3]]","18","0","","","","","","7","","","","","","","","",""
"","","","","","single-stim-button","333","1313696","0.0-2.0-65.6-1.6","628f827eeb876ed2617881e7","E1","batch5","","1240","tol_toboard","","","","tol_peg_2","1240","1240","0","[[3,2,0],[1,0],[0]]","7","[[0,0,0],[1,2],[3]]","18","0","","","","","","7","","","","","","","","",""
"","","","","","single-stim-button","334","1314600","0.0-2.0-65.7-0.7","628f827eeb876ed2617881e7","E1","batch5","","902","tol_tohand","","","","tol_peg_1","902","902","0","[[3,0,0],[1,0],[0]]","8","[[0,0,0],[1,2],[3]]","18","0","","","","","","7","","","","","","","","",""
"","","","","","single-stim-button","335","1315552","0.0-2.0-65.7-1.7","628f827eeb876ed2617881e7","E1","batch5","","951","tol_toboard","","","","tol_peg_2","951","951","0","[[3,0,0],[1,2],[0]]","8","[[0,0,0],[1,2],[3]]","18","0","","","","","","7","","","","","","","","",""
"","","","","","single-stim-button","336","1316255","0.0-2.0-65.8-0.8","628f827eeb876ed2617881e7","E1","batch5","","701","tol_tohand","","","","tol_peg_1","701","701","0","[[0,0,0],[1,2],[0]]","9","[[0,0,0],[1,2],[3]]","18","0","","","","","","7","","","","","","","","",""
"","","","","","single-stim-button","337","1318948","0.0-2.0-65.8-1.8","628f827eeb876ed2617881e7","E1","batch5","","2693","tol_toboard","","","","tol_peg_3","2693","2693","0","[[0,0,0],[1,2],[3]]","9","[[0,0,0],[1,2],[3]]","18","0","","","","","","7","","","","","","","","",""
"","","","","","poldrack-single-stim","338","1319952","0.0-2.0-66.0","628f827eeb876ed2617881e7","E1","batch5","","-1","tol_feedback","","","true","","1000","1000","500","","","","","","-1","none","true","4374","29822","","","","","","","","","",""
"","","","","","html-button-response","339","1320891","0.0-2.0-67.0","628f827eeb876ed2617881e7","E1","batch5","","936.6000000238419","tol_trial_num","<div class = centerbox><p class = center-block-text>problem <strong>20</strong> out of 25 problems</p></div>","0","","","","","","","","","","","","","","","","","","","","","","","","",""
"","","","","","single-stim-button","340","1326038","0.0-2.0-68.0-0.0","628f827eeb876ed2617881e7","E1","batch5","","5145","tol_tohand","","","","tol_peg_2","5145","5145","0","[[1,2,0],[0,0],[0]]","1","[[2,1,0],[0,0],[3]]","19","0","","","","","","5","","","","","","","","",""
"","","","","","single-stim-button","341","1326798","0.0-2.0-68.0-1.0","628f827eeb876ed2617881e7","E1","batch5","","758","tol_toboard","","","","tol_peg_3","758","758","0","[[1,2,0],[0,0],[3]]","1","[[2,1,0],[0,0],[3]]","19","0","","","","","","5","","","","","","","","",""
"","","","","","single-stim-button","342","1327751","0.0-2.0-68.1-0.1","628f827eeb876ed2617881e7","E1","batch5","","950","tol_tohand","","","","tol_peg_1","950","950","0","[[1,0,0],[0,0],[3]]","2","[[2,1,0],[0,0],[3]]","19","0","","","","","","5","","","","","","","","",""
"","","","","","single-stim-button","343","1329068","0.0-2.0-68.1-1.1","628f827eeb876ed2617881e7","E1","batch5","","1316","tol_toboard","","","","tol_peg_2","1316","1316","0","[[1,0,0],[2,0],[3]]","2","[[2,1,0],[0,0],[3]]","19","0","","","","","","5","","","","","","","","",""
"","","","","","single-stim-button","344","1330011","0.0-2.0-68.2-0.2","628f827eeb876ed2617881e7","E1","batch5","","941","tol_tohand","","","","tol_peg_1","941","941","0","[[0,0,0],[2,0],[3]]","3","[[2,1,0],[0,0],[3]]","19","0","","","","","","5","","","","","","","","",""
"","","","","","single-stim-button","345","1341304","0.0-2.0-68.2-1.2","628f827eeb876ed2617881e7","E1","batch5","","11292","tol_toboard","","","","tol_peg_1","11292","11292","0","[[1,0,0],[2,0],[3]]","3","[[2,1,0],[0,0],[3]]","19","0","","","","","","5","","","","","","","","",""
"","","","","","single-stim-button","346","1342814","0.0-2.0-68.3-0.3","628f827eeb876ed2617881e7","E1","batch5","","1508","tol_tohand","","","","tol_peg_3","1508","1508","0","[[1,0,0],[2,0],[0]]","4","[[2,1,0],[0,0],[3]]","19","0","","","","","","5","","","","","","","","",""
"","","","","","single-stim-button","347","1343690","0.0-2.0-68.3-1.3","628f827eeb876ed2617881e7","E1","batch5","","874","tol_toboard","","","","tol_peg_2","874","874","0","[[1,0,0],[2,3],[0]]","4","[[2,1,0],[0,0],[3]]","19","0","","","","","","5","","","","","","","","",""
"","","","","","single-stim-button","348","1345402","0.0-2.0-68.4-0.4","628f827eeb876ed2617881e7","E1","batch5","","1710","tol_tohand","","","","tol_peg_1","1710","1710","0","[[0,0,0],[2,3],[0]]","5","[[2,1,0],[0,0],[3]]","19","0","","","","","","5","","","","","","","","",""
"","","","","","single-stim-button","349","1358098","0.0-2.0-68.4-1.4","628f827eeb876ed2617881e7","E1","batch5","","12695","tol_toboard","","","","tol_peg_3","12695","12695","0","[[0,0,0],[2,3],[1]]","5","[[2,1,0],[0,0],[3]]","19","0","","","","","","5","","","","","","","","",""
"","","","","","single-stim-button","350","1359502","0.0-2.0-68.5-0.5","628f827eeb876ed2617881e7","E1","batch5","","1402","tol_tohand","","","","tol_peg_2","1402","1402","0","[[0,0,0],[2,0],[1]]","6","[[2,1,0],[0,0],[3]]","19","0","","","","","","5","","","","","","","","",""
"","","","","","single-stim-button","351","1361868","0.0-2.0-68.5-1.5","628f827eeb876ed2617881e7","E1","batch5","","2364","tol_toboard","","","","tol_peg_1","2364","2364","0","[[3,0,0],[2,0],[1]]","6","[[2,1,0],[0,0],[3]]","19","0","","","","","","5","","","","","","","","",""
