"success","timeout","failed_images","failed_audio","failed_video","trial_type","trial_index","time_elapsed","internal_node_id","subject_id","study_id","session_id","view_history","rt","stimulus","response","task","correct","answer","item","fiar_detect_rt","fiar_detect_correct","total_correct_fiar_detect","post_trial_gap","choices","spm_correct","spm_rt","mouse_click","stim_duration","block_duration","timing_post_trial","current_position","tol_num_moves_made","tol_target","tol_problem_id","tol_rt","key_press","possible_responses","tol_correct","preplanning","tol_rt_per_trial","tol_min_moves"
"true","false","[]","[]","[]","preload","0","729","0.0-0.0","628fa9e1afc3de7797cb6e2f","F1","batch6","","","","","","","","","","","","","","","","","","","","","","","","","","","","","",""
"true","","","","","fullscreen","1","69351","0.0-1.0-0.0","628fa9e1afc3de7797cb6e2f","F1","batch6","","","","","","","","","","","","","","","","","","","","","","","","","","","","","",""
"true","","","","","fullscreen","2","72303","0.0-2.0-0.0","628fa9e1afc3de7797cb6e2f","F1","batch6","","","","","","","","","","","","","","","","","","","","","","","","","","","","","",""
"","","","","","instructions","3","96648","0.0-2.0-1.0-0.0","628fa9e1afc3de7797cb6e2f","F1","batch6","[{""page_index"":0,""viewing_time"":19444.099999964237},{""page_index"":1,""viewing_time"":4899.900000035763}]","24344.19999998808","","","","","","","","","","","","","","","","","","","","","","","","","","","",""
"","","","","","html-button-response","4","97790","0.0-2.0-1.0-1.0-0.0","628fa9e1afc3de7797cb6e2f","F1","batch6","","1141.0999999642372","<p class=block-text> Let's answer a few questions <br>","0","pattern_enter_quiz","","","","","","","","","","","","","","","","","","","","","","","","",""
"","","","","","html-button-response","5","101411","0.0-2.0-1.0-1.0-1.0","628fa9e1afc3de7797cb6e2f","F1","batch6","","3619.600000023842","<p class = block-text>True or False: You will have as much time as you want to make each choice. <br></p>","1","pattern_quiz","true","","","","","","","","","","","","","","","","","","","","","","","",""
"","","","","","html-button-response","6","102537","0.0-2.0-1.0-1.0-2.0","628fa9e1afc3de7797cb6e2f","F1","batch6","","1124.5999999642372","<p class = block-text>Correct! You should make your choice <strong> as fast as you can</strong>.</p>","0","pattern_quiz_feedback","","","","","","","","","","","","","","","","","","","","","","","","",""
"","","","","","html-button-response","7","106230","0.0-2.0-1.0-1.0-3.0","628fa9e1afc3de7797cb6e2f","F1","batch6","","3692.900000035763","<p class = block-text>True or False: You will look for 4 pieces in black or white color connected in a row either horizontally, vertically or diagonally. <br></p>","0","pattern_quiz","true","","","","","","","","","","","","","","","","","","","","","","","",""
"","","","","","html-button-response","8","107411","0.0-2.0-1.0-1.0-4.0","628fa9e1afc3de7797cb6e2f","F1","batch6","","1179.199999988079","<p class = block-text>Correct! </p>","0","pattern_quiz_feedback","","","","","","","","","","","","","","","","","","","","","","","","",""
"","","","","","html-button-response","9","108670","0.0-2.0-2.0","628fa9e1afc3de7797cb6e2f","F1","batch6","","1258.5","<p class=block-text> Now that you've understood the game, let's do a few practice trials before we start!<br> <br>","0","pattern_enter_practice","","","","","","","","","","","","","","","","","","","","","","","","",""
"","","","","","image-keyboard-response","10","111771","0.0-2.0-3.0-0.0","628fa9e1afc3de7797cb6e2f","F1","batch6","","3099","stim/prac_no_16_1.png","j","pattern_practice","true","j","","","","","","","","","","","","","","","","","","","","","","",""
"","","","","","html-keyboard-response","11","112775","0.0-2.0-3.0-1.0","628fa9e1afc3de7797cb6e2f","F1","batch6","","null","<p style=""font-size:30px;color:green;"">Correct!</p>","null","pattern_feedback","","","","","","","","","","","","","","","","","","","","","","","","",""
"","","","","","image-keyboard-response","12","114482","0.0-2.0-3.0-0.1","628fa9e1afc3de7797cb6e2f","F1","batch6","","1706.5","stim/prac_yes_18_hor_w1.png","f","pattern_practice","true","f","","","","","","","","","","","","","","","","","","","","","","",""
"","","","","","html-keyboard-response","13","115507","0.0-2.0-3.0-1.1","628fa9e1afc3de7797cb6e2f","F1","batch6","","null","<p style=""font-size:30px;color:green;"">Correct!</p>","null","pattern_feedback","","","","","","","","","","","","","","","","","","","","","","","","",""
"","","","","","image-keyboard-response","14","117464","0.0-2.0-3.0-0.2","628fa9e1afc3de7797cb6e2f","F1","batch6","","1955.7999999523163","stim/prac_no_18_1.png","j","pattern_practice","true","j","","","","","","","","","","","","","","","","","","","","","","",""
"","","","","","html-keyboard-response","15","118470","0.0-2.0-3.0-1.2","628fa9e1afc3de7797cb6e2f","F1","batch6","","null","<p style=""font-size:30px;color:green;"">Correct!</p>","null","pattern_feedback","","","","","","","","","","","","","","","","","","","","","","","","",""
"","","","","","image-keyboard-response","16","119680","0.0-2.0-3.0-0.3","628fa9e1afc3de7797cb6e2f","F1","batch6","","1209.1000000238419","stim/prac_yes_16_ver_w1.png","f","pattern_practice","true","f","","","","","","","","","","","","","","","","","","","","","","",""
"","","","","","html-keyboard-response","17","120701","0.0-2.0-3.0-1.3","628fa9e1afc3de7797cb6e2f","F1","batch6","","null","<p style=""font-size:30px;color:green;"">Correct!</p>","null","pattern_feedback","","","","","","","","","","","","","","","","","","","","","","","","",""
"","","","","","image-keyboard-response","18","122456","0.0-2.0-3.0-0.4","628fa9e1afc3de7797cb6e2f","F1","batch6","","1754.0999999642372","stim/prac_yes_20_dia_b1.png","j","pattern_practice","false","f","","","","","","","","","","","","","","","","","","","","","","",""
"","","","","","html-keyboard-response","19","123477","0.0-2.0-3.0-1.4","628fa9e1afc3de7797cb6e2f","F1","batch6","","null","<p style=""font-size:30px;color:red;"">Wrong.</p>","null","pattern_feedback","","","","","","","","","","","","","","","","","","","","","","","","",""
"","","","","","html-button-response","20","126614","0.0-2.0-4.0","628fa9e1afc3de7797cb6e2f","F1","batch6","","3135.899999976158","<p class=block-text> Good job! You are done with practice trials!<br>
        You responded correctly on 80% of the trials.<br>
        Press the button below to start official trials. Now you won't see any feedback about your response</p>","0","pattern_enter_official_trials","","","","","","","","","","","","","","","","","","","","","","","","",""
"","","","","","html-keyboard-response","21","127428","0.0-2.0-5.0-0.0","628fa9e1afc3de7797cb6e2f","F1","batch6","","null","<p class=block-text>Trial 1 out of 78</p>","null","pattern_show_trial_num","","","","","","","","","","","","","","","","","","","","","","","","",""
"","","","","","image-keyboard-response","22","128594","0.0-2.0-5.0-1.0","628fa9e1afc3de7797cb6e2f","F1","batch6","","1165.1000000238419","stim/yes_46_ver_b1_b.png","f","pattern_response","true","f","pattern_68","1165.1000000238419","true","1","","","","","","","","","","","","","","","","","","",""
"","","","","","html-keyboard-response","23","129911","0.0-2.0-5.0-0.1","628fa9e1afc3de7797cb6e2f","F1","batch6","","null","<p class=block-text>Trial 2 out of 78</p>","null","pattern_show_trial_num","","","","","","","","","","","","","","","","","","","","","","","","",""
"","","","","","image-keyboard-response","24","131360","0.0-2.0-5.0-1.1","628fa9e1afc3de7797cb6e2f","F1","batch6","","1448.3999999761581","stim/no_25_1_b.png","j","pattern_response","true","j","pattern_09","1448.3999999761581","true","2","","","","","","","","","","","","","","","","","","",""
"","","","","","html-keyboard-response","25","132668","0.0-2.0-5.0-0.2","628fa9e1afc3de7797cb6e2f","F1","batch6","","null","<p class=block-text>Trial 3 out of 78</p>","null","pattern_show_trial_num","","","","","","","","","","","","","","","","","","","","","","","","",""
"","","","","","image-keyboard-response","26","133736","0.0-2.0-5.0-1.2","628fa9e1afc3de7797cb6e2f","F1","batch6","","1067","stim/no_22_1_b.png","j","pattern_response","true","j","pattern_07","1067","true","3","","","","","","","","","","","","","","","","","","",""
"","","","","","html-keyboard-response","27","135051","0.0-2.0-5.0-0.3","628fa9e1afc3de7797cb6e2f","F1","batch6","","null","<p class=block-text>Trial 4 out of 78</p>","null","pattern_show_trial_num","","","","","","","","","","","","","","","","","","","","","","","","",""
"","","","","","image-keyboard-response","28","136272","0.0-2.0-5.0-1.3","628fa9e1afc3de7797cb6e2f","F1","batch6","","1219.5","stim/no_15_1_w.png","j","pattern_response","true","j","pattern_03","1219.5","true","4","","","","","","","","","","","","","","","","","","",""
"","","","","","html-keyboard-response","29","137584","0.0-2.0-5.0-0.4","628fa9e1afc3de7797cb6e2f","F1","batch6","","null","<p class=block-text>Trial 5 out of 78</p>","null","pattern_show_trial_num","","","","","","","","","","","","","","","","","","","","","","","","",""
"","","","","","image-keyboard-response","30","139672","0.0-2.0-5.0-1.4","628fa9e1afc3de7797cb6e2f","F1","batch6","","2087.399999976158","stim/yes_63_dia_b1.png","f","pattern_response","true","f","pattern_78","2087.399999976158","true","5","","","","","","","","","","","","","","","","","","",""
"","","","","","html-keyboard-response","31","140976","0.0-2.0-5.0-0.5","628fa9e1afc3de7797cb6e2f","F1","batch6","","null","<p class=block-text>Trial 6 out of 78</p>","null","pattern_show_trial_num","","","","","","","","","","","","","","","","","","","","","","","","",""
"","","","","","image-keyboard-response","32","141944","0.0-2.0-5.0-1.5","628fa9e1afc3de7797cb6e2f","F1","batch6","","967","stim/yes_30_ver_b1_b.png","f","pattern_response","true","f","pattern_54","967","true","6","","","","","","","","","","","","","","","","","","",""
"","","","","","html-keyboard-response","33","143260","0.0-2.0-5.0-0.6","628fa9e1afc3de7797cb6e2f","F1","batch6","","null","<p class=block-text>Trial 7 out of 78</p>","null","pattern_show_trial_num","","","","","","","","","","","","","","","","","","","","","","","","",""
"","","","","","image-keyboard-response","34","144224","0.0-2.0-5.0-1.6","628fa9e1afc3de7797cb6e2f","F1","batch6","","963.4000000357628","stim/yes_36_ver_w1_w.png","f","pattern_response","true","f","pattern_58","963.4000000357628","true","7","","","","","","","","","","","","","","","","","","",""
"","","","","","html-keyboard-response","35","145539","0.0-2.0-5.0-0.7","628fa9e1afc3de7797cb6e2f","F1","batch6","","null","<p class=block-text>Trial 8 out of 78</p>","null","pattern_show_trial_num","","","","","","","","","","","","","","","","","","","","","","","","",""
"","","","","","image-keyboard-response","36","146536","0.0-2.0-5.0-1.7","628fa9e1afc3de7797cb6e2f","F1","batch6","","996.8000000119209","stim/no_18_1_b.png","j","pattern_response","true","j","pattern_05","996.8000000119209","true","8","","","","","","","","","","","","","","","","","","",""
"","","","","","html-keyboard-response","37","147857","0.0-2.0-5.0-0.8","628fa9e1afc3de7797cb6e2f","F1","batch6","","null","<p class=block-text>Trial 9 out of 78</p>","null","pattern_show_trial_num","","","","","","","","","","","","","","","","","","","","","","","","",""
"","","","","","image-keyboard-response","38","148872","0.0-2.0-5.0-1.8","628fa9e1afc3de7797cb6e2f","F1","batch6","","1014.1999999880791","stim/yes_37_hor_w1_w.png","f","pattern_response","true","f","pattern_60","1014.1999999880791","true","9","","","","","","","","","","","","","","","","","","",""
"","","","","","html-keyboard-response","39","150193","0.0-2.0-5.0-0.9","628fa9e1afc3de7797cb6e2f","F1","batch6","","null","<p class=block-text>Trial 10 out of 78</p>","null","pattern_show_trial_num","","","","","","","","","","","","","","","","","","","","","","","","",""
"","","","","","image-keyboard-response","40","151600","0.0-2.0-5.0-1.9","628fa9e1afc3de7797cb6e2f","F1","batch6","","1405.0999999642372","stim/yes_42_dia_w1_w.png","f","pattern_response","true","f","pattern_64","1405.0999999642372","true","10","","","","","","","","","","","","","","","","","","",""
"","","","","","html-keyboard-response","41","152915","0.0-2.0-5.0-0.10","628fa9e1afc3de7797cb6e2f","F1","batch6","","null","<p class=block-text>Trial 11 out of 78</p>","null","pattern_show_trial_num","","","","","","","","","","","","","","","","","","","","","","","","",""
"","","","","","image-keyboard-response","42","154008","0.0-2.0-5.0-1.10","628fa9e1afc3de7797cb6e2f","F1","batch6","","1092.5","stim/yes_33_dia_w1_w.png","f","pattern_response","true","f","pattern_56","1092.5","true","11","","","","","","","","","","","","","","","","","","",""
"","","","","","html-keyboard-response","43","155325","0.0-2.0-5.0-0.11","628fa9e1afc3de7797cb6e2f","F1","batch6","","null","<p class=block-text>Trial 12 out of 78</p>","null","pattern_show_trial_num","","","","","","","","","","","","","","","","","","","","","","","","",""
"","","","","","image-keyboard-response","44","156584","0.0-2.0-5.0-1.11","628fa9e1afc3de7797cb6e2f","F1","batch6","","1258.5","stim/no_43_2_b.png","j","pattern_response","true","j","pattern_23","1258.5","true","12","","","","","","","","","","","","","","","","","","",""
"","","","","","html-keyboard-response","45","157912","0.0-2.0-5.0-0.12","628fa9e1afc3de7797cb6e2f","F1","batch6","","null","<p class=block-text>Trial 13 out of 78</p>","null","pattern_show_trial_num","","","","","","","","","","","","","","","","","","","","","","","","",""
"","","","","","image-keyboard-response","46","159392","0.0-2.0-5.0-1.12","628fa9e1afc3de7797cb6e2f","F1","batch6","","1479.3999999761581","stim/yes_44_ver_w1_w.png","j","pattern_response","false","f","pattern_66","1479.3999999761581","false","12","","","","","","","","","","","","","","","","","","",""
"","","","","","html-keyboard-response","47","160714","0.0-2.0-5.0-0.13","628fa9e1afc3de7797cb6e2f","F1","batch6","","null","<p class=block-text>Trial 14 out of 78</p>","null","pattern_show_trial_num","","","","","","","","","","","","","","","","","","","","","","","","",""
"","","","","","image-keyboard-response","48","161904","0.0-2.0-5.0-1.13","628fa9e1afc3de7797cb6e2f","F1","batch6","","1189","stim/yes_51_dia_b1.png","f","pattern_response","true","f","pattern_72","1189","true","13","","","","","","","","","","","","","","","","","","",""
"","","","","","html-keyboard-response","49","163221","0.0-2.0-5.0-0.14","628fa9e1afc3de7797cb6e2f","F1","batch6","","null","<p class=block-text>Trial 15 out of 78</p>","null","pattern_show_trial_num","","","","","","","","","","","","","","","","","","","","","","","","",""
"","","","","","image-keyboard-response","50","164384","0.0-2.0-5.0-1.14","628fa9e1afc3de7797cb6e2f","F1","batch6","","1162.199999988079","stim/no_33_1_b.png","j","pattern_response","true","j","pattern_15","1162.199999988079","true","14","","","","","","","","","","","","","","","","","","",""
"","","","","","html-keyboard-response","51","165687","0.0-2.0-5.0-0.15","628fa9e1afc3de7797cb6e2f","F1","batch6","","null","<p class=block-text>Trial 16 out of 78</p>","null","pattern_show_trial_num","","","","","","","","","","","","","","","","","","","","","","","","",""
"","","","","","image-keyboard-response","52","167176","0.0-2.0-5.0-1.15","628fa9e1afc3de7797cb6e2f","F1","batch6","","1487.6000000238419","stim/no_45_1_w.png","j","pattern_response","true","j","pattern_25","1487.6000000238419","true","15","","","","","","","","","","","","","","","","","","",""
"","","","","","html-keyboard-response","53","168491","0.0-2.0-5.0-0.16","628fa9e1afc3de7797cb6e2f","F1","batch6","","null","<p class=block-text>Trial 17 out of 78</p>","null","pattern_show_trial_num","","","","","","","","","","","","","","","","","","","","","","","","",""
"","","","","","image-keyboard-response","54","170128","0.0-2.0-5.0-1.16","628fa9e1afc3de7797cb6e2f","F1","batch6","","1635.0999999642372","stim/no_58_1_w.png","j","pattern_response","true","j","pattern_35","1635.0999999642372","true","16","","","","","","","","","","","","","","","","","","",""
"","","","","","html-keyboard-response","55","171444","0.0-2.0-5.0-0.17","628fa9e1afc3de7797cb6e2f","F1","batch6","","null","<p class=block-text>Trial 18 out of 78</p>","null","pattern_show_trial_num","","","","","","","","","","","","","","","","","","","","","","","","",""
"","","","","","image-keyboard-response","56","172352","0.0-2.0-5.0-1.17","628fa9e1afc3de7797cb6e2f","F1","batch6","","907.0999999642372","stim/yes_15_dia_b1u_b.png","f","pattern_response","true","f","pattern_44","907.0999999642372","true","17","","","","","","","","","","","","","","","","","","",""
"","","","","","html-keyboard-response","57","173668","0.0-2.0-5.0-0.18","628fa9e1afc3de7797cb6e2f","F1","batch6","","null","<p class=block-text>Trial 19 out of 78</p>","null","pattern_show_trial_num","","","","","","","","","","","","","","","","","","","","","","","","",""
"","","","","","image-keyboard-response","58","175048","0.0-2.0-5.0-1.18","628fa9e1afc3de7797cb6e2f","F1","batch6","","1379.5","stim/no_36_1_b.png","j","pattern_response","true","j","pattern_17","1379.5","true","18","","","","","","","","","","","","","","","","","","",""
"","","","","","html-keyboard-response","59","176365","0.0-2.0-5.0-0.19","628fa9e1afc3de7797cb6e2f","F1","batch6","","null","<p class=block-text>Trial 20 out of 78</p>","null","pattern_show_trial_num","","","","","","","","","","","","","","","","","","","","","","","","",""
"","","","","","image-keyboard-response","60","177296","0.0-2.0-5.0-1.19","628fa9e1afc3de7797cb6e2f","F1","batch6","","930.5","stim/yes_17_ver_b1_b.png","f","pattern_response","true","f","pattern_46","930.5","true","19","","","","","","","","","","","","","","","","","","",""
"","","","","","html-keyboard-response","61","178616","0.0-2.0-5.0-0.20","628fa9e1afc3de7797cb6e2f","F1","batch6","","null","<p class=block-text>Trial 21 out of 78</p>","null","pattern_show_trial_num","","","","","","","","","","","","","","","","","","","","","","","","",""
"","","","","","image-keyboard-response","62","179536","0.0-2.0-5.0-1.20","628fa9e1afc3de7797cb6e2f","F1","batch6","","918.8999999761581","stim/no_30_1_b.png","j","pattern_response","true","j","pattern_13","918.8999999761581","true","20","","","","","","","","","","","","","","","","","","",""
"","","","","","html-keyboard-response","63","180839","0.0-2.0-5.0-0.21","628fa9e1afc3de7797cb6e2f","F1","batch6","","null","<p class=block-text>Trial 22 out of 78</p>","null","pattern_show_trial_num","","","","","","","","","","","","","","","","","","","","","","","","",""
"","","","","","image-keyboard-response","64","182280","0.0-2.0-5.0-1.21","628fa9e1afc3de7797cb6e2f","F1","batch6","","1440.5","stim/no_49_2_b.png","j","pattern_response","true","j","pattern_29","1440.5","true","21","","","","","","","","","","","","","","","","","","",""
"","","","","","html-keyboard-response","65","183604","0.0-2.0-5.0-0.22","628fa9e1afc3de7797cb6e2f","F1","batch6","","null","<p class=block-text>Trial 23 out of 78</p>","null","pattern_show_trial_num","","","","","","","","","","","","","","","","","","","","","","","","",""
"","","","","","image-keyboard-response","66","184392","0.0-2.0-5.0-1.22","628fa9e1afc3de7797cb6e2f","F1","batch6","","787.2000000476837","stim/yes_39_hor_w1_w.png","f","pattern_response","true","f","pattern_62","787.2000000476837","true","22","","","","","","","","","","","","","","","","","","",""
"","","","","","html-keyboard-response","67","185700","0.0-2.0-5.0-0.23","628fa9e1afc3de7797cb6e2f","F1","batch6","","null","<p class=block-text>Trial 24 out of 78</p>","null","pattern_show_trial_num","","","","","","","","","","","","","","","","","","","","","","","","",""
"","","","","","image-keyboard-response","68","189137","0.0-2.0-5.0-1.23","628fa9e1afc3de7797cb6e2f","F1","batch6","","3435.699999988079","stim/no_51_1.png","j","pattern_response","true","j","pattern_31","3435.699999988079","true","23","","","","","","","","","","","","","","","","","","",""
"","","","","","html-keyboard-response","69","190460","0.0-2.0-5.0-0.24","628fa9e1afc3de7797cb6e2f","F1","batch6","","null","<p class=block-text>Trial 25 out of 78</p>","null","pattern_show_trial_num","","","","","","","","","","","","","","","","","","","","","","","","",""
"","","","","","image-keyboard-response","70","191768","0.0-2.0-5.0-1.24","628fa9e1afc3de7797cb6e2f","F1","batch6","","1307.199999988079","stim/no_28_2.png","j","pattern_response","true","j","pattern_11","1307.199999988079","true","24","","","","","","","","","","","","","","","","","","",""
"","","","","","html-keyboard-response","71","193080","0.0-2.0-5.0-0.25","628fa9e1afc3de7797cb6e2f","F1","batch6","","null","<p class=block-text>Trial 26 out of 78</p>","null","pattern_show_trial_num","","","","","","","","","","","","","","","","","","","","","","","","",""
"","","","","","image-keyboard-response","72","194384","0.0-2.0-5.0-1.25","628fa9e1afc3de7797cb6e2f","F1","batch6","","1303.300000011921","stim/yes_26_dia_w2_w.png","f","pattern_response","true","f","pattern_50","1303.300000011921","true","25","","","","","","","","","","","","","","","","","","",""
"","","","","","html-keyboard-response","73","195697","0.0-2.0-5.0-0.26","628fa9e1afc3de7797cb6e2f","F1","batch6","","null","<p class=block-text>Trial 27 out of 78</p>","null","pattern_show_trial_num","","","","","","","","","","","","","","","","","","","","","","","","",""
"","","","","","image-keyboard-response","74","196898","0.0-2.0-5.0-1.26","628fa9e1afc3de7797cb6e2f","F1","batch6","","1200.199999988079","stim/yes_70_ver_b1.png","j","pattern_response","false","f","pattern_80","1200.199999988079","false","25","","","","","","","","","","","","","","","","","","",""
"","","","","","html-keyboard-response","75","198206","0.0-2.0-5.0-0.27","628fa9e1afc3de7797cb6e2f","F1","batch6","","null","<p class=block-text>Trial 28 out of 78</p>","null","pattern_show_trial_num","","","","","","","","","","","","","","","","","","","","","","","","",""
"","","","","","image-keyboard-response","76","200059","0.0-2.0-5.0-1.27","628fa9e1afc3de7797cb6e2f","F1","batch6","","1851.300000011921","stim/yes_53_ver_b1_b.png","j","pattern_response","false","f","pattern_74","1851.300000011921","false","25","","","","","","","","","","","","","","","","","","",""
"","","","","","html-keyboard-response","77","201378","0.0-2.0-5.0-0.28","628fa9e1afc3de7797cb6e2f","F1","batch6","","null","<p class=block-text>Trial 29 out of 78</p>","null","pattern_show_trial_num","","","","","","","","","","","","","","","","","","","","","","","","",""
"","","","","","image-keyboard-response","78","203355","0.0-2.0-5.0-1.28","628fa9e1afc3de7797cb6e2f","F1","batch6","","1975.2000000476837","stim/no_67_1.png","j","pattern_response","true","j","pattern_39","1975.2000000476837","true","26","","","","","","","","","","","","","","","","","","",""
"","","","","","html-keyboard-response","79","204667","0.0-2.0-5.0-0.29","628fa9e1afc3de7797cb6e2f","F1","batch6","","null","<p class=block-text>Trial 30 out of 78</p>","null","pattern_show_trial_num","","","","","","","","","","","","","","","","","","","","","","","","",""
"","","","","","image-keyboard-response","80","207256","0.0-2.0-5.0-1.29","628fa9e1afc3de7797cb6e2f","F1","batch6","","2588","stim/yes_49_hor_w1_b.png","j","pattern_response","false","f","pattern_70","2588","false","26","","","","","","","","","","","","","","","","","","",""
"","","","","","html-keyboard-response","81","208585","0.0-2.0-5.0-0.30","628fa9e1afc3de7797cb6e2f","F1","batch6","","null","<p class=block-text>Trial 31 out of 78</p>","null","pattern_show_trial_num","","","","","","","","","","","","","","","","","","","","","","","","",""
"","","","","","image-keyboard-response","82","209953","0.0-2.0-5.0-1.30","628fa9e1afc3de7797cb6e2f","F1","batch6","","1366.5","stim/no_37_2_w.png","j","pattern_response","true","j","pattern_19","1366.5","true","27","","","","","","","","","","","","","","","","","","",""
"","","","","","html-keyboard-response","83","211276","0.0-2.0-5.0-0.31","628fa9e1afc3de7797cb6e2f","F1","batch6","","null","<p class=block-text>Trial 32 out of 78</p>","null","pattern_show_trial_num","","","","","","","","","","","","","","","","","","","","","","","","",""
"","","","","","image-keyboard-response","84","213001","0.0-2.0-5.0-1.31","628fa9e1afc3de7797cb6e2f","F1","batch6","","1723.5","stim/no_39_1_w.png","j","pattern_response","true","j","pattern_21","1723.5","true","28","","","","","","","","","","","","","","","","","","",""
"","","","","","html-keyboard-response","85","214311","0.0-2.0-5.0-0.32","628fa9e1afc3de7797cb6e2f","F1","batch6","","null","<p class=block-text>Trial 33 out of 78</p>","null","pattern_show_trial_num","","","","","","","","","","","","","","","","","","","","","","","","",""
"","","","","","image-keyboard-response","86","215200","0.0-2.0-5.0-1.32","628fa9e1afc3de7797cb6e2f","F1","batch6","","888.3000000119209","stim/yes_12_hor_w1_w.png","f","pattern_response","true","f","pattern_42","888.3000000119209","true","29","","","","","","","","","","","","","","","","","","",""
"","","","","","html-keyboard-response","87","216510","0.0-2.0-5.0-0.33","628fa9e1afc3de7797cb6e2f","F1","batch6","","null","<p class=block-text>Trial 34 out of 78</p>","null","pattern_show_trial_num","","","","","","","","","","","","","","","","","","","","","","","","",""
"","","","","","image-keyboard-response","88","217440","0.0-2.0-5.0-1.33","628fa9e1afc3de7797cb6e2f","F1","batch6","","929.2000000476837","stim/yes_29_hor_b1_b.png","f","pattern_response","true","f","pattern_52","929.2000000476837","true","30","","","","","","","","","","","","","","","","","","",""
"","","","","","html-keyboard-response","89","218747","0.0-2.0-5.0-0.34","628fa9e1afc3de7797cb6e2f","F1","batch6","","null","<p class=block-text>Trial 35 out of 78</p>","null","pattern_show_trial_num","","","","","","","","","","","","","","","","","","","","","","","","",""
"","","","","","image-keyboard-response","90","220384","0.0-2.0-5.0-1.34","628fa9e1afc3de7797cb6e2f","F1","batch6","","1636.199999988079","stim/yes_58_dia_w1_w.png","j","pattern_response","false","f","pattern_76","1636.199999988079","false","30","","","","","","","","","","","","","","","","","","",""
"","","","","","html-keyboard-response","91","221709","0.0-2.0-5.0-0.35","628fa9e1afc3de7797cb6e2f","F1","batch6","","null","<p class=block-text>Trial 36 out of 78</p>","null","pattern_show_trial_num","","","","","","","","","","","","","","","","","","","","","","","","",""
"","","","","","image-keyboard-response","92","222784","0.0-2.0-5.0-1.35","628fa9e1afc3de7797cb6e2f","F1","batch6","","1074.300000011921","stim/no_53_1_b.png","j","pattern_response","true","j","pattern_33","1074.300000011921","true","31","","","","","","","","","","","","","","","","","","",""
"","","","","","html-keyboard-response","93","224102","0.0-2.0-5.0-0.36","628fa9e1afc3de7797cb6e2f","F1","batch6","","null","<p class=block-text>Trial 37 out of 78</p>","null","pattern_show_trial_num","","","","","","","","","","","","","","","","","","","","","","","","",""
"","","","","","image-keyboard-response","94","225376","0.0-2.0-5.0-1.36","628fa9e1afc3de7797cb6e2f","F1","batch6","","1273.0999999642372","stim/no_47_1_b.png","f","pattern_response","false","j","pattern_27","1273.0999999642372","false","31","","","","","","","","","","","","","","","","","","",""
"","","","","","html-keyboard-response","95","226688","0.0-2.0-5.0-0.37","628fa9e1afc3de7797cb6e2f","F1","batch6","","null","<p class=block-text>Trial 38 out of 78</p>","null","pattern_show_trial_num","","","","","","","","","","","","","","","","","","","","","","","","",""
"","","","","","image-keyboard-response","96","227752","0.0-2.0-5.0-1.37","628fa9e1afc3de7797cb6e2f","F1","batch6","","1063.3999999761581","stim/yes_23_ver_b1.png","j","pattern_response","false","f","pattern_48","1063.3999999761581","false","31","","","","","","","","","","","","","","","","","","",""
"","","","","","html-keyboard-response","97","229068","0.0-2.0-5.0-0.38","628fa9e1afc3de7797cb6e2f","F1","batch6","","null","<p class=block-text>Trial 39 out of 78</p>","null","pattern_show_trial_num","","","","","","","","","","","","","","","","","","","","","","","","",""
"","","","","","image-keyboard-response","98","230384","0.0-2.0-5.0-1.38","628fa9e1afc3de7797cb6e2f","F1","batch6","","1314.6000000238419","stim/no_12_1.png","j","pattern_response","true","j","pattern_01","1314.6000000238419","true","32","","","","","","","","","","","","","","","","","","",""
"","","","","","image-keyboard-response","99","232473","0.0-2.0-6.0","628fa9e1afc3de7797cb6e2f","F1","batch6","","1575.3999999761581","stim/empty_board.png","j","attention_check","true","j","","","","","500","[""f"",""j""]","","","","","","","","","","","","","","","","",""
"","","","","","html-keyboard-response","100","233274","0.0-2.0-7.0-0.0","628fa9e1afc3de7797cb6e2f","F1","batch6","","null","<p class=block-text>Trial 40 out of 78</p>","null","pattern_show_trial_num","","","","","","","","","","","","","","","","","","","","","","","","",""
"","","","","","image-keyboard-response","101","235474","0.0-2.0-7.0-1.0","628fa9e1afc3de7797cb6e2f","F1","batch6","","2199.099999964237","stim/no_70_2.png","j","pattern_response","true","j","pattern_40","2199.099999964237","true","33","","","","","","","","","","","","","","","","","","",""
"","","","","","html-keyboard-response","102","236778","0.0-2.0-7.0-0.1","628fa9e1afc3de7797cb6e2f","F1","batch6","","null","<p class=block-text>Trial 41 out of 78</p>","null","pattern_show_trial_num","","","","","","","","","","","","","","","","","","","","","","","","",""
"","","","","","image-keyboard-response","103","238884","0.0-2.0-7.0-1.1","628fa9e1afc3de7797cb6e2f","F1","batch6","","2104.900000035763","stim/yes_52_ver_w1.png","j","pattern_response","false","f","pattern_73","2104.900000035763","false","33","","","","","","","","","","","","","","","","","","",""
"","","","","","html-keyboard-response","104","240196","0.0-2.0-7.0-0.2","628fa9e1afc3de7797cb6e2f","F1","batch6","","null","<p class=block-text>Trial 42 out of 78</p>","null","pattern_show_trial_num","","","","","","","","","","","","","","","","","","","","","","","","",""
"","","","","","image-keyboard-response","105","241657","0.0-2.0-7.0-1.2","628fa9e1afc3de7797cb6e2f","F1","batch6","","1459.699999988079","stim/yes_25_hor_b1_b.png","f","pattern_response","true","f","pattern_49","1459.699999988079","true","34","","","","","","","","","","","","","","","","","","",""
"","","","","","html-keyboard-response","106","242965","0.0-2.0-7.0-0.3","628fa9e1afc3de7797cb6e2f","F1","batch6","","null","<p class=block-text>Trial 43 out of 78</p>","null","pattern_show_trial_num","","","","","","","","","","","","","","","","","","","","","","","","",""
"","","","","","image-keyboard-response","107","244369","0.0-2.0-7.0-1.3","628fa9e1afc3de7797cb6e2f","F1","batch6","","1402.199999988079","stim/no_55_1_w.png","j","pattern_response","true","j","pattern_34","1402.199999988079","true","35","","","","","","","","","","","","","","","","","","",""
"","","","","","html-keyboard-response","108","245684","0.0-2.0-7.0-0.4","628fa9e1afc3de7797cb6e2f","F1","batch6","","null","<p class=block-text>Trial 44 out of 78</p>","null","pattern_show_trial_num","","","","","","","","","","","","","","","","","","","","","","","","",""
"","","","","","image-keyboard-response","109","247177","0.0-2.0-7.0-1.4","628fa9e1afc3de7797cb6e2f","F1","batch6","","1492","stim/no_17_1_w.png","j","pattern_response","true","j","pattern_04","1492","true","36","","","","","","","","","","","","","","","","","","",""
"","","","","","html-keyboard-response","110","248492","0.0-2.0-7.0-0.5","628fa9e1afc3de7797cb6e2f","F1","batch6","","null","<p class=block-text>Trial 45 out of 78</p>","null","pattern_show_trial_num","","","","","","","","","","","","","","","","","","","","","","","","",""
"","","","","","image-keyboard-response","111","250377","0.0-2.0-7.0-1.5","628fa9e1afc3de7797cb6e2f","F1","batch6","","1883.5","stim/no_65_1_b.png","f","pattern_response","false","j","pattern_38","1883.5","false","36","","","","","","","","","","","","","","","","","","",""
"","","","","","html-keyboard-response","112","251683","0.0-2.0-7.0-0.6","628fa9e1afc3de7797cb6e2f","F1","batch6","","null","<p class=block-text>Trial 46 out of 78</p>","null","pattern_show_trial_num","","","","","","","","","","","","","","","","","","","","","","","","",""
"","","","","","image-keyboard-response","113","253177","0.0-2.0-7.0-1.6","628fa9e1afc3de7797cb6e2f","F1","batch6","","1491.9000000357628","stim/yes_31_hor_b1.png","f","pattern_response","true","f","pattern_55","1491.9000000357628","true","37","","","","","","","","","","","","","","","","","","",""
"","","","","","html-keyboard-response","114","254479","0.0-2.0-7.0-0.7","628fa9e1afc3de7797cb6e2f","F1","batch6","","null","<p class=block-text>Trial 47 out of 78</p>","null","pattern_show_trial_num","","","","","","","","","","","","","","","","","","","","","","","","",""
"","","","","","image-keyboard-response","115","256097","0.0-2.0-7.0-1.7","628fa9e1afc3de7797cb6e2f","F1","batch6","","1616.3999999761581","stim/no_26_1_w.png","j","pattern_response","true","j","pattern_10","1616.3999999761581","true","38","","","","","","","","","","","","","","","","","","",""
"","","","","","html-keyboard-response","116","257413","0.0-2.0-7.0-0.8","628fa9e1afc3de7797cb6e2f","F1","batch6","","null","<p class=block-text>Trial 48 out of 78</p>","null","pattern_show_trial_num","","","","","","","","","","","","","","","","","","","","","","","","",""
"","","","","","image-keyboard-response","117","259369","0.0-2.0-7.0-1.8","628fa9e1afc3de7797cb6e2f","F1","batch6","","1954.7000000476837","stim/no_32_1_w.png","j","pattern_response","true","j","pattern_14","1954.7000000476837","true","39","","","","","","","","","","","","","","","","","","",""
"","","","","","html-keyboard-response","118","260683","0.0-2.0-7.0-0.9","628fa9e1afc3de7797cb6e2f","F1","batch6","","null","<p class=block-text>Trial 49 out of 78</p>","null","pattern_show_trial_num","","","","","","","","","","","","","","","","","","","","","","","","",""
"","","","","","image-keyboard-response","119","262297","0.0-2.0-7.0-1.9","628fa9e1afc3de7797cb6e2f","F1","batch6","","1612.5","stim/no_44_1.png","j","pattern_response","true","j","pattern_24","1612.5","true","40","","","","","","","","","","","","","","","","","","",""
"","","","","","html-keyboard-response","120","263613","0.0-2.0-7.0-0.10","628fa9e1afc3de7797cb6e2f","F1","batch6","","null","<p class=block-text>Trial 50 out of 78</p>","null","pattern_show_trial_num","","","","","","","","","","","","","","","","","","","","","","","","",""
"","","","","","image-keyboard-response","121","265465","0.0-2.0-7.0-1.10","628fa9e1afc3de7797cb6e2f","F1","batch6","","1850.800000011921","stim/no_52_1.png","j","pattern_response","true","j","pattern_32","1850.800000011921","true","41","","","","","","","","","","","","","","","","","","",""
"","","","","","html-keyboard-response","122","266768","0.0-2.0-7.0-0.11","628fa9e1afc3de7797cb6e2f","F1","batch6","","null","<p class=block-text>Trial 51 out of 78</p>","null","pattern_show_trial_num","","","","","","","","","","","","","","","","","","","","","","","","",""
"","","","","","image-keyboard-response","123","268521","0.0-2.0-7.0-1.11","628fa9e1afc3de7797cb6e2f","F1","batch6","","1750.800000011921","stim/yes_67_hor_b1.png","j","pattern_response","false","f","pattern_79","1750.800000011921","false","41","","","","","","","","","","","","","","","","","","",""
"","","","","","html-keyboard-response","124","269826","0.0-2.0-7.0-0.12","628fa9e1afc3de7797cb6e2f","F1","batch6","","null","<p class=block-text>Trial 52 out of 78</p>","null","pattern_show_trial_num","","","","","","","","","","","","","","","","","","","","","","","","",""
"","","","","","image-keyboard-response","125","272225","0.0-2.0-7.0-1.12","628fa9e1afc3de7797cb6e2f","F1","batch6","","2397.5","stim/yes_48_dia_w1_w.png","j","pattern_response","false","f","pattern_69","2397.5","false","41","","","","","","","","","","","","","","","","","","",""
"","","","","","html-keyboard-response","126","273550","0.0-2.0-7.0-0.13","628fa9e1afc3de7797cb6e2f","F1","batch6","","null","<p class=block-text>Trial 53 out of 78</p>","null","pattern_show_trial_num","","","","","","","","","","","","","","","","","","","","","","","","",""
"","","","","","image-keyboard-response","127","275041","0.0-2.0-7.0-1.13","628fa9e1afc3de7797cb6e2f","F1","batch6","","1488.699999988079","stim/no_48_1_w.png","f","pattern_response","false","j","pattern_28","1488.699999988079","false","41","","","","","","","","","","","","","","","","","","",""
"","","","","","html-keyboard-response","128","276357","0.0-2.0-7.0-0.14","628fa9e1afc3de7797cb6e2f","F1","batch6","","null","<p class=block-text>Trial 54 out of 78</p>","null","pattern_show_trial_num","","","","","","","","","","","","","","","","","","","","","","","","",""
"","","","","","image-keyboard-response","129","277849","0.0-2.0-7.0-1.14","628fa9e1afc3de7797cb6e2f","F1","batch6","","1490.1000000238419","stim/no_20_1_w.png","j","pattern_response","true","j","pattern_06","1490.1000000238419","true","42","","","","","","","","","","","","","","","","","","",""
"","","","","","html-keyboard-response","130","279152","0.0-2.0-7.0-0.15","628fa9e1afc3de7797cb6e2f","F1","batch6","","null","<p class=block-text>Trial 55 out of 78</p>","null","pattern_show_trial_num","","","","","","","","","","","","","","","","","","","","","","","","",""
"","","","","","image-keyboard-response","131","280969","0.0-2.0-7.0-1.15","628fa9e1afc3de7797cb6e2f","F1","batch6","","1815.4000000357628","stim/no_46_1_b.png","j","pattern_response","true","j","pattern_26","1815.4000000357628","true","43","","","","","","","","","","","","","","","","","","",""
"","","","","","html-keyboard-response","132","282289","0.0-2.0-7.0-0.16","628fa9e1afc3de7797cb6e2f","F1","batch6","","null","<p class=block-text>Trial 56 out of 78</p>","null","pattern_show_trial_num","","","","","","","","","","","","","","","","","","","","","","","","",""
"","","","","","image-keyboard-response","133","284089","0.0-2.0-7.0-1.16","628fa9e1afc3de7797cb6e2f","F1","batch6","","1798.5999999642372","stim/no_50_1.png","j","pattern_response","true","j","pattern_30","1798.5999999642372","true","44","","","","","","","","","","","","","","","","","","",""
"","","","","","html-keyboard-response","134","285409","0.0-2.0-7.0-0.17","628fa9e1afc3de7797cb6e2f","F1","batch6","","null","<p class=block-text>Trial 57 out of 78</p>","null","pattern_show_trial_num","","","","","","","","","","","","","","","","","","","","","","","","",""
"","","","","","image-keyboard-response","135","286681","0.0-2.0-7.0-1.17","628fa9e1afc3de7797cb6e2f","F1","batch6","","1270.5","stim/no_13_2_b.png","j","pattern_response","true","j","pattern_02","1270.5","true","45","","","","","","","","","","","","","","","","","","",""
"","","","","","html-keyboard-response","136","287991","0.0-2.0-7.0-0.18","628fa9e1afc3de7797cb6e2f","F1","batch6","","null","<p class=block-text>Trial 58 out of 78</p>","null","pattern_show_trial_num","","","","","","","","","","","","","","","","","","","","","","","","",""
"","","","","","image-keyboard-response","137","289369","0.0-2.0-7.0-1.18","628fa9e1afc3de7797cb6e2f","F1","batch6","","1376","stim/no_23_1.png","j","pattern_response","true","j","pattern_08","1376","true","46","","","","","","","","","","","","","","","","","","",""
"","","","","","html-keyboard-response","138","290684","0.0-2.0-7.0-0.19","628fa9e1afc3de7797cb6e2f","F1","batch6","","null","<p class=block-text>Trial 59 out of 78</p>","null","pattern_show_trial_num","","","","","","","","","","","","","","","","","","","","","","","","",""
"","","","","","image-keyboard-response","139","291635","0.0-2.0-7.0-1.19","628fa9e1afc3de7797cb6e2f","F1","batch6","","949.8999999761581","stim/yes_14_hor_b1_w.png","f","pattern_response","true","f","pattern_43","949.8999999761581","true","47","","","","","","","","","","","","","","","","","","",""
"","","","","","html-keyboard-response","140","292946","0.0-2.0-7.0-0.20","628fa9e1afc3de7797cb6e2f","F1","batch6","","null","<p class=block-text>Trial 60 out of 78</p>","null","pattern_show_trial_num","","","","","","","","","","","","","","","","","","","","","","","","",""
"","","","","","image-keyboard-response","141","295145","0.0-2.0-7.0-1.20","628fa9e1afc3de7797cb6e2f","F1","batch6","","2197.699999988079","stim/yes_55_hor_w1_w.png","j","pattern_response","false","f","pattern_75","2197.699999988079","false","47","","","","","","","","","","","","","","","","","","",""
"","","","","","html-keyboard-response","142","296447","0.0-2.0-7.0-0.21","628fa9e1afc3de7797cb6e2f","F1","batch6","","null","<p class=block-text>Trial 61 out of 78</p>","null","pattern_show_trial_num","","","","","","","","","","","","","","","","","","","","","","","","",""
"","","","","","image-keyboard-response","143","297816","0.0-2.0-7.0-1.21","628fa9e1afc3de7797cb6e2f","F1","batch6","","1368.2000000476837","stim/yes_29_ver_w1.png","f","pattern_response","true","f","pattern_53","1368.2000000476837","true","48","","","","","","","","","","","","","","","","","","",""
"","","","","","html-keyboard-response","144","299136","0.0-2.0-7.0-0.22","628fa9e1afc3de7797cb6e2f","F1","batch6","","null","<p class=block-text>Trial 62 out of 78</p>","null","pattern_show_trial_num","","","","","","","","","","","","","","","","","","","","","","","","",""
"","","","","","image-keyboard-response","145","300921","0.0-2.0-7.0-1.22","628fa9e1afc3de7797cb6e2f","F1","batch6","","1783.300000011921","stim/no_29_1_b.png","j","pattern_response","true","j","pattern_12","1783.300000011921","true","49","","","","","","","","","","","","","","","","","","",""
"","","","","","html-keyboard-response","146","302234","0.0-2.0-7.0-0.23","628fa9e1afc3de7797cb6e2f","F1","batch6","","null","<p class=block-text>Trial 63 out of 78</p>","null","pattern_show_trial_num","","","","","","","","","","","","","","","","","","","","","","","","",""
"","","","","","image-keyboard-response","147","303896","0.0-2.0-7.0-1.23","628fa9e1afc3de7797cb6e2f","F1","batch6","","1661.699999988079","stim/no_38_1_b.png","j","pattern_response","true","j","pattern_20","1661.699999988079","true","50","","","","","","","","","","","","","","","","","","",""
"","","","","","html-keyboard-response","148","305213","0.0-2.0-7.0-0.24","628fa9e1afc3de7797cb6e2f","F1","batch6","","null","<p class=block-text>Trial 64 out of 78</p>","null","pattern_show_trial_num","","","","","","","","","","","","","","","","","","","","","","","","",""
"","","","","","image-keyboard-response","149","306721","0.0-2.0-7.0-1.24","628fa9e1afc3de7797cb6e2f","F1","batch6","","1506.699999988079","stim/yes_40_dia_b1_b.png","j","pattern_response","false","f","pattern_63","1506.699999988079","false","50","","","","","","","","","","","","","","","","","","",""
"","","","","","html-keyboard-response","150","308024","0.0-2.0-7.0-0.25","628fa9e1afc3de7797cb6e2f","F1","batch6","","null","<p class=block-text>Trial 65 out of 78</p>","null","pattern_show_trial_num","","","","","","","","","","","","","","","","","","","","","","","","",""
"","","","","","image-keyboard-response","151","309960","0.0-2.0-7.0-1.25","628fa9e1afc3de7797cb6e2f","F1","batch6","","1935.300000011921","stim/no_62_1_w.png","j","pattern_response","true","j","pattern_36","1935.300000011921","true","51","","","","","","","","","","","","","","","","","","",""
"","","","","","html-keyboard-response","152","311277","0.0-2.0-7.0-0.26","628fa9e1afc3de7797cb6e2f","F1","batch6","","null","<p class=block-text>Trial 66 out of 78</p>","null","pattern_show_trial_num","","","","","","","","","","","","","","","","","","","","","","","","",""
"","","","","","image-keyboard-response","153","312496","0.0-2.0-7.0-1.26","628fa9e1afc3de7797cb6e2f","F1","batch6","","1218.199999988079","stim/yes_35_dia_b1.png","f","pattern_response","true","f","pattern_57","1218.199999988079","true","52","","","","","","","","","","","","","","","","","","",""
"","","","","","html-keyboard-response","154","313814","0.0-2.0-7.0-0.27","628fa9e1afc3de7797cb6e2f","F1","batch6","","null","<p class=block-text>Trial 67 out of 78</p>","null","pattern_show_trial_num","","","","","","","","","","","","","","","","","","","","","","","","",""
"","","","","","image-keyboard-response","155","315355","0.0-2.0-7.0-1.27","628fa9e1afc3de7797cb6e2f","F1","batch6","","1540.1000000238419","stim/no_36_2_w.png","j","pattern_response","true","j","pattern_18","1540.1000000238419","true","53","","","","","","","","","","","","","","","","","","",""
"","","","","","html-keyboard-response","156","316668","0.0-2.0-7.0-0.28","628fa9e1afc3de7797cb6e2f","F1","batch6","","null","<p class=block-text>Trial 68 out of 78</p>","null","pattern_show_trial_num","","","","","","","","","","","","","","","","","","","","","","","","",""
"","","","","","image-keyboard-response","157","317537","0.0-2.0-7.0-1.28","628fa9e1afc3de7797cb6e2f","F1","batch6","","867.8999999761581","stim/yes_22_ver_w1.png","f","pattern_response","true","f","pattern_47","867.8999999761581","true","54","","","","","","","","","","","","","","","","","","",""
"","","","","","html-keyboard-response","158","318857","0.0-2.0-7.0-0.29","628fa9e1afc3de7797cb6e2f","F1","batch6","","null","<p class=block-text>Trial 69 out of 78</p>","null","pattern_show_trial_num","","","","","","","","","","","","","","","","","","","","","","","","",""
"","","","","","image-keyboard-response","159","321056","0.0-2.0-7.0-1.29","628fa9e1afc3de7797cb6e2f","F1","batch6","","2198.399999976158","stim/yes_50_dia_w1.png","j","pattern_response","false","f","pattern_71","2198.399999976158","false","54","","","","","","","","","","","","","","","","","","",""
"","","","","","html-keyboard-response","160","322377","0.0-2.0-7.0-0.30","628fa9e1afc3de7797cb6e2f","F1","batch6","","null","<p class=block-text>Trial 70 out of 78</p>","null","pattern_show_trial_num","","","","","","","","","","","","","","","","","","","","","","","","",""
"","","","","","image-keyboard-response","161","324392","0.0-2.0-7.0-1.30","628fa9e1afc3de7797cb6e2f","F1","batch6","","2014.699999988079","stim/yes_37_dia_w1.png","j","pattern_response","false","f","pattern_59","2014.699999988079","false","54","","","","","","","","","","","","","","","","","","",""
"","","","","","html-keyboard-response","162","325710","0.0-2.0-7.0-0.31","628fa9e1afc3de7797cb6e2f","F1","batch6","","null","<p class=block-text>Trial 71 out of 78</p>","null","pattern_show_trial_num","","","","","","","","","","","","","","","","","","","","","","","","",""
"","","","","","image-keyboard-response","163","327665","0.0-2.0-7.0-1.31","628fa9e1afc3de7797cb6e2f","F1","batch6","","1953.6000000238419","stim/yes_60_ver_b1_b.png","j","pattern_response","false","f","pattern_77","1953.6000000238419","false","54","","","","","","","","","","","","","","","","","","",""
"","","","","","html-keyboard-response","164","328986","0.0-2.0-7.0-0.32","628fa9e1afc3de7797cb6e2f","F1","batch6","","null","<p class=block-text>Trial 72 out of 78</p>","null","pattern_show_trial_num","","","","","","","","","","","","","","","","","","","","","","","","",""
"","","","","","image-keyboard-response","165","330720","0.0-2.0-7.0-1.32","628fa9e1afc3de7797cb6e2f","F1","batch6","","1732.9000000357628","stim/no_42_1_w.png","j","pattern_response","true","j","pattern_22","1732.9000000357628","true","55","","","","","","","","","","","","","","","","","","",""
"","","","","","html-keyboard-response","166","332024","0.0-2.0-7.0-0.33","628fa9e1afc3de7797cb6e2f","F1","batch6","","null","<p class=block-text>Trial 73 out of 78</p>","null","pattern_show_trial_num","","","","","","","","","","","","","","","","","","","","","","","","",""
"","","","","","image-keyboard-response","167","333416","0.0-2.0-7.0-1.33","628fa9e1afc3de7797cb6e2f","F1","batch6","","1391.4000000357628","stim/yes_45_hor_b2_b.png","f","pattern_response","true","f","pattern_67","1391.4000000357628","true","56","","","","","","","","","","","","","","","","","","",""
"","","","","","html-keyboard-response","168","334727","0.0-2.0-7.0-0.34","628fa9e1afc3de7797cb6e2f","F1","batch6","","null","<p class=block-text>Trial 74 out of 78</p>","null","pattern_show_trial_num","","","","","","","","","","","","","","","","","","","","","","","","",""
"","","","","","image-keyboard-response","169","335616","0.0-2.0-7.0-1.34","628fa9e1afc3de7797cb6e2f","F1","batch6","","888.3999999761581","stim/yes_17_dia_w1.png","f","pattern_response","true","f","pattern_45","888.3999999761581","true","57","","","","","","","","","","","","","","","","","","",""
"","","","","","html-keyboard-response","170","336945","0.0-2.0-7.0-0.35","628fa9e1afc3de7797cb6e2f","F1","batch6","","null","<p class=block-text>Trial 75 out of 78</p>","null","pattern_show_trial_num","","","","","","","","","","","","","","","","","","","","","","","","",""
"","","","","","image-keyboard-response","171","338793","0.0-2.0-7.0-1.35","628fa9e1afc3de7797cb6e2f","F1","batch6","","1846.800000011921","stim/no_34_1_b.png","j","pattern_response","true","j","pattern_16","1846.800000011921","true","58","","","","","","","","","","","","","","","","","","",""
"","","","","","html-keyboard-response","172","340108","0.0-2.0-7.0-0.36","628fa9e1afc3de7797cb6e2f","F1","batch6","","null","<p class=block-text>Trial 76 out of 78</p>","null","pattern_show_trial_num","","","","","","","","","","","","","","","","","","","","","","","","",""
"","","","","","image-keyboard-response","173","341040","0.0-2.0-7.0-1.36","628fa9e1afc3de7797cb6e2f","F1","batch6","","931.7999999523163","stim/yes_28_ver_b1.png","f","pattern_response","true","f","pattern_51","931.7999999523163","true","59","","","","","","","","","","","","","","","","","","",""
"","","","","","html-keyboard-response","174","342356","0.0-2.0-7.0-0.37","628fa9e1afc3de7797cb6e2f","F1","batch6","","null","<p class=block-text>Trial 77 out of 78</p>","null","pattern_show_trial_num","","","","","","","","","","","","","","","","","","","","","","","","",""
"","","","","","image-keyboard-response","175","344096","0.0-2.0-7.0-1.37","628fa9e1afc3de7797cb6e2f","F1","batch6","","1739.4000000357628","stim/yes_43_ver_w1_w.png","f","pattern_response","true","f","pattern_65","1739.4000000357628","true","60","","","","","","","","","","","","","","","","","","",""
"","","","","","html-keyboard-response","176","345415","0.0-2.0-7.0-0.38","628fa9e1afc3de7797cb6e2f","F1","batch6","","null","<p class=block-text>Trial 78 out of 78</p>","null","pattern_show_trial_num","","","","","","","","","","","","","","","","","","","","","","","","",""
"","","","","","image-keyboard-response","177","346880","0.0-2.0-7.0-1.38","628fa9e1afc3de7797cb6e2f","F1","batch6","","1463.8999999761581","stim/yes_38_hor_b1_b.png","f","pattern_response","true","f","pattern_61","1463.8999999761581","true","61","","","","","","","","","","","","","","","","","","",""
"","","","","","html-button-response","178","780256","0.0-2.0-8.0","628fa9e1afc3de7797cb6e2f","F1","batch6","","432872.8000000119","<p class = block-text>This concludes the 4-in-a-row detection game.Thank you for your responses!<br>
            You responded correctly on 78% of the trials.<br>
            When you are ready, press ""Continue"" button to continue </p>","0","","","","","","","","","","","","","","","","","","","","","","","","","",""
"true","","","","","fullscreen","179","784964","0.0-3.0-0.0","628fa9e1afc3de7797cb6e2f","F1","batch6","","","","","spm_fullscreen","","","","","","","","","","","","","","","","","","","","","","","","",""
"","","","","","html-button-response","180","798400","0.0-3.0-1.0","628fa9e1afc3de7797cb6e2f","F1","batch6","","13434.799999952316","<p class = block-text><b>Instructions</b> <br>This is a widely used intelligence test in research. <br>In this test, a figure with a missing piece will be presented.<br>Below the figure are alternative pieces to complete the figure, only one of which is correct.<br> Different figures might involve different principles for obtaining the missing piece<br>Your job is to select the most logical piece to complete the figure.</p>","0","","","","","","","","","","","","","","","","","","","","","","","","","",""
"","","","","","html-keyboard-response","181","799201","0.0-3.0-2.0-0.0","628fa9e1afc3de7797cb6e2f","F1","batch6","","null","<p class=block-text>Trial 1 out of 60</p>","null","spm_show_trial_num","","","","","","","","","","","","","","","","","","","","","","","","",""
"","","","","","image-button-response","182","802945","0.0-3.0-2.0-1.0","628fa9e1afc3de7797cb6e2f","F1","batch6","","3742.399999976158","img/question_1_1.jpeg","1","spm_respsonse","0","4","mat_01","","","","","","0","3742.399999976158","","","","","","","","","","","","","","",""
"","","","","","html-keyboard-response","183","804001","0.0-3.0-2.0-0.1","628fa9e1afc3de7797cb6e2f","F1","batch6","","null","<p class=block-text>Trial 2 out of 60</p>","null","spm_show_trial_num","","","","","","","","","","","","","","","","","","","","","","","","",""
"","","","","","image-button-response","184","806839","0.0-3.0-2.0-1.1","628fa9e1afc3de7797cb6e2f","F1","batch6","","2836","img/question_1_2.jpeg","4","spm_respsonse","1","5","mat_02","","","","","","1","2836","","","","","","","","","","","","","","",""
"","","","","","html-keyboard-response","185","807900","0.0-3.0-2.0-0.2","628fa9e1afc3de7797cb6e2f","F1","batch6","","null","<p class=block-text>Trial 3 out of 60</p>","null","spm_show_trial_num","","","","","","","","","","","","","","","","","","","","","","","","",""
"","","","","","image-button-response","186","811524","0.0-3.0-2.0-1.2","628fa9e1afc3de7797cb6e2f","F1","batch6","","3622.2999999523163","img/question_1_3.jpeg","0","spm_respsonse","1","1","mat_03","","","","","","1","3622.2999999523163","","","","","","","","","","","","","","",""
"","","","","","html-keyboard-response","187","812585","0.0-3.0-2.0-0.3","628fa9e1afc3de7797cb6e2f","F1","batch6","","null","<p class=block-text>Trial 4 out of 60</p>","null","spm_show_trial_num","","","","","","","","","","","","","","","","","","","","","","","","",""
"","","","","","image-button-response","188","818254","0.0-3.0-2.0-1.3","628fa9e1afc3de7797cb6e2f","F1","batch6","","5667.099999964237","img/question_1_4.jpeg","1","spm_respsonse","1","2","mat_04","","","","","","1","5667.099999964237","","","","","","","","","","","","","","",""
"","","","","","html-keyboard-response","189","819321","0.0-3.0-2.0-0.4","628fa9e1afc3de7797cb6e2f","F1","batch6","","null","<p class=block-text>Trial 5 out of 60</p>","null","spm_show_trial_num","","","","","","","","","","","","","","","","","","","","","","","","",""
"","","","","","image-button-response","190","829724","0.0-3.0-2.0-1.4","628fa9e1afc3de7797cb6e2f","F1","batch6","","10401.399999976158","img/question_1_5.jpeg","5","spm_respsonse","1","6","mat_05","","","","","","1","10401.399999976158","","","","","","","","","","","","","","",""
"","","","","","html-keyboard-response","191","830788","0.0-3.0-2.0-0.5","628fa9e1afc3de7797cb6e2f","F1","batch6","","null","<p class=block-text>Trial 6 out of 60</p>","null","spm_show_trial_num","","","","","","","","","","","","","","","","","","","","","","","","",""
"","","","","","image-button-response","192","841256","0.0-3.0-2.0-1.5","628fa9e1afc3de7797cb6e2f","F1","batch6","","10465.899999976158","img/question_1_6.jpeg","2","spm_respsonse","1","3","mat_06","","","","","","1","10465.899999976158","","","","","","","","","","","","","","",""
"","","","","","html-keyboard-response","193","842321","0.0-3.0-2.0-0.6","628fa9e1afc3de7797cb6e2f","F1","batch6","","null","<p class=block-text>Trial 7 out of 60</p>","null","spm_show_trial_num","","","","","","","","","","","","","","","","","","","","","","","","",""
"","","","","","image-button-response","194","850441","0.0-3.0-2.0-1.6","628fa9e1afc3de7797cb6e2f","F1","batch6","","8118.300000011921","img/question_1_7.jpeg","3","spm_respsonse","0","6","mat_07","","","","","","0","8118.300000011921","","","","","","","","","","","","","","",""
"","","","","","html-keyboard-response","195","851512","0.0-3.0-2.0-0.7","628fa9e1afc3de7797cb6e2f","F1","batch6","","null","<p class=block-text>Trial 8 out of 60</p>","null","spm_show_trial_num","","","","","","","","","","","","","","","","","","","","","","","","",""
"","","","","","image-button-response","196","856777","0.0-3.0-2.0-1.7","628fa9e1afc3de7797cb6e2f","F1","batch6","","5263.400000035763","img/question_1_8.jpeg","5","spm_respsonse","0","2","mat_08","","","","","","0","5263.400000035763","","","","","","","","","","","","","","",""
"","","","","","html-keyboard-response","197","857838","0.0-3.0-2.0-0.8","628fa9e1afc3de7797cb6e2f","F1","batch6","","null","<p class=block-text>Trial 9 out of 60</p>","null","spm_show_trial_num","","","","","","","","","","","","","","","","","","","","","","","","",""
"","","","","","image-button-response","198","862385","0.0-3.0-2.0-1.8","628fa9e1afc3de7797cb6e2f","F1","batch6","","4545.299999952316","img/question_1_9.jpeg","4","spm_respsonse","0","1","mat_09","","","","","","0","4545.299999952316","","","","","","","","","","","","","","",""
"","","","","","html-keyboard-response","199","863444","0.0-3.0-2.0-0.9","628fa9e1afc3de7797cb6e2f","F1","batch6","","null","<p class=block-text>Trial 10 out of 60</p>","null","spm_show_trial_num","","","","","","","","","","","","","","","","","","","","","","","","",""
"","","","","","image-button-response","200","868430","0.0-3.0-2.0-1.9","628fa9e1afc3de7797cb6e2f","F1","batch6","","4984.099999964237","img/question_1_10.jpeg","2","spm_respsonse","1","3","mat_10","","","","","","1","4984.099999964237","","","","","","","","","","","","","","",""
"","","","","","html-keyboard-response","201","869505","0.0-3.0-2.0-0.10","628fa9e1afc3de7797cb6e2f","F1","batch6","","null","<p class=block-text>Trial 11 out of 60</p>","null","spm_show_trial_num","","","","","","","","","","","","","","","","","","","","","","","","",""
"","","","","","image-button-response","202","873396","0.0-3.0-2.0-1.10","628fa9e1afc3de7797cb6e2f","F1","batch6","","3889.300000011921","img/question_1_11.jpeg","2","spm_respsonse","0","4","mat_11","","","","","","0","3889.300000011921","","","","","","","","","","","","","","",""
"","","","","","html-keyboard-response","203","874447","0.0-3.0-2.0-0.11","628fa9e1afc3de7797cb6e2f","F1","batch6","","null","<p class=block-text>Trial 12 out of 60</p>","null","spm_show_trial_num","","","","","","","","","","","","","","","","","","","","","","","","",""
"","","","","","image-button-response","204","881241","0.0-3.0-2.0-1.11","628fa9e1afc3de7797cb6e2f","F1","batch6","","6792.399999976158","img/question_1_12.jpeg","1","spm_respsonse","0","5","mat_12","","","","","","0","6792.399999976158","","","","","","","","","","","","","","",""
"","","","","","html-keyboard-response","205","882316","0.0-3.0-2.0-0.12","628fa9e1afc3de7797cb6e2f","F1","batch6","","null","<p class=block-text>Trial 13 out of 60</p>","null","spm_show_trial_num","","","","","","","","","","","","","","","","","","","","","","","","",""
"","","","","","image-button-response","206","885247","0.0-3.0-2.0-1.12","628fa9e1afc3de7797cb6e2f","F1","batch6","","2929.2999999523163","img/question_2_1.jpeg","1","spm_respsonse","1","2","mat_13","","","","","","1","2929.2999999523163","","","","","","","","","","","","","","",""
"","","","","","html-keyboard-response","207","886321","0.0-3.0-2.0-0.13","628fa9e1afc3de7797cb6e2f","F1","batch6","","null","<p class=block-text>Trial 14 out of 60</p>","null","spm_show_trial_num","","","","","","","","","","","","","","","","","","","","","","","","",""
"","","","","","image-button-response","208","893791","0.0-3.0-2.0-1.13","628fa9e1afc3de7797cb6e2f","F1","batch6","","7468.300000011921","img/question_2_2.jpeg","5","spm_respsonse","1","6","mat_14","","","","","","1","7468.300000011921","","","","","","","","","","","","","","",""
"","","","","","html-keyboard-response","209","894852","0.0-3.0-2.0-0.14","628fa9e1afc3de7797cb6e2f","F1","batch6","","null","<p class=block-text>Trial 15 out of 60</p>","null","spm_show_trial_num","","","","","","","","","","","","","","","","","","","","","","","","",""
"","","","","","image-button-response","210","899243","0.0-3.0-2.0-1.14","628fa9e1afc3de7797cb6e2f","F1","batch6","","4389.5","img/question_2_3.jpeg","4","spm_respsonse","0","1","mat_15","","","","","","0","4389.5","","","","","","","","","","","","","","",""
"","","","","","html-keyboard-response","211","900303","0.0-3.0-2.0-0.15","628fa9e1afc3de7797cb6e2f","F1","batch6","","null","<p class=block-text>Trial 16 out of 60</p>","null","spm_show_trial_num","","","","","","","","","","","","","","","","","","","","","","","","",""
"","","","","","image-button-response","212","910720","0.0-3.0-2.0-1.15","628fa9e1afc3de7797cb6e2f","F1","batch6","","10415.100000023842","img/question_2_4.jpeg","1","spm_respsonse","1","2","mat_16","","","","","","1","10415.100000023842","","","","","","","","","","","","","","",""
"","","","","","html-keyboard-response","213","911771","0.0-3.0-2.0-0.16","628fa9e1afc3de7797cb6e2f","F1","batch6","","null","<p class=block-text>Trial 17 out of 60</p>","null","spm_show_trial_num","","","","","","","","","","","","","","","","","","","","","","","","",""
"","","","","","image-button-response","214","929348","0.0-3.0-2.0-1.16","628fa9e1afc3de7797cb6e2f","F1","batch6","","17575.80000001192","img/question_2_5.jpeg","3","spm_respsonse","0","1","mat_17","","","","","","0","17575.80000001192","","","","","","","","","","","","","","",""
"","","","","","html-keyboard-response","215","930414","0.0-3.0-2.0-0.17","628fa9e1afc3de7797cb6e2f","F1","batch6","","null","<p class=block-text>Trial 18 out of 60</p>","null","spm_show_trial_num","","","","","","","","","","","","","","","","","","","","","","","","",""
"","","","","","image-button-response","216","937253","0.0-3.0-2.0-1.17","628fa9e1afc3de7797cb6e2f","F1","batch6","","6837.699999988079","img/question_2_6.jpeg","1","spm_respsonse","0","3","mat_18","","","","","","0","6837.699999988079","","","","","","","","","","","","","","",""
"","","","","","html-keyboard-response","217","938313","0.0-3.0-2.0-0.18","628fa9e1afc3de7797cb6e2f","F1","batch6","","null","<p class=block-text>Trial 19 out of 60</p>","null","spm_show_trial_num","","","","","","","","","","","","","","","","","","","","","","","","",""
"","","","","","image-button-response","218","942710","0.0-3.0-2.0-1.18","628fa9e1afc3de7797cb6e2f","F1","batch6","","4395.699999988079","img/question_2_7.jpeg","5","spm_respsonse","0","5","mat_19","","","","","","0","4395.699999988079","","","","","","","","","","","","","","",""
"","","","","","html-keyboard-response","219","943775","0.0-3.0-2.0-0.19","628fa9e1afc3de7797cb6e2f","F1","batch6","","null","<p class=block-text>Trial 20 out of 60</p>","null","spm_show_trial_num","","","","","","","","","","","","","","","","","","","","","","","","",""
"","","","","","image-button-response","220","951464","0.0-3.0-2.0-1.19","628fa9e1afc3de7797cb6e2f","F1","batch6","","7688.299999952316","img/question_2_8.jpeg","3","spm_respsonse","0","6","mat_20","","","","","","0","7688.299999952316","","","","","","","","","","","","","","",""
"","","","","","html-keyboard-response","221","952523","0.0-3.0-2.0-0.20","628fa9e1afc3de7797cb6e2f","F1","batch6","","null","<p class=block-text>Trial 21 out of 60</p>","null","spm_show_trial_num","","","","","","","","","","","","","","","","","","","","","","","","",""
"","","","","","image-button-response","222","956655","0.0-3.0-2.0-1.20","628fa9e1afc3de7797cb6e2f","F1","batch6","","4130.300000011921","img/question_2_9.jpeg","4","spm_respsonse","0","4","mat_21","","","","","","0","4130.300000011921","","","","","","","","","","","","","","",""
"","","","","","html-keyboard-response","223","957727","0.0-3.0-2.0-0.21","628fa9e1afc3de7797cb6e2f","F1","batch6","","null","<p class=block-text>Trial 22 out of 60</p>","null","spm_show_trial_num","","","","","","","","","","","","","","","","","","","","","","","","",""
"","","","","","image-button-response","224","966655","0.0-3.0-2.0-1.21","628fa9e1afc3de7797cb6e2f","F1","batch6","","8926.700000047684","img/question_2_10.jpeg","1","spm_respsonse","0","3","mat_22","","","","","","0","8926.700000047684","","","","","","","","","","","","","","",""
"","","","","","html-keyboard-response","225","967706","0.0-3.0-2.0-0.22","628fa9e1afc3de7797cb6e2f","F1","batch6","","null","<p class=block-text>Trial 23 out of 60</p>","null","spm_show_trial_num","","","","","","","","","","","","","","","","","","","","","","","","",""
"","","","","","image-button-response","226","971503","0.0-3.0-2.0-1.22","628fa9e1afc3de7797cb6e2f","F1","batch6","","3795.300000011921","img/question_2_11.jpeg","1","spm_respsonse","0","4","mat_23","","","","","","0","3795.300000011921","","","","","","","","","","","","","","",""
"","","","","","html-keyboard-response","227","972569","0.0-3.0-2.0-0.23","628fa9e1afc3de7797cb6e2f","F1","batch6","","null","<p class=block-text>Trial 24 out of 60</p>","null","spm_show_trial_num","","","","","","","","","","","","","","","","","","","","","","","","",""
"","","","","","image-button-response","228","977525","0.0-3.0-2.0-1.23","628fa9e1afc3de7797cb6e2f","F1","batch6","","4954.300000011921","img/question_2_12.jpeg","2","spm_respsonse","0","5","mat_24","","","","","","0","4954.300000011921","","","","","","","","","","","","","","",""
"","","","","","html-button-response","229","979878","0.0-3.0-3.0","628fa9e1afc3de7797cb6e2f","F1","batch6","","2087.5","<p class = block-text>Attention check: Please choose 1<br></p>","0","attention_check","true","","","","","","","","","","","","","","","","","","","","","","","",""
"","","","","","html-keyboard-response","230","980680","0.0-3.0-4.0-0.0","628fa9e1afc3de7797cb6e2f","F1","batch6","","null","<p class=block-text>Trial 25 out of 60</p>","null","spm_show_trial_num","","","","","","","","","","","","","","","","","","","","","","","","",""
"","","","","","image-button-response","231","988425","0.0-3.0-4.0-1.0","628fa9e1afc3de7797cb6e2f","F1","batch6","","7743.600000023842","img/question_3_1.jpeg","7","spm_respsonse","1","8","mat_25","","","","","","1","7743.600000023842","","","","","","","","","","","","","","",""
"","","","","","html-keyboard-response","232","989493","0.0-3.0-4.0-0.1","628fa9e1afc3de7797cb6e2f","F1","batch6","","null","<p class=block-text>Trial 26 out of 60</p>","null","spm_show_trial_num","","","","","","","","","","","","","","","","","","","","","","","","",""
"","","","","","image-button-response","233","1000831","0.0-3.0-4.0-1.1","628fa9e1afc3de7797cb6e2f","F1","batch6","","11336.399999976158","img/question_3_2.jpeg","1","spm_respsonse","1","2","mat_26","","","","","","1","11336.399999976158","","","","","","","","","","","","","","",""
"","","","","","html-keyboard-response","234","1001902","0.0-3.0-4.0-0.2","628fa9e1afc3de7797cb6e2f","F1","batch6","","null","<p class=block-text>Trial 27 out of 60</p>","null","spm_show_trial_num","","","","","","","","","","","","","","","","","","","","","","","","",""
"","","","","","image-button-response","235","1031297","0.0-3.0-4.0-1.2","628fa9e1afc3de7797cb6e2f","F1","batch6","","29392.69999998808","img/question_3_3.jpeg","2","spm_respsonse","1","3","mat_27","","","","","","1","29392.69999998808","","","","","","","","","","","","","","",""
"","","","","","html-keyboard-response","236","1032365","0.0-3.0-4.0-0.3","628fa9e1afc3de7797cb6e2f","F1","batch6","","null","<p class=block-text>Trial 28 out of 60</p>","null","spm_show_trial_num","","","","","","","","","","","","","","","","","","","","","","","","",""
"","","","","","image-button-response","237","1037020","0.0-3.0-4.0-1.3","628fa9e1afc3de7797cb6e2f","F1","batch6","","4653.599999964237","img/question_3_4.jpeg","3","spm_respsonse","0","8","mat_28","","","","","","0","4653.599999964237","","","","","","","","","","","","","","",""
"","","","","","html-keyboard-response","238","1038088","0.0-3.0-4.0-0.4","628fa9e1afc3de7797cb6e2f","F1","batch6","","null","<p class=block-text>Trial 29 out of 60</p>","null","spm_show_trial_num","","","","","","","","","","","","","","","","","","","","","","","","",""
"","","","","","image-button-response","239","1043620","0.0-3.0-4.0-1.4","628fa9e1afc3de7797cb6e2f","F1","batch6","","5530.5","img/question_3_5.jpeg","7","spm_respsonse","0","7","mat_29","","","","","","0","5530.5","","","","","","","","","","","","","","",""
"","","","","","html-keyboard-response","240","1044673","0.0-3.0-4.0-0.5","628fa9e1afc3de7797cb6e2f","F1","batch6","","null","<p class=block-text>Trial 30 out of 60</p>","null","spm_show_trial_num","","","","","","","","","","","","","","","","","","","","","","","","",""
"","","","","","image-button-response","241","1051155","0.0-3.0-4.0-1.5","628fa9e1afc3de7797cb6e2f","F1","batch6","","6480.699999988079","img/question_3_6.jpeg","2","spm_respsonse","0","4","mat_30","","","","","","0","6480.699999988079","","","","","","","","","","","","","","",""
"","","","","","html-keyboard-response","242","1052210","0.0-3.0-4.0-0.6","628fa9e1afc3de7797cb6e2f","F1","batch6","","null","<p class=block-text>Trial 31 out of 60</p>","null","spm_show_trial_num","","","","","","","","","","","","","","","","","","","","","","","","",""
"","","","","","image-button-response","243","1058124","0.0-3.0-4.0-1.6","628fa9e1afc3de7797cb6e2f","F1","batch6","","5911.899999976158","img/question_3_7.jpeg","4","spm_respsonse","1","5","mat_31","","","","","","1","5911.899999976158","","","","","","","","","","","","","","",""
"","","","","","html-keyboard-response","244","1059178","0.0-3.0-4.0-0.7","628fa9e1afc3de7797cb6e2f","F1","batch6","","null","<p class=block-text>Trial 32 out of 60</p>","null","spm_show_trial_num","","","","","","","","","","","","","","","","","","","","","","","","",""
"","","","","","image-button-response","245","1082324","0.0-3.0-4.0-1.7","628fa9e1afc3de7797cb6e2f","F1","batch6","","23144.80000001192","img/question_3_8.jpeg","2","spm_respsonse","0","1","mat_32","","","","","","0","23144.80000001192","","","","","","","","","","","","","","",""
"","","","","","html-keyboard-response","246","1083400","0.0-3.0-4.0-0.8","628fa9e1afc3de7797cb6e2f","F1","batch6","","null","<p class=block-text>Trial 33 out of 60</p>","null","spm_show_trial_num","","","","","","","","","","","","","","","","","","","","","","","","",""
"","","","","","image-button-response","247","1092810","0.0-3.0-4.0-1.8","628fa9e1afc3de7797cb6e2f","F1","batch6","","9408.399999976158","img/question_3_9.jpeg","6","spm_respsonse","1","7","mat_33","","","","","","1","9408.399999976158","","","","","","","","","","","","","","",""
"","","","","","html-keyboard-response","248","1093862","0.0-3.0-4.0-0.9","628fa9e1afc3de7797cb6e2f","F1","batch6","","null","<p class=block-text>Trial 34 out of 60</p>","null","spm_show_trial_num","","","","","","","","","","","","","","","","","","","","","","","","",""
"","","","","","image-button-response","249","1116971","0.0-3.0-4.0-1.9","628fa9e1afc3de7797cb6e2f","F1","batch6","","23107.19999998808","img/question_3_10.jpeg","4","spm_respsonse","0","6","mat_34","","","","","","0","23107.19999998808","","","","","","","","","","","","","","",""
"","","","","","html-keyboard-response","250","1118038","0.0-3.0-4.0-0.10","628fa9e1afc3de7797cb6e2f","F1","batch6","","null","<p class=block-text>Trial 35 out of 60</p>","null","spm_show_trial_num","","","","","","","","","","","","","","","","","","","","","","","","",""
"","","","","","image-button-response","251","1140710","0.0-3.0-4.0-1.10","628fa9e1afc3de7797cb6e2f","F1","batch6","","22670.599999964237","img/question_3_11.jpeg","4","spm_respsonse","0","1","mat_35","","","","","","0","22670.599999964237","","","","","","","","","","","","","","",""
"","","","","","html-keyboard-response","252","1141766","0.0-3.0-4.0-0.11","628fa9e1afc3de7797cb6e2f","F1","batch6","","null","<p class=block-text>Trial 36 out of 60</p>","null","spm_show_trial_num","","","","","","","","","","","","","","","","","","","","","","","","",""
"","","","","","image-button-response","253","1152310","0.0-3.0-4.0-1.11","628fa9e1afc3de7797cb6e2f","F1","batch6","","10542.400000035763","img/question_3_12.jpeg","7","spm_respsonse","0","2","mat_36","","","","","","0","10542.400000035763","","","","","","","","","","","","","","",""
"","","","","","html-keyboard-response","254","1153380","0.0-3.0-4.0-0.12","628fa9e1afc3de7797cb6e2f","F1","batch6","","null","<p class=block-text>Trial 37 out of 60</p>","null","spm_show_trial_num","","","","","","","","","","","","","","","","","","","","","","","","",""
"","","","","","image-button-response","255","1165561","0.0-3.0-4.0-1.12","628fa9e1afc3de7797cb6e2f","F1","batch6","","12179.399999976158","img/question_4_1.jpeg","2","spm_respsonse","1","3","mat_37","","","","","","1","12179.399999976158","","","","","","","","","","","","","","",""
"","","","","","html-keyboard-response","256","1166616","0.0-3.0-4.0-0.13","628fa9e1afc3de7797cb6e2f","F1","batch6","","null","<p class=block-text>Trial 38 out of 60</p>","null","spm_show_trial_num","","","","","","","","","","","","","","","","","","","","","","","","",""
"","","","","","image-button-response","257","1191573","0.0-3.0-4.0-1.13","628fa9e1afc3de7797cb6e2f","F1","batch6","","24955.299999952316","img/question_4_2.jpeg","1","spm_respsonse","0","4","mat_38","","","","","","0","24955.299999952316","","","","","","","","","","","","","","",""
"","","","","","html-keyboard-response","258","1192639","0.0-3.0-4.0-0.14","628fa9e1afc3de7797cb6e2f","F1","batch6","","null","<p class=block-text>Trial 39 out of 60</p>","null","spm_show_trial_num","","","","","","","","","","","","","","","","","","","","","","","","",""
"","","","","","image-button-response","259","1206787","0.0-3.0-4.0-1.14","628fa9e1afc3de7797cb6e2f","F1","batch6","","14146.100000023842","img/question_4_3.jpeg","3","spm_respsonse","0","3","mat_39","","","","","","0","14146.100000023842","","","","","","","","","","","","","","",""
"","","","","","html-keyboard-response","260","1207852","0.0-3.0-4.0-0.15","628fa9e1afc3de7797cb6e2f","F1","batch6","","null","<p class=block-text>Trial 40 out of 60</p>","null","spm_show_trial_num","","","","","","","","","","","","","","","","","","","","","","","","",""
"","","","","","image-button-response","261","1218831","0.0-3.0-4.0-1.15","628fa9e1afc3de7797cb6e2f","F1","batch6","","10977.300000011921","img/question_4_4.jpeg","7","spm_respsonse","0","7","mat_40","","","","","","0","10977.300000011921","","","","","","","","","","","","","","",""
"","","","","","html-keyboard-response","262","1219889","0.0-3.0-4.0-0.16","628fa9e1afc3de7797cb6e2f","F1","batch6","","null","<p class=block-text>Trial 41 out of 60</p>","null","spm_show_trial_num","","","","","","","","","","","","","","","","","","","","","","","","",""
"","","","","","image-button-response","263","1233266","0.0-3.0-4.0-1.16","628fa9e1afc3de7797cb6e2f","F1","batch6","","13374.899999976158","img/question_4_5.jpeg","7","spm_respsonse","1","8","mat_41","","","","","","1","13374.899999976158","","","","","","","","","","","","","","",""
"","","","","","html-keyboard-response","264","1234334","0.0-3.0-4.0-0.17","628fa9e1afc3de7797cb6e2f","F1","batch6","","null","<p class=block-text>Trial 42 out of 60</p>","null","spm_show_trial_num","","","","","","","","","","","","","","","","","","","","","","","","",""
"","","","","","image-button-response","265","1252046","0.0-3.0-4.0-1.17","628fa9e1afc3de7797cb6e2f","F1","batch6","","17709.69999998808","img/question_4_6.jpeg","6","spm_respsonse","0","6","mat_42","","","","","","0","17709.69999998808","","","","","","","","","","","","","","",""
"","","","","","html-keyboard-response","266","1253102","0.0-3.0-4.0-0.18","628fa9e1afc3de7797cb6e2f","F1","batch6","","null","<p class=block-text>Trial 43 out of 60</p>","null","spm_show_trial_num","","","","","","","","","","","","","","","","","","","","","","","","",""
"","","","","","image-button-response","267","1260868","0.0-3.0-4.0-1.18","628fa9e1afc3de7797cb6e2f","F1","batch6","","7764.299999952316","img/question_4_7.jpeg","1","spm_respsonse","0","5","mat_43","","","","","","0","7764.299999952316","","","","","","","","","","","","","","",""
"","","","","","html-keyboard-response","268","1261935","0.0-3.0-4.0-0.19","628fa9e1afc3de7797cb6e2f","F1","batch6","","null","<p class=block-text>Trial 44 out of 60</p>","null","spm_show_trial_num","","","","","","","","","","","","","","","","","","","","","","","","",""
"","","","","","image-button-response","269","1275703","0.0-3.0-4.0-1.19","628fa9e1afc3de7797cb6e2f","F1","batch6","","13766.800000011921","img/question_4_8.jpeg","6","spm_respsonse","0","4","mat_44","","","","","","0","13766.800000011921","","","","","","","","","","","","","","",""
"","","","","","html-keyboard-response","270","1276760","0.0-3.0-4.0-0.20","628fa9e1afc3de7797cb6e2f","F1","batch6","","null","<p class=block-text>Trial 45 out of 60</p>","null","spm_show_trial_num","","","","","","","","","","","","","","","","","","","","","","","","",""
"","","","","","image-button-response","271","1293118","0.0-3.0-4.0-1.20","628fa9e1afc3de7797cb6e2f","F1","batch6","","16356.300000011921","img/question_4_9.jpeg","4","spm_respsonse","0","1","mat_45","","","","","","0","16356.300000011921","","","","","","","","","","","","","","",""
"","","","","","html-keyboard-response","272","1294178","0.0-3.0-4.0-0.21","628fa9e1afc3de7797cb6e2f","F1","batch6","","null","<p class=block-text>Trial 46 out of 60</p>","null","spm_show_trial_num","","","","","","","","","","","","","","","","","","","","","","","","",""
"","","","","","image-button-response","273","1305675","0.0-3.0-4.0-1.21","628fa9e1afc3de7797cb6e2f","F1","batch6","","11496","img/question_4_10.jpeg","5","spm_respsonse","0","2","mat_46","","","","","","0","11496","","","","","","","","","","","","","","",""
"","","","","","html-keyboard-response","274","1306741","0.0-3.0-4.0-0.22","628fa9e1afc3de7797cb6e2f","F1","batch6","","null","<p class=block-text>Trial 47 out of 60</p>","null","spm_show_trial_num","","","","","","","","","","","","","","","","","","","","","","","","",""
"","","","","","image-button-response","275","1314915","0.0-3.0-4.0-1.22","628fa9e1afc3de7797cb6e2f","F1","batch6","","8173","img/question_4_11.jpeg","7","spm_respsonse","0","5","mat_47","","","","","","0","8173","","","","","","","","","","","","","","",""
"","","","","","html-keyboard-response","276","1315968","0.0-3.0-4.0-0.23","628fa9e1afc3de7797cb6e2f","F1","batch6","","null","<p class=block-text>Trial 48 out of 60</p>","null","spm_show_trial_num","","","","","","","","","","","","","","","","","","","","","","","","",""
"","","","","","image-button-response","277","1340839","0.0-3.0-4.0-1.23","628fa9e1afc3de7797cb6e2f","F1","batch6","","24870.099999964237","img/question_4_12.jpeg","2","spm_respsonse","0","6","mat_48","","","","","","0","24870.099999964237","","","","","","","","","","","","","","",""
"","","","","","html-keyboard-response","278","1341894","0.0-3.0-4.0-0.24","628fa9e1afc3de7797cb6e2f","F1","batch6","","null","<p class=block-text>Trial 49 out of 60</p>","null","spm_show_trial_num","","","","","","","","","","","","","","","","","","","","","","","","",""
"","","","","","image-button-response","279","1363326","0.0-3.0-4.0-1.24","628fa9e1afc3de7797cb6e2f","F1","batch6","","21430.799999952316","img/question_5_1.jpeg","6","spm_respsonse","1","7","mat_49","","","","","","1","21430.799999952316","","","","","","","","","","","","","","",""
"","","","","","html-keyboard-response","280","1364381","0.0-3.0-4.0-0.25","628fa9e1afc3de7797cb6e2f","F1","batch6","","null","<p class=block-text>Trial 50 out of 60</p>","null","spm_show_trial_num","","","","","","","","","","","","","","","","","","","","","","","","",""
"","","","","","image-button-response","281","1381713","0.0-3.0-4.0-1.25","628fa9e1afc3de7797cb6e2f","F1","batch6","","17330.299999952316","img/question_5_2.jpeg","6","spm_respsonse","0","6","mat_50","","","","","","0","17330.299999952316","","","","","","","","","","","","","","",""
"","","","","","html-keyboard-response","282","1382768","0.0-3.0-4.0-0.26","628fa9e1afc3de7797cb6e2f","F1","batch6","","null","<p class=block-text>Trial 51 out of 60</p>","null","spm_show_trial_num","","","","","","","","","","","","","","","","","","","","","","","","",""
"","","","","","image-button-response","283","1402432","0.0-3.0-4.0-1.26","628fa9e1afc3de7797cb6e2f","F1","batch6","","19662","img/question_5_3.jpeg","3","spm_respsonse","0","8","mat_51","","","","","","0","19662","","","","","","","","","","","","","","",""
"","","","","","html-keyboard-response","284","1403493","0.0-3.0-4.0-0.27","628fa9e1afc3de7797cb6e2f","F1","batch6","","null","<p class=block-text>Trial 52 out of 60</p>","null","spm_show_trial_num","","","","","","","","","","","","","","","","","","","","","","","","",""
"","","","","","image-button-response","285","1419559","0.0-3.0-4.0-1.27","628fa9e1afc3de7797cb6e2f","F1","batch6","","16064.199999988079","img/question_5_4.jpeg","2","spm_respsonse","0","2","mat_52","","","","","","0","16064.199999988079","","","","","","","","","","","","","","",""
"","","","","","html-keyboard-response","286","1420617","0.0-3.0-4.0-0.28","628fa9e1afc3de7797cb6e2f","F1","batch6","","null","<p class=block-text>Trial 53 out of 60</p>","null","spm_show_trial_num","","","","","","","","","","","","","","","","","","","","","","","","",""
"","","","","","image-button-response","287","1443314","0.0-3.0-4.0-1.28","628fa9e1afc3de7797cb6e2f","F1","batch6","","22695.700000047684","img/question_5_5.jpeg","5","spm_respsonse","0","1","mat_53","","","","","","0","22695.700000047684","","","","","","","","","","","","","","",""
"","","","","","html-keyboard-response","288","1444378","0.0-3.0-4.0-0.29","628fa9e1afc3de7797cb6e2f","F1","batch6","","null","<p class=block-text>Trial 54 out of 60</p>","null","spm_show_trial_num","","","","","","","","","","","","","","","","","","","","","","","","",""
"","","","","","image-button-response","289","1459085","0.0-3.0-4.0-1.29","628fa9e1afc3de7797cb6e2f","F1","batch6","","14705.300000011921","img/question_5_6.jpeg","5","spm_respsonse","0","5","mat_54","","","","","","0","14705.300000011921","","","","","","","","","","","","","","",""
"","","","","","html-keyboard-response","290","1460148","0.0-3.0-4.0-0.30","628fa9e1afc3de7797cb6e2f","F1","batch6","","null","<p class=block-text>Trial 55 out of 60</p>","null","spm_show_trial_num","","","","","","","","","","","","","","","","","","","","","","","","",""
"","","","","","image-button-response","291","1495280","0.0-3.0-4.0-1.30","628fa9e1afc3de7797cb6e2f","F1","batch6","","35131.09999996424","img/question_5_7.jpeg","7","spm_respsonse","0","1","mat_55","","","","","","0","35131.09999996424","","","","","","","","","","","","","","",""
"","","","","","html-keyboard-response","292","1496336","0.0-3.0-4.0-0.31","628fa9e1afc3de7797cb6e2f","F1","batch6","","null","<p class=block-text>Trial 56 out of 60</p>","null","spm_show_trial_num","","","","","","","","","","","","","","","","","","","","","","","","",""
"","","","","","image-button-response","293","1538327","0.0-3.0-4.0-1.31","628fa9e1afc3de7797cb6e2f","F1","batch6","","41989.19999998808","img/question_5_8.jpeg","0","spm_respsonse","0","6","mat_56","","","","","","0","41989.19999998808","","","","","","","","","","","","","","",""
"","","","","","html-keyboard-response","294","1539384","0.0-3.0-4.0-0.32","628fa9e1afc3de7797cb6e2f","F1","batch6","","null","<p class=block-text>Trial 57 out of 60</p>","null","spm_show_trial_num","","","","","","","","","","","","","","","","","","","","","","","","",""
"","","","","","image-button-response","295","1556496","0.0-3.0-4.0-1.32","628fa9e1afc3de7797cb6e2f","F1","batch6","","17110.299999952316","img/question_5_9.jpeg","3","spm_respsonse","0","3","mat_57","","","","","","0","17110.299999952316","","","","","","","","","","","","","","",""
"","","","","","html-keyboard-response","296","1557558","0.0-3.0-4.0-0.33","628fa9e1afc3de7797cb6e2f","F1","batch6","","null","<p class=block-text>Trial 58 out of 60</p>","null","spm_show_trial_num","","","","","","","","","","","","","","","","","","","","","","","","",""
"","","","","","image-button-response","297","1597489","0.0-3.0-4.0-1.33","628fa9e1afc3de7797cb6e2f","F1","batch6","","39929.19999998808","img/question_5_10.jpeg","7","spm_respsonse","0","2","mat_58","","","","","","0","39929.19999998808","","","","","","","","","","","","","","",""
"","","","","","html-keyboard-response","298","1598549","0.0-3.0-4.0-0.34","628fa9e1afc3de7797cb6e2f","F1","batch6","","null","<p class=block-text>Trial 59 out of 60</p>","null","spm_show_trial_num","","","","","","","","","","","","","","","","","","","","","","","","",""
"","","","","","image-button-response","299","1616744","0.0-3.0-4.0-1.34","628fa9e1afc3de7797cb6e2f","F1","batch6","","18193.299999952316","img/question_5_11.jpeg","4","spm_respsonse","0","4","mat_59","","","","","","0","18193.299999952316","","","","","","","","","","","","","","",""
"","","","","","html-keyboard-response","300","1617803","0.0-3.0-4.0-0.35","628fa9e1afc3de7797cb6e2f","F1","batch6","","null","<p class=block-text>Trial 60 out of 60</p>","null","spm_show_trial_num","","","","","","","","","","","","","","","","","","","","","","","","",""
"","","","","","image-button-response","301","1663220","0.0-3.0-4.0-1.35","628fa9e1afc3de7797cb6e2f","F1","batch6","","45415.39999997616","img/question_5_12.jpeg","2","spm_respsonse","0","5","mat_60","","","","","","0","45415.39999997616","","","","","","","","","","","","","","",""
"","","","","","html-button-response","302","1665501","0.0-3.0-5.0","628fa9e1afc3de7797cb6e2f","F1","batch6","","2027.300000011921","<p class= block-text>This concludes the Standard Progressive Matrix game. Thank you for your responses!<br> When you are ready, click the button continue</p>","0","spm_goodbye","","","","","","","","","","","","","","","","","","","","","","","","",""
"true","","","","","fullscreen","303","1668130","0.0-4.0-0.0","628fa9e1afc3de7797cb6e2f","F1","batch6","","","","","","","","","","","","","","","","","","","","","","","","","","","","","",""
"","","","","","instructions","304","1761153","0.0-4.0-1.0-0.0-0.0","628fa9e1afc3de7797cb6e2f","F1","batch6","[{""page_index"":0,""viewing_time"":58297.30000001192},{""page_index"":1,""viewing_time"":4651.5},{""page_index"":2,""viewing_time"":3308.400000035763},{""page_index"":3,""viewing_time"":7543.799999952316},{""page_index"":4,""viewing_time"":2654.100000023842},{""page_index"":5,""viewing_time"":13254.699999988079},{""page_index"":6,""viewing_time"":3312.100000023842}]","93022","","","tol-instructions","","","","","","","","","","","","","","","","","","","","","","","","",""
"","","","","","html-button-response","305","1762203","0.0-4.0-1.0-1.0-0.0","628fa9e1afc3de7797cb6e2f","F1","batch6","","1049.199999988079","<p class=block-text> Let's answer a few questions <br>","0","tol_enter_quiz","","","","","","","","","","","","","","","","","","","","","","","","",""
"","","","","","html-button-response","306","1765634","0.0-4.0-1.0-1.0-1.0","628fa9e1afc3de7797cb6e2f","F1","batch6","","3429.100000023842","<p class = block-text>True or False: You can only move the ball on top of a peg. <br></p>","1","tol_quiz","false","","","","","","","","","","","","","","","","","","","","","","","",""
"","","","","","html-button-response","307","1766852","0.0-4.0-1.0-1.0-2.0","628fa9e1afc3de7797cb6e2f","F1","batch6","","1217.1000000238419","<p class = block-text>Incorrect. Remember, you can only move the ball on top of a peg.</p>","0","tol_quiz_feedback","","","","","","","","","","","","","","","","","","","","","","","","",""
"","","","","","html-button-response","308","1769060","0.0-4.0-1.0-1.0-3.0","628fa9e1afc3de7797cb6e2f","F1","batch6","","2207.100000023842","<p class = block-text>True or False: You should try to match your board with the target board with fewest moves possible. <br></p>","0","tol_quiz","true","","","","","","","","","","","","","","","","","","","","","","","",""
"","","","","","html-button-response","309","1769746","0.0-4.0-1.0-1.0-4.0","628fa9e1afc3de7797cb6e2f","F1","batch6","","684.8999999761581","<p class = block-text>Correct! </p>","0","tol_quiz_feedback","","","","","","","","","","","","","","","","","","","","","","","","",""
"","","","","","html-button-response","310","1772420","0.0-4.0-1.0-2.0-0.0","628fa9e1afc3de7797cb6e2f","F1","batch6","","2672.7999999523163","<p class = block-text>You made too many incorrect choices.</p><p class = block-text>You will now repeat the instructions and quiz</p>","0","","","","","","","","","","","","","","","","","","","","","","","","","",""
"","","","","","instructions","311","1780602","0.0-4.0-1.1-0.1-0.1","628fa9e1afc3de7797cb6e2f","F1","batch6","[{""page_index"":0,""viewing_time"":980.5999999642372},{""page_index"":1,""viewing_time"":1225.9000000357628},{""page_index"":2,""viewing_time"":464.19999998807907},{""page_index"":3,""viewing_time"":533.8000000119209},{""page_index"":4,""viewing_time"":762.0999999642372},{""page_index"":5,""viewing_time"":618.1000000238419},{""page_index"":6,""viewing_time"":3596.100000023842}]","8181","","","tol-instructions","","","","","","","","","","","","","","","","","","","","","","","","",""
"","","","","","html-button-response","312","1781308","0.0-4.0-1.1-1.1-0.1","628fa9e1afc3de7797cb6e2f","F1","batch6","","705.1000000238419","<p class=block-text> Let's answer a few questions <br>","0","tol_enter_quiz","","","","","","","","","","","","","","","","","","","","","","","","",""
"","","","","","html-button-response","313","1784612","0.0-4.0-1.1-1.1-1.1","628fa9e1afc3de7797cb6e2f","F1","batch6","","3302.800000011921","<p class = block-text>True or False: You can only move the ball on top of a peg. <br></p>","0","tol_quiz","true","","","","","","","","","","","","","","","","","","","","","","","",""
"","","","","","html-button-response","314","1785674","0.0-4.0-1.1-1.1-2.1","628fa9e1afc3de7797cb6e2f","F1","batch6","","1060.9000000357628","<p class = block-text>Correct! You can only move the ball on top of a peg.</p>","0","tol_quiz_feedback","","","","","","","","","","","","","","","","","","","","","","","","",""
"","","","","","html-button-response","315","1787608","0.0-4.0-1.1-1.1-3.1","628fa9e1afc3de7797cb6e2f","F1","batch6","","1933.0999999642372","<p class = block-text>True or False: You should try to match your board with the target board with fewest moves possible. <br></p>","0","tol_quiz","true","","","","","","","","","","","","","","","","","","","","","","","",""
"","","","","","html-button-response","316","1788200","0.0-4.0-1.1-1.1-4.1","628fa9e1afc3de7797cb6e2f","F1","batch6","","591","<p class = block-text>Correct! </p>","0","tol_quiz_feedback","","","","","","","","","","","","","","","","","","","","","","","","",""
"","","","","","html-button-response","317","1789376","0.0-4.0-2.0","628fa9e1afc3de7797cb6e2f","F1","batch6","","1174.8999999761581","<p class=block-text> Now that you've understood the game, let's practice a few easier examples before we start!<br> <br>","0","","","","","","","","","","","","","","","","","","","","","","","","","",""
"","","","","","single-stim-button","318","1796845","0.0-4.0-3.0-0.0","628fa9e1afc3de7797cb6e2f","F1","batch6","","7467","","","tol_practice","","","","","","","","","","","tol_peg_2","7467","7467","0","[[1,2,0],[0,0],[0]]","1","[[1,2,0],[0,0],[3]]","practice","7467","","","","","",""
"","","","","","single-stim-button","319","1798721","0.0-4.0-3.0-1.0","628fa9e1afc3de7797cb6e2f","F1","batch6","","1875","","","tol_practice","","","","","","","","","","","tol_peg_3","1875","1875","0","[[1,2,0],[0,0],[3]]","1","[[1,2,0],[0,0],[3]]","practice","1875","","","","","",""
"","","","","","poldrack-single-stim","320","1799723","0.0-4.0-4.0","628fa9e1afc3de7797cb6e2f","F1","batch6","","-1","","","tol_feedback","true","","","","","","","","","","","1000","1000","500","","","","","","-1","none","true","","0",""
"","","","","","single-stim-button","321","1801228","0.0-4.0-5.0-0.0","628fa9e1afc3de7797cb6e2f","F1","batch6","","1504","","","tol_practice","","","","","","","","","","","tol_peg_2","1504","1504","0","[[1,2,0],[0,0],[0]]","2","[[0,0,0],[3,1],[2]]","practice","1504","","","","","",""
"","","","","","single-stim-button","322","1804734","0.0-4.0-5.0-1.0","628fa9e1afc3de7797cb6e2f","F1","batch6","","3505","","","tol_practice","","","","","","","","","","","tol_peg_3","3505","3505","0","[[1,2,0],[0,0],[3]]","2","[[0,0,0],[3,1],[2]]","practice","3505","","","","","",""
"","","","","","single-stim-button","323","1814757","0.0-4.0-5.1-0.1","628fa9e1afc3de7797cb6e2f","F1","batch6","","10022","","","tol_practice","","","","","","","","","","","tol_peg_1","10022","10022","0","[[1,0,0],[0,0],[3]]","3","[[0,0,0],[3,1],[2]]","practice","10022","","","","","",""
"","","","","","single-stim-button","324","1819800","0.0-4.0-5.1-1.1","628fa9e1afc3de7797cb6e2f","F1","batch6","","5042","","","tol_practice","","","","","","","","","","","tol_peg_2","5042","5042","0","[[1,0,0],[2,0],[3]]","3","[[0,0,0],[3,1],[2]]","practice","5042","","","","","",""
"","","","","","single-stim-button","325","1821678","0.0-4.0-5.2-0.2","628fa9e1afc3de7797cb6e2f","F1","batch6","","1877","","","tol_practice","","","","","","","","","","","tol_peg_3","1877","1877","0","[[1,0,0],[2,0],[0]]","4","[[0,0,0],[3,1],[2]]","practice","1877","","","","","",""
"","","","","","single-stim-button","326","1823320","0.0-4.0-5.2-1.2","628fa9e1afc3de7797cb6e2f","F1","batch6","","1641","","","tol_practice","","","","","","","","","","","tol_peg_2","1641","1641","0","[[1,0,0],[2,3],[0]]","4","[[0,0,0],[3,1],[2]]","practice","1641","","","","","",""
"","","","","","single-stim-button","327","1828653","0.0-4.0-5.3-0.3","628fa9e1afc3de7797cb6e2f","F1","batch6","","5332","","","tol_practice","","","","","","","","","","","tol_peg_1","5332","5332","0","[[0,0,0],[2,3],[0]]","5","[[0,0,0],[3,1],[2]]","practice","5332","","","","","",""
"","","","","","single-stim-button","328","1830953","0.0-4.0-5.3-1.3","628fa9e1afc3de7797cb6e2f","F1","batch6","","2299","","","tol_practice","","","","","","","","","","","tol_peg_3","2299","2299","0","[[0,0,0],[2,3],[1]]","5","[[0,0,0],[3,1],[2]]","practice","2299","","","","","",""
"","","","","","single-stim-button","329","1832201","0.0-4.0-5.4-0.4","628fa9e1afc3de7797cb6e2f","F1","batch6","","1247","","","tol_practice","","","","","","","","","","","tol_peg_2","1247","1247","0","[[0,0,0],[2,0],[1]]","6","[[0,0,0],[3,1],[2]]","practice","1247","","","","","",""
"","","","","","single-stim-button","330","1833027","0.0-4.0-5.4-1.4","628fa9e1afc3de7797cb6e2f","F1","batch6","","825","","","tol_practice","","","","","","","","","","","tol_peg_1","825","825","0","[[3,0,0],[2,0],[1]]","6","[[0,0,0],[3,1],[2]]","practice","825","","","","","",""
"","","","","","single-stim-button","331","1835281","0.0-4.0-5.5-0.5","628fa9e1afc3de7797cb6e2f","F1","batch6","","2253","","","tol_practice","","","","","","","","","","","tol_peg_3","2253","2253","0","[[3,0,0],[2,0],[0]]","7","[[0,0,0],[3,1],[2]]","practice","2253","","","","","",""
"","","","","","single-stim-button","332","1836955","0.0-4.0-5.5-1.5","628fa9e1afc3de7797cb6e2f","F1","batch6","","1673","","","tol_practice","","","","","","","","","","","tol_peg_1","1673","1673","0","[[3,1,0],[2,0],[0]]","7","[[0,0,0],[3,1],[2]]","practice","1673","","","","","",""
"","","","","","single-stim-button","333","1837655","0.0-4.0-5.6-0.6","628fa9e1afc3de7797cb6e2f","F1","batch6","","699","","","tol_practice","","","","","","","","","","","tol_peg_2","699","699","0","[[3,1,0],[0,0],[0]]","8","[[0,0,0],[3,1],[2]]","practice","699","","","","","",""
"","","","","","single-stim-button","334","1839437","0.0-4.0-5.6-1.6","628fa9e1afc3de7797cb6e2f","F1","batch6","","1781","","","tol_practice","","","","","","","","","","","tol_peg_3","1781","1781","0","[[3,1,0],[0,0],[2]]","8","[[0,0,0],[3,1],[2]]","practice","1781","","","","","",""
"","","","","","single-stim-button","335","1840578","0.0-4.0-5.7-0.7","628fa9e1afc3de7797cb6e2f","F1","batch6","","1140","","","tol_practice","","","","","","","","","","","tol_peg_1","1140","1140","0","[[3,0,0],[0,0],[2]]","9","[[0,0,0],[3,1],[2]]","practice","1140","","","","","",""
"","","","","","single-stim-button","336","1843092","0.0-4.0-5.7-1.7","628fa9e1afc3de7797cb6e2f","F1","batch6","","2513","","","tol_practice","","","","","","","","","","","tol_peg_1","2513","2513","0","[[3,1,0],[0,0],[2]]","9","[[0,0,0],[3,1],[2]]","practice","2513","","","","","",""
"","","","","","single-stim-button","337","1843954","0.0-4.0-5.8-0.8","628fa9e1afc3de7797cb6e2f","F1","batch6","","861","","","tol_practice","","","","","","","","","","","tol_peg_1","861","861","0","[[3,0,0],[0,0],[2]]","10","[[0,0,0],[3,1],[2]]","practice","861","","","","","",""
"","","","","","single-stim-button","338","1849681","0.0-4.0-5.8-1.8","628fa9e1afc3de7797cb6e2f","F1","batch6","","5725","","","tol_practice","","","","","","","","","","","tol_peg_2","5725","5725","0","[[3,0,0],[1,0],[2]]","10","[[0,0,0],[3,1],[2]]","practice","5725","","","","","",""
"","","","","","single-stim-button","339","1850451","0.0-4.0-5.9-0.9","628fa9e1afc3de7797cb6e2f","F1","batch6","","769","","","tol_practice","","","","","","","","","","","tol_peg_1","769","769","0","[[0,0,0],[1,0],[2]]","11","[[0,0,0],[3,1],[2]]","practice","769","","","","","",""
"","","","","","single-stim-button","340","1851382","0.0-4.0-5.9-1.9","628fa9e1afc3de7797cb6e2f","F1","batch6","","930","","","tol_practice","","","","","","","","","","","tol_peg_2","930","930","0","[[0,0,0],[1,3],[2]]","11","[[0,0,0],[3,1],[2]]","practice","930","","","","","",""
"","","","","","single-stim-button","341","1852101","0.0-4.0-5.10-0.10","628fa9e1afc3de7797cb6e2f","F1","batch6","","718","","","tol_practice","","","","","","","","","","","tol_peg_2","718","718","0","[[0,0,0],[1,0],[2]]","12","[[0,0,0],[3,1],[2]]","practice","718","","","","","",""
"","","","","","single-stim-button","342","1853643","0.0-4.0-5.10-1.10","628fa9e1afc3de7797cb6e2f","F1","batch6","","1542","","","tol_practice","","","","","","","","","","","tol_peg_1","1542","1542","0","[[3,0,0],[1,0],[2]]","12","[[0,0,0],[3,1],[2]]","practice","1542","","","","","",""
"","","","","","single-stim-button","343","1854751","0.0-4.0-5.11-0.11","628fa9e1afc3de7797cb6e2f","F1","batch6","","1107","","","tol_practice","","","","","","","","","","","tol_peg_2","1107","1107","0","[[3,0,0],[0,0],[2]]","13","[[0,0,0],[3,1],[2]]","practice","1107","","","","","",""
"","","","","","single-stim-button","344","1855079","0.0-4.0-5.11-1.11","628fa9e1afc3de7797cb6e2f","F1","batch6","","327","","","tol_practice","","","","","","","","","","","tol_peg_2","327","327","0","[[3,0,0],[1,0],[2]]","13","[[0,0,0],[3,1],[2]]","practice","327","","","","","",""
