"success","timeout","failed_images","failed_audio","failed_video","trial_type","trial_index","time_elapsed","internal_node_id","subject_id","study_id","session_id","view_history","rt","task","stimulus","response","correct","mouse_click","stim_duration","block_duration","timing_post_trial","current_position","tol_num_moves_made","tol_target","tol_problem_id","tol_rt","key_press","possible_responses","tol_correct","preplanning","tol_rt_per_trial","tol_min_moves","answer","item","fiar_detect_rt","fiar_detect_correct","total_correct_fiar_detect","post_trial_gap","choices","spm_correct","spm_rt"
"true","false","[]","[]","[]","preload","0","6186","0.0-0.0","6290d05992a97c47797f9de3","A3","batch1","","","","","","","","","","","","","","","","","","","","","","","","","","","","","",""
"true","","","","","fullscreen","1","17161","0.0-1.0-0.0","6290d05992a97c47797f9de3","A3","batch1","","","","","","","","","","","","","","","","","","","","","","","","","","","","","",""
"true","","","","","fullscreen","2","20192","0.0-2.0-0.0","6290d05992a97c47797f9de3","A3","batch1","","","","","","","","","","","","","","","","","","","","","","","","","","","","","",""
"","","","","","instructions","3","102641","0.0-2.0-1.0-0.0-0.0","6290d05992a97c47797f9de3","A3","batch1","[{""page_index"":0,""viewing_time"":34578},{""page_index"":1,""viewing_time"":4018.100000023842},{""page_index"":2,""viewing_time"":6375.599999904633},{""page_index"":3,""viewing_time"":10874.5},{""page_index"":4,""viewing_time"":12098.300000071526},{""page_index"":5,""viewing_time"":11408.600000023842},{""page_index"":6,""viewing_time"":3096.1999999284744}]","82449.69999992847","tol-instructions","","","","","","","","","","","","","","","","","","","","","","","","","","",""
"","","","","","html-button-response","4","103899","0.0-2.0-1.0-1.0-0.0","6290d05992a97c47797f9de3","A3","batch1","","1256.8999999761581","tol_enter_quiz","<p class=block-text> Let's answer a few questions <br>","0","","","","","","","","","","","","","","","","","","","","","","","","",""
"","","","","","html-button-response","5","108115","0.0-2.0-1.0-1.0-1.0","6290d05992a97c47797f9de3","A3","batch1","","4214.700000047684","tol_quiz","<p class = block-text>True or False: You can only move the ball on top of a peg. <br></p>","1","false","","","","","","","","","","","","","","","","","","","","","","","",""
"","","","","","html-button-response","6","109727","0.0-2.0-1.0-1.0-2.0","6290d05992a97c47797f9de3","A3","batch1","","1610.2000000476837","tol_quiz_feedback","<p class = block-text>Incorrect. Remember, you can only move the ball on top of a peg.</p>","0","","","","","","","","","","","","","","","","","","","","","","","","",""
"","","","","","html-button-response","7","113103","0.0-2.0-1.0-1.0-3.0","6290d05992a97c47797f9de3","A3","batch1","","3374.5999999046326","tol_quiz","<p class = block-text>True or False: You should try to match your board with the target board with fewest moves possible. <br></p>","0","true","","","","","","","","","","","","","","","","","","","","","","","",""
"","","","","","html-button-response","8","113918","0.0-2.0-1.0-1.0-4.0","6290d05992a97c47797f9de3","A3","batch1","","813.7999999523163","tol_quiz_feedback","<p class = block-text>Correct! </p>","0","","","","","","","","","","","","","","","","","","","","","","","","",""
"","","","","","html-button-response","9","116279","0.0-2.0-1.0-2.0-0.0","6290d05992a97c47797f9de3","A3","batch1","","2359.7999999523163","","<p class = block-text>You made too many incorrect choices.</p><p class = block-text>You will now repeat the instructions and quiz</p>","0","","","","","","","","","","","","","","","","","","","","","","","","",""
"","","","","","instructions","10","122260","0.0-2.0-1.1-0.1-0.1","6290d05992a97c47797f9de3","A3","batch1","[{""page_index"":0,""viewing_time"":1078.2000000476837},{""page_index"":1,""viewing_time"":1054.2999999523163},{""page_index"":2,""viewing_time"":551.7000000476837},{""page_index"":3,""viewing_time"":386.09999990463257},{""page_index"":4,""viewing_time"":631.9000000953674},{""page_index"":5,""viewing_time"":672.1999999284744},{""page_index"":6,""viewing_time"":1605.8000000715256}]","5980.399999976158","tol-instructions","","","","","","","","","","","","","","","","","","","","","","","","","","",""
"","","","","","html-button-response","11","123576","0.0-2.0-1.1-1.1-0.1","6290d05992a97c47797f9de3","A3","batch1","","1315.0999999046326","tol_enter_quiz","<p class=block-text> Let's answer a few questions <br>","0","","","","","","","","","","","","","","","","","","","","","","","","",""
"","","","","","html-button-response","12","127536","0.0-2.0-1.1-1.1-1.1","6290d05992a97c47797f9de3","A3","batch1","","3958.899999976158","tol_quiz","<p class = block-text>True or False: You can only move the ball on top of a peg. <br></p>","0","true","","","","","","","","","","","","","","","","","","","","","","","",""
"","","","","","html-button-response","13","128479","0.0-2.0-1.1-1.1-2.1","6290d05992a97c47797f9de3","A3","batch1","","941.5999999046326","tol_quiz_feedback","<p class = block-text>Correct! You can only move the ball on top of a peg.</p>","0","","","","","","","","","","","","","","","","","","","","","","","","",""
"","","","","","html-button-response","14","132018","0.0-2.0-1.1-1.1-3.1","6290d05992a97c47797f9de3","A3","batch1","","3538.399999976158","tol_quiz","<p class = block-text>True or False: You should try to match your board with the target board with fewest moves possible. <br></p>","0","true","","","","","","","","","","","","","","","","","","","","","","","",""
"","","","","","html-button-response","15","132706","0.0-2.0-1.1-1.1-4.1","6290d05992a97c47797f9de3","A3","batch1","","686.5","tol_quiz_feedback","<p class = block-text>Correct! </p>","0","","","","","","","","","","","","","","","","","","","","","","","","",""
"","","","","","html-button-response","16","134036","0.0-2.0-2.0","6290d05992a97c47797f9de3","A3","batch1","","1329.1000000238419","","<p class=block-text> Now that you've understood the game, let's practice a few easier examples before we start!<br> <br>","0","","","","","","","","","","","","","","","","","","","","","","","","",""
"","","","","","single-stim-button","17","136846","0.0-2.0-3.0-0.0","6290d05992a97c47797f9de3","A3","batch1","","2808","tol_practice","","","","tol_peg_2","2808","2808","0","[[1,2,0],[0,0],[0]]","1","[[1,2,0],[0,0],[3]]","practice","2808","","","","","","","","","","","","","","",""
"","","","","","single-stim-button","18","138038","0.0-2.0-3.0-1.0","6290d05992a97c47797f9de3","A3","batch1","","1191","tol_practice","","","","tol_peg_3","1191","1191","0","[[1,2,0],[0,0],[3]]","1","[[1,2,0],[0,0],[3]]","practice","1191","","","","","","","","","","","","","","",""
"","","","","","poldrack-single-stim","19","139048","0.0-2.0-4.0","6290d05992a97c47797f9de3","A3","batch1","","-1","tol_feedback","","","true","","1000","1000","500","","","","","","-1","none","true","","0","","","","","","","","","",""
"","","","","","single-stim-button","20","143489","0.0-2.0-5.0-0.0","6290d05992a97c47797f9de3","A3","batch1","","4440","tol_practice","","","","tol_peg_1","4440","4440","0","[[1,0,0],[3,0],[0]]","2","[[0,0,0],[3,1],[2]]","practice","4440","","","","","","","","","","","","","","",""
"","","","","","single-stim-button","21","144353","0.0-2.0-5.0-1.0","6290d05992a97c47797f9de3","A3","batch1","","863","tol_practice","","","","tol_peg_3","863","863","0","[[1,0,0],[3,0],[2]]","2","[[0,0,0],[3,1],[2]]","practice","863","","","","","","","","","","","","","","",""
"","","","","","single-stim-button","22","144939","0.0-2.0-5.1-0.1","6290d05992a97c47797f9de3","A3","batch1","","585","tol_practice","","","","tol_peg_1","585","585","0","[[0,0,0],[3,0],[2]]","3","[[0,0,0],[3,1],[2]]","practice","585","","","","","","","","","","","","","","",""
"","","","","","single-stim-button","23","145339","0.0-2.0-5.1-1.1","6290d05992a97c47797f9de3","A3","batch1","","399","tol_practice","","","","tol_peg_2","399","399","0","[[0,0,0],[3,1],[2]]","3","[[0,0,0],[3,1],[2]]","practice","399","","","","","","","","","","","","","","",""
"","","","","","poldrack-single-stim","24","146352","0.0-2.0-6.0","6290d05992a97c47797f9de3","A3","batch1","","-1","tol_feedback","","","true","","1000","1000","500","","","","","","-1","none","true","","0","","","","","","","","","",""
"","","","","","single-stim-button","25","150117","0.0-2.0-7.0-0.0","6290d05992a97c47797f9de3","A3","batch1","","3765","tol_practice","","","","tol_peg_2","3765","3765","0","[[1,2,0],[0,0],[0]]","4","[[1,0,0],[2,0],[3]]","practice","3765","","","","","","","","","","","","","","",""
"","","","","","single-stim-button","26","150713","0.0-2.0-7.0-1.0","6290d05992a97c47797f9de3","A3","batch1","","596","tol_practice","","","","tol_peg_3","596","596","0","[[1,2,0],[0,0],[3]]","4","[[1,0,0],[2,0],[3]]","practice","596","","","","","","","","","","","","","","",""
"","","","","","single-stim-button","27","151564","0.0-2.0-7.1-0.1","6290d05992a97c47797f9de3","A3","batch1","","850","tol_practice","","","","tol_peg_1","850","850","0","[[1,0,0],[0,0],[3]]","5","[[1,0,0],[2,0],[3]]","practice","850","","","","","","","","","","","","","","",""
"","","","","","single-stim-button","28","152011","0.0-2.0-7.1-1.1","6290d05992a97c47797f9de3","A3","batch1","","447","tol_practice","","","","tol_peg_2","447","447","0","[[1,0,0],[2,0],[3]]","5","[[1,0,0],[2,0],[3]]","practice","447","","","","","","","","","","","","","","",""
"","","","","","poldrack-single-stim","29","153013","0.0-2.0-8.0","6290d05992a97c47797f9de3","A3","batch1","","-1","tol_feedback","","","true","","1000","1000","500","","","","","","-1","none","true","","0","","","","","","","","","",""
"","","","","","html-button-response","30","155819","0.0-2.0-9.0","6290d05992a97c47797f9de3","A3","batch1","","2805.1999999284744","tol_instruction","<div class = centerbox><p class = center-block-text>Great job! You are done with practice trials<br>You are about to start official trials.<br> <br> Problem <strong>1</strong> out of 25 problems</p></div>","0","","","","","","","","","","","","","","","","","","","","","","","","",""
"","","","","","single-stim-button","31","164200","0.0-2.0-10.0-0.0","6290d05992a97c47797f9de3","A3","batch1","","7373","tol_tohand","","","","tol_peg_2","7373","7373","0","[[1,2,0],[0,0],[0]]","1","[[1,3,0],[2,0],[0]]","0","0","","","","","","3","","","","","","","","",""
"","","","","","single-stim-button","32","164754","0.0-2.0-10.0-1.0","6290d05992a97c47797f9de3","A3","batch1","","553","tol_toboard","","","","tol_peg_3","553","553","0","[[1,2,0],[0,0],[3]]","1","[[1,3,0],[2,0],[0]]","0","0","","","","","","3","","","","","","","","",""
"","","","","","single-stim-button","33","165586","0.0-2.0-10.1-0.1","6290d05992a97c47797f9de3","A3","batch1","","831","tol_tohand","","","","tol_peg_1","831","831","0","[[1,0,0],[0,0],[3]]","2","[[1,3,0],[2,0],[0]]","0","0","","","","","","3","","","","","","","","",""
"","","","","","single-stim-button","34","166002","0.0-2.0-10.1-1.1","6290d05992a97c47797f9de3","A3","batch1","","415","tol_toboard","","","","tol_peg_2","415","415","0","[[1,0,0],[2,0],[3]]","2","[[1,3,0],[2,0],[0]]","0","0","","","","","","3","","","","","","","","",""
"","","","","","single-stim-button","35","166795","0.0-2.0-10.2-0.2","6290d05992a97c47797f9de3","A3","batch1","","793","tol_tohand","","","","tol_peg_3","793","793","0","[[1,0,0],[2,0],[0]]","3","[[1,3,0],[2,0],[0]]","0","0","","","","","","3","","","","","","","","",""
"","","","","","single-stim-button","36","167484","0.0-2.0-10.2-1.2","6290d05992a97c47797f9de3","A3","batch1","","687","tol_toboard","","","","tol_peg_1","687","687","0","[[1,3,0],[2,0],[0]]","3","[[1,3,0],[2,0],[0]]","0","0","","","","","","3","","","","","","","","",""
"","","","","","poldrack-single-stim","37","168495","0.0-2.0-11.0","6290d05992a97c47797f9de3","A3","batch1","","-1","tol_feedback","","","true","","1000","1000","500","","","","","","-1","none","true","7373","8997","","","","","","","","","",""
"","","","","","html-button-response","38","177068","0.0-2.0-12.0","6290d05992a97c47797f9de3","A3","batch1","","8572","tol_trial_num","<div class = centerbox><p class = center-block-text>problem <strong>2</strong> out of 25 problems</p></div>","0","","","","","","","","","","","","","","","","","","","","","","","","",""
"","","","","","single-stim-button","39","180388","0.0-2.0-13.0-0.0","6290d05992a97c47797f9de3","A3","batch1","","3319","tol_tohand","","","","tol_peg_1","3319","3319","0","[[1,0,0],[3,0],[0]]","1","[[2,1,3],[0,0],[0]]","1","0","","","","","","5","","","","","","","","",""
"","","","","","single-stim-button","40","181334","0.0-2.0-13.0-1.0","6290d05992a97c47797f9de3","A3","batch1","","945","tol_toboard","","","","tol_peg_3","945","945","0","[[1,0,0],[3,0],[2]]","1","[[2,1,3],[0,0],[0]]","1","0","","","","","","5","","","","","","","","",""
"","","","","","single-stim-button","41","191098","0.0-2.0-13.1-0.1","6290d05992a97c47797f9de3","A3","batch1","","9763","tol_tohand","","","","tol_peg_1","9763","9763","0","[[0,0,0],[3,0],[2]]","2","[[2,1,3],[0,0],[0]]","1","0","","","","","","5","","","","","","","","",""
"","","","","","single-stim-button","42","191554","0.0-2.0-13.1-1.1","6290d05992a97c47797f9de3","A3","batch1","","455","tol_toboard","","","","tol_peg_2","455","455","0","[[0,0,0],[3,1],[2]]","2","[[2,1,3],[0,0],[0]]","1","0","","","","","","5","","","","","","","","",""
"","","","","","single-stim-button","43","192028","0.0-2.0-13.2-0.2","6290d05992a97c47797f9de3","A3","batch1","","473","tol_tohand","","","","tol_peg_3","473","473","0","[[0,0,0],[3,1],[0]]","3","[[2,1,3],[0,0],[0]]","1","0","","","","","","5","","","","","","","","",""
"","","","","","single-stim-button","44","192527","0.0-2.0-13.2-1.2","6290d05992a97c47797f9de3","A3","batch1","","499","tol_toboard","","","","tol_peg_1","499","499","0","[[2,0,0],[3,1],[0]]","3","[[2,1,3],[0,0],[0]]","1","0","","","","","","5","","","","","","","","",""
"","","","","","single-stim-button","45","193354","0.0-2.0-13.3-0.3","6290d05992a97c47797f9de3","A3","batch1","","825","tol_tohand","","","","tol_peg_2","825","825","0","[[2,0,0],[3,0],[0]]","4","[[2,1,3],[0,0],[0]]","1","0","","","","","","5","","","","","","","","",""
"","","","","","single-stim-button","46","193729","0.0-2.0-13.3-1.3","6290d05992a97c47797f9de3","A3","batch1","","375","tol_toboard","","","","tol_peg_1","375","375","0","[[2,1,0],[3,0],[0]]","4","[[2,1,3],[0,0],[0]]","1","0","","","","","","5","","","","","","","","",""
"","","","","","single-stim-button","47","194169","0.0-2.0-13.4-0.4","6290d05992a97c47797f9de3","A3","batch1","","439","tol_tohand","","","","tol_peg_2","439","439","0","[[2,1,0],[0,0],[0]]","5","[[2,1,3],[0,0],[0]]","1","0","","","","","","5","","","","","","","","",""
"","","","","","single-stim-button","48","194547","0.0-2.0-13.4-1.4","6290d05992a97c47797f9de3","A3","batch1","","377","tol_toboard","","","","tol_peg_1","377","377","0","[[2,1,3],[0,0],[0]]","5","[[2,1,3],[0,0],[0]]","1","0","","","","","","5","","","","","","","","",""
"","","","","","poldrack-single-stim","49","195553","0.0-2.0-14.0","6290d05992a97c47797f9de3","A3","batch1","","-1","tol_feedback","","","true","","1000","1000","500","","","","","","-1","none","true","3319","14819","","","","","","","","","",""
"","","","","","html-button-response","50","196511","0.0-2.0-15.0","6290d05992a97c47797f9de3","A3","batch1","","956.8000000715256","tol_trial_num","<div class = centerbox><p class = center-block-text>problem <strong>3</strong> out of 25 problems</p></div>","0","","","","","","","","","","","","","","","","","","","","","","","","",""
"","","","","","single-stim-button","51","199829","0.0-2.0-16.0-0.0","6290d05992a97c47797f9de3","A3","batch1","","3318","tol_tohand","","","","tol_peg_1","3318","3318","0","[[2,0,0],[0,0],[1]]","1","[[1,2,0],[3,0],[0]]","2","0","","","","","","4","","","","","","","","",""
"","","","","","single-stim-button","52","200401","0.0-2.0-16.0-1.0","6290d05992a97c47797f9de3","A3","batch1","","571","tol_toboard","","","","tol_peg_2","571","571","0","[[2,0,0],[3,0],[1]]","1","[[1,2,0],[3,0],[0]]","2","0","","","","","","4","","","","","","","","",""
"","","","","","single-stim-button","53","200953","0.0-2.0-16.1-0.1","6290d05992a97c47797f9de3","A3","batch1","","551","tol_tohand","","","","tol_peg_1","551","551","0","[[0,0,0],[3,0],[1]]","2","[[1,2,0],[3,0],[0]]","2","0","","","","","","4","","","","","","","","",""
"","","","","","single-stim-button","54","201331","0.0-2.0-16.1-1.1","6290d05992a97c47797f9de3","A3","batch1","","377","tol_toboard","","","","tol_peg_2","377","377","0","[[0,0,0],[3,2],[1]]","2","[[1,2,0],[3,0],[0]]","2","0","","","","","","4","","","","","","","","",""
"","","","","","single-stim-button","55","206505","0.0-2.0-16.2-0.2","6290d05992a97c47797f9de3","A3","batch1","","5173","tol_tohand","","","","tol_peg_3","5173","5173","0","[[0,0,0],[3,2],[0]]","3","[[1,2,0],[3,0],[0]]","2","0","","","","","","4","","","","","","","","",""
"","","","","","single-stim-button","56","207345","0.0-2.0-16.2-1.2","6290d05992a97c47797f9de3","A3","batch1","","840","tol_toboard","","","","tol_peg_1","840","840","0","[[1,0,0],[3,2],[0]]","3","[[1,2,0],[3,0],[0]]","2","0","","","","","","4","","","","","","","","",""
"","","","","","single-stim-button","57","212289","0.0-2.0-16.3-0.3","6290d05992a97c47797f9de3","A3","batch1","","4943","tol_tohand","","","","tol_peg_2","4943","4943","0","[[1,0,0],[3,0],[0]]","4","[[1,2,0],[3,0],[0]]","2","0","","","","","","4","","","","","","","","",""
"","","","","","single-stim-button","58","212700","0.0-2.0-16.3-1.3","6290d05992a97c47797f9de3","A3","batch1","","410","tol_toboard","","","","tol_peg_1","410","410","0","[[1,2,0],[3,0],[0]]","4","[[1,2,0],[3,0],[0]]","2","0","","","","","","4","","","","","","","","",""
"","","","","","poldrack-single-stim","59","213710","0.0-2.0-17.0","6290d05992a97c47797f9de3","A3","batch1","","-1","tol_feedback","","","true","","1000","1000","500","","","","","","-1","none","true","3318","13985","","","","","","","","","",""
"","","","","","html-button-response","60","238445","0.0-2.0-18.0","6290d05992a97c47797f9de3","A3","batch1","","24734","tol_trial_num","<div class = centerbox><p class = center-block-text>problem <strong>4</strong> out of 25 problems</p></div>","0","","","","","","","","","","","","","","","","","","","","","","","","",""
"","","","","","single-stim-button","61","241653","0.0-2.0-19.0-0.0","6290d05992a97c47797f9de3","A3","batch1","","3208","tol_tohand","","","","tol_peg_2","3208","3208","0","[[3,0,0],[2,0],[0]]","1","[[3,0,0],[1,0],[2]]","3","0","","","","","","3","","","","","","","","",""
"","","","","","single-stim-button","62","242552","0.0-2.0-19.0-1.0","6290d05992a97c47797f9de3","A3","batch1","","898","tol_toboard","","","","tol_peg_1","898","898","0","[[3,1,0],[2,0],[0]]","1","[[3,0,0],[1,0],[2]]","3","0","","","","","","3","","","","","","","","",""
"","","","","","single-stim-button","63","243335","0.0-2.0-19.1-0.1","6290d05992a97c47797f9de3","A3","batch1","","782","tol_tohand","","","","tol_peg_2","782","782","0","[[3,1,0],[0,0],[0]]","2","[[3,0,0],[1,0],[2]]","3","0","","","","","","3","","","","","","","","",""
"","","","","","single-stim-button","64","244306","0.0-2.0-19.1-1.1","6290d05992a97c47797f9de3","A3","batch1","","970","tol_toboard","","","","tol_peg_3","970","970","0","[[3,1,0],[0,0],[2]]","2","[[3,0,0],[1,0],[2]]","3","0","","","","","","3","","","","","","","","",""
"","","","","","single-stim-button","65","245130","0.0-2.0-19.2-0.2","6290d05992a97c47797f9de3","A3","batch1","","823","tol_tohand","","","","tol_peg_1","823","823","0","[[3,0,0],[0,0],[2]]","3","[[3,0,0],[1,0],[2]]","3","0","","","","","","3","","","","","","","","",""
"","","","","","single-stim-button","66","245864","0.0-2.0-19.2-1.2","6290d05992a97c47797f9de3","A3","batch1","","733","tol_toboard","","","","tol_peg_2","733","733","0","[[3,0,0],[1,0],[2]]","3","[[3,0,0],[1,0],[2]]","3","0","","","","","","3","","","","","","","","",""
"","","","","","poldrack-single-stim","67","246867","0.0-2.0-20.0","6290d05992a97c47797f9de3","A3","batch1","","-1","tol_feedback","","","true","","1000","1000","500","","","","","","-1","none","true","3208","4813","","","","","","","","","",""
"","","","","","html-button-response","68","248009","0.0-2.0-21.0","6290d05992a97c47797f9de3","A3","batch1","","1141.1000000238419","tol_trial_num","<div class = centerbox><p class = center-block-text>problem <strong>5</strong> out of 25 problems</p></div>","0","","","","","","","","","","","","","","","","","","","","","","","","",""
"","","","","","single-stim-button","69","256681","0.0-2.0-22.0-0.0","6290d05992a97c47797f9de3","A3","batch1","","8671","tol_tohand","","","","tol_peg_3","8671","8671","0","[[1,0,0],[2,0],[0]]","1","[[0,0,0],[1,2],[3]]","4","0","","","","","","7","","","","","","","","",""
"","","","","","single-stim-button","70","257475","0.0-2.0-22.0-1.0","6290d05992a97c47797f9de3","A3","batch1","","792","tol_toboard","","","","tol_peg_1","792","792","0","[[1,3,0],[2,0],[0]]","1","[[0,0,0],[1,2],[3]]","4","0","","","","","","7","","","","","","","","",""
"","","","","","single-stim-button","71","258873","0.0-2.0-22.1-0.1","6290d05992a97c47797f9de3","A3","batch1","","1398","tol_tohand","","","","tol_peg_2","1398","1398","0","[[1,3,0],[0,0],[0]]","2","[[0,0,0],[1,2],[3]]","4","0","","","","","","7","","","","","","","","",""
"","","","","","single-stim-button","72","259689","0.0-2.0-22.1-1.1","6290d05992a97c47797f9de3","A3","batch1","","815","tol_toboard","","","","tol_peg_3","815","815","0","[[1,3,0],[0,0],[2]]","2","[[0,0,0],[1,2],[3]]","4","0","","","","","","7","","","","","","","","",""
"","","","","","single-stim-button","73","262729","0.0-2.0-22.2-0.2","6290d05992a97c47797f9de3","A3","batch1","","3039","tol_tohand","","","","tol_peg_1","3039","3039","0","[[1,0,0],[0,0],[2]]","3","[[0,0,0],[1,2],[3]]","4","0","","","","","","7","","","","","","","","",""
"","","","","","single-stim-button","74","263363","0.0-2.0-22.2-1.2","6290d05992a97c47797f9de3","A3","batch1","","633","tol_toboard","","","","tol_peg_2","633","633","0","[[1,0,0],[3,0],[2]]","3","[[0,0,0],[1,2],[3]]","4","0","","","","","","7","","","","","","","","",""
"","","","","","single-stim-button","75","264892","0.0-2.0-22.3-0.3","6290d05992a97c47797f9de3","A3","batch1","","1529","tol_tohand","","","","tol_peg_1","1529","1529","0","[[0,0,0],[3,0],[2]]","4","[[0,0,0],[1,2],[3]]","4","0","","","","","","7","","","","","","","","",""
"","","","","","single-stim-button","76","265454","0.0-2.0-22.3-1.3","6290d05992a97c47797f9de3","A3","batch1","","562","tol_toboard","","","","tol_peg_2","562","562","0","[[0,0,0],[3,1],[2]]","4","[[0,0,0],[1,2],[3]]","4","0","","","","","","7","","","","","","","","",""
"","","","","","single-stim-button","77","267965","0.0-2.0-22.4-0.4","6290d05992a97c47797f9de3","A3","batch1","","2511","tol_tohand","","","","tol_peg_3","2511","2511","0","[[0,0,0],[3,1],[0]]","5","[[0,0,0],[1,2],[3]]","4","0","","","","","","7","","","","","","","","",""
"","","","","","single-stim-button","78","269391","0.0-2.0-22.4-1.4","6290d05992a97c47797f9de3","A3","batch1","","1426","tol_toboard","","","","tol_peg_1","1426","1426","0","[[2,0,0],[3,1],[0]]","5","[[0,0,0],[1,2],[3]]","4","0","","","","","","7","","","","","","","","",""
"","","","","","single-stim-button","79","273193","0.0-2.0-22.5-0.5","6290d05992a97c47797f9de3","A3","batch1","","3801","tol_tohand","","","","tol_peg_2","3801","3801","0","[[2,0,0],[3,0],[0]]","6","[[0,0,0],[1,2],[3]]","4","0","","","","","","7","","","","","","","","",""
"","","","","","single-stim-button","80","273920","0.0-2.0-22.5-1.5","6290d05992a97c47797f9de3","A3","batch1","","727","tol_toboard","","","","tol_peg_3","727","727","0","[[2,0,0],[3,0],[1]]","6","[[0,0,0],[1,2],[3]]","4","0","","","","","","7","","","","","","","","",""
"","","","","","single-stim-button","81","274478","0.0-2.0-22.6-0.6","6290d05992a97c47797f9de3","A3","batch1","","557","tol_tohand","","","","tol_peg_2","557","557","0","[[2,0,0],[0,0],[1]]","7","[[0,0,0],[1,2],[3]]","4","0","","","","","","7","","","","","","","","",""
"","","","","","single-stim-button","82","274944","0.0-2.0-22.6-1.6","6290d05992a97c47797f9de3","A3","batch1","","464","tol_toboard","","","","tol_peg_1","464","464","0","[[2,3,0],[0,0],[1]]","7","[[0,0,0],[1,2],[3]]","4","0","","","","","","7","","","","","","","","",""
"","","","","","single-stim-button","83","275694","0.0-2.0-22.7-0.7","6290d05992a97c47797f9de3","A3","batch1","","750","tol_tohand","","","","tol_peg_3","750","750","0","[[2,3,0],[0,0],[0]]","8","[[0,0,0],[1,2],[3]]","4","0","","","","","","7","","","","","","","","",""
"","","","","","single-stim-button","84","276305","0.0-2.0-22.7-1.7","6290d05992a97c47797f9de3","A3","batch1","","611","tol_toboard","","","","tol_peg_2","611","611","0","[[2,3,0],[1,0],[0]]","8","[[0,0,0],[1,2],[3]]","4","0","","","","","","7","","","","","","","","",""
"","","","","","single-stim-button","85","276961","0.0-2.0-22.8-0.8","6290d05992a97c47797f9de3","A3","batch1","","655","tol_tohand","","","","tol_peg_1","655","655","0","[[2,0,0],[1,0],[0]]","9","[[0,0,0],[1,2],[3]]","4","0","","","","","","7","","","","","","","","",""
"","","","","","single-stim-button","86","277971","0.0-2.0-22.8-1.8","6290d05992a97c47797f9de3","A3","batch1","","1009","tol_toboard","","","","tol_peg_3","1009","1009","0","[[2,0,0],[1,0],[3]]","9","[[0,0,0],[1,2],[3]]","4","0","","","","","","7","","","","","","","","",""
"","","","","","single-stim-button","87","278615","0.0-2.0-22.9-0.9","6290d05992a97c47797f9de3","A3","batch1","","644","tol_tohand","","","","tol_peg_1","644","644","0","[[0,0,0],[1,0],[3]]","10","[[0,0,0],[1,2],[3]]","4","0","","","","","","7","","","","","","","","",""
"","","","","","single-stim-button","88","279233","0.0-2.0-22.9-1.9","6290d05992a97c47797f9de3","A3","batch1","","617","tol_toboard","","","","tol_peg_2","617","617","0","[[0,0,0],[1,2],[3]]","10","[[0,0,0],[1,2],[3]]","4","0","","","","","","7","","","","","","","","",""
"","","","","","poldrack-single-stim","89","280239","0.0-2.0-23.0","6290d05992a97c47797f9de3","A3","batch1","","-1","tol_feedback","","","true","","1000","1000","500","","","","","","-1","none","true","8671","23555","","","","","","","","","",""
"","","","","","html-button-response","90","281658","0.0-2.0-24.0","6290d05992a97c47797f9de3","A3","batch1","","1417.2999999523163","tol_trial_num","<div class = centerbox><p class = center-block-text>problem <strong>6</strong> out of 25 problems</p></div>","0","","","","","","","","","","","","","","","","","","","","","","","","",""
"","","","","","single-stim-button","91","285091","0.0-2.0-25.0-0.0","6290d05992a97c47797f9de3","A3","batch1","","3432","tol_tohand","","","","tol_peg_2","3432","3432","0","[[0,0,0],[1,0],[3]]","1","[[1,0,0],[2,3],[0]]","5","0","","","","","","6","","","","","","","","",""
"","","","","","single-stim-button","92","285765","0.0-2.0-25.0-1.0","6290d05992a97c47797f9de3","A3","batch1","","673","tol_toboard","","","","tol_peg_1","673","673","0","[[2,0,0],[1,0],[3]]","1","[[1,0,0],[2,3],[0]]","5","0","","","","","","6","","","","","","","","",""
"","","","","","single-stim-button","93","286721","0.0-2.0-25.1-0.1","6290d05992a97c47797f9de3","A3","batch1","","955","tol_tohand","","","","tol_peg_3","955","955","0","[[2,0,0],[1,0],[0]]","2","[[1,0,0],[2,3],[0]]","5","0","","","","","","6","","","","","","","","",""
"","","","","","single-stim-button","94","287651","0.0-2.0-25.1-1.1","6290d05992a97c47797f9de3","A3","batch1","","929","tol_toboard","","","","tol_peg_1","929","929","0","[[2,3,0],[1,0],[0]]","2","[[1,0,0],[2,3],[0]]","5","0","","","","","","6","","","","","","","","",""
"","","","","","single-stim-button","95","289276","0.0-2.0-25.2-0.2","6290d05992a97c47797f9de3","A3","batch1","","1625","tol_tohand","","","","tol_peg_2","1625","1625","0","[[2,3,0],[0,0],[0]]","3","[[1,0,0],[2,3],[0]]","5","0","","","","","","6","","","","","","","","",""
"","","","","","single-stim-button","96","289980","0.0-2.0-25.2-1.2","6290d05992a97c47797f9de3","A3","batch1","","702","tol_toboard","","","","tol_peg_3","702","702","0","[[2,3,0],[0,0],[1]]","3","[[1,0,0],[2,3],[0]]","5","0","","","","","","6","","","","","","","","",""
"","","","","","single-stim-button","97","292292","0.0-2.0-25.3-0.3","6290d05992a97c47797f9de3","A3","batch1","","2312","tol_tohand","","","","tol_peg_1","2312","2312","0","[[2,0,0],[0,0],[1]]","4","[[1,0,0],[2,3],[0]]","5","0","","","","","","6","","","","","","","","",""
"","","","","","single-stim-button","98","292948","0.0-2.0-25.3-1.3","6290d05992a97c47797f9de3","A3","batch1","","655","tol_toboard","","","","tol_peg_2","655","655","0","[[2,0,0],[3,0],[1]]","4","[[1,0,0],[2,3],[0]]","5","0","","","","","","6","","","","","","","","",""
"","","","","","single-stim-button","99","294674","0.0-2.0-25.4-0.4","6290d05992a97c47797f9de3","A3","batch1","","1725","tol_tohand","","","","tol_peg_3","1725","1725","0","[[2,0,0],[3,0],[0]]","5","[[1,0,0],[2,3],[0]]","5","0","","","","","","6","","","","","","","","",""
"","","","","","single-stim-button","100","295388","0.0-2.0-25.4-1.4","6290d05992a97c47797f9de3","A3","batch1","","713","tol_toboard","","","","tol_peg_1","713","713","0","[[2,1,0],[3,0],[0]]","5","[[1,0,0],[2,3],[0]]","5","0","","","","","","6","","","","","","","","",""
"","","","","","single-stim-button","101","296598","0.0-2.0-25.5-0.5","6290d05992a97c47797f9de3","A3","batch1","","1209","tol_tohand","","","","tol_peg_2","1209","1209","0","[[2,1,0],[0,0],[0]]","6","[[1,0,0],[2,3],[0]]","5","0","","","","","","6","","","","","","","","",""
"","","","","","single-stim-button","102","297156","0.0-2.0-25.5-1.5","6290d05992a97c47797f9de3","A3","batch1","","557","tol_toboard","","","","tol_peg_3","557","557","0","[[2,1,0],[0,0],[3]]","6","[[1,0,0],[2,3],[0]]","5","0","","","","","","6","","","","","","","","",""
"","","","","","single-stim-button","103","299396","0.0-2.0-25.6-0.6","6290d05992a97c47797f9de3","A3","batch1","","2239","tol_tohand","","","","tol_peg_1","2239","2239","0","[[2,0,0],[0,0],[3]]","7","[[1,0,0],[2,3],[0]]","5","0","","","","","","6","","","","","","","","",""
"","","","","","single-stim-button","104","300685","0.0-2.0-25.6-1.6","6290d05992a97c47797f9de3","A3","batch1","","1289","tol_toboard","","","","tol_peg_2","1289","1289","0","[[2,0,0],[1,0],[3]]","7","[[1,0,0],[2,3],[0]]","5","0","","","","","","6","","","","","","","","",""
"","","","","","single-stim-button","105","311241","0.0-2.0-25.7-0.7","6290d05992a97c47797f9de3","A3","batch1","","10555","tol_tohand","","","","tol_peg_1","10555","10555","0","[[0,0,0],[1,0],[3]]","8","[[1,0,0],[2,3],[0]]","5","0","","","","","","6","","","","","","","","",""
"","","","","","single-stim-button","106","311755","0.0-2.0-25.7-1.7","6290d05992a97c47797f9de3","A3","batch1","","513","tol_toboard","","","","tol_peg_2","513","513","0","[[0,0,0],[1,2],[3]]","8","[[1,0,0],[2,3],[0]]","5","0","","","","","","6","","","","","","","","",""
"","","","","","single-stim-button","107","312363","0.0-2.0-25.8-0.8","6290d05992a97c47797f9de3","A3","batch1","","606","tol_tohand","","","","tol_peg_3","606","606","0","[[0,0,0],[1,2],[0]]","9","[[1,0,0],[2,3],[0]]","5","0","","","","","","6","","","","","","","","",""
"","","","","","single-stim-button","108","312916","0.0-2.0-25.8-1.8","6290d05992a97c47797f9de3","A3","batch1","","552","tol_toboard","","","","tol_peg_1","552","552","0","[[3,0,0],[1,2],[0]]","9","[[1,0,0],[2,3],[0]]","5","0","","","","","","6","","","","","","","","",""
"","","","","","single-stim-button","109","313050","0.0-2.0-25.9-0.9","6290d05992a97c47797f9de3","A3","batch1","","134","tol_tohand","","","","tol_peg_1","134","134","0","[[0,0,0],[1,2],[0]]","10","[[1,0,0],[2,3],[0]]","5","0","","","","","","6","","","","","","","","",""
"","","","","","single-stim-button","110","314173","0.0-2.0-25.9-1.9","6290d05992a97c47797f9de3","A3","batch1","","1123","tol_toboard","","","","tol_peg_1","1123","1123","0","[[3,0,0],[1,2],[0]]","10","[[1,0,0],[2,3],[0]]","5","0","","","","","","6","","","","","","","","",""
"","","","","","single-stim-button","111","316066","0.0-2.0-25.10-0.10","6290d05992a97c47797f9de3","A3","batch1","","1892","tol_tohand","","","","tol_peg_2","1892","1892","0","[[3,0,0],[1,0],[0]]","11","[[1,0,0],[2,3],[0]]","5","0","","","","","","6","","","","","","","","",""
"","","","","","single-stim-button","112","316589","0.0-2.0-25.10-1.10","6290d05992a97c47797f9de3","A3","batch1","","522","tol_toboard","","","","tol_peg_3","522","522","0","[[3,0,0],[1,0],[2]]","11","[[1,0,0],[2,3],[0]]","5","0","","","","","","6","","","","","","","","",""
"","","","","","single-stim-button","113","317117","0.0-2.0-25.11-0.11","6290d05992a97c47797f9de3","A3","batch1","","526","tol_tohand","","","","tol_peg_2","526","526","0","[[3,0,0],[0,0],[2]]","12","[[1,0,0],[2,3],[0]]","5","0","","","","","","6","","","","","","","","",""
"","","","","","single-stim-button","114","317581","0.0-2.0-25.11-1.11","6290d05992a97c47797f9de3","A3","batch1","","464","tol_toboard","","","","tol_peg_1","464","464","0","[[3,1,0],[0,0],[2]]","12","[[1,0,0],[2,3],[0]]","5","0","","","","","","6","","","","","","","","",""
"","","","","","single-stim-button","115","318375","0.0-2.0-25.12-0.12","6290d05992a97c47797f9de3","A3","batch1","","793","tol_tohand","","","","tol_peg_3","793","793","0","[[3,1,0],[0,0],[0]]","13","[[1,0,0],[2,3],[0]]","5","0","","","","","","6","","","","","","","","",""
"","","","","","single-stim-button","116","318832","0.0-2.0-25.12-1.12","6290d05992a97c47797f9de3","A3","batch1","","456","tol_toboard","","","","tol_peg_2","456","456","0","[[3,1,0],[2,0],[0]]","13","[[1,0,0],[2,3],[0]]","5","0","","","","","","6","","","","","","","","",""
"","","","","","single-stim-button","117","319597","0.0-2.0-25.13-0.13","6290d05992a97c47797f9de3","A3","batch1","","764","tol_tohand","","","","tol_peg_1","764","764","0","[[3,0,0],[2,0],[0]]","14","[[1,0,0],[2,3],[0]]","5","0","","","","","","6","","","","","","","","",""
"","","","","","single-stim-button","118","320381","0.0-2.0-25.13-1.13","6290d05992a97c47797f9de3","A3","batch1","","783","tol_toboard","","","","tol_peg_3","783","783","0","[[3,0,0],[2,0],[1]]","14","[[1,0,0],[2,3],[0]]","5","0","","","","","","6","","","","","","","","",""
"","","","","","single-stim-button","119","320975","0.0-2.0-25.14-0.14","6290d05992a97c47797f9de3","A3","batch1","","592","tol_tohand","","","","tol_peg_1","592","592","0","[[0,0,0],[2,0],[1]]","15","[[1,0,0],[2,3],[0]]","5","0","","","","","","6","","","","","","","","",""
"","","","","","single-stim-button","120","321431","0.0-2.0-25.14-1.14","6290d05992a97c47797f9de3","A3","batch1","","456","tol_toboard","","","","tol_peg_2","456","456","0","[[0,0,0],[2,3],[1]]","15","[[1,0,0],[2,3],[0]]","5","0","","","","","","6","","","","","","","","",""
"","","","","","single-stim-button","121","321895","0.0-2.0-25.15-0.15","6290d05992a97c47797f9de3","A3","batch1","","463","tol_tohand","","","","tol_peg_3","463","463","0","[[0,0,0],[2,3],[0]]","16","[[1,0,0],[2,3],[0]]","5","0","","","","","","6","","","","","","","","",""
"","","","","","single-stim-button","122","322399","0.0-2.0-25.15-1.15","6290d05992a97c47797f9de3","A3","batch1","","503","tol_toboard","","","","tol_peg_1","503","503","0","[[1,0,0],[2,3],[0]]","16","[[1,0,0],[2,3],[0]]","5","0","","","","","","6","","","","","","","","",""
"","","","","","poldrack-single-stim","123","323400","0.0-2.0-26.0","6290d05992a97c47797f9de3","A3","batch1","","-1","tol_feedback","","","true","","1000","1000","500","","","","","","-1","none","true","3432","29822","","","","","","","","","",""
"","","","","","html-button-response","124","327212","0.0-2.0-27.0","6290d05992a97c47797f9de3","A3","batch1","","3810.399999976158","tol_trial_num","<div class = centerbox><p class = center-block-text>problem <strong>7</strong> out of 25 problems</p></div>","0","","","","","","","","","","","","","","","","","","","","","","","","",""
"","","","","","single-stim-button","125","329823","0.0-2.0-28.0-0.0","6290d05992a97c47797f9de3","A3","batch1","","2611","tol_tohand","","","","tol_peg_1","2611","2611","0","[[2,0,0],[0,0],[3]]","1","[[1,2,0],[3,0],[0]]","6","0","","","","","","5","","","","","","","","",""
"","","","","","single-stim-button","126","331261","0.0-2.0-28.0-1.0","6290d05992a97c47797f9de3","A3","batch1","","1437","tol_toboard","","","","tol_peg_2","1437","1437","0","[[2,0,0],[1,0],[3]]","1","[[1,2,0],[3,0],[0]]","6","0","","","","","","5","","","","","","","","",""
"","","","","","single-stim-button","127","332697","0.0-2.0-28.1-0.1","6290d05992a97c47797f9de3","A3","batch1","","1436","tol_tohand","","","","tol_peg_1","1436","1436","0","[[0,0,0],[1,0],[3]]","2","[[1,2,0],[3,0],[0]]","6","0","","","","","","5","","","","","","","","",""
"","","","","","single-stim-button","128","334481","0.0-2.0-28.1-1.1","6290d05992a97c47797f9de3","A3","batch1","","1784","tol_toboard","","","","tol_peg_1","1784","1784","0","[[2,0,0],[1,0],[3]]","2","[[1,2,0],[3,0],[0]]","6","0","","","","","","5","","","","","","","","",""
"","","","","","single-stim-button","129","335057","0.0-2.0-28.2-0.2","6290d05992a97c47797f9de3","A3","batch1","","576","tol_tohand","","","","tol_peg_3","576","576","0","[[2,0,0],[1,0],[0]]","3","[[1,2,0],[3,0],[0]]","6","0","","","","","","5","","","","","","","","",""
"","","","","","single-stim-button","130","335647","0.0-2.0-28.2-1.2","6290d05992a97c47797f9de3","A3","batch1","","590","tol_toboard","","","","tol_peg_1","590","590","0","[[2,3,0],[1,0],[0]]","3","[[1,2,0],[3,0],[0]]","6","0","","","","","","5","","","","","","","","",""
"","","","","","single-stim-button","131","336327","0.0-2.0-28.3-0.3","6290d05992a97c47797f9de3","A3","batch1","","680","tol_tohand","","","","tol_peg_2","680","680","0","[[2,3,0],[0,0],[0]]","4","[[1,2,0],[3,0],[0]]","6","0","","","","","","5","","","","","","","","",""
"","","","","","single-stim-button","132","336791","0.0-2.0-28.3-1.3","6290d05992a97c47797f9de3","A3","batch1","","464","tol_toboard","","","","tol_peg_3","464","464","0","[[2,3,0],[0,0],[1]]","4","[[1,2,0],[3,0],[0]]","6","0","","","","","","5","","","","","","","","",""
"","","","","","single-stim-button","133","337280","0.0-2.0-28.4-0.4","6290d05992a97c47797f9de3","A3","batch1","","489","tol_tohand","","","","tol_peg_1","489","489","0","[[2,0,0],[0,0],[1]]","5","[[1,2,0],[3,0],[0]]","6","0","","","","","","5","","","","","","","","",""
"","","","","","single-stim-button","134","337713","0.0-2.0-28.4-1.4","6290d05992a97c47797f9de3","A3","batch1","","432","tol_toboard","","","","tol_peg_2","432","432","0","[[2,0,0],[3,0],[1]]","5","[[1,2,0],[3,0],[0]]","6","0","","","","","","5","","","","","","","","",""
"","","","","","single-stim-button","135","338409","0.0-2.0-28.5-0.5","6290d05992a97c47797f9de3","A3","batch1","","696","tol_tohand","","","","tol_peg_1","696","696","0","[[0,0,0],[3,0],[1]]","6","[[1,2,0],[3,0],[0]]","6","0","","","","","","5","","","","","","","","",""
"","","","","","single-stim-button","136","338849","0.0-2.0-28.5-1.5","6290d05992a97c47797f9de3","A3","batch1","","440","tol_toboard","","","","tol_peg_2","440","440","0","[[0,0,0],[3,2],[1]]","6","[[1,2,0],[3,0],[0]]","6","0","","","","","","5","","","","","","","","",""
"","","","","","single-stim-button","137","339398","0.0-2.0-28.6-0.6","6290d05992a97c47797f9de3","A3","batch1","","549","tol_tohand","","","","tol_peg_3","549","549","0","[[0,0,0],[3,2],[0]]","7","[[1,2,0],[3,0],[0]]","6","0","","","","","","5","","","","","","","","",""
"","","","","","single-stim-button","138","339919","0.0-2.0-28.6-1.6","6290d05992a97c47797f9de3","A3","batch1","","520","tol_toboard","","","","tol_peg_1","520","520","0","[[1,0,0],[3,2],[0]]","7","[[1,2,0],[3,0],[0]]","6","0","","","","","","5","","","","","","","","",""
"","","","","","single-stim-button","139","340391","0.0-2.0-28.7-0.7","6290d05992a97c47797f9de3","A3","batch1","","470","tol_tohand","","","","tol_peg_2","470","470","0","[[1,0,0],[3,0],[0]]","8","[[1,2,0],[3,0],[0]]","6","0","","","","","","5","","","","","","","","",""
"","","","","","single-stim-button","140","340791","0.0-2.0-28.7-1.7","6290d05992a97c47797f9de3","A3","batch1","","400","tol_toboard","","","","tol_peg_1","400","400","0","[[1,2,0],[3,0],[0]]","8","[[1,2,0],[3,0],[0]]","6","0","","","","","","5","","","","","","","","",""
"","","","","","poldrack-single-stim","141","341795","0.0-2.0-29.0","6290d05992a97c47797f9de3","A3","batch1","","-1","tol_feedback","","","true","","1000","1000","500","","","","","","-1","none","true","2611","7507","","","","","","","","","",""
"","","","","","html-button-response","142","373151","0.0-2.0-30.0","6290d05992a97c47797f9de3","A3","batch1","","31356","tol_trial_num","<div class = centerbox><p class = center-block-text>problem <strong>8</strong> out of 25 problems</p></div>","0","","","","","","","","","","","","","","","","","","","","","","","","",""
"","","","","","single-stim-button","143","376729","0.0-2.0-31.0-0.0","6290d05992a97c47797f9de3","A3","batch1","","3576","tol_tohand","","","","tol_peg_3","3576","3576","0","[[0,0,0],[2,3],[0]]","1","[[1,2,0],[3,0],[0]]","7","0","","","","","","4","","","","","","","","",""
"","","","","","single-stim-button","144","377306","0.0-2.0-31.0-1.0","6290d05992a97c47797f9de3","A3","batch1","","576","tol_toboard","","","","tol_peg_1","576","576","0","[[1,0,0],[2,3],[0]]","1","[[1,2,0],[3,0],[0]]","7","0","","","","","","4","","","","","","","","",""
"","","","","","single-stim-button","145","378283","0.0-2.0-31.1-0.1","6290d05992a97c47797f9de3","A3","batch1","","976","tol_tohand","","","","tol_peg_2","976","976","0","[[1,0,0],[2,0],[0]]","2","[[1,2,0],[3,0],[0]]","7","0","","","","","","4","","","","","","","","",""
"","","","","","single-stim-button","146","378892","0.0-2.0-31.1-1.1","6290d05992a97c47797f9de3","A3","batch1","","608","tol_toboard","","","","tol_peg_3","608","608","0","[[1,0,0],[2,0],[3]]","2","[[1,2,0],[3,0],[0]]","7","0","","","","","","4","","","","","","","","",""
"","","","","","single-stim-button","147","379420","0.0-2.0-31.2-0.2","6290d05992a97c47797f9de3","A3","batch1","","528","tol_tohand","","","","tol_peg_2","528","528","0","[[1,0,0],[0,0],[3]]","3","[[1,2,0],[3,0],[0]]","7","0","","","","","","4","","","","","","","","",""
"","","","","","single-stim-button","148","379853","0.0-2.0-31.2-1.2","6290d05992a97c47797f9de3","A3","batch1","","431","tol_toboard","","","","tol_peg_1","431","431","0","[[1,2,0],[0,0],[3]]","3","[[1,2,0],[3,0],[0]]","7","0","","","","","","4","","","","","","","","",""
"","","","","","single-stim-button","149","380482","0.0-2.0-31.3-0.3","6290d05992a97c47797f9de3","A3","batch1","","629","tol_tohand","","","","tol_peg_3","629","629","0","[[1,2,0],[0,0],[0]]","4","[[1,2,0],[3,0],[0]]","7","0","","","","","","4","","","","","","","","",""
"","","","","","single-stim-button","150","381010","0.0-2.0-31.3-1.3","6290d05992a97c47797f9de3","A3","batch1","","527","tol_toboard","","","","tol_peg_2","527","527","0","[[1,2,0],[3,0],[0]]","4","[[1,2,0],[3,0],[0]]","7","0","","","","","","4","","","","","","","","",""
"","","","","","poldrack-single-stim","151","382014","0.0-2.0-32.0","6290d05992a97c47797f9de3","A3","batch1","","-1","tol_feedback","","","true","","1000","1000","500","","","","","","-1","none","true","3576","5709","","","","","","","","","",""
"","","","","","html-button-response","152","382836","0.0-2.0-33.0","6290d05992a97c47797f9de3","A3","batch1","","821.2000000476837","tol_trial_num","<div class = centerbox><p class = center-block-text>problem <strong>9</strong> out of 25 problems</p></div>","0","","","","","","","","","","","","","","","","","","","","","","","","",""
"","","","","","single-stim-button","153","385268","0.0-2.0-34.0-0.0","6290d05992a97c47797f9de3","A3","batch1","","2432","tol_tohand","","","","tol_peg_1","2432","2432","0","[[3,0,0],[0,0],[1]]","1","[[2,1,0],[3,0],[0]]","8","0","","","","","","6","","","","","","","","",""
"","","","","","single-stim-button","154","385772","0.0-2.0-34.0-1.0","6290d05992a97c47797f9de3","A3","batch1","","503","tol_toboard","","","","tol_peg_2","503","503","0","[[3,0,0],[2,0],[1]]","1","[[2,1,0],[3,0],[0]]","8","0","","","","","","6","","","","","","","","",""
"","","","","","single-stim-button","155","387182","0.0-2.0-34.1-0.1","6290d05992a97c47797f9de3","A3","batch1","","1409","tol_tohand","","","","tol_peg_1","1409","1409","0","[[0,0,0],[2,0],[1]]","2","[[2,1,0],[3,0],[0]]","8","0","","","","","","6","","","","","","","","",""
"","","","","","single-stim-button","156","388380","0.0-2.0-34.1-1.1","6290d05992a97c47797f9de3","A3","batch1","","1197","tol_toboard","","","","tol_peg_2","1197","1197","0","[[0,0,0],[2,3],[1]]","2","[[2,1,0],[3,0],[0]]","8","0","","","","","","6","","","","","","","","",""
"","","","","","single-stim-button","157","388532","0.0-2.0-34.2-0.2","6290d05992a97c47797f9de3","A3","batch1","","151","tol_tohand","","","","tol_peg_2","151","151","0","[[0,0,0],[2,0],[1]]","3","[[2,1,0],[3,0],[0]]","8","0","","","","","","6","","","","","","","","",""
"","","","","","single-stim-button","158","389548","0.0-2.0-34.2-1.2","6290d05992a97c47797f9de3","A3","batch1","","1015","tol_toboard","","","","tol_peg_2","1015","1015","0","[[0,0,0],[2,3],[1]]","3","[[2,1,0],[3,0],[0]]","8","0","","","","","","6","","","","","","","","",""
"","","","","","single-stim-button","159","390158","0.0-2.0-34.3-0.3","6290d05992a97c47797f9de3","A3","batch1","","609","tol_tohand","","","","tol_peg_3","609","609","0","[[0,0,0],[2,3],[0]]","4","[[2,1,0],[3,0],[0]]","8","0","","","","","","6","","","","","","","","",""
"","","","","","single-stim-button","160","391168","0.0-2.0-34.3-1.3","6290d05992a97c47797f9de3","A3","batch1","","1009","tol_toboard","","","","tol_peg_1","1009","1009","0","[[1,0,0],[2,3],[0]]","4","[[2,1,0],[3,0],[0]]","8","0","","","","","","6","","","","","","","","",""
"","","","","","single-stim-button","161","391752","0.0-2.0-34.4-0.4","6290d05992a97c47797f9de3","A3","batch1","","583","tol_tohand","","","","tol_peg_2","583","583","0","[[1,0,0],[2,0],[0]]","5","[[2,1,0],[3,0],[0]]","8","0","","","","","","6","","","","","","","","",""
"","","","","","single-stim-button","162","392252","0.0-2.0-34.4-1.4","6290d05992a97c47797f9de3","A3","batch1","","499","tol_toboard","","","","tol_peg_3","499","499","0","[[1,0,0],[2,0],[3]]","5","[[2,1,0],[3,0],[0]]","8","0","","","","","","6","","","","","","","","",""
"","","","","","single-stim-button","163","393576","0.0-2.0-34.5-0.5","6290d05992a97c47797f9de3","A3","batch1","","1323","tol_tohand","","","","tol_peg_1","1323","1323","0","[[0,0,0],[2,0],[3]]","6","[[2,1,0],[3,0],[0]]","8","0","","","","","","6","","","","","","","","",""
"","","","","","single-stim-button","164","394360","0.0-2.0-34.5-1.5","6290d05992a97c47797f9de3","A3","batch1","","783","tol_toboard","","","","tol_peg_2","783","783","0","[[0,0,0],[2,1],[3]]","6","[[2,1,0],[3,0],[0]]","8","0","","","","","","6","","","","","","","","",""
"","","","","","single-stim-button","165","395192","0.0-2.0-34.6-0.6","6290d05992a97c47797f9de3","A3","batch1","","831","tol_tohand","","","","tol_peg_3","831","831","0","[[0,0,0],[2,1],[0]]","7","[[2,1,0],[3,0],[0]]","8","0","","","","","","6","","","","","","","","",""
"","","","","","single-stim-button","166","395696","0.0-2.0-34.6-1.6","6290d05992a97c47797f9de3","A3","batch1","","503","tol_toboard","","","","tol_peg_1","503","503","0","[[3,0,0],[2,1],[0]]","7","[[2,1,0],[3,0],[0]]","8","0","","","","","","6","","","","","","","","",""
"","","","","","single-stim-button","167","396177","0.0-2.0-34.7-0.7","6290d05992a97c47797f9de3","A3","batch1","","480","tol_tohand","","","","tol_peg_2","480","480","0","[[3,0,0],[2,0],[0]]","8","[[2,1,0],[3,0],[0]]","8","0","","","","","","6","","","","","","","","",""
"","","","","","single-stim-button","168","396629","0.0-2.0-34.7-1.7","6290d05992a97c47797f9de3","A3","batch1","","451","tol_toboard","","","","tol_peg_3","451","451","0","[[3,0,0],[2,0],[1]]","8","[[2,1,0],[3,0],[0]]","8","0","","","","","","6","","","","","","","","",""
"","","","","","single-stim-button","169","399074","0.0-2.0-34.8-0.8","6290d05992a97c47797f9de3","A3","batch1","","2445","tol_tohand","","","","tol_peg_1","2445","2445","0","[[0,0,0],[2,0],[1]]","9","[[2,1,0],[3,0],[0]]","8","0","","","","","","6","","","","","","","","",""
"","","","","","single-stim-button","170","399650","0.0-2.0-34.8-1.8","6290d05992a97c47797f9de3","A3","batch1","","575","tol_toboard","","","","tol_peg_2","575","575","0","[[0,0,0],[2,3],[1]]","9","[[2,1,0],[3,0],[0]]","8","0","","","","","","6","","","","","","","","",""
"","","","","","single-stim-button","171","402514","0.0-2.0-34.9-0.9","6290d05992a97c47797f9de3","A3","batch1","","2863","tol_tohand","","","","tol_peg_3","2863","2863","0","[[0,0,0],[2,3],[0]]","10","[[2,1,0],[3,0],[0]]","8","0","","","","","","6","","","","","","","","",""
"","","","","","single-stim-button","172","403098","0.0-2.0-34.9-1.9","6290d05992a97c47797f9de3","A3","batch1","","584","tol_toboard","","","","tol_peg_1","584","584","0","[[1,0,0],[2,3],[0]]","10","[[2,1,0],[3,0],[0]]","8","0","","","","","","6","","","","","","","","",""
"","","","","","single-stim-button","173","403722","0.0-2.0-34.10-0.10","6290d05992a97c47797f9de3","A3","batch1","","624","tol_tohand","","","","tol_peg_2","624","624","0","[[1,0,0],[2,0],[0]]","11","[[2,1,0],[3,0],[0]]","8","0","","","","","","6","","","","","","","","",""
"","","","","","single-stim-button","174","404172","0.0-2.0-34.10-1.10","6290d05992a97c47797f9de3","A3","batch1","","450","tol_toboard","","","","tol_peg_3","450","450","0","[[1,0,0],[2,0],[3]]","11","[[2,1,0],[3,0],[0]]","8","0","","","","","","6","","","","","","","","",""
"","","","","","single-stim-button","175","404599","0.0-2.0-34.11-0.11","6290d05992a97c47797f9de3","A3","batch1","","427","tol_tohand","","","","tol_peg_2","427","427","0","[[1,0,0],[0,0],[3]]","12","[[2,1,0],[3,0],[0]]","8","0","","","","","","6","","","","","","","","",""
"","","","","","single-stim-button","176","405095","0.0-2.0-34.11-1.11","6290d05992a97c47797f9de3","A3","batch1","","495","tol_toboard","","","","tol_peg_1","495","495","0","[[1,2,0],[0,0],[3]]","12","[[2,1,0],[3,0],[0]]","8","0","","","","","","6","","","","","","","","",""
"","","","","","single-stim-button","177","405874","0.0-2.0-34.12-0.12","6290d05992a97c47797f9de3","A3","batch1","","777","tol_tohand","","","","tol_peg_3","777","777","0","[[1,2,0],[0,0],[0]]","13","[[2,1,0],[3,0],[0]]","8","0","","","","","","6","","","","","","","","",""
"","","","","","single-stim-button","178","406370","0.0-2.0-34.12-1.12","6290d05992a97c47797f9de3","A3","batch1","","496","tol_toboard","","","","tol_peg_2","496","496","0","[[1,2,0],[3,0],[0]]","13","[[2,1,0],[3,0],[0]]","8","0","","","","","","6","","","","","","","","",""
"","","","","","single-stim-button","179","407220","0.0-2.0-34.13-0.13","6290d05992a97c47797f9de3","A3","batch1","","850","tol_tohand","","","","tol_peg_1","850","850","0","[[1,0,0],[3,0],[0]]","14","[[2,1,0],[3,0],[0]]","8","0","","","","","","6","","","","","","","","",""
"","","","","","single-stim-button","180","407940","0.0-2.0-34.13-1.13","6290d05992a97c47797f9de3","A3","batch1","","719","tol_toboard","","","","tol_peg_3","719","719","0","[[1,0,0],[3,0],[2]]","14","[[2,1,0],[3,0],[0]]","8","0","","","","","","6","","","","","","","","",""
"","","","","","single-stim-button","181","408570","0.0-2.0-34.14-0.14","6290d05992a97c47797f9de3","A3","batch1","","629","tol_tohand","","","","tol_peg_1","629","629","0","[[0,0,0],[3,0],[2]]","15","[[2,1,0],[3,0],[0]]","8","0","","","","","","6","","","","","","","","",""
"","","","","","single-stim-button","182","409058","0.0-2.0-34.14-1.14","6290d05992a97c47797f9de3","A3","batch1","","487","tol_toboard","","","","tol_peg_2","487","487","0","[[0,0,0],[3,1],[2]]","15","[[2,1,0],[3,0],[0]]","8","0","","","","","","6","","","","","","","","",""
"","","","","","single-stim-button","183","410284","0.0-2.0-34.15-0.15","6290d05992a97c47797f9de3","A3","batch1","","1226","tol_tohand","","","","tol_peg_3","1226","1226","0","[[0,0,0],[3,1],[0]]","16","[[2,1,0],[3,0],[0]]","8","0","","","","","","6","","","","","","","","",""
"","","","","","single-stim-button","184","410763","0.0-2.0-34.15-1.15","6290d05992a97c47797f9de3","A3","batch1","","479","tol_toboard","","","","tol_peg_1","479","479","0","[[2,0,0],[3,1],[0]]","16","[[2,1,0],[3,0],[0]]","8","0","","","","","","6","","","","","","","","",""
"","","","","","single-stim-button","185","411244","0.0-2.0-34.16-0.16","6290d05992a97c47797f9de3","A3","batch1","","479","tol_tohand","","","","tol_peg_2","479","479","0","[[2,0,0],[3,0],[0]]","17","[[2,1,0],[3,0],[0]]","8","0","","","","","","6","","","","","","","","",""
"","","","","","single-stim-button","186","411678","0.0-2.0-34.16-1.16","6290d05992a97c47797f9de3","A3","batch1","","433","tol_toboard","","","","tol_peg_1","433","433","0","[[2,1,0],[3,0],[0]]","17","[[2,1,0],[3,0],[0]]","8","0","","","","","","6","","","","","","","","",""
"","","","","","poldrack-single-stim","187","412681","0.0-2.0-35.0","6290d05992a97c47797f9de3","A3","batch1","","-1","tol_feedback","","","true","","1000","1000","500","","","","","","-1","none","true","2432","18138","","","","","","","","","",""
"","","","","","html-button-response","188","414267","0.0-2.0-36.0","6290d05992a97c47797f9de3","A3","batch1","","1584.8000000715256","tol_trial_num","<div class = centerbox><p class = center-block-text>problem <strong>10</strong> out of 25 problems</p></div>","0","","","","","","","","","","","","","","","","","","","","","","","","",""
"","","","","","single-stim-button","189","417381","0.0-2.0-37.0-0.0","6290d05992a97c47797f9de3","A3","batch1","","3113","tol_tohand","","","","tol_peg_2","3113","3113","0","[[3,0,0],[0,0],[2]]","1","[[3,0,0],[2,1],[0]]","9","0","","","","","","3","","","","","","","","",""
"","","","","","single-stim-button","190","418808","0.0-2.0-37.0-1.0","6290d05992a97c47797f9de3","A3","batch1","","1425","tol_toboard","","","","tol_peg_1","1425","1425","0","[[3,1,0],[0,0],[2]]","1","[[3,0,0],[2,1],[0]]","9","0","","","","","","3","","","","","","","","",""
"","","","","","single-stim-button","191","419304","0.0-2.0-37.1-0.1","6290d05992a97c47797f9de3","A3","batch1","","495","tol_tohand","","","","tol_peg_3","495","495","0","[[3,1,0],[0,0],[0]]","2","[[3,0,0],[2,1],[0]]","9","0","","","","","","3","","","","","","","","",""
"","","","","","single-stim-button","192","419736","0.0-2.0-37.1-1.1","6290d05992a97c47797f9de3","A3","batch1","","431","tol_toboard","","","","tol_peg_2","431","431","0","[[3,1,0],[2,0],[0]]","2","[[3,0,0],[2,1],[0]]","9","0","","","","","","3","","","","","","","","",""
"","","","","","single-stim-button","193","420210","0.0-2.0-37.2-0.2","6290d05992a97c47797f9de3","A3","batch1","","473","tol_tohand","","","","tol_peg_1","473","473","0","[[3,0,0],[2,0],[0]]","3","[[3,0,0],[2,1],[0]]","9","0","","","","","","3","","","","","","","","",""
"","","","","","single-stim-button","194","420630","0.0-2.0-37.2-1.2","6290d05992a97c47797f9de3","A3","batch1","","419","tol_toboard","","","","tol_peg_2","419","419","0","[[3,0,0],[2,1],[0]]","3","[[3,0,0],[2,1],[0]]","9","0","","","","","","3","","","","","","","","",""
"","","","","","poldrack-single-stim","195","421636","0.0-2.0-38.0","6290d05992a97c47797f9de3","A3","batch1","","-1","tol_feedback","","","true","","1000","1000","500","","","","","","-1","none","true","3113","4081","","","","","","","","","",""
"","","","","","html-button-response","196","422383","0.0-2.0-39.0","6290d05992a97c47797f9de3","A3","batch1","","746.1000000238419","tol_trial_num","<div class = centerbox><p class = center-block-text>problem <strong>11</strong> out of 25 problems</p></div>","0","","","","","","","","","","","","","","","","","","","","","","","","",""
"","","","","","single-stim-button","197","428659","0.0-2.0-40.0-0.0","6290d05992a97c47797f9de3","A3","batch1","","6275","tol_tohand","","","","tol_peg_2","6275","6275","0","[[1,2,0],[0,0],[0]]","1","[[2,0,0],[1,3],[0]]","10","0","","","","","","6","","","","","","","","",""
"","","","","","single-stim-button","198","429189","0.0-2.0-40.0-1.0","6290d05992a97c47797f9de3","A3","batch1","","529","tol_toboard","","","","tol_peg_3","529","529","0","[[1,2,0],[0,0],[3]]","1","[[2,0,0],[1,3],[0]]","10","0","","","","","","6","","","","","","","","",""
"","","","","","single-stim-button","199","430161","0.0-2.0-40.1-0.1","6290d05992a97c47797f9de3","A3","batch1","","971","tol_tohand","","","","tol_peg_1","971","971","0","[[1,0,0],[0,0],[3]]","2","[[2,0,0],[1,3],[0]]","10","0","","","","","","6","","","","","","","","",""
"","","","","","single-stim-button","200","430739","0.0-2.0-40.1-1.1","6290d05992a97c47797f9de3","A3","batch1","","578","tol_toboard","","","","tol_peg_2","578","578","0","[[1,0,0],[2,0],[3]]","2","[[2,0,0],[1,3],[0]]","10","0","","","","","","6","","","","","","","","",""
"","","","","","single-stim-button","201","432706","0.0-2.0-40.2-0.2","6290d05992a97c47797f9de3","A3","batch1","","1966","tol_tohand","","","","tol_peg_3","1966","1966","0","[[1,0,0],[2,0],[0]]","3","[[2,0,0],[1,3],[0]]","10","0","","","","","","6","","","","","","","","",""
"","","","","","single-stim-button","202","433173","0.0-2.0-40.2-1.2","6290d05992a97c47797f9de3","A3","batch1","","467","tol_toboard","","","","tol_peg_1","467","467","0","[[1,3,0],[2,0],[0]]","3","[[2,0,0],[1,3],[0]]","10","0","","","","","","6","","","","","","","","",""
"","","","","","single-stim-button","203","433645","0.0-2.0-40.3-0.3","6290d05992a97c47797f9de3","A3","batch1","","471","tol_tohand","","","","tol_peg_2","471","471","0","[[1,3,0],[0,0],[0]]","4","[[2,0,0],[1,3],[0]]","10","0","","","","","","6","","","","","","","","",""
"","","","","","single-stim-button","204","434107","0.0-2.0-40.3-1.3","6290d05992a97c47797f9de3","A3","batch1","","461","tol_toboard","","","","tol_peg_3","461","461","0","[[1,3,0],[0,0],[2]]","4","[[2,0,0],[1,3],[0]]","10","0","","","","","","6","","","","","","","","",""
"","","","","","single-stim-button","205","434883","0.0-2.0-40.4-0.4","6290d05992a97c47797f9de3","A3","batch1","","775","tol_tohand","","","","tol_peg_1","775","775","0","[[1,0,0],[0,0],[2]]","5","[[2,0,0],[1,3],[0]]","10","0","","","","","","6","","","","","","","","",""
"","","","","","single-stim-button","206","435419","0.0-2.0-40.4-1.4","6290d05992a97c47797f9de3","A3","batch1","","536","tol_toboard","","","","tol_peg_2","536","536","0","[[1,0,0],[3,0],[2]]","5","[[2,0,0],[1,3],[0]]","10","0","","","","","","6","","","","","","","","",""
"","","","","","single-stim-button","207","435934","0.0-2.0-40.5-0.5","6290d05992a97c47797f9de3","A3","batch1","","514","tol_tohand","","","","tol_peg_1","514","514","0","[[0,0,0],[3,0],[2]]","6","[[2,0,0],[1,3],[0]]","10","0","","","","","","6","","","","","","","","",""
"","","","","","single-stim-button","208","436477","0.0-2.0-40.5-1.5","6290d05992a97c47797f9de3","A3","batch1","","542","tol_toboard","","","","tol_peg_2","542","542","0","[[0,0,0],[3,1],[2]]","6","[[2,0,0],[1,3],[0]]","10","0","","","","","","6","","","","","","","","",""
"","","","","","single-stim-button","209","437125","0.0-2.0-40.6-0.6","6290d05992a97c47797f9de3","A3","batch1","","647","tol_tohand","","","","tol_peg_3","647","647","0","[[0,0,0],[3,1],[0]]","7","[[2,0,0],[1,3],[0]]","10","0","","","","","","6","","","","","","","","",""
"","","","","","single-stim-button","210","437947","0.0-2.0-40.6-1.6","6290d05992a97c47797f9de3","A3","batch1","","822","tol_toboard","","","","tol_peg_1","822","822","0","[[2,0,0],[3,1],[0]]","7","[[2,0,0],[1,3],[0]]","10","0","","","","","","6","","","","","","","","",""
"","","","","","single-stim-button","211","438499","0.0-2.0-40.7-0.7","6290d05992a97c47797f9de3","A3","batch1","","551","tol_tohand","","","","tol_peg_2","551","551","0","[[2,0,0],[3,0],[0]]","8","[[2,0,0],[1,3],[0]]","10","0","","","","","","6","","","","","","","","",""
"","","","","","single-stim-button","212","438989","0.0-2.0-40.7-1.7","6290d05992a97c47797f9de3","A3","batch1","","489","tol_toboard","","","","tol_peg_1","489","489","0","[[2,1,0],[3,0],[0]]","8","[[2,0,0],[1,3],[0]]","10","0","","","","","","6","","","","","","","","",""
"","","","","","single-stim-button","213","439597","0.0-2.0-40.8-0.8","6290d05992a97c47797f9de3","A3","batch1","","607","tol_tohand","","","","tol_peg_2","607","607","0","[[2,1,0],[0,0],[0]]","9","[[2,0,0],[1,3],[0]]","10","0","","","","","","6","","","","","","","","",""
"","","","","","single-stim-button","214","440085","0.0-2.0-40.8-1.8","6290d05992a97c47797f9de3","A3","batch1","","487","tol_toboard","","","","tol_peg_3","487","487","0","[[2,1,0],[0,0],[3]]","9","[[2,0,0],[1,3],[0]]","10","0","","","","","","6","","","","","","","","",""
"","","","","","single-stim-button","215","442836","0.0-2.0-40.9-0.9","6290d05992a97c47797f9de3","A3","batch1","","2750","tol_tohand","","","","tol_peg_1","2750","2750","0","[[2,0,0],[0,0],[3]]","10","[[2,0,0],[1,3],[0]]","10","0","","","","","","6","","","","","","","","",""
"","","","","","single-stim-button","216","443231","0.0-2.0-40.9-1.9","6290d05992a97c47797f9de3","A3","batch1","","395","tol_toboard","","","","tol_peg_2","395","395","0","[[2,0,0],[1,0],[3]]","10","[[2,0,0],[1,3],[0]]","10","0","","","","","","6","","","","","","","","",""
"","","","","","single-stim-button","217","443663","0.0-2.0-40.10-0.10","6290d05992a97c47797f9de3","A3","batch1","","431","tol_tohand","","","","tol_peg_3","431","431","0","[[2,0,0],[1,0],[0]]","11","[[2,0,0],[1,3],[0]]","10","0","","","","","","6","","","","","","","","",""
"","","","","","single-stim-button","218","444039","0.0-2.0-40.10-1.10","6290d05992a97c47797f9de3","A3","batch1","","376","tol_toboard","","","","tol_peg_2","376","376","0","[[2,0,0],[1,3],[0]]","11","[[2,0,0],[1,3],[0]]","10","0","","","","","","6","","","","","","","","",""
"","","","","","poldrack-single-stim","219","445044","0.0-2.0-41.0","6290d05992a97c47797f9de3","A3","batch1","","-1","tol_feedback","","","true","","1000","1000","500","","","","","","-1","none","true","6275","15958","","","","","","","","","",""
"","","","","","html-button-response","220","446966","0.0-2.0-42.0","6290d05992a97c47797f9de3","A3","batch1","","1921.1000000238419","tol_trial_num","<div class = centerbox><p class = center-block-text>problem <strong>12</strong> out of 25 problems</p></div>","0","","","","","","","","","","","","","","","","","","","","","","","","",""
"","","","","","single-stim-button","221","449523","0.0-2.0-43.0-0.0","6290d05992a97c47797f9de3","A3","batch1","","2555","tol_tohand","","","","tol_peg_1","2555","2555","0","[[1,0,0],[3,0],[0]]","1","[[2,3,0],[0,0],[1]]","11","0","","","","","","4","","","","","","","","",""
"","","","","","single-stim-button","222","451017","0.0-2.0-43.0-1.0","6290d05992a97c47797f9de3","A3","batch1","","1494","tol_toboard","","","","tol_peg_2","1494","1494","0","[[1,0,0],[3,2],[0]]","1","[[2,3,0],[0,0],[1]]","11","0","","","","","","4","","","","","","","","",""
"","","","","","single-stim-button","223","452018","0.0-2.0-43.1-0.1","6290d05992a97c47797f9de3","A3","batch1","","1001","tol_tohand","","","","tol_peg_1","1001","1001","0","[[0,0,0],[3,2],[0]]","2","[[2,3,0],[0,0],[1]]","11","0","","","","","","4","","","","","","","","",""
"","","","","","single-stim-button","224","452532","0.0-2.0-43.1-1.1","6290d05992a97c47797f9de3","A3","batch1","","512","tol_toboard","","","","tol_peg_3","512","512","0","[[0,0,0],[3,2],[1]]","2","[[2,3,0],[0,0],[1]]","11","0","","","","","","4","","","","","","","","",""
"","","","","","single-stim-button","225","453139","0.0-2.0-43.2-0.2","6290d05992a97c47797f9de3","A3","batch1","","606","tol_tohand","","","","tol_peg_2","606","606","0","[[0,0,0],[3,0],[1]]","3","[[2,3,0],[0,0],[1]]","11","0","","","","","","4","","","","","","","","",""
"","","","","","single-stim-button","226","453645","0.0-2.0-43.2-1.2","6290d05992a97c47797f9de3","A3","batch1","","505","tol_toboard","","","","tol_peg_1","505","505","0","[[2,0,0],[3,0],[1]]","3","[[2,3,0],[0,0],[1]]","11","0","","","","","","4","","","","","","","","",""
"","","","","","single-stim-button","227","454052","0.0-2.0-43.3-0.3","6290d05992a97c47797f9de3","A3","batch1","","407","tol_tohand","","","","tol_peg_2","407","407","0","[[2,0,0],[0,0],[1]]","4","[[2,3,0],[0,0],[1]]","11","0","","","","","","4","","","","","","","","",""
"","","","","","single-stim-button","228","454433","0.0-2.0-43.3-1.3","6290d05992a97c47797f9de3","A3","batch1","","379","tol_toboard","","","","tol_peg_1","379","379","0","[[2,3,0],[0,0],[1]]","4","[[2,3,0],[0,0],[1]]","11","0","","","","","","4","","","","","","","","",""
"","","","","","poldrack-single-stim","229","455437","0.0-2.0-44.0","6290d05992a97c47797f9de3","A3","batch1","","-1","tol_feedback","","","true","","1000","1000","500","","","","","","-1","none","true","2555","4569","","","","","","","","","",""
"","","","","","html-button-response","230","457316","0.0-2.0-45.0","6290d05992a97c47797f9de3","A3","batch1","","1878.2000000476837","tol_trial_num","<div class = centerbox><p class = center-block-text>problem <strong>13</strong> out of 25 problems</p></div>","0","","","","","","","","","","","","","","","","","","","","","","","","",""
"","","","","","single-stim-button","231","459427","0.0-2.0-46.0-0.0","6290d05992a97c47797f9de3","A3","batch1","","2109","tol_tohand","","","","tol_peg_1","2109","2109","0","[[1,0,0],[3,0],[0]]","1","[[0,0,0],[2,3],[1]]","12","0","","","","","","4","","","","","","","","",""
"","","","","","single-stim-button","232","459909","0.0-2.0-46.0-1.0","6290d05992a97c47797f9de3","A3","batch1","","481","tol_toboard","","","","tol_peg_2","481","481","0","[[1,0,0],[3,2],[0]]","1","[[0,0,0],[2,3],[1]]","12","0","","","","","","4","","","","","","","","",""
"","","","","","single-stim-button","233","460365","0.0-2.0-46.1-0.1","6290d05992a97c47797f9de3","A3","batch1","","455","tol_tohand","","","","tol_peg_1","455","455","0","[[0,0,0],[3,2],[0]]","2","[[0,0,0],[2,3],[1]]","12","0","","","","","","4","","","","","","","","",""
"","","","","","single-stim-button","234","460837","0.0-2.0-46.1-1.1","6290d05992a97c47797f9de3","A3","batch1","","472","tol_toboard","","","","tol_peg_3","472","472","0","[[0,0,0],[3,2],[1]]","2","[[0,0,0],[2,3],[1]]","12","0","","","","","","4","","","","","","","","",""
"","","","","","single-stim-button","235","461799","0.0-2.0-46.2-0.2","6290d05992a97c47797f9de3","A3","batch1","","960","tol_tohand","","","","tol_peg_2","960","960","0","[[0,0,0],[3,0],[1]]","3","[[0,0,0],[2,3],[1]]","12","0","","","","","","4","","","","","","","","",""
"","","","","","single-stim-button","236","462298","0.0-2.0-46.2-1.2","6290d05992a97c47797f9de3","A3","batch1","","499","tol_toboard","","","","tol_peg_1","499","499","0","[[2,0,0],[3,0],[1]]","3","[[0,0,0],[2,3],[1]]","12","0","","","","","","4","","","","","","","","",""
"","","","","","single-stim-button","237","463453","0.0-2.0-46.3-0.3","6290d05992a97c47797f9de3","A3","batch1","","1153","tol_tohand","","","","tol_peg_2","1153","1153","0","[[2,0,0],[0,0],[1]]","4","[[0,0,0],[2,3],[1]]","12","0","","","","","","4","","","","","","","","",""
"","","","","","single-stim-button","238","463893","0.0-2.0-46.3-1.3","6290d05992a97c47797f9de3","A3","batch1","","439","tol_toboard","","","","tol_peg_1","439","439","0","[[2,3,0],[0,0],[1]]","4","[[0,0,0],[2,3],[1]]","12","0","","","","","","4","","","","","","","","",""
"","","","","","single-stim-button","239","464646","0.0-2.0-46.4-0.4","6290d05992a97c47797f9de3","A3","batch1","","753","tol_tohand","","","","tol_peg_3","753","753","0","[[2,3,0],[0,0],[0]]","5","[[0,0,0],[2,3],[1]]","12","0","","","","","","4","","","","","","","","",""
"","","","","","single-stim-button","240","465006","0.0-2.0-46.4-1.4","6290d05992a97c47797f9de3","A3","batch1","","359","tol_toboard","","","","tol_peg_3","359","359","0","[[2,3,0],[0,0],[1]]","5","[[0,0,0],[2,3],[1]]","12","0","","","","","","4","","","","","","","","",""
"","","","","","single-stim-button","241","465904","0.0-2.0-46.5-0.5","6290d05992a97c47797f9de3","A3","batch1","","896","tol_tohand","","","","tol_peg_3","896","896","0","[[2,3,0],[0,0],[0]]","6","[[0,0,0],[2,3],[1]]","12","0","","","","","","4","","","","","","","","",""
"","","","","","single-stim-button","242","466332","0.0-2.0-46.5-1.5","6290d05992a97c47797f9de3","A3","batch1","","428","tol_toboard","","","","tol_peg_2","428","428","0","[[2,3,0],[1,0],[0]]","6","[[0,0,0],[2,3],[1]]","12","0","","","","","","4","","","","","","","","",""
"","","","","","single-stim-button","243","466812","0.0-2.0-46.6-0.6","6290d05992a97c47797f9de3","A3","batch1","","479","tol_tohand","","","","tol_peg_1","479","479","0","[[2,0,0],[1,0],[0]]","7","[[0,0,0],[2,3],[1]]","12","0","","","","","","4","","","","","","","","",""
"","","","","","single-stim-button","244","467309","0.0-2.0-46.6-1.6","6290d05992a97c47797f9de3","A3","batch1","","496","tol_toboard","","","","tol_peg_3","496","496","0","[[2,0,0],[1,0],[3]]","7","[[0,0,0],[2,3],[1]]","12","0","","","","","","4","","","","","","","","",""
"","","","","","single-stim-button","245","474430","0.0-2.0-46.7-0.7","6290d05992a97c47797f9de3","A3","batch1","","7120","tol_tohand","","","","tol_peg_1","7120","7120","0","[[0,0,0],[1,0],[3]]","8","[[0,0,0],[2,3],[1]]","12","0","","","","","","4","","","","","","","","",""
"","","","","","single-stim-button","246","474862","0.0-2.0-46.7-1.7","6290d05992a97c47797f9de3","A3","batch1","","431","tol_toboard","","","","tol_peg_2","431","431","0","[[0,0,0],[1,2],[3]]","8","[[0,0,0],[2,3],[1]]","12","0","","","","","","4","","","","","","","","",""
"","","","","","single-stim-button","247","475302","0.0-2.0-46.8-0.8","6290d05992a97c47797f9de3","A3","batch1","","439","tol_tohand","","","","tol_peg_3","439","439","0","[[0,0,0],[1,2],[0]]","9","[[0,0,0],[2,3],[1]]","12","0","","","","","","4","","","","","","","","",""
"","","","","","single-stim-button","248","475752","0.0-2.0-46.8-1.8","6290d05992a97c47797f9de3","A3","batch1","","449","tol_toboard","","","","tol_peg_1","449","449","0","[[3,0,0],[1,2],[0]]","9","[[0,0,0],[2,3],[1]]","12","0","","","","","","4","","","","","","","","",""
"","","","","","single-stim-button","249","476264","0.0-2.0-46.9-0.9","6290d05992a97c47797f9de3","A3","batch1","","511","tol_tohand","","","","tol_peg_2","511","511","0","[[3,0,0],[1,0],[0]]","10","[[0,0,0],[2,3],[1]]","12","0","","","","","","4","","","","","","","","",""
"","","","","","single-stim-button","250","476736","0.0-2.0-46.9-1.9","6290d05992a97c47797f9de3","A3","batch1","","471","tol_toboard","","","","tol_peg_1","471","471","0","[[3,2,0],[1,0],[0]]","10","[[0,0,0],[2,3],[1]]","12","0","","","","","","4","","","","","","","","",""
"","","","","","single-stim-button","251","477386","0.0-2.0-46.10-0.10","6290d05992a97c47797f9de3","A3","batch1","","650","tol_tohand","","","","tol_peg_2","650","650","0","[[3,2,0],[0,0],[0]]","11","[[0,0,0],[2,3],[1]]","12","0","","","","","","4","","","","","","","","",""
"","","","","","single-stim-button","252","477890","0.0-2.0-46.10-1.10","6290d05992a97c47797f9de3","A3","batch1","","503","tol_toboard","","","","tol_peg_3","503","503","0","[[3,2,0],[0,0],[1]]","11","[[0,0,0],[2,3],[1]]","12","0","","","","","","4","","","","","","","","",""
"","","","","","single-stim-button","253","479105","0.0-2.0-46.11-0.11","6290d05992a97c47797f9de3","A3","batch1","","1214","tol_tohand","","","","tol_peg_1","1214","1214","0","[[3,0,0],[0,0],[1]]","12","[[0,0,0],[2,3],[1]]","12","0","","","","","","4","","","","","","","","",""
"","","","","","single-stim-button","254","479608","0.0-2.0-46.11-1.11","6290d05992a97c47797f9de3","A3","batch1","","503","tol_toboard","","","","tol_peg_2","503","503","0","[[3,0,0],[2,0],[1]]","12","[[0,0,0],[2,3],[1]]","12","0","","","","","","4","","","","","","","","",""
"","","","","","single-stim-button","255","480082","0.0-2.0-46.12-0.12","6290d05992a97c47797f9de3","A3","batch1","","473","tol_tohand","","","","tol_peg_1","473","473","0","[[0,0,0],[2,0],[1]]","13","[[0,0,0],[2,3],[1]]","12","0","","","","","","4","","","","","","","","",""
"","","","","","single-stim-button","256","480529","0.0-2.0-46.12-1.12","6290d05992a97c47797f9de3","A3","batch1","","446","tol_toboard","","","","tol_peg_2","446","446","0","[[0,0,0],[2,3],[1]]","13","[[0,0,0],[2,3],[1]]","12","0","","","","","","4","","","","","","","","",""
"","","","","","poldrack-single-stim","257","481541","0.0-2.0-47.0","6290d05992a97c47797f9de3","A3","batch1","","-1","tol_feedback","","","true","","1000","1000","500","","","","","","-1","none","true","2109","17212","","","","","","","","","",""
"","","","","","html-button-response","258","484241","0.0-2.0-48.0","6290d05992a97c47797f9de3","A3","batch1","","2698.399999976158","attention_check","<p class = block-text>How many balls are in your board<br></p>","1","true","","","","","","","","","","","","","","","","","","","","","","","",""
"","","","","","html-button-response","259","485379","0.0-2.0-49.0","6290d05992a97c47797f9de3","A3","batch1","","1136.8999999761581","tol_trial_num","<div class = centerbox><p class = center-block-text>problem <strong>14</strong> out of 25 problems</p></div>","0","","","","","","","","","","","","","","","","","","","","","","","","",""
"","","","","","single-stim-button","260","487588","0.0-2.0-50.0-0.0","6290d05992a97c47797f9de3","A3","batch1","","2208","tol_tohand","","","","tol_peg_1","2208","2208","0","[[2,0,0],[3,0],[0]]","1","[[1,2,0],[3,0],[0]]","13","0","","","","","","4","","","","","","","","",""
"","","","","","single-stim-button","261","488228","0.0-2.0-50.0-1.0","6290d05992a97c47797f9de3","A3","batch1","","639","tol_toboard","","","","tol_peg_2","639","639","0","[[2,0,0],[3,1],[0]]","1","[[1,2,0],[3,0],[0]]","13","0","","","","","","4","","","","","","","","",""
"","","","","","single-stim-button","262","488670","0.0-2.0-50.1-0.1","6290d05992a97c47797f9de3","A3","batch1","","442","tol_tohand","","","","tol_peg_1","442","442","0","[[0,0,0],[3,1],[0]]","2","[[1,2,0],[3,0],[0]]","13","0","","","","","","4","","","","","","","","",""
"","","","","","single-stim-button","263","489166","0.0-2.0-50.1-1.1","6290d05992a97c47797f9de3","A3","batch1","","496","tol_toboard","","","","tol_peg_3","496","496","0","[[0,0,0],[3,1],[2]]","2","[[1,2,0],[3,0],[0]]","13","0","","","","","","4","","","","","","","","",""
"","","","","","single-stim-button","264","489710","0.0-2.0-50.2-0.2","6290d05992a97c47797f9de3","A3","batch1","","544","tol_tohand","","","","tol_peg_2","544","544","0","[[0,0,0],[3,0],[2]]","3","[[1,2,0],[3,0],[0]]","13","0","","","","","","4","","","","","","","","",""
"","","","","","single-stim-button","265","490118","0.0-2.0-50.2-1.2","6290d05992a97c47797f9de3","A3","batch1","","407","tol_toboard","","","","tol_peg_1","407","407","0","[[1,0,0],[3,0],[2]]","3","[[1,2,0],[3,0],[0]]","13","0","","","","","","4","","","","","","","","",""
"","","","","","single-stim-button","266","490560","0.0-2.0-50.3-0.3","6290d05992a97c47797f9de3","A3","batch1","","441","tol_tohand","","","","tol_peg_3","441","441","0","[[1,0,0],[3,0],[0]]","4","[[1,2,0],[3,0],[0]]","13","0","","","","","","4","","","","","","","","",""
"","","","","","single-stim-button","267","490988","0.0-2.0-50.3-1.3","6290d05992a97c47797f9de3","A3","batch1","","428","tol_toboard","","","","tol_peg_1","428","428","0","[[1,2,0],[3,0],[0]]","4","[[1,2,0],[3,0],[0]]","13","0","","","","","","4","","","","","","","","",""
"","","","","","poldrack-single-stim","268","491996","0.0-2.0-51.0","6290d05992a97c47797f9de3","A3","batch1","","-1","tol_feedback","","","true","","1000","1000","500","","","","","","-1","none","true","2208","3635","","","","","","","","","",""
"","","","","","html-button-response","269","499383","0.0-2.0-52.0","6290d05992a97c47797f9de3","A3","batch1","","7386.100000023842","tol_trial_num","<div class = centerbox><p class = center-block-text>problem <strong>15</strong> out of 25 problems</p></div>","0","","","","","","","","","","","","","","","","","","","","","","","","",""
"","","","","","single-stim-button","270","503008","0.0-2.0-53.0-0.0","6290d05992a97c47797f9de3","A3","batch1","","3623","tol_tohand","","","","tol_peg_1","3623","3623","0","[[1,0,0],[3,0],[0]]","1","[[2,0,0],[3,0],[1]]","14","0","","","","","","3","","","","","","","","",""
"","","","","","single-stim-button","271","503479","0.0-2.0-53.0-1.0","6290d05992a97c47797f9de3","A3","batch1","","471","tol_toboard","","","","tol_peg_2","471","471","0","[[1,0,0],[3,2],[0]]","1","[[2,0,0],[3,0],[1]]","14","0","","","","","","3","","","","","","","","",""
"","","","","","single-stim-button","272","503935","0.0-2.0-53.1-0.1","6290d05992a97c47797f9de3","A3","batch1","","454","tol_tohand","","","","tol_peg_1","454","454","0","[[0,0,0],[3,2],[0]]","2","[[2,0,0],[3,0],[1]]","14","0","","","","","","3","","","","","","","","",""
"","","","","","single-stim-button","273","505205","0.0-2.0-53.1-1.1","6290d05992a97c47797f9de3","A3","batch1","","1270","tol_toboard","","","","tol_peg_3","1270","1270","0","[[0,0,0],[3,2],[1]]","2","[[2,0,0],[3,0],[1]]","14","0","","","","","","3","","","","","","","","",""
"","","","","","single-stim-button","274","505879","0.0-2.0-53.2-0.2","6290d05992a97c47797f9de3","A3","batch1","","673","tol_tohand","","","","tol_peg_2","673","673","0","[[0,0,0],[3,0],[1]]","3","[[2,0,0],[3,0],[1]]","14","0","","","","","","3","","","","","","","","",""
"","","","","","single-stim-button","275","506351","0.0-2.0-53.2-1.2","6290d05992a97c47797f9de3","A3","batch1","","471","tol_toboard","","","","tol_peg_1","471","471","0","[[2,0,0],[3,0],[1]]","3","[[2,0,0],[3,0],[1]]","14","0","","","","","","3","","","","","","","","",""
"","","","","","poldrack-single-stim","276","507355","0.0-2.0-54.0","6290d05992a97c47797f9de3","A3","batch1","","-1","tol_feedback","","","true","","1000","1000","500","","","","","","-1","none","true","3623","4750","","","","","","","","","",""
"","","","","","html-button-response","277","507931","0.0-2.0-55.0","6290d05992a97c47797f9de3","A3","batch1","","575","tol_trial_num","<div class = centerbox><p class = center-block-text>problem <strong>16</strong> out of 25 problems</p></div>","0","","","","","","","","","","","","","","","","","","","","","","","","",""
"","","","","","single-stim-button","278","510881","0.0-2.0-56.0-0.0","6290d05992a97c47797f9de3","A3","batch1","","2950","tol_tohand","","","","tol_peg_2","2950","2950","0","[[0,0,0],[2,0],[1]]","1","[[2,3,0],[1,0],[0]]","15","0","","","","","","7","","","","","","","","",""
"","","","","","single-stim-button","279","511610","0.0-2.0-56.0-1.0","6290d05992a97c47797f9de3","A3","batch1","","727","tol_toboard","","","","tol_peg_1","727","727","0","[[3,0,0],[2,0],[1]]","1","[[2,3,0],[1,0],[0]]","15","0","","","","","","7","","","","","","","","",""
"","","","","","single-stim-button","280","512486","0.0-2.0-56.1-0.1","6290d05992a97c47797f9de3","A3","batch1","","876","tol_tohand","","","","tol_peg_3","876","876","0","[[3,0,0],[2,0],[0]]","2","[[2,3,0],[1,0],[0]]","15","0","","","","","","7","","","","","","","","",""
"","","","","","single-stim-button","281","512975","0.0-2.0-56.1-1.1","6290d05992a97c47797f9de3","A3","batch1","","488","tol_toboard","","","","tol_peg_2","488","488","0","[[3,0,0],[2,1],[0]]","2","[[2,3,0],[1,0],[0]]","15","0","","","","","","7","","","","","","","","",""
"","","","","","single-stim-button","282","513425","0.0-2.0-56.2-0.2","6290d05992a97c47797f9de3","A3","batch1","","449","tol_tohand","","","","tol_peg_1","449","449","0","[[0,0,0],[2,1],[0]]","3","[[2,3,0],[1,0],[0]]","15","0","","","","","","7","","","","","","","","",""
"","","","","","single-stim-button","283","513921","0.0-2.0-56.2-1.2","6290d05992a97c47797f9de3","A3","batch1","","495","tol_toboard","","","","tol_peg_3","495","495","0","[[0,0,0],[2,1],[3]]","3","[[2,3,0],[1,0],[0]]","15","0","","","","","","7","","","","","","","","",""
"","","","","","single-stim-button","284","516713","0.0-2.0-56.3-0.3","6290d05992a97c47797f9de3","A3","batch1","","2791","tol_tohand","","","","tol_peg_2","2791","2791","0","[[0,0,0],[2,0],[3]]","4","[[2,3,0],[1,0],[0]]","15","0","","","","","","7","","","","","","","","",""
"","","","","","single-stim-button","285","517169","0.0-2.0-56.3-1.3","6290d05992a97c47797f9de3","A3","batch1","","455","tol_toboard","","","","tol_peg_1","455","455","0","[[1,0,0],[2,0],[3]]","4","[[2,3,0],[1,0],[0]]","15","0","","","","","","7","","","","","","","","",""
"","","","","","single-stim-button","286","517833","0.0-2.0-56.4-0.4","6290d05992a97c47797f9de3","A3","batch1","","662","tol_tohand","","","","tol_peg_2","662","662","0","[[1,0,0],[0,0],[3]]","5","[[2,3,0],[1,0],[0]]","15","0","","","","","","7","","","","","","","","",""
"","","","","","single-stim-button","287","518252","0.0-2.0-56.4-1.4","6290d05992a97c47797f9de3","A3","batch1","","419","tol_toboard","","","","tol_peg_1","419","419","0","[[1,2,0],[0,0],[3]]","5","[[2,3,0],[1,0],[0]]","15","0","","","","","","7","","","","","","","","",""
"","","","","","single-stim-button","288","519701","0.0-2.0-56.5-0.5","6290d05992a97c47797f9de3","A3","batch1","","1448","tol_tohand","","","","tol_peg_3","1448","1448","0","[[1,2,0],[0,0],[0]]","6","[[2,3,0],[1,0],[0]]","15","0","","","","","","7","","","","","","","","",""
"","","","","","single-stim-button","289","520157","0.0-2.0-56.5-1.5","6290d05992a97c47797f9de3","A3","batch1","","455","tol_toboard","","","","tol_peg_2","455","455","0","[[1,2,0],[3,0],[0]]","6","[[2,3,0],[1,0],[0]]","15","0","","","","","","7","","","","","","","","",""
"","","","","","single-stim-button","290","520697","0.0-2.0-56.6-0.6","6290d05992a97c47797f9de3","A3","batch1","","538","tol_tohand","","","","tol_peg_1","538","538","0","[[1,0,0],[3,0],[0]]","7","[[2,3,0],[1,0],[0]]","15","0","","","","","","7","","","","","","","","",""
"","","","","","single-stim-button","291","521259","0.0-2.0-56.6-1.6","6290d05992a97c47797f9de3","A3","batch1","","562","tol_toboard","","","","tol_peg_2","562","562","0","[[1,0,0],[3,2],[0]]","7","[[2,3,0],[1,0],[0]]","15","0","","","","","","7","","","","","","","","",""
"","","","","","single-stim-button","292","521867","0.0-2.0-56.7-0.7","6290d05992a97c47797f9de3","A3","batch1","","607","tol_tohand","","","","tol_peg_1","607","607","0","[[0,0,0],[3,2],[0]]","8","[[2,3,0],[1,0],[0]]","15","0","","","","","","7","","","","","","","","",""
"","","","","","single-stim-button","293","522443","0.0-2.0-56.7-1.7","6290d05992a97c47797f9de3","A3","batch1","","575","tol_toboard","","","","tol_peg_3","575","575","0","[[0,0,0],[3,2],[1]]","8","[[2,3,0],[1,0],[0]]","15","0","","","","","","7","","","","","","","","",""
"","","","","","single-stim-button","294","523261","0.0-2.0-56.8-0.8","6290d05992a97c47797f9de3","A3","batch1","","817","tol_tohand","","","","tol_peg_2","817","817","0","[[0,0,0],[3,0],[1]]","9","[[2,3,0],[1,0],[0]]","15","0","","","","","","7","","","","","","","","",""
"","","","","","single-stim-button","295","523725","0.0-2.0-56.8-1.8","6290d05992a97c47797f9de3","A3","batch1","","464","tol_toboard","","","","tol_peg_1","464","464","0","[[2,0,0],[3,0],[1]]","9","[[2,3,0],[1,0],[0]]","15","0","","","","","","7","","","","","","","","",""
"","","","","","single-stim-button","296","524149","0.0-2.0-56.9-0.9","6290d05992a97c47797f9de3","A3","batch1","","423","tol_tohand","","","","tol_peg_2","423","423","0","[[2,0,0],[0,0],[1]]","10","[[2,3,0],[1,0],[0]]","15","0","","","","","","7","","","","","","","","",""
"","","","","","single-stim-button","297","524547","0.0-2.0-56.9-1.9","6290d05992a97c47797f9de3","A3","batch1","","398","tol_toboard","","","","tol_peg_1","398","398","0","[[2,3,0],[0,0],[1]]","10","[[2,3,0],[1,0],[0]]","15","0","","","","","","7","","","","","","","","",""
"","","","","","single-stim-button","298","525059","0.0-2.0-56.10-0.10","6290d05992a97c47797f9de3","A3","batch1","","511","tol_tohand","","","","tol_peg_3","511","511","0","[[2,3,0],[0,0],[0]]","11","[[2,3,0],[1,0],[0]]","15","0","","","","","","7","","","","","","","","",""
"","","","","","single-stim-button","299","525627","0.0-2.0-56.10-1.10","6290d05992a97c47797f9de3","A3","batch1","","568","tol_toboard","","","","tol_peg_2","568","568","0","[[2,3,0],[1,0],[0]]","11","[[2,3,0],[1,0],[0]]","15","0","","","","","","7","","","","","","","","",""
"","","","","","poldrack-single-stim","300","526631","0.0-2.0-57.0","6290d05992a97c47797f9de3","A3","batch1","","-1","tol_feedback","","","true","","1000","1000","500","","","","","","-1","none","true","2950","12072","","","","","","","","","",""
"","","","","","html-button-response","301","528118","0.0-2.0-58.0","6290d05992a97c47797f9de3","A3","batch1","","1486.8999999761581","tol_trial_num","<div class = centerbox><p class = center-block-text>problem <strong>17</strong> out of 25 problems</p></div>","0","","","","","","","","","","","","","","","","","","","","","","","","",""
"","","","","","single-stim-button","302","529981","0.0-2.0-59.0-0.0","6290d05992a97c47797f9de3","A3","batch1","","1862","tol_tohand","","","","tol_peg_1","1862","1862","0","[[1,0,0],[3,0],[0]]","1","[[3,1,0],[2,0],[0]]","16","0","","","","","","5","","","","","","","","",""
"","","","","","single-stim-button","303","530968","0.0-2.0-59.0-1.0","6290d05992a97c47797f9de3","A3","batch1","","986","tol_toboard","","","","tol_peg_3","986","986","0","[[1,0,0],[3,0],[2]]","1","[[3,1,0],[2,0],[0]]","16","0","","","","","","5","","","","","","","","",""
"","","","","","single-stim-button","304","532448","0.0-2.0-59.1-0.1","6290d05992a97c47797f9de3","A3","batch1","","1480","tol_tohand","","","","tol_peg_1","1480","1480","0","[[0,0,0],[3,0],[2]]","2","[[3,1,0],[2,0],[0]]","16","0","","","","","","5","","","","","","","","",""
"","","","","","single-stim-button","305","532869","0.0-2.0-59.1-1.1","6290d05992a97c47797f9de3","A3","batch1","","421","tol_toboard","","","","tol_peg_2","421","421","0","[[0,0,0],[3,1],[2]]","2","[[3,1,0],[2,0],[0]]","16","0","","","","","","5","","","","","","","","",""
"","","","","","single-stim-button","306","533285","0.0-2.0-59.2-0.2","6290d05992a97c47797f9de3","A3","batch1","","415","tol_tohand","","","","tol_peg_3","415","415","0","[[0,0,0],[3,1],[0]]","3","[[3,1,0],[2,0],[0]]","16","0","","","","","","5","","","","","","","","",""
"","","","","","single-stim-button","307","534543","0.0-2.0-59.2-1.2","6290d05992a97c47797f9de3","A3","batch1","","1257","tol_toboard","","","","tol_peg_1","1257","1257","0","[[2,0,0],[3,1],[0]]","3","[[3,1,0],[2,0],[0]]","16","0","","","","","","5","","","","","","","","",""
"","","","","","single-stim-button","308","535001","0.0-2.0-59.3-0.3","6290d05992a97c47797f9de3","A3","batch1","","458","tol_tohand","","","","tol_peg_2","458","458","0","[[2,0,0],[3,0],[0]]","4","[[3,1,0],[2,0],[0]]","16","0","","","","","","5","","","","","","","","",""
"","","","","","single-stim-button","309","535409","0.0-2.0-59.3-1.3","6290d05992a97c47797f9de3","A3","batch1","","407","tol_toboard","","","","tol_peg_1","407","407","0","[[2,1,0],[3,0],[0]]","4","[[3,1,0],[2,0],[0]]","16","0","","","","","","5","","","","","","","","",""
"","","","","","single-stim-button","310","535849","0.0-2.0-59.4-0.4","6290d05992a97c47797f9de3","A3","batch1","","440","tol_tohand","","","","tol_peg_2","440","440","0","[[2,1,0],[0,0],[0]]","5","[[3,1,0],[2,0],[0]]","16","0","","","","","","5","","","","","","","","",""
"","","","","","single-stim-button","311","537502","0.0-2.0-59.4-1.4","6290d05992a97c47797f9de3","A3","batch1","","1653","tol_toboard","","","","tol_peg_3","1653","1653","0","[[2,1,0],[0,0],[3]]","5","[[3,1,0],[2,0],[0]]","16","0","","","","","","5","","","","","","","","",""
"","","","","","single-stim-button","312","539971","0.0-2.0-59.5-0.5","6290d05992a97c47797f9de3","A3","batch1","","2467","tol_tohand","","","","tol_peg_1","2467","2467","0","[[2,0,0],[0,0],[3]]","6","[[3,1,0],[2,0],[0]]","16","0","","","","","","5","","","","","","","","",""
"","","","","","single-stim-button","313","540571","0.0-2.0-59.5-1.5","6290d05992a97c47797f9de3","A3","batch1","","599","tol_toboard","","","","tol_peg_2","599","599","0","[[2,0,0],[1,0],[3]]","6","[[3,1,0],[2,0],[0]]","16","0","","","","","","5","","","","","","","","",""
"","","","","","single-stim-button","314","541048","0.0-2.0-59.6-0.6","6290d05992a97c47797f9de3","A3","batch1","","477","tol_tohand","","","","tol_peg_1","477","477","0","[[0,0,0],[1,0],[3]]","7","[[3,1,0],[2,0],[0]]","16","0","","","","","","5","","","","","","","","",""
"","","","","","single-stim-button","315","541489","0.0-2.0-59.6-1.6","6290d05992a97c47797f9de3","A3","batch1","","439","tol_toboard","","","","tol_peg_2","439","439","0","[[0,0,0],[1,2],[3]]","7","[[3,1,0],[2,0],[0]]","16","0","","","","","","5","","","","","","","","",""
"","","","","","single-stim-button","316","541936","0.0-2.0-59.7-0.7","6290d05992a97c47797f9de3","A3","batch1","","446","tol_tohand","","","","tol_peg_3","446","446","0","[[0,0,0],[1,2],[0]]","8","[[3,1,0],[2,0],[0]]","16","0","","","","","","5","","","","","","","","",""
"","","","","","single-stim-button","317","542443","0.0-2.0-59.7-1.7","6290d05992a97c47797f9de3","A3","batch1","","507","tol_toboard","","","","tol_peg_1","507","507","0","[[3,0,0],[1,2],[0]]","8","[[3,1,0],[2,0],[0]]","16","0","","","","","","5","","","","","","","","",""
"","","","","","single-stim-button","318","543139","0.0-2.0-59.8-0.8","6290d05992a97c47797f9de3","A3","batch1","","694","tol_tohand","","","","tol_peg_2","694","694","0","[[3,0,0],[1,0],[0]]","9","[[3,1,0],[2,0],[0]]","16","0","","","","","","5","","","","","","","","",""
"","","","","","single-stim-button","319","544013","0.0-2.0-59.8-1.8","6290d05992a97c47797f9de3","A3","batch1","","873","tol_toboard","","","","tol_peg_3","873","873","0","[[3,0,0],[1,0],[2]]","9","[[3,1,0],[2,0],[0]]","16","0","","","","","","5","","","","","","","","",""
"","","","","","single-stim-button","320","544436","0.0-2.0-59.9-0.9","6290d05992a97c47797f9de3","A3","batch1","","423","tol_tohand","","","","tol_peg_2","423","423","0","[[3,0,0],[0,0],[2]]","10","[[3,1,0],[2,0],[0]]","16","0","","","","","","5","","","","","","","","",""
"","","","","","single-stim-button","321","544840","0.0-2.0-59.9-1.9","6290d05992a97c47797f9de3","A3","batch1","","403","tol_toboard","","","","tol_peg_1","403","403","0","[[3,1,0],[0,0],[2]]","10","[[3,1,0],[2,0],[0]]","16","0","","","","","","5","","","","","","","","",""
"","","","","","single-stim-button","322","545274","0.0-2.0-59.10-0.10","6290d05992a97c47797f9de3","A3","batch1","","433","tol_tohand","","","","tol_peg_3","433","433","0","[[3,1,0],[0,0],[0]]","11","[[3,1,0],[2,0],[0]]","16","0","","","","","","5","","","","","","","","",""
"","","","","","single-stim-button","323","545698","0.0-2.0-59.10-1.10","6290d05992a97c47797f9de3","A3","batch1","","423","tol_toboard","","","","tol_peg_2","423","423","0","[[3,1,0],[2,0],[0]]","11","[[3,1,0],[2,0],[0]]","16","0","","","","","","5","","","","","","","","",""
"","","","","","poldrack-single-stim","324","546702","0.0-2.0-60.0","6290d05992a97c47797f9de3","A3","batch1","","-1","tol_feedback","","","true","","1000","1000","500","","","","","","-1","none","true","1862","9595","","","","","","","","","",""
"","","","","","html-button-response","325","547301","0.0-2.0-61.0","6290d05992a97c47797f9de3","A3","batch1","","598.1999999284744","tol_trial_num","<div class = centerbox><p class = center-block-text>problem <strong>18</strong> out of 25 problems</p></div>","0","","","","","","","","","","","","","","","","","","","","","","","","",""
"","","","","","single-stim-button","326","548986","0.0-2.0-62.0-0.0","6290d05992a97c47797f9de3","A3","batch1","","1684","tol_tohand","","","","tol_peg_1","1684","1684","0","[[1,0,0],[3,0],[0]]","1","[[3,0,0],[2,0],[1]]","17","0","","","","","","5","","","","","","","","",""
"","","","","","single-stim-button","327","549405","0.0-2.0-62.0-1.0","6290d05992a97c47797f9de3","A3","batch1","","418","tol_toboard","","","","tol_peg_2","418","418","0","[[1,0,0],[3,2],[0]]","1","[[3,0,0],[2,0],[1]]","17","0","","","","","","5","","","","","","","","",""
"","","","","","single-stim-button","328","550028","0.0-2.0-62.1-0.1","6290d05992a97c47797f9de3","A3","batch1","","622","tol_tohand","","","","tol_peg_1","622","622","0","[[0,0,0],[3,2],[0]]","2","[[3,0,0],[2,0],[1]]","17","0","","","","","","5","","","","","","","","",""
"","","","","","single-stim-button","329","550596","0.0-2.0-62.1-1.1","6290d05992a97c47797f9de3","A3","batch1","","567","tol_toboard","","","","tol_peg_3","567","567","0","[[0,0,0],[3,2],[1]]","2","[[3,0,0],[2,0],[1]]","17","0","","","","","","5","","","","","","","","",""
"","","","","","single-stim-button","330","552006","0.0-2.0-62.2-0.2","6290d05992a97c47797f9de3","A3","batch1","","1409","tol_tohand","","","","tol_peg_2","1409","1409","0","[[0,0,0],[3,0],[1]]","3","[[3,0,0],[2,0],[1]]","17","0","","","","","","5","","","","","","","","",""
"","","","","","single-stim-button","331","552446","0.0-2.0-62.2-1.2","6290d05992a97c47797f9de3","A3","batch1","","438","tol_toboard","","","","tol_peg_1","438","438","0","[[2,0,0],[3,0],[1]]","3","[[3,0,0],[2,0],[1]]","17","0","","","","","","5","","","","","","","","",""
"","","","","","single-stim-button","332","553532","0.0-2.0-62.3-0.3","6290d05992a97c47797f9de3","A3","batch1","","1086","tol_tohand","","","","tol_peg_2","1086","1086","0","[[2,0,0],[0,0],[1]]","4","[[3,0,0],[2,0],[1]]","17","0","","","","","","5","","","","","","","","",""
"","","","","","single-stim-button","333","555142","0.0-2.0-62.3-1.3","6290d05992a97c47797f9de3","A3","batch1","","1609","tol_toboard","","","","tol_peg_1","1609","1609","0","[[2,3,0],[0,0],[1]]","4","[[3,0,0],[2,0],[1]]","17","0","","","","","","5","","","","","","","","",""
"","","","","","single-stim-button","334","556104","0.0-2.0-62.4-0.4","6290d05992a97c47797f9de3","A3","batch1","","961","tol_tohand","","","","tol_peg_3","961","961","0","[[2,3,0],[0,0],[0]]","5","[[3,0,0],[2,0],[1]]","17","0","","","","","","5","","","","","","","","",""
"","","","","","single-stim-button","335","556528","0.0-2.0-62.4-1.4","6290d05992a97c47797f9de3","A3","batch1","","423","tol_toboard","","","","tol_peg_2","423","423","0","[[2,3,0],[1,0],[0]]","5","[[3,0,0],[2,0],[1]]","17","0","","","","","","5","","","","","","","","",""
"","","","","","single-stim-button","336","557011","0.0-2.0-62.5-0.5","6290d05992a97c47797f9de3","A3","batch1","","482","tol_tohand","","","","tol_peg_1","482","482","0","[[2,0,0],[1,0],[0]]","6","[[3,0,0],[2,0],[1]]","17","0","","","","","","5","","","","","","","","",""
"","","","","","single-stim-button","337","557814","0.0-2.0-62.5-1.5","6290d05992a97c47797f9de3","A3","batch1","","802","tol_toboard","","","","tol_peg_3","802","802","0","[[2,0,0],[1,0],[3]]","6","[[3,0,0],[2,0],[1]]","17","0","","","","","","5","","","","","","","","",""
"","","","","","single-stim-button","338","558334","0.0-2.0-62.6-0.6","6290d05992a97c47797f9de3","A3","batch1","","518","tol_tohand","","","","tol_peg_1","518","518","0","[[0,0,0],[1,0],[3]]","7","[[3,0,0],[2,0],[1]]","17","0","","","","","","5","","","","","","","","",""
"","","","","","single-stim-button","339","559065","0.0-2.0-62.6-1.6","6290d05992a97c47797f9de3","A3","batch1","","731","tol_toboard","","","","tol_peg_2","731","731","0","[[0,0,0],[1,2],[3]]","7","[[3,0,0],[2,0],[1]]","17","0","","","","","","5","","","","","","","","",""
"","","","","","single-stim-button","340","559848","0.0-2.0-62.7-0.7","6290d05992a97c47797f9de3","A3","batch1","","783","tol_tohand","","","","tol_peg_3","783","783","0","[[0,0,0],[1,2],[0]]","8","[[3,0,0],[2,0],[1]]","17","0","","","","","","5","","","","","","","","",""
"","","","","","single-stim-button","341","562065","0.0-2.0-62.7-1.7","6290d05992a97c47797f9de3","A3","batch1","","2216","tol_toboard","","","","tol_peg_1","2216","2216","0","[[3,0,0],[1,2],[0]]","8","[[3,0,0],[2,0],[1]]","17","0","","","","","","5","","","","","","","","",""
"","","","","","single-stim-button","342","562703","0.0-2.0-62.8-0.8","6290d05992a97c47797f9de3","A3","batch1","","637","tol_tohand","","","","tol_peg_2","637","637","0","[[3,0,0],[1,0],[0]]","9","[[3,0,0],[2,0],[1]]","17","0","","","","","","5","","","","","","","","",""
"","","","","","single-stim-button","343","563083","0.0-2.0-62.8-1.8","6290d05992a97c47797f9de3","A3","batch1","","380","tol_toboard","","","","tol_peg_1","380","380","0","[[3,2,0],[1,0],[0]]","9","[[3,0,0],[2,0],[1]]","17","0","","","","","","5","","","","","","","","",""
"","","","","","single-stim-button","344","563627","0.0-2.0-62.9-0.9","6290d05992a97c47797f9de3","A3","batch1","","543","tol_tohand","","","","tol_peg_2","543","543","0","[[3,2,0],[0,0],[0]]","10","[[3,0,0],[2,0],[1]]","17","0","","","","","","5","","","","","","","","",""
"","","","","","single-stim-button","345","564274","0.0-2.0-62.9-1.9","6290d05992a97c47797f9de3","A3","batch1","","647","tol_toboard","","","","tol_peg_3","647","647","0","[[3,2,0],[0,0],[1]]","10","[[3,0,0],[2,0],[1]]","17","0","","","","","","5","","","","","","","","",""
"","","","","","single-stim-button","346","565012","0.0-2.0-62.10-0.10","6290d05992a97c47797f9de3","A3","batch1","","737","tol_tohand","","","","tol_peg_1","737","737","0","[[3,0,0],[0,0],[1]]","11","[[3,0,0],[2,0],[1]]","17","0","","","","","","5","","","","","","","","",""
"","","","","","single-stim-button","347","565512","0.0-2.0-62.10-1.10","6290d05992a97c47797f9de3","A3","batch1","","499","tol_toboard","","","","tol_peg_2","499","499","0","[[3,0,0],[2,0],[1]]","11","[[3,0,0],[2,0],[1]]","17","0","","","","","","5","","","","","","","","",""
"","","","","","poldrack-single-stim","348","566520","0.0-2.0-63.0","6290d05992a97c47797f9de3","A3","batch1","","-1","tol_feedback","","","true","","1000","1000","500","","","","","","-1","none","true","1684","9462","","","","","","","","","",""
"","","","","","html-button-response","349","567258","0.0-2.0-64.0","6290d05992a97c47797f9de3","A3","batch1","","736.1999999284744","tol_trial_num","<div class = centerbox><p class = center-block-text>problem <strong>19</strong> out of 25 problems</p></div>","0","","","","","","","","","","","","","","","","","","","","","","","","",""
"","","","","","single-stim-button","350","569270","0.0-2.0-65.0-0.0","6290d05992a97c47797f9de3","A3","batch1","","2011","tol_tohand","","","","tol_peg_2","2011","2011","0","[[1,2,0],[0,0],[0]]","1","[[0,0,0],[1,2],[3]]","18","0","","","","","","7","","","","","","","","",""
"","","","","","single-stim-button","351","569801","0.0-2.0-65.0-1.0","6290d05992a97c47797f9de3","A3","batch1","","531","tol_toboard","","","","tol_peg_3","531","531","0","[[1,2,0],[0,0],[3]]","1","[[0,0,0],[1,2],[3]]","18","0","","","","","","7","","","","","","","","",""
"","","","","","single-stim-button","352","570498","0.0-2.0-65.1-0.1","6290d05992a97c47797f9de3","A3","batch1","","695","tol_tohand","","","","tol_peg_1","695","695","0","[[1,0,0],[0,0],[3]]","2","[[0,0,0],[1,2],[3]]","18","0","","","","","","7","","","","","","","","",""
"","","","","","single-stim-button","353","570940","0.0-2.0-65.1-1.1","6290d05992a97c47797f9de3","A3","batch1","","442","tol_toboard","","","","tol_peg_2","442","442","0","[[1,0,0],[2,0],[3]]","2","[[0,0,0],[1,2],[3]]","18","0","","","","","","7","","","","","","","","",""
"","","","","","single-stim-button","354","571388","0.0-2.0-65.2-0.2","6290d05992a97c47797f9de3","A3","batch1","","447","tol_tohand","","","","tol_peg_1","447","447","0","[[0,0,0],[2,0],[3]]","3","[[0,0,0],[1,2],[3]]","18","0","","","","","","7","","","","","","","","",""
