"success","timeout","failed_images","failed_audio","failed_video","trial_type","trial_index","time_elapsed","internal_node_id","subject_id","study_id","session_id","view_history","rt","stimulus","response","task","correct","answer","item","fiar_detect_rt","fiar_detect_correct","total_correct_fiar_detect","post_trial_gap","choices","spm_correct","spm_rt","mouse_click","stim_duration","block_duration","timing_post_trial","current_position","tol_num_moves_made","tol_target","tol_problem_id","tol_rt","key_press","possible_responses","tol_correct","preplanning","tol_rt_per_trial","tol_min_moves"
"true","false","[]","[]","[]","preload","0","4106","0.0-0.0","62911a82ead4bc61607aa7d8","E1","batch5","","","","","","","","","","","","","","","","","","","","","","","","","","","","","",""
"true","","","","","fullscreen","1","18357","0.0-1.0-0.0","62911a82ead4bc61607aa7d8","E1","batch5","","","","","","","","","","","","","","","","","","","","","","","","","","","","","",""
"true","","","","","fullscreen","2","27947","0.0-2.0-0.0","62911a82ead4bc61607aa7d8","E1","batch5","","","","","","","","","","","","","","","","","","","","","","","","","","","","","",""
"","","","","","instructions","3","67770","0.0-2.0-1.0-0.0","62911a82ead4bc61607aa7d8","E1","batch5","[{""page_index"":0,""viewing_time"":24488.5},{""page_index"":1,""viewing_time"":15327.90000000596}]","39816.70000000298","","","","","","","","","","","","","","","","","","","","","","","","","","","",""
"","","","","","html-button-response","4","69314","0.0-2.0-1.0-1.0-0.0","62911a82ead4bc61607aa7d8","E1","batch5","","1543.2000000029802","<p class=block-text> Let's answer a few questions <br>","0","pattern_enter_quiz","","","","","","","","","","","","","","","","","","","","","","","","",""
"","","","","","html-button-response","5","72338","0.0-2.0-1.0-1.0-1.0","62911a82ead4bc61607aa7d8","E1","batch5","","3023.0999999940395","<p class = block-text>True or False: You will have as much time as you want to make each choice. <br></p>","0","pattern_quiz","false","","","","","","","","","","","","","","","","","","","","","","","",""
"","","","","","html-button-response","6","74834","0.0-2.0-1.0-1.0-2.0","62911a82ead4bc61607aa7d8","E1","batch5","","2494.3999999910593","<p class = block-text>Incorrect. Remember, You should make your choice as fast as you can.</p>","0","pattern_quiz_feedback","","","","","","","","","","","","","","","","","","","","","","","","",""
"","","","","","html-button-response","7","81746","0.0-2.0-1.0-1.0-3.0","62911a82ead4bc61607aa7d8","E1","batch5","","6911.5999999940395","<p class = block-text>True or False: You will look for 4 pieces in black or white color connected in a row either horizontally, vertically or diagonally. <br></p>","0","pattern_quiz","true","","","","","","","","","","","","","","","","","","","","","","","",""
"","","","","","html-button-response","8","82538","0.0-2.0-1.0-1.0-4.0","62911a82ead4bc61607aa7d8","E1","batch5","","790.7000000029802","<p class = block-text>Correct! </p>","0","pattern_quiz_feedback","","","","","","","","","","","","","","","","","","","","","","","","",""
"","","","","","html-button-response","9","84066","0.0-2.0-1.0-2.0-0.0","62911a82ead4bc61607aa7d8","E1","batch5","","1526.9000000059605","<p class = block-text>You made too many incorrect choices.</p><p class = block-text>You will now repeat the instruction and quiz</p>","0","","","","","","","","","","","","","","","","","","","","","","","","","",""
"","","","","","instructions","10","99898","0.0-2.0-1.1-0.1","62911a82ead4bc61607aa7d8","E1","batch5","[{""page_index"":0,""viewing_time"":14007.29999999702},{""page_index"":1,""viewing_time"":1824.0999999940395}]","15831.59999999404","","","","","","","","","","","","","","","","","","","","","","","","","","","",""
"","","","","","html-button-response","11","100898","0.0-2.0-1.1-1.1-0.1","62911a82ead4bc61607aa7d8","E1","batch5","","999.3999999910593","<p class=block-text> Let's answer a few questions <br>","0","pattern_enter_quiz","","","","","","","","","","","","","","","","","","","","","","","","",""
"","","","","","html-button-response","12","102994","0.0-2.0-1.1-1.1-1.1","62911a82ead4bc61607aa7d8","E1","batch5","","2095.2000000029802","<p class = block-text>True or False: You will have as much time as you want to make each choice. <br></p>","1","pattern_quiz","true","","","","","","","","","","","","","","","","","","","","","","","",""
"","","","","","html-button-response","13","103946","0.0-2.0-1.1-1.1-2.1","62911a82ead4bc61607aa7d8","E1","batch5","","951.0999999940395","<p class = block-text>Correct! You should make your choice <strong> as fast as you can</strong>.</p>","0","pattern_quiz_feedback","","","","","","","","","","","","","","","","","","","","","","","","",""
"","","","","","html-button-response","14","105770","0.0-2.0-1.1-1.1-3.1","62911a82ead4bc61607aa7d8","E1","batch5","","1823.6000000089407","<p class = block-text>True or False: You will look for 4 pieces in black or white color connected in a row either horizontally, vertically or diagonally. <br></p>","0","pattern_quiz","true","","","","","","","","","","","","","","","","","","","","","","","",""
"","","","","","html-button-response","15","111738","0.0-2.0-1.1-1.1-4.1","62911a82ead4bc61607aa7d8","E1","batch5","","5967.29999999702","<p class = block-text>Correct! </p>","0","pattern_quiz_feedback","","","","","","","","","","","","","","","","","","","","","","","","",""
"","","","","","html-button-response","16","114986","0.0-2.0-2.0","62911a82ead4bc61607aa7d8","E1","batch5","","3247.2000000029802","<p class=block-text> Now that you've understood the game, let's do a few practice trials before we start!<br> <br>","0","pattern_enter_practice","","","","","","","","","","","","","","","","","","","","","","","","",""
"","","","","","image-keyboard-response","17","116220","0.0-2.0-3.0-0.0","62911a82ead4bc61607aa7d8","E1","batch5","","1230.6000000089407","stim/prac_yes_16_ver_w1.png","f","pattern_practice","true","f","","","","","","","","","","","","","","","","","","","","","","",""
"","","","","","html-keyboard-response","18","117242","0.0-2.0-3.0-1.0","62911a82ead4bc61607aa7d8","E1","batch5","","null","<p style=""font-size:30px;color:green;"">Correct!</p>","null","pattern_feedback","","","","","","","","","","","","","","","","","","","","","","","","",""
"","","","","","image-keyboard-response","19","118297","0.0-2.0-3.0-0.1","62911a82ead4bc61607aa7d8","E1","batch5","","1054.5","stim/prac_yes_20_dia_b1.png","j","pattern_practice","false","f","","","","","","","","","","","","","","","","","","","","","","",""
"","","","","","html-keyboard-response","20","119321","0.0-2.0-3.0-1.1","62911a82ead4bc61607aa7d8","E1","batch5","","null","<p style=""font-size:30px;color:red;"">Wrong.</p>","null","pattern_feedback","","","","","","","","","","","","","","","","","","","","","","","","",""
"","","","","","image-keyboard-response","21","120970","0.0-2.0-3.0-0.2","62911a82ead4bc61607aa7d8","E1","batch5","","1647.7000000029802","stim/prac_no_18_1.png","j","pattern_practice","true","j","","","","","","","","","","","","","","","","","","","","","","",""
"","","","","","html-keyboard-response","22","122002","0.0-2.0-3.0-1.2","62911a82ead4bc61607aa7d8","E1","batch5","","null","<p style=""font-size:30px;color:green;"">Correct!</p>","null","pattern_feedback","","","","","","","","","","","","","","","","","","","","","","","","",""
"","","","","","image-keyboard-response","23","123706","0.0-2.0-3.0-0.3","62911a82ead4bc61607aa7d8","E1","batch5","","1703","stim/prac_no_16_1.png","j","pattern_practice","true","j","","","","","","","","","","","","","","","","","","","","","","",""
"","","","","","html-keyboard-response","24","124713","0.0-2.0-3.0-1.3","62911a82ead4bc61607aa7d8","E1","batch5","","null","<p style=""font-size:30px;color:green;"">Correct!</p>","null","pattern_feedback","","","","","","","","","","","","","","","","","","","","","","","","",""
"","","","","","image-keyboard-response","25","125706","0.0-2.0-3.0-0.4","62911a82ead4bc61607aa7d8","E1","batch5","","992.2000000029802","stim/prac_yes_18_hor_w1.png","f","pattern_practice","true","f","","","","","","","","","","","","","","","","","","","","","","",""
"","","","","","html-keyboard-response","26","126722","0.0-2.0-3.0-1.4","62911a82ead4bc61607aa7d8","E1","batch5","","null","<p style=""font-size:30px;color:green;"">Correct!</p>","null","pattern_feedback","","","","","","","","","","","","","","","","","","","","","","","","",""
"","","","","","html-button-response","27","132314","0.0-2.0-4.0","62911a82ead4bc61607aa7d8","E1","batch5","","5591.4000000059605","<p class=block-text> Good job! You are done with practice trials!<br>
        You responded correctly on 80% of the trials.<br>
        Press the button below to start official trials. Now you won't see any feedback about your response</p>","0","pattern_enter_official_trials","","","","","","","","","","","","","","","","","","","","","","","","",""
"","","","","","html-keyboard-response","28","133118","0.0-2.0-5.0-0.0","62911a82ead4bc61607aa7d8","E1","batch5","","null","<p class=block-text>Trial 1 out of 78</p>","null","pattern_show_trial_num","","","","","","","","","","","","","","","","","","","","","","","","",""
"","","","","","image-keyboard-response","29","134043","0.0-2.0-5.0-1.0","62911a82ead4bc61607aa7d8","E1","batch5","","922","stim/yes_70_ver_b1.png","f","pattern_response","true","f","pattern_80","922","true","1","","","","","","","","","","","","","","","","","","",""
"","","","","","html-keyboard-response","30","135372","0.0-2.0-5.0-0.1","62911a82ead4bc61607aa7d8","E1","batch5","","null","<p class=block-text>Trial 2 out of 78</p>","null","pattern_show_trial_num","","","","","","","","","","","","","","","","","","","","","","","","",""
"","","","","","image-keyboard-response","31","136426","0.0-2.0-5.0-1.1","62911a82ead4bc61607aa7d8","E1","batch5","","1053.7999999970198","stim/no_22_1_b.png","j","pattern_response","true","j","pattern_07","1053.7999999970198","true","2","","","","","","","","","","","","","","","","","","",""
"","","","","","html-keyboard-response","32","137762","0.0-2.0-5.0-0.2","62911a82ead4bc61607aa7d8","E1","batch5","","null","<p class=block-text>Trial 3 out of 78</p>","null","pattern_show_trial_num","","","","","","","","","","","","","","","","","","","","","","","","",""
"","","","","","image-keyboard-response","33","138522","0.0-2.0-5.0-1.2","62911a82ead4bc61607aa7d8","E1","batch5","","758.4000000059605","stim/yes_12_hor_w1_w.png","f","pattern_response","true","f","pattern_42","758.4000000059605","true","3","","","","","","","","","","","","","","","","","","",""
"","","","","","html-keyboard-response","34","139852","0.0-2.0-5.0-0.3","62911a82ead4bc61607aa7d8","E1","batch5","","null","<p class=block-text>Trial 4 out of 78</p>","null","pattern_show_trial_num","","","","","","","","","","","","","","","","","","","","","","","","",""
"","","","","","image-keyboard-response","35","140586","0.0-2.0-5.0-1.3","62911a82ead4bc61607aa7d8","E1","batch5","","732","stim/yes_29_hor_b1_b.png","f","pattern_response","true","f","pattern_52","732","true","4","","","","","","","","","","","","","","","","","","",""
"","","","","","html-keyboard-response","36","141912","0.0-2.0-5.0-0.4","62911a82ead4bc61607aa7d8","E1","batch5","","null","<p class=block-text>Trial 5 out of 78</p>","null","pattern_show_trial_num","","","","","","","","","","","","","","","","","","","","","","","","",""
"","","","","","image-keyboard-response","37","144539","0.0-2.0-5.0-1.4","62911a82ead4bc61607aa7d8","E1","batch5","","2625","stim/yes_51_dia_b1.png","j","pattern_response","false","f","pattern_72","2625","false","4","","","","","","","","","","","","","","","","","","",""
"","","","","","html-keyboard-response","38","145848","0.0-2.0-5.0-0.5","62911a82ead4bc61607aa7d8","E1","batch5","","null","<p class=block-text>Trial 6 out of 78</p>","null","pattern_show_trial_num","","","","","","","","","","","","","","","","","","","","","","","","",""
"","","","","","image-keyboard-response","39","149786","0.0-2.0-5.0-1.5","62911a82ead4bc61607aa7d8","E1","batch5","","3937.3999999910593","stim/no_58_1_w.png","j","pattern_response","true","j","pattern_35","3937.3999999910593","true","5","","","","","","","","","","","","","","","","","","",""
"","","","","","html-keyboard-response","40","151112","0.0-2.0-5.0-0.6","62911a82ead4bc61607aa7d8","E1","batch5","","null","<p class=block-text>Trial 7 out of 78</p>","null","pattern_show_trial_num","","","","","","","","","","","","","","","","","","","","","","","","",""
"","","","","","image-keyboard-response","41","154698","0.0-2.0-5.0-1.6","62911a82ead4bc61607aa7d8","E1","batch5","","3584.1000000089407","stim/no_39_1_w.png","j","pattern_response","true","j","pattern_21","3584.1000000089407","true","6","","","","","","","","","","","","","","","","","","",""
"","","","","","html-keyboard-response","42","156022","0.0-2.0-5.0-0.7","62911a82ead4bc61607aa7d8","E1","batch5","","null","<p class=block-text>Trial 8 out of 78</p>","null","pattern_show_trial_num","","","","","","","","","","","","","","","","","","","","","","","","",""
"","","","","","image-keyboard-response","43","157114","0.0-2.0-5.0-1.7","62911a82ead4bc61607aa7d8","E1","batch5","","1089.5","stim/yes_17_ver_b1_b.png","f","pattern_response","true","f","pattern_46","1089.5","true","7","","","","","","","","","","","","","","","","","","",""
"","","","","","html-keyboard-response","44","158452","0.0-2.0-5.0-0.8","62911a82ead4bc61607aa7d8","E1","batch5","","null","<p class=block-text>Trial 9 out of 78</p>","null","pattern_show_trial_num","","","","","","","","","","","","","","","","","","","","","","","","",""
"","","","","","image-keyboard-response","45","160874","0.0-2.0-5.0-1.8","62911a82ead4bc61607aa7d8","E1","batch5","","2420.2999999970198","stim/yes_44_ver_w1_w.png","j","pattern_response","false","f","pattern_66","2420.2999999970198","false","7","","","","","","","","","","","","","","","","","","",""
"","","","","","html-keyboard-response","46","162201","0.0-2.0-5.0-0.9","62911a82ead4bc61607aa7d8","E1","batch5","","null","<p class=block-text>Trial 10 out of 78</p>","null","pattern_show_trial_num","","","","","","","","","","","","","","","","","","","","","","","","",""
"","","","","","image-keyboard-response","47","163049","0.0-2.0-5.0-1.9","62911a82ead4bc61607aa7d8","E1","batch5","","846.7999999970198","stim/yes_36_ver_w1_w.png","f","pattern_response","true","f","pattern_58","846.7999999970198","true","8","","","","","","","","","","","","","","","","","","",""
"","","","","","html-keyboard-response","48","164372","0.0-2.0-5.0-0.10","62911a82ead4bc61607aa7d8","E1","batch5","","null","<p class=block-text>Trial 11 out of 78</p>","null","pattern_show_trial_num","","","","","","","","","","","","","","","","","","","","","","","","",""
"","","","","","image-keyboard-response","49","167066","0.0-2.0-5.0-1.10","62911a82ead4bc61607aa7d8","E1","batch5","","2693.0999999940395","stim/no_36_1_b.png","j","pattern_response","true","j","pattern_17","2693.0999999940395","true","9","","","","","","","","","","","","","","","","","","",""
"","","","","","html-keyboard-response","50","168392","0.0-2.0-5.0-0.11","62911a82ead4bc61607aa7d8","E1","batch5","","null","<p class=block-text>Trial 12 out of 78</p>","null","pattern_show_trial_num","","","","","","","","","","","","","","","","","","","","","","","","",""
"","","","","","image-keyboard-response","51","170666","0.0-2.0-5.0-1.11","62911a82ead4bc61607aa7d8","E1","batch5","","2271.2999999970198","stim/yes_42_dia_w1_w.png","j","pattern_response","false","f","pattern_64","2271.2999999970198","false","9","","","","","","","","","","","","","","","","","","",""
"","","","","","html-keyboard-response","52","171992","0.0-2.0-5.0-0.12","62911a82ead4bc61607aa7d8","E1","batch5","","null","<p class=block-text>Trial 13 out of 78</p>","null","pattern_show_trial_num","","","","","","","","","","","","","","","","","","","","","","","","",""
"","","","","","image-keyboard-response","53","173866","0.0-2.0-5.0-1.12","62911a82ead4bc61607aa7d8","E1","batch5","","1871.699999988079","stim/no_25_1_b.png","j","pattern_response","true","j","pattern_09","1871.699999988079","true","10","","","","","","","","","","","","","","","","","","",""
"","","","","","html-keyboard-response","54","175192","0.0-2.0-5.0-0.13","62911a82ead4bc61607aa7d8","E1","batch5","","null","<p class=block-text>Trial 14 out of 78</p>","null","pattern_show_trial_num","","","","","","","","","","","","","","","","","","","","","","","","",""
"","","","","","image-keyboard-response","55","175946","0.0-2.0-5.0-1.13","62911a82ead4bc61607aa7d8","E1","batch5","","752.3999999910593","stim/yes_26_dia_w2_w.png","f","pattern_response","true","f","pattern_50","752.3999999910593","true","11","","","","","","","","","","","","","","","","","","",""
"","","","","","html-keyboard-response","56","177262","0.0-2.0-5.0-0.14","62911a82ead4bc61607aa7d8","E1","batch5","","null","<p class=block-text>Trial 15 out of 78</p>","null","pattern_show_trial_num","","","","","","","","","","","","","","","","","","","","","","","","",""
"","","","","","image-keyboard-response","57","180698","0.0-2.0-5.0-1.14","62911a82ead4bc61607aa7d8","E1","batch5","","3435","stim/no_51_1.png","j","pattern_response","true","j","pattern_31","3435","true","12","","","","","","","","","","","","","","","","","","",""
"","","","","","html-keyboard-response","58","182022","0.0-2.0-5.0-0.15","62911a82ead4bc61607aa7d8","E1","batch5","","null","<p class=block-text>Trial 16 out of 78</p>","null","pattern_show_trial_num","","","","","","","","","","","","","","","","","","","","","","","","",""
"","","","","","image-keyboard-response","59","186074","0.0-2.0-5.0-1.15","62911a82ead4bc61607aa7d8","E1","batch5","","4049.7000000029802","stim/yes_53_ver_b1_b.png","j","pattern_response","false","f","pattern_74","4049.7000000029802","false","12","","","","","","","","","","","","","","","","","","",""
"","","","","","html-keyboard-response","60","187392","0.0-2.0-5.0-0.16","62911a82ead4bc61607aa7d8","E1","batch5","","null","<p class=block-text>Trial 17 out of 78</p>","null","pattern_show_trial_num","","","","","","","","","","","","","","","","","","","","","","","","",""
"","","","","","image-keyboard-response","61","188453","0.0-2.0-5.0-1.16","62911a82ead4bc61607aa7d8","E1","batch5","","1063.3999999910593","stim/no_12_1.png","j","pattern_response","true","j","pattern_01","1063.3999999910593","true","13","","","","","","","","","","","","","","","","","","",""
"","","","","","html-keyboard-response","62","189777","0.0-2.0-5.0-0.17","62911a82ead4bc61607aa7d8","E1","batch5","","null","<p class=block-text>Trial 18 out of 78</p>","null","pattern_show_trial_num","","","","","","","","","","","","","","","","","","","","","","","","",""
"","","","","","image-keyboard-response","63","192166","0.0-2.0-5.0-1.17","62911a82ead4bc61607aa7d8","E1","batch5","","2386.9000000059605","stim/yes_33_dia_w1_w.png","j","pattern_response","false","f","pattern_56","2386.9000000059605","false","13","","","","","","","","","","","","","","","","","","",""
"","","","","","html-keyboard-response","64","193468","0.0-2.0-5.0-0.18","62911a82ead4bc61607aa7d8","E1","batch5","","null","<p class=block-text>Trial 19 out of 78</p>","null","pattern_show_trial_num","","","","","","","","","","","","","","","","","","","","","","","","",""
"","","","","","image-keyboard-response","65","195398","0.0-2.0-5.0-1.18","62911a82ead4bc61607aa7d8","E1","batch5","","1927.8999999910593","stim/no_15_1_w.png","j","pattern_response","true","j","pattern_03","1927.8999999910593","true","14","","","","","","","","","","","","","","","","","","",""
"","","","","","html-keyboard-response","66","196737","0.0-2.0-5.0-0.19","62911a82ead4bc61607aa7d8","E1","batch5","","null","<p class=block-text>Trial 20 out of 78</p>","null","pattern_show_trial_num","","","","","","","","","","","","","","","","","","","","","","","","",""
"","","","","","image-keyboard-response","67","201413","0.0-2.0-5.0-1.19","62911a82ead4bc61607aa7d8","E1","batch5","","4675.20000000298","stim/no_49_2_b.png","j","pattern_response","true","j","pattern_29","4675.20000000298","true","15","","","","","","","","","","","","","","","","","","",""
"","","","","","html-keyboard-response","68","202736","0.0-2.0-5.0-0.20","62911a82ead4bc61607aa7d8","E1","batch5","","null","<p class=block-text>Trial 21 out of 78</p>","null","pattern_show_trial_num","","","","","","","","","","","","","","","","","","","","","","","","",""
"","","","","","image-keyboard-response","69","206228","0.0-2.0-5.0-1.20","62911a82ead4bc61607aa7d8","E1","batch5","","3490.5999999940395","stim/yes_58_dia_w1_w.png","f","pattern_response","true","f","pattern_76","3490.5999999940395","true","16","","","","","","","","","","","","","","","","","","",""
"","","","","","html-keyboard-response","70","207543","0.0-2.0-5.0-0.21","62911a82ead4bc61607aa7d8","E1","batch5","","null","<p class=block-text>Trial 22 out of 78</p>","null","pattern_show_trial_num","","","","","","","","","","","","","","","","","","","","","","","","",""
"","","","","","image-keyboard-response","71","209253","0.0-2.0-5.0-1.21","62911a82ead4bc61607aa7d8","E1","batch5","","1707.7000000029802","stim/yes_23_ver_b1.png","f","pattern_response","true","f","pattern_48","1707.7000000029802","true","17","","","","","","","","","","","","","","","","","","",""
"","","","","","html-keyboard-response","72","210587","0.0-2.0-5.0-0.22","62911a82ead4bc61607aa7d8","E1","batch5","","null","<p class=block-text>Trial 23 out of 78</p>","null","pattern_show_trial_num","","","","","","","","","","","","","","","","","","","","","","","","",""
"","","","","","image-keyboard-response","73","213461","0.0-2.0-5.0-1.22","62911a82ead4bc61607aa7d8","E1","batch5","","2864.300000011921","stim/no_43_2_b.png","j","pattern_response","true","j","pattern_23","2864.300000011921","true","18","","","","","","","","","","","","","","","","","","",""
"","","","","","html-keyboard-response","74","214797","0.0-2.0-5.0-0.23","62911a82ead4bc61607aa7d8","E1","batch5","","null","<p class=block-text>Trial 24 out of 78</p>","null","pattern_show_trial_num","","","","","","","","","","","","","","","","","","","","","","","","",""
"","","","","","image-keyboard-response","75","217526","0.0-2.0-5.0-1.23","62911a82ead4bc61607aa7d8","E1","batch5","","2726.3999999910593","stim/no_30_1_b.png","j","pattern_response","true","j","pattern_13","2726.3999999910593","true","19","","","","","","","","","","","","","","","","","","",""
"","","","","","html-keyboard-response","76","218837","0.0-2.0-5.0-0.24","62911a82ead4bc61607aa7d8","E1","batch5","","null","<p class=block-text>Trial 25 out of 78</p>","null","pattern_show_trial_num","","","","","","","","","","","","","","","","","","","","","","","","",""
"","","","","","image-keyboard-response","77","221173","0.0-2.0-5.0-1.24","62911a82ead4bc61607aa7d8","E1","batch5","","2333.0999999940395","stim/no_28_2.png","j","pattern_response","true","j","pattern_11","2333.0999999940395","true","20","","","","","","","","","","","","","","","","","","",""
"","","","","","html-keyboard-response","78","222497","0.0-2.0-5.0-0.25","62911a82ead4bc61607aa7d8","E1","batch5","","null","<p class=block-text>Trial 26 out of 78</p>","null","pattern_show_trial_num","","","","","","","","","","","","","","","","","","","","","","","","",""
"","","","","","image-keyboard-response","79","223285","0.0-2.0-5.0-1.25","62911a82ead4bc61607aa7d8","E1","batch5","","785.4000000059605","stim/yes_15_dia_b1u_b.png","f","pattern_response","true","f","pattern_44","785.4000000059605","true","21","","","","","","","","","","","","","","","","","","",""
"","","","","","html-keyboard-response","80","224616","0.0-2.0-5.0-0.26","62911a82ead4bc61607aa7d8","E1","batch5","","null","<p class=block-text>Trial 27 out of 78</p>","null","pattern_show_trial_num","","","","","","","","","","","","","","","","","","","","","","","","",""
"","","","","","image-keyboard-response","81","225589","0.0-2.0-5.0-1.26","62911a82ead4bc61607aa7d8","E1","batch5","","971.7000000029802","stim/yes_30_ver_b1_b.png","f","pattern_response","true","f","pattern_54","971.7000000029802","true","22","","","","","","","","","","","","","","","","","","",""
"","","","","","html-keyboard-response","82","226907","0.0-2.0-5.0-0.27","62911a82ead4bc61607aa7d8","E1","batch5","","null","<p class=block-text>Trial 28 out of 78</p>","null","pattern_show_trial_num","","","","","","","","","","","","","","","","","","","","","","","","",""
"","","","","","image-keyboard-response","83","231302","0.0-2.0-5.0-1.27","62911a82ead4bc61607aa7d8","E1","batch5","","4392.699999988079","stim/no_45_1_w.png","j","pattern_response","true","j","pattern_25","4392.699999988079","true","23","","","","","","","","","","","","","","","","","","",""
"","","","","","html-keyboard-response","84","232620","0.0-2.0-5.0-0.28","62911a82ead4bc61607aa7d8","E1","batch5","","null","<p class=block-text>Trial 29 out of 78</p>","null","pattern_show_trial_num","","","","","","","","","","","","","","","","","","","","","","","","",""
"","","","","","image-keyboard-response","85","238469","0.0-2.0-5.0-1.28","62911a82ead4bc61607aa7d8","E1","batch5","","5846.70000000298","stim/no_67_1.png","j","pattern_response","true","j","pattern_39","5846.70000000298","true","24","","","","","","","","","","","","","","","","","","",""
"","","","","","html-keyboard-response","86","239807","0.0-2.0-5.0-0.29","62911a82ead4bc61607aa7d8","E1","batch5","","null","<p class=block-text>Trial 30 out of 78</p>","null","pattern_show_trial_num","","","","","","","","","","","","","","","","","","","","","","","","",""
"","","","","","image-keyboard-response","87","242342","0.0-2.0-5.0-1.29","62911a82ead4bc61607aa7d8","E1","batch5","","2532","stim/no_37_2_w.png","j","pattern_response","true","j","pattern_19","2532","true","25","","","","","","","","","","","","","","","","","","",""
"","","","","","html-keyboard-response","88","243657","0.0-2.0-5.0-0.30","62911a82ead4bc61607aa7d8","E1","batch5","","null","<p class=block-text>Trial 31 out of 78</p>","null","pattern_show_trial_num","","","","","","","","","","","","","","","","","","","","","","","","",""
"","","","","","image-keyboard-response","89","244580","0.0-2.0-5.0-1.30","62911a82ead4bc61607aa7d8","E1","batch5","","922.5999999940395","stim/yes_39_hor_w1_w.png","f","pattern_response","true","f","pattern_62","922.5999999940395","true","26","","","","","","","","","","","","","","","","","","",""
"","","","","","html-keyboard-response","90","245907","0.0-2.0-5.0-0.31","62911a82ead4bc61607aa7d8","E1","batch5","","null","<p class=block-text>Trial 32 out of 78</p>","null","pattern_show_trial_num","","","","","","","","","","","","","","","","","","","","","","","","",""
"","","","","","image-keyboard-response","91","246774","0.0-2.0-5.0-1.31","62911a82ead4bc61607aa7d8","E1","batch5","","865.9000000059605","stim/yes_37_hor_w1_w.png","f","pattern_response","true","f","pattern_60","865.9000000059605","true","27","","","","","","","","","","","","","","","","","","",""
"","","","","","html-keyboard-response","92","248087","0.0-2.0-5.0-0.32","62911a82ead4bc61607aa7d8","E1","batch5","","null","<p class=block-text>Trial 33 out of 78</p>","null","pattern_show_trial_num","","","","","","","","","","","","","","","","","","","","","","","","",""
"","","","","","image-keyboard-response","93","249722","0.0-2.0-5.0-1.32","62911a82ead4bc61607aa7d8","E1","batch5","","1628.2999999970198","stim/no_18_1_b.png","j","pattern_response","true","j","pattern_05","1628.2999999970198","true","28","","","","","","","","","","","","","","","","","","",""
"","","","","","html-keyboard-response","94","251052","0.0-2.0-5.0-0.33","62911a82ead4bc61607aa7d8","E1","batch5","","null","<p class=block-text>Trial 34 out of 78</p>","null","pattern_show_trial_num","","","","","","","","","","","","","","","","","","","","","","","","",""
"","","","","","image-keyboard-response","95","252122","0.0-2.0-5.0-1.33","62911a82ead4bc61607aa7d8","E1","batch5","","1069.0999999940395","stim/yes_46_ver_b1_b.png","f","pattern_response","true","f","pattern_68","1069.0999999940395","true","29","","","","","","","","","","","","","","","","","","",""
"","","","","","html-keyboard-response","96","253452","0.0-2.0-5.0-0.34","62911a82ead4bc61607aa7d8","E1","batch5","","null","<p class=block-text>Trial 35 out of 78</p>","null","pattern_show_trial_num","","","","","","","","","","","","","","","","","","","","","","","","",""
"","","","","","image-keyboard-response","97","257146","0.0-2.0-5.0-1.34","62911a82ead4bc61607aa7d8","E1","batch5","","3693.5999999940395","stim/no_33_1_b.png","j","pattern_response","true","j","pattern_15","3693.5999999940395","true","30","","","","","","","","","","","","","","","","","","",""
"","","","","","html-keyboard-response","98","258472","0.0-2.0-5.0-0.35","62911a82ead4bc61607aa7d8","E1","batch5","","null","<p class=block-text>Trial 36 out of 78</p>","null","pattern_show_trial_num","","","","","","","","","","","","","","","","","","","","","","","","",""
"","","","","","image-keyboard-response","99","262747","0.0-2.0-5.0-1.35","62911a82ead4bc61607aa7d8","E1","batch5","","4271.9000000059605","stim/no_53_1_b.png","j","pattern_response","true","j","pattern_33","4271.9000000059605","true","31","","","","","","","","","","","","","","","","","","",""
"","","","","","html-keyboard-response","100","264082","0.0-2.0-5.0-0.36","62911a82ead4bc61607aa7d8","E1","batch5","","null","<p class=block-text>Trial 37 out of 78</p>","null","pattern_show_trial_num","","","","","","","","","","","","","","","","","","","","","","","","",""
"","","","","","image-keyboard-response","101","268124","0.0-2.0-5.0-1.36","62911a82ead4bc61607aa7d8","E1","batch5","","4038.6000000089407","stim/no_47_1_b.png","j","pattern_response","true","j","pattern_27","4038.6000000089407","true","32","","","","","","","","","","","","","","","","","","",""
"","","","","","html-keyboard-response","102","269452","0.0-2.0-5.0-0.37","62911a82ead4bc61607aa7d8","E1","batch5","","null","<p class=block-text>Trial 38 out of 78</p>","null","pattern_show_trial_num","","","","","","","","","","","","","","","","","","","","","","","","",""
"","","","","","image-keyboard-response","103","270346","0.0-2.0-5.0-1.37","62911a82ead4bc61607aa7d8","E1","batch5","","890.8999999910593","stim/yes_49_hor_w1_b.png","f","pattern_response","true","f","pattern_70","890.8999999910593","true","33","","","","","","","","","","","","","","","","","","",""
"","","","","","html-keyboard-response","104","271672","0.0-2.0-5.0-0.38","62911a82ead4bc61607aa7d8","E1","batch5","","null","<p class=block-text>Trial 39 out of 78</p>","null","pattern_show_trial_num","","","","","","","","","","","","","","","","","","","","","","","","",""
"","","","","","image-keyboard-response","105","275675","0.0-2.0-5.0-1.38","62911a82ead4bc61607aa7d8","E1","batch5","","4000.5","stim/yes_63_dia_b1.png","j","pattern_response","false","f","pattern_78","4000.5","false","33","","","","","","","","","","","","","","","","","","",""
"","","","","","image-keyboard-response","106","277754","0.0-2.0-6.0","62911a82ead4bc61607aa7d8","E1","batch5","","1569.7999999970198","stim/empty_board.png","j","attention_check","true","j","","","","","500","[""f"",""j""]","","","","","","","","","","","","","","","","",""
"","","","","","html-keyboard-response","107","278562","0.0-2.0-7.0-0.0","62911a82ead4bc61607aa7d8","E1","batch5","","null","<p class=block-text>Trial 40 out of 78</p>","null","pattern_show_trial_num","","","","","","","","","","","","","","","","","","","","","","","","",""
"","","","","","image-keyboard-response","108","280394","0.0-2.0-7.0-1.0","62911a82ead4bc61607aa7d8","E1","batch5","","1831.0999999940395","stim/yes_17_dia_w1.png","f","pattern_response","true","f","pattern_45","1831.0999999940395","true","34","","","","","","","","","","","","","","","","","","",""
"","","","","","html-keyboard-response","109","281732","0.0-2.0-7.0-0.1","62911a82ead4bc61607aa7d8","E1","batch5","","null","<p class=block-text>Trial 41 out of 78</p>","null","pattern_show_trial_num","","","","","","","","","","","","","","","","","","","","","","","","",""
"","","","","","image-keyboard-response","110","283819","0.0-2.0-7.0-1.1","62911a82ead4bc61607aa7d8","E1","batch5","","2085","stim/yes_45_hor_b2_b.png","f","pattern_response","true","f","pattern_67","2085","true","35","","","","","","","","","","","","","","","","","","",""
"","","","","","html-keyboard-response","111","285142","0.0-2.0-7.0-0.2","62911a82ead4bc61607aa7d8","E1","batch5","","null","<p class=block-text>Trial 42 out of 78</p>","null","pattern_show_trial_num","","","","","","","","","","","","","","","","","","","","","","","","",""
"","","","","","image-keyboard-response","112","286410","0.0-2.0-7.0-1.2","62911a82ead4bc61607aa7d8","E1","batch5","","1265.5999999940395","stim/no_13_2_b.png","j","pattern_response","true","j","pattern_02","1265.5999999940395","true","36","","","","","","","","","","","","","","","","","","",""
"","","","","","html-keyboard-response","113","287742","0.0-2.0-7.0-0.3","62911a82ead4bc61607aa7d8","E1","batch5","","null","<p class=block-text>Trial 43 out of 78</p>","null","pattern_show_trial_num","","","","","","","","","","","","","","","","","","","","","","","","",""
"","","","","","image-keyboard-response","114","292603","0.0-2.0-7.0-1.3","62911a82ead4bc61607aa7d8","E1","batch5","","4860.600000008941","stim/no_32_1_w.png","j","pattern_response","true","j","pattern_14","4860.600000008941","true","37","","","","","","","","","","","","","","","","","","",""
"","","","","","html-keyboard-response","115","293942","0.0-2.0-7.0-0.4","62911a82ead4bc61607aa7d8","E1","batch5","","null","<p class=block-text>Trial 44 out of 78</p>","null","pattern_show_trial_num","","","","","","","","","","","","","","","","","","","","","","","","",""
"","","","","","image-keyboard-response","116","298058","0.0-2.0-7.0-1.4","62911a82ead4bc61607aa7d8","E1","batch5","","4114.5","stim/yes_40_dia_b1_b.png","j","pattern_response","false","f","pattern_63","4114.5","false","37","","","","","","","","","","","","","","","","","","",""
"","","","","","html-keyboard-response","117","299392","0.0-2.0-7.0-0.5","62911a82ead4bc61607aa7d8","E1","batch5","","null","<p class=block-text>Trial 45 out of 78</p>","null","pattern_show_trial_num","","","","","","","","","","","","","","","","","","","","","","","","",""
"","","","","","image-keyboard-response","118","302427","0.0-2.0-7.0-1.5","62911a82ead4bc61607aa7d8","E1","batch5","","3033.2000000029802","stim/no_23_1.png","j","pattern_response","true","j","pattern_08","3033.2000000029802","true","38","","","","","","","","","","","","","","","","","","",""
"","","","","","html-keyboard-response","119","303752","0.0-2.0-7.0-0.6","62911a82ead4bc61607aa7d8","E1","batch5","","null","<p class=block-text>Trial 46 out of 78</p>","null","pattern_show_trial_num","","","","","","","","","","","","","","","","","","","","","","","","",""
"","","","","","image-keyboard-response","120","307275","0.0-2.0-7.0-1.6","62911a82ead4bc61607aa7d8","E1","batch5","","3521.7999999970198","stim/yes_37_dia_w1.png","f","pattern_response","true","f","pattern_59","3521.7999999970198","true","39","","","","","","","","","","","","","","","","","","",""
"","","","","","html-keyboard-response","121","308612","0.0-2.0-7.0-0.7","62911a82ead4bc61607aa7d8","E1","batch5","","null","<p class=block-text>Trial 47 out of 78</p>","null","pattern_show_trial_num","","","","","","","","","","","","","","","","","","","","","","","","",""
"","","","","","image-keyboard-response","122","313706","0.0-2.0-7.0-1.7","62911a82ead4bc61607aa7d8","E1","batch5","","5090.9000000059605","stim/no_55_1_w.png","j","pattern_response","true","j","pattern_34","5090.9000000059605","true","40","","","","","","","","","","","","","","","","","","",""
"","","","","","html-keyboard-response","123","315018","0.0-2.0-7.0-0.8","62911a82ead4bc61607aa7d8","E1","batch5","","null","<p class=block-text>Trial 48 out of 78</p>","null","pattern_show_trial_num","","","","","","","","","","","","","","","","","","","","","","","","",""
"","","","","","image-keyboard-response","124","316138","0.0-2.0-7.0-1.8","62911a82ead4bc61607aa7d8","E1","batch5","","1119","stim/yes_67_hor_b1.png","f","pattern_response","true","f","pattern_79","1119","true","41","","","","","","","","","","","","","","","","","","",""
"","","","","","html-keyboard-response","125","317462","0.0-2.0-7.0-0.9","62911a82ead4bc61607aa7d8","E1","batch5","","null","<p class=block-text>Trial 49 out of 78</p>","null","pattern_show_trial_num","","","","","","","","","","","","","","","","","","","","","","","","",""
"","","","","","image-keyboard-response","126","321642","0.0-2.0-7.0-1.9","62911a82ead4bc61607aa7d8","E1","batch5","","4179","stim/no_46_1_b.png","j","pattern_response","true","j","pattern_26","4179","true","42","","","","","","","","","","","","","","","","","","",""
"","","","","","html-keyboard-response","127","322982","0.0-2.0-7.0-0.10","62911a82ead4bc61607aa7d8","E1","batch5","","null","<p class=block-text>Trial 50 out of 78</p>","null","pattern_show_trial_num","","","","","","","","","","","","","","","","","","","","","","","","",""
"","","","","","image-keyboard-response","128","328938","0.0-2.0-7.0-1.10","62911a82ead4bc61607aa7d8","E1","batch5","","5954.699999988079","stim/no_70_2.png","j","pattern_response","true","j","pattern_40","5954.699999988079","true","43","","","","","","","","","","","","","","","","","","",""
"","","","","","html-keyboard-response","129","330271","0.0-2.0-7.0-0.11","62911a82ead4bc61607aa7d8","E1","batch5","","null","<p class=block-text>Trial 51 out of 78</p>","null","pattern_show_trial_num","","","","","","","","","","","","","","","","","","","","","","","","",""
"","","","","","image-keyboard-response","130","334810","0.0-2.0-7.0-1.11","62911a82ead4bc61607aa7d8","E1","batch5","","4537.5","stim/no_50_1.png","j","pattern_response","true","j","pattern_30","4537.5","true","44","","","","","","","","","","","","","","","","","","",""
"","","","","","html-keyboard-response","131","336131","0.0-2.0-7.0-0.12","62911a82ead4bc61607aa7d8","E1","batch5","","null","<p class=block-text>Trial 52 out of 78</p>","null","pattern_show_trial_num","","","","","","","","","","","","","","","","","","","","","","","","",""
"","","","","","image-keyboard-response","132","337946","0.0-2.0-7.0-1.12","62911a82ead4bc61607aa7d8","E1","batch5","","1814.0999999940395","stim/yes_48_dia_w1_w.png","f","pattern_response","true","f","pattern_69","1814.0999999940395","true","45","","","","","","","","","","","","","","","","","","",""
"","","","","","html-keyboard-response","133","339262","0.0-2.0-7.0-0.13","62911a82ead4bc61607aa7d8","E1","batch5","","null","<p class=block-text>Trial 53 out of 78</p>","null","pattern_show_trial_num","","","","","","","","","","","","","","","","","","","","","","","","",""
"","","","","","image-keyboard-response","134","345419","0.0-2.0-7.0-1.13","62911a82ead4bc61607aa7d8","E1","batch5","","6156.5999999940395","stim/no_65_1_b.png","j","pattern_response","true","j","pattern_38","6156.5999999940395","true","46","","","","","","","","","","","","","","","","","","",""
"","","","","","html-keyboard-response","135","346752","0.0-2.0-7.0-0.14","62911a82ead4bc61607aa7d8","E1","batch5","","null","<p class=block-text>Trial 54 out of 78</p>","null","pattern_show_trial_num","","","","","","","","","","","","","","","","","","","","","","","","",""
"","","","","","image-keyboard-response","136","350042","0.0-2.0-7.0-1.14","62911a82ead4bc61607aa7d8","E1","batch5","","3287.1000000089407","stim/no_26_1_w.png","j","pattern_response","true","j","pattern_10","3287.1000000089407","true","47","","","","","","","","","","","","","","","","","","",""
"","","","","","html-keyboard-response","137","351382","0.0-2.0-7.0-0.15","62911a82ead4bc61607aa7d8","E1","batch5","","null","<p class=block-text>Trial 55 out of 78</p>","null","pattern_show_trial_num","","","","","","","","","","","","","","","","","","","","","","","","",""
"","","","","","image-keyboard-response","138","356619","0.0-2.0-7.0-1.15","62911a82ead4bc61607aa7d8","E1","batch5","","5234.4000000059605","stim/no_36_2_w.png","j","pattern_response","true","j","pattern_18","5234.4000000059605","true","48","","","","","","","","","","","","","","","","","","",""
"","","","","","html-keyboard-response","139","357942","0.0-2.0-7.0-0.16","62911a82ead4bc61607aa7d8","E1","batch5","","null","<p class=block-text>Trial 56 out of 78</p>","null","pattern_show_trial_num","","","","","","","","","","","","","","","","","","","","","","","","",""
"","","","","","image-keyboard-response","140","359515","0.0-2.0-7.0-1.16","62911a82ead4bc61607aa7d8","E1","batch5","","1571.1000000089407","stim/no_20_1_w.png","j","pattern_response","true","j","pattern_06","1571.1000000089407","true","49","","","","","","","","","","","","","","","","","","",""
"","","","","","html-keyboard-response","141","360842","0.0-2.0-7.0-0.17","62911a82ead4bc61607aa7d8","E1","batch5","","null","<p class=block-text>Trial 57 out of 78</p>","null","pattern_show_trial_num","","","","","","","","","","","","","","","","","","","","","","","","",""
"","","","","","image-keyboard-response","142","364314","0.0-2.0-7.0-1.17","62911a82ead4bc61607aa7d8","E1","batch5","","3469.2999999970198","stim/yes_38_hor_b1_b.png","j","pattern_response","false","f","pattern_61","3469.2999999970198","false","49","","","","","","","","","","","","","","","","","","",""
"","","","","","html-keyboard-response","143","365632","0.0-2.0-7.0-0.18","62911a82ead4bc61607aa7d8","E1","batch5","","null","<p class=block-text>Trial 58 out of 78</p>","null","pattern_show_trial_num","","","","","","","","","","","","","","","","","","","","","","","","",""
"","","","","","image-keyboard-response","144","367354","0.0-2.0-7.0-1.18","62911a82ead4bc61607aa7d8","E1","batch5","","1721","stim/yes_28_ver_b1.png","f","pattern_response","true","f","pattern_51","1721","true","50","","","","","","","","","","","","","","","","","","",""
"","","","","","html-keyboard-response","145","368683","0.0-2.0-7.0-0.19","62911a82ead4bc61607aa7d8","E1","batch5","","null","<p class=block-text>Trial 59 out of 78</p>","null","pattern_show_trial_num","","","","","","","","","","","","","","","","","","","","","","","","",""
"","","","","","image-keyboard-response","146","373130","0.0-2.0-7.0-1.19","62911a82ead4bc61607aa7d8","E1","batch5","","4444.79999999702","stim/no_48_1_w.png","j","pattern_response","true","j","pattern_28","4444.79999999702","true","51","","","","","","","","","","","","","","","","","","",""
"","","","","","html-keyboard-response","147","374452","0.0-2.0-7.0-0.20","62911a82ead4bc61607aa7d8","E1","batch5","","null","<p class=block-text>Trial 60 out of 78</p>","null","pattern_show_trial_num","","","","","","","","","","","","","","","","","","","","","","","","",""
"","","","","","image-keyboard-response","148","375321","0.0-2.0-7.0-1.20","62911a82ead4bc61607aa7d8","E1","batch5","","866.8999999910593","stim/yes_14_hor_b1_w.png","f","pattern_response","true","f","pattern_43","866.8999999910593","true","52","","","","","","","","","","","","","","","","","","",""
"","","","","","html-keyboard-response","149","376652","0.0-2.0-7.0-0.21","62911a82ead4bc61607aa7d8","E1","batch5","","null","<p class=block-text>Trial 61 out of 78</p>","null","pattern_show_trial_num","","","","","","","","","","","","","","","","","","","","","","","","",""
"","","","","","image-keyboard-response","150","378394","0.0-2.0-7.0-1.21","62911a82ead4bc61607aa7d8","E1","batch5","","1741.2999999970198","stim/yes_31_hor_b1.png","f","pattern_response","true","f","pattern_55","1741.2999999970198","true","53","","","","","","","","","","","","","","","","","","",""
"","","","","","html-keyboard-response","151","379708","0.0-2.0-7.0-0.22","62911a82ead4bc61607aa7d8","E1","batch5","","null","<p class=block-text>Trial 62 out of 78</p>","null","pattern_show_trial_num","","","","","","","","","","","","","","","","","","","","","","","","",""
"","","","","","image-keyboard-response","152","380587","0.0-2.0-7.0-1.22","62911a82ead4bc61607aa7d8","E1","batch5","","877.5999999940395","stim/yes_22_ver_w1.png","f","pattern_response","true","f","pattern_47","877.5999999940395","true","54","","","","","","","","","","","","","","","","","","",""
"","","","","","html-keyboard-response","153","381912","0.0-2.0-7.0-0.23","62911a82ead4bc61607aa7d8","E1","batch5","","null","<p class=block-text>Trial 63 out of 78</p>","null","pattern_show_trial_num","","","","","","","","","","","","","","","","","","","","","","","","",""
"","","","","","image-keyboard-response","154","382634","0.0-2.0-7.0-1.23","62911a82ead4bc61607aa7d8","E1","batch5","","720.7000000029802","stim/yes_55_hor_w1_w.png","f","pattern_response","true","f","pattern_75","720.7000000029802","true","55","","","","","","","","","","","","","","","","","","",""
"","","","","","html-keyboard-response","155","383972","0.0-2.0-7.0-0.24","62911a82ead4bc61607aa7d8","E1","batch5","","null","<p class=block-text>Trial 64 out of 78</p>","null","pattern_show_trial_num","","","","","","","","","","","","","","","","","","","","","","","","",""
"","","","","","image-keyboard-response","156","384922","0.0-2.0-7.0-1.24","62911a82ead4bc61607aa7d8","E1","batch5","","947.9000000059605","stim/yes_43_ver_w1_w.png","f","pattern_response","true","f","pattern_65","947.9000000059605","true","56","","","","","","","","","","","","","","","","","","",""
"","","","","","html-keyboard-response","157","386242","0.0-2.0-7.0-0.25","62911a82ead4bc61607aa7d8","E1","batch5","","null","<p class=block-text>Trial 65 out of 78</p>","null","pattern_show_trial_num","","","","","","","","","","","","","","","","","","","","","","","","",""
"","","","","","image-keyboard-response","158","387002","0.0-2.0-7.0-1.25","62911a82ead4bc61607aa7d8","E1","batch5","","758.7999999970198","stim/yes_29_ver_w1.png","f","pattern_response","true","f","pattern_53","758.7999999970198","true","57","","","","","","","","","","","","","","","","","","",""
"","","","","","html-keyboard-response","159","388342","0.0-2.0-7.0-0.26","62911a82ead4bc61607aa7d8","E1","batch5","","null","<p class=block-text>Trial 66 out of 78</p>","null","pattern_show_trial_num","","","","","","","","","","","","","","","","","","","","","","","","",""
"","","","","","image-keyboard-response","160","394603","0.0-2.0-7.0-1.26","62911a82ead4bc61607aa7d8","E1","batch5","","6259.5","stim/yes_50_dia_w1.png","f","pattern_response","true","f","pattern_71","6259.5","true","58","","","","","","","","","","","","","","","","","","",""
"","","","","","html-keyboard-response","161","395932","0.0-2.0-7.0-0.27","62911a82ead4bc61607aa7d8","E1","batch5","","null","<p class=block-text>Trial 67 out of 78</p>","null","pattern_show_trial_num","","","","","","","","","","","","","","","","","","","","","","","","",""
"","","","","","image-keyboard-response","162","399514","0.0-2.0-7.0-1.27","62911a82ead4bc61607aa7d8","E1","batch5","","3579","stim/no_52_1.png","j","pattern_response","true","j","pattern_32","3579","true","59","","","","","","","","","","","","","","","","","","",""
"","","","","","html-keyboard-response","163","400842","0.0-2.0-7.0-0.28","62911a82ead4bc61607aa7d8","E1","batch5","","null","<p class=block-text>Trial 68 out of 78</p>","null","pattern_show_trial_num","","","","","","","","","","","","","","","","","","","","","","","","",""
"","","","","","image-keyboard-response","164","401738","0.0-2.0-7.0-1.28","62911a82ead4bc61607aa7d8","E1","batch5","","893.1999999880791","stim/yes_60_ver_b1_b.png","f","pattern_response","true","f","pattern_77","893.1999999880791","true","60","","","","","","","","","","","","","","","","","","",""
"","","","","","html-keyboard-response","165","403062","0.0-2.0-7.0-0.29","62911a82ead4bc61607aa7d8","E1","batch5","","null","<p class=block-text>Trial 69 out of 78</p>","null","pattern_show_trial_num","","","","","","","","","","","","","","","","","","","","","","","","",""
"","","","","","image-keyboard-response","166","405931","0.0-2.0-7.0-1.29","62911a82ead4bc61607aa7d8","E1","batch5","","2867.699999988079","stim/no_29_1_b.png","j","pattern_response","true","j","pattern_12","2867.699999988079","true","61","","","","","","","","","","","","","","","","","","",""
"","","","","","html-keyboard-response","167","407252","0.0-2.0-7.0-0.30","62911a82ead4bc61607aa7d8","E1","batch5","","null","<p class=block-text>Trial 70 out of 78</p>","null","pattern_show_trial_num","","","","","","","","","","","","","","","","","","","","","","","","",""
"","","","","","image-keyboard-response","168","408554","0.0-2.0-7.0-1.30","62911a82ead4bc61607aa7d8","E1","batch5","","1301.0999999940395","stim/no_17_1_w.png","j","pattern_response","true","j","pattern_04","1301.0999999940395","true","62","","","","","","","","","","","","","","","","","","",""
"","","","","","html-keyboard-response","169","409882","0.0-2.0-7.0-0.31","62911a82ead4bc61607aa7d8","E1","batch5","","null","<p class=block-text>Trial 71 out of 78</p>","null","pattern_show_trial_num","","","","","","","","","","","","","","","","","","","","","","","","",""
"","","","","","image-keyboard-response","170","413179","0.0-2.0-7.0-1.31","62911a82ead4bc61607aa7d8","E1","batch5","","3294.5999999940395","stim/no_42_1_w.png","j","pattern_response","true","j","pattern_22","3294.5999999940395","true","63","","","","","","","","","","","","","","","","","","",""
"","","","","","html-keyboard-response","171","414512","0.0-2.0-7.0-0.32","62911a82ead4bc61607aa7d8","E1","batch5","","null","<p class=block-text>Trial 72 out of 78</p>","null","pattern_show_trial_num","","","","","","","","","","","","","","","","","","","","","","","","",""
"","","","","","image-keyboard-response","172","415226","0.0-2.0-7.0-1.32","62911a82ead4bc61607aa7d8","E1","batch5","","713.5999999940395","stim/yes_25_hor_b1_b.png","f","pattern_response","true","f","pattern_49","713.5999999940395","true","64","","","","","","","","","","","","","","","","","","",""
"","","","","","html-keyboard-response","173","416552","0.0-2.0-7.0-0.33","62911a82ead4bc61607aa7d8","E1","batch5","","null","<p class=block-text>Trial 73 out of 78</p>","null","pattern_show_trial_num","","","","","","","","","","","","","","","","","","","","","","","","",""
"","","","","","image-keyboard-response","174","420970","0.0-2.0-7.0-1.33","62911a82ead4bc61607aa7d8","E1","batch5","","4416","stim/no_44_1.png","j","pattern_response","true","j","pattern_24","4416","true","65","","","","","","","","","","","","","","","","","","",""
"","","","","","html-keyboard-response","175","422292","0.0-2.0-7.0-0.34","62911a82ead4bc61607aa7d8","E1","batch5","","null","<p class=block-text>Trial 74 out of 78</p>","null","pattern_show_trial_num","","","","","","","","","","","","","","","","","","","","","","","","",""
"","","","","","image-keyboard-response","176","426473","0.0-2.0-7.0-1.34","62911a82ead4bc61607aa7d8","E1","batch5","","4178.29999999702","stim/no_34_1_b.png","j","pattern_response","true","j","pattern_16","4178.29999999702","true","66","","","","","","","","","","","","","","","","","","",""
"","","","","","html-keyboard-response","177","427802","0.0-2.0-7.0-0.35","62911a82ead4bc61607aa7d8","E1","batch5","","null","<p class=block-text>Trial 75 out of 78</p>","null","pattern_show_trial_num","","","","","","","","","","","","","","","","","","","","","","","","",""
"","","","","","image-keyboard-response","178","434742","0.0-2.0-7.0-1.35","62911a82ead4bc61607aa7d8","E1","batch5","","6943.79999999702","stim/no_62_1_w.png","j","pattern_response","true","j","pattern_36","6943.79999999702","true","67","","","","","","","","","","","","","","","","","","",""
"","","","","","html-keyboard-response","179","436067","0.0-2.0-7.0-0.36","62911a82ead4bc61607aa7d8","E1","batch5","","null","<p class=block-text>Trial 76 out of 78</p>","null","pattern_show_trial_num","","","","","","","","","","","","","","","","","","","","","","","","",""
"","","","","","image-keyboard-response","180","440309","0.0-2.0-7.0-1.36","62911a82ead4bc61607aa7d8","E1","batch5","","4239.5999999940395","stim/no_38_1_b.png","j","pattern_response","true","j","pattern_20","4239.5999999940395","true","68","","","","","","","","","","","","","","","","","","",""
"","","","","","html-keyboard-response","181","441618","0.0-2.0-7.0-0.37","62911a82ead4bc61607aa7d8","E1","batch5","","null","<p class=block-text>Trial 77 out of 78</p>","null","pattern_show_trial_num","","","","","","","","","","","","","","","","","","","","","","","","",""
"","","","","","image-keyboard-response","182","443108","0.0-2.0-7.0-1.37","62911a82ead4bc61607aa7d8","E1","batch5","","1487.5","stim/yes_52_ver_w1.png","f","pattern_response","true","f","pattern_73","1487.5","true","69","","","","","","","","","","","","","","","","","","",""
"","","","","","html-keyboard-response","183","444446","0.0-2.0-7.0-0.38","62911a82ead4bc61607aa7d8","E1","batch5","","null","<p class=block-text>Trial 78 out of 78</p>","null","pattern_show_trial_num","","","","","","","","","","","","","","","","","","","","","","","","",""
"","","","","","image-keyboard-response","184","445334","0.0-2.0-7.0-1.38","62911a82ead4bc61607aa7d8","E1","batch5","","885.7999999970198","stim/yes_35_dia_b1.png","f","pattern_response","true","f","pattern_57","885.7999999970198","true","70","","","","","","","","","","","","","","","","","","",""
"","","","","","html-button-response","185","449925","0.0-2.0-8.0","62911a82ead4bc61607aa7d8","E1","batch5","","4087.6000000089407","<p class = block-text>This concludes the 4-in-a-row detection game.Thank you for your responses!<br>
            You responded correctly on 90% of the trials.<br>
            When you are ready, press ""Continue"" button to continue </p>","0","","","","","","","","","","","","","","","","","","","","","","","","","",""
"true","","","","","fullscreen","186","455437","0.0-3.0-0.0","62911a82ead4bc61607aa7d8","E1","batch5","","","","","spm_fullscreen","","","","","","","","","","","","","","","","","","","","","","","","",""
"","","","","","html-button-response","187","466973","0.0-3.0-1.0","62911a82ead4bc61607aa7d8","E1","batch5","","11534.59999999404","<p class = block-text><b>Instructions</b> <br>This is a widely used intelligence test in research. <br>In this test, a figure with a missing piece will be presented.<br>Below the figure are alternative pieces to complete the figure, only one of which is correct.<br> Different figures might involve different principles for obtaining the missing piece<br>Your job is to select the most logical piece to complete the figure.</p>","0","","","","","","","","","","","","","","","","","","","","","","","","","",""
"","","","","","html-keyboard-response","188","467787","0.0-3.0-2.0-0.0","62911a82ead4bc61607aa7d8","E1","batch5","","null","<p class=block-text>Trial 1 out of 60</p>","null","spm_show_trial_num","","","","","","","","","","","","","","","","","","","","","","","","",""
"","","","","","image-button-response","189","478181","0.0-3.0-2.0-1.0","62911a82ead4bc61607aa7d8","E1","batch5","","10389.300000011921","img/question_1_1.jpeg","3","spm_respsonse","1","4","mat_01","","","","","","1","10389.300000011921","","","","","","","","","","","","","","",""
"","","","","","html-keyboard-response","190","479249","0.0-3.0-2.0-0.1","62911a82ead4bc61607aa7d8","E1","batch5","","null","<p class=block-text>Trial 2 out of 60</p>","null","spm_show_trial_num","","","","","","","","","","","","","","","","","","","","","","","","",""
"","","","","","image-button-response","191","481253","0.0-3.0-2.0-1.1","62911a82ead4bc61607aa7d8","E1","batch5","","2000.6000000089407","img/question_1_2.jpeg","4","spm_respsonse","1","5","mat_02","","","","","","1","2000.6000000089407","","","","","","","","","","","","","","",""
"","","","","","html-keyboard-response","192","482316","0.0-3.0-2.0-0.2","62911a82ead4bc61607aa7d8","E1","batch5","","null","<p class=block-text>Trial 3 out of 60</p>","null","spm_show_trial_num","","","","","","","","","","","","","","","","","","","","","","","","",""
"","","","","","image-button-response","193","485005","0.0-3.0-2.0-1.2","62911a82ead4bc61607aa7d8","E1","batch5","","2687.3999999910593","img/question_1_3.jpeg","0","spm_respsonse","1","1","mat_03","","","","","","1","2687.3999999910593","","","","","","","","","","","","","","",""
"","","","","","html-keyboard-response","194","486067","0.0-3.0-2.0-0.3","62911a82ead4bc61607aa7d8","E1","batch5","","null","<p class=block-text>Trial 4 out of 60</p>","null","spm_show_trial_num","","","","","","","","","","","","","","","","","","","","","","","","",""
"","","","","","image-button-response","195","489549","0.0-3.0-2.0-1.3","62911a82ead4bc61607aa7d8","E1","batch5","","3480.7000000029802","img/question_1_4.jpeg","1","spm_respsonse","1","2","mat_04","","","","","","1","3480.7000000029802","","","","","","","","","","","","","","",""
"","","","","","html-keyboard-response","196","490616","0.0-3.0-2.0-0.4","62911a82ead4bc61607aa7d8","E1","batch5","","null","<p class=block-text>Trial 5 out of 60</p>","null","spm_show_trial_num","","","","","","","","","","","","","","","","","","","","","","","","",""
"","","","","","image-button-response","197","493685","0.0-3.0-2.0-1.4","62911a82ead4bc61607aa7d8","E1","batch5","","3066.9000000059605","img/question_1_5.jpeg","5","spm_respsonse","1","6","mat_05","","","","","","1","3066.9000000059605","","","","","","","","","","","","","","",""
"","","","","","html-keyboard-response","198","494762","0.0-3.0-2.0-0.5","62911a82ead4bc61607aa7d8","E1","batch5","","null","<p class=block-text>Trial 6 out of 60</p>","null","spm_show_trial_num","","","","","","","","","","","","","","","","","","","","","","","","",""
"","","","","","image-button-response","199","498363","0.0-3.0-2.0-1.5","62911a82ead4bc61607aa7d8","E1","batch5","","3598.1000000089407","img/question_1_6.jpeg","2","spm_respsonse","1","3","mat_06","","","","","","1","3598.1000000089407","","","","","","","","","","","","","","",""
"","","","","","html-keyboard-response","200","499452","0.0-3.0-2.0-0.6","62911a82ead4bc61607aa7d8","E1","batch5","","null","<p class=block-text>Trial 7 out of 60</p>","null","spm_show_trial_num","","","","","","","","","","","","","","","","","","","","","","","","",""
"","","","","","image-button-response","201","502642","0.0-3.0-2.0-1.6","62911a82ead4bc61607aa7d8","E1","batch5","","3186.7000000029802","img/question_1_7.jpeg","5","spm_respsonse","1","6","mat_07","","","","","","1","3186.7000000029802","","","","","","","","","","","","","","",""
"","","","","","html-keyboard-response","202","503703","0.0-3.0-2.0-0.7","62911a82ead4bc61607aa7d8","E1","batch5","","null","<p class=block-text>Trial 8 out of 60</p>","null","spm_show_trial_num","","","","","","","","","","","","","","","","","","","","","","","","",""
"","","","","","image-button-response","203","507354","0.0-3.0-2.0-1.7","62911a82ead4bc61607aa7d8","E1","batch5","","3648.2000000029802","img/question_1_8.jpeg","1","spm_respsonse","1","2","mat_08","","","","","","1","3648.2000000029802","","","","","","","","","","","","","","",""
"","","","","","html-keyboard-response","204","508432","0.0-3.0-2.0-0.8","62911a82ead4bc61607aa7d8","E1","batch5","","null","<p class=block-text>Trial 9 out of 60</p>","null","spm_show_trial_num","","","","","","","","","","","","","","","","","","","","","","","","",""
"","","","","","image-button-response","205","511099","0.0-3.0-2.0-1.8","62911a82ead4bc61607aa7d8","E1","batch5","","2663.2999999970198","img/question_1_9.jpeg","0","spm_respsonse","1","1","mat_09","","","","","","1","2663.2999999970198","","","","","","","","","","","","","","",""
"","","","","","html-keyboard-response","206","512155","0.0-3.0-2.0-0.9","62911a82ead4bc61607aa7d8","E1","batch5","","null","<p class=block-text>Trial 10 out of 60</p>","null","spm_show_trial_num","","","","","","","","","","","","","","","","","","","","","","","","",""
"","","","","","image-button-response","207","517083","0.0-3.0-2.0-1.9","62911a82ead4bc61607aa7d8","E1","batch5","","4926.100000008941","img/question_1_10.jpeg","2","spm_respsonse","1","3","mat_10","","","","","","1","4926.100000008941","","","","","","","","","","","","","","",""
"","","","","","html-keyboard-response","208","518162","0.0-3.0-2.0-0.10","62911a82ead4bc61607aa7d8","E1","batch5","","null","<p class=block-text>Trial 11 out of 60</p>","null","spm_show_trial_num","","","","","","","","","","","","","","","","","","","","","","","","",""
"","","","","","image-button-response","209","526323","0.0-3.0-2.0-1.10","62911a82ead4bc61607aa7d8","E1","batch5","","8157.20000000298","img/question_1_11.jpeg","3","spm_respsonse","1","4","mat_11","","","","","","1","8157.20000000298","","","","","","","","","","","","","","",""
"","","","","","html-keyboard-response","210","527383","0.0-3.0-2.0-0.11","62911a82ead4bc61607aa7d8","E1","batch5","","null","<p class=block-text>Trial 12 out of 60</p>","null","spm_show_trial_num","","","","","","","","","","","","","","","","","","","","","","","","",""
"","","","","","image-button-response","211","539987","0.0-3.0-2.0-1.11","62911a82ead4bc61607aa7d8","E1","batch5","","12600.29999999702","img/question_1_12.jpeg","4","spm_respsonse","1","5","mat_12","","","","","","1","12600.29999999702","","","","","","","","","","","","","","",""
"","","","","","html-keyboard-response","212","541062","0.0-3.0-2.0-0.12","62911a82ead4bc61607aa7d8","E1","batch5","","null","<p class=block-text>Trial 13 out of 60</p>","null","spm_show_trial_num","","","","","","","","","","","","","","","","","","","","","","","","",""
"","","","","","image-button-response","213","542914","0.0-3.0-2.0-1.12","62911a82ead4bc61607aa7d8","E1","batch5","","1851.0999999940395","img/question_2_1.jpeg","1","spm_respsonse","1","2","mat_13","","","","","","1","1851.0999999940395","","","","","","","","","","","","","","",""
"","","","","","html-keyboard-response","214","544002","0.0-3.0-2.0-0.13","62911a82ead4bc61607aa7d8","E1","batch5","","null","<p class=block-text>Trial 14 out of 60</p>","null","spm_show_trial_num","","","","","","","","","","","","","","","","","","","","","","","","",""
"","","","","","image-button-response","215","546683","0.0-3.0-2.0-1.13","62911a82ead4bc61607aa7d8","E1","batch5","","2678.4000000059605","img/question_2_2.jpeg","5","spm_respsonse","1","6","mat_14","","","","","","1","2678.4000000059605","","","","","","","","","","","","","","",""
"","","","","","html-keyboard-response","216","547757","0.0-3.0-2.0-0.14","62911a82ead4bc61607aa7d8","E1","batch5","","null","<p class=block-text>Trial 15 out of 60</p>","null","spm_show_trial_num","","","","","","","","","","","","","","","","","","","","","","","","",""
"","","","","","image-button-response","217","549547","0.0-3.0-2.0-1.14","62911a82ead4bc61607aa7d8","E1","batch5","","1787","img/question_2_3.jpeg","0","spm_respsonse","1","1","mat_15","","","","","","1","1787","","","","","","","","","","","","","","",""
"","","","","","html-keyboard-response","218","550623","0.0-3.0-2.0-0.15","62911a82ead4bc61607aa7d8","E1","batch5","","null","<p class=block-text>Trial 16 out of 60</p>","null","spm_show_trial_num","","","","","","","","","","","","","","","","","","","","","","","","",""
"","","","","","image-button-response","219","553619","0.0-3.0-2.0-1.15","62911a82ead4bc61607aa7d8","E1","batch5","","2992.9000000059605","img/question_2_4.jpeg","1","spm_respsonse","1","2","mat_16","","","","","","1","2992.9000000059605","","","","","","","","","","","","","","",""
"","","","","","html-keyboard-response","220","554692","0.0-3.0-2.0-0.16","62911a82ead4bc61607aa7d8","E1","batch5","","null","<p class=block-text>Trial 17 out of 60</p>","null","spm_show_trial_num","","","","","","","","","","","","","","","","","","","","","","","","",""
"","","","","","image-button-response","221","558146","0.0-3.0-2.0-1.16","62911a82ead4bc61607aa7d8","E1","batch5","","3450.9000000059605","img/question_2_5.jpeg","0","spm_respsonse","1","1","mat_17","","","","","","1","3450.9000000059605","","","","","","","","","","","","","","",""
"","","","","","html-keyboard-response","222","559212","0.0-3.0-2.0-0.17","62911a82ead4bc61607aa7d8","E1","batch5","","null","<p class=block-text>Trial 18 out of 60</p>","null","spm_show_trial_num","","","","","","","","","","","","","","","","","","","","","","","","",""
"","","","","","image-button-response","223","562778","0.0-3.0-2.0-1.17","62911a82ead4bc61607aa7d8","E1","batch5","","3562.7999999970198","img/question_2_6.jpeg","3","spm_respsonse","0","3","mat_18","","","","","","0","3562.7999999970198","","","","","","","","","","","","","","",""
"","","","","","html-keyboard-response","224","563858","0.0-3.0-2.0-0.18","62911a82ead4bc61607aa7d8","E1","batch5","","null","<p class=block-text>Trial 19 out of 60</p>","null","spm_show_trial_num","","","","","","","","","","","","","","","","","","","","","","","","",""
"","","","","","image-button-response","225","568938","0.0-3.0-2.0-1.18","62911a82ead4bc61607aa7d8","E1","batch5","","5079","img/question_2_7.jpeg","4","spm_respsonse","1","5","mat_19","","","","","","1","5079","","","","","","","","","","","","","","",""
"","","","","","html-keyboard-response","226","570012","0.0-3.0-2.0-0.19","62911a82ead4bc61607aa7d8","E1","batch5","","null","<p class=block-text>Trial 20 out of 60</p>","null","spm_show_trial_num","","","","","","","","","","","","","","","","","","","","","","","","",""
"","","","","","image-button-response","227","574586","0.0-3.0-2.0-1.19","62911a82ead4bc61607aa7d8","E1","batch5","","4571","img/question_2_8.jpeg","5","spm_respsonse","1","6","mat_20","","","","","","1","4571","","","","","","","","","","","","","","",""
"","","","","","html-keyboard-response","228","575652","0.0-3.0-2.0-0.20","62911a82ead4bc61607aa7d8","E1","batch5","","null","<p class=block-text>Trial 21 out of 60</p>","null","spm_show_trial_num","","","","","","","","","","","","","","","","","","","","","","","","",""
"","","","","","image-button-response","229","579290","0.0-3.0-2.0-1.20","62911a82ead4bc61607aa7d8","E1","batch5","","3635.6000000089407","img/question_2_9.jpeg","3","spm_respsonse","1","4","mat_21","","","","","","1","3635.6000000089407","","","","","","","","","","","","","","",""
"","","","","","html-keyboard-response","230","580362","0.0-3.0-2.0-0.21","62911a82ead4bc61607aa7d8","E1","batch5","","null","<p class=block-text>Trial 22 out of 60</p>","null","spm_show_trial_num","","","","","","","","","","","","","","","","","","","","","","","","",""
"","","","","","image-button-response","231","583354","0.0-3.0-2.0-1.21","62911a82ead4bc61607aa7d8","E1","batch5","","2988.7999999970198","img/question_2_10.jpeg","2","spm_respsonse","1","3","mat_22","","","","","","1","2988.7999999970198","","","","","","","","","","","","","","",""
"","","","","","html-keyboard-response","232","584442","0.0-3.0-2.0-0.22","62911a82ead4bc61607aa7d8","E1","batch5","","null","<p class=block-text>Trial 23 out of 60</p>","null","spm_show_trial_num","","","","","","","","","","","","","","","","","","","","","","","","",""
"","","","","","image-button-response","233","589514","0.0-3.0-2.0-1.22","62911a82ead4bc61607aa7d8","E1","batch5","","5068.79999999702","img/question_2_11.jpeg","3","spm_respsonse","1","4","mat_23","","","","","","1","5068.79999999702","","","","","","","","","","","","","","",""
"","","","","","html-keyboard-response","234","590592","0.0-3.0-2.0-0.23","62911a82ead4bc61607aa7d8","E1","batch5","","null","<p class=block-text>Trial 24 out of 60</p>","null","spm_show_trial_num","","","","","","","","","","","","","","","","","","","","","","","","",""
"","","","","","image-button-response","235","615427","0.0-3.0-2.0-1.23","62911a82ead4bc61607aa7d8","E1","batch5","","24833.90000000596","img/question_2_12.jpeg","4","spm_respsonse","1","5","mat_24","","","","","","1","24833.90000000596","","","","","","","","","","","","","","",""
"","","","","","html-button-response","236","617010","0.0-3.0-3.0","62911a82ead4bc61607aa7d8","E1","batch5","","1316.5","<p class = block-text>Attention check: Please choose 1<br></p>","0","attention_check","true","","","","","","","","","","","","","","","","","","","","","","","",""
"","","","","","html-keyboard-response","237","617812","0.0-3.0-4.0-0.0","62911a82ead4bc61607aa7d8","E1","batch5","","null","<p class=block-text>Trial 25 out of 60</p>","null","spm_show_trial_num","","","","","","","","","","","","","","","","","","","","","","","","",""
"","","","","","image-button-response","238","624939","0.0-3.0-4.0-1.0","62911a82ead4bc61607aa7d8","E1","batch5","","7122.5","img/question_3_1.jpeg","7","spm_respsonse","1","8","mat_25","","","","","","1","7122.5","","","","","","","","","","","","","","",""
"","","","","","html-keyboard-response","239","625993","0.0-3.0-4.0-0.1","62911a82ead4bc61607aa7d8","E1","batch5","","null","<p class=block-text>Trial 26 out of 60</p>","null","spm_show_trial_num","","","","","","","","","","","","","","","","","","","","","","","","",""
"","","","","","image-button-response","240","632979","0.0-3.0-4.0-1.1","62911a82ead4bc61607aa7d8","E1","batch5","","6983.600000008941","img/question_3_2.jpeg","1","spm_respsonse","1","2","mat_26","","","","","","1","6983.600000008941","","","","","","","","","","","","","","",""
"","","","","","html-keyboard-response","241","634043","0.0-3.0-4.0-0.2","62911a82ead4bc61607aa7d8","E1","batch5","","null","<p class=block-text>Trial 27 out of 60</p>","null","spm_show_trial_num","","","","","","","","","","","","","","","","","","","","","","","","",""
"","","","","","image-button-response","242","646594","0.0-3.0-4.0-1.2","62911a82ead4bc61607aa7d8","E1","batch5","","12549.70000000298","img/question_3_3.jpeg","2","spm_respsonse","1","3","mat_27","","","","","","1","12549.70000000298","","","","","","","","","","","","","","",""
"","","","","","html-keyboard-response","243","647672","0.0-3.0-4.0-0.3","62911a82ead4bc61607aa7d8","E1","batch5","","null","<p class=block-text>Trial 28 out of 60</p>","null","spm_show_trial_num","","","","","","","","","","","","","","","","","","","","","","","","",""
"","","","","","image-button-response","244","733324","0.0-3.0-4.0-1.3","62911a82ead4bc61607aa7d8","E1","batch5","","85647.29999999702","img/question_3_4.jpeg","7","spm_respsonse","1","8","mat_28","","","","","","1","85647.29999999702","","","","","","","","","","","","","","",""
"","","","","","html-keyboard-response","245","734377","0.0-3.0-4.0-0.4","62911a82ead4bc61607aa7d8","E1","batch5","","null","<p class=block-text>Trial 29 out of 60</p>","null","spm_show_trial_num","","","","","","","","","","","","","","","","","","","","","","","","",""
"","","","","","image-button-response","246","739307","0.0-3.0-4.0-1.4","62911a82ead4bc61607aa7d8","E1","batch5","","4926.4000000059605","img/question_3_5.jpeg","6","spm_respsonse","1","7","mat_29","","","","","","1","4926.4000000059605","","","","","","","","","","","","","","",""
"","","","","","html-keyboard-response","247","740369","0.0-3.0-4.0-0.5","62911a82ead4bc61607aa7d8","E1","batch5","","null","<p class=block-text>Trial 30 out of 60</p>","null","spm_show_trial_num","","","","","","","","","","","","","","","","","","","","","","","","",""
"","","","","","image-button-response","248","744715","0.0-3.0-4.0-1.5","62911a82ead4bc61607aa7d8","E1","batch5","","4342.5","img/question_3_6.jpeg","3","spm_respsonse","1","4","mat_30","","","","","","1","4342.5","","","","","","","","","","","","","","",""
"","","","","","html-keyboard-response","249","745803","0.0-3.0-4.0-0.6","62911a82ead4bc61607aa7d8","E1","batch5","","null","<p class=block-text>Trial 31 out of 60</p>","null","spm_show_trial_num","","","","","","","","","","","","","","","","","","","","","","","","",""
"","","","","","image-button-response","250","753283","0.0-3.0-4.0-1.6","62911a82ead4bc61607aa7d8","E1","batch5","","7477","img/question_3_7.jpeg","4","spm_respsonse","1","5","mat_31","","","","","","1","7477","","","","","","","","","","","","","","",""
"","","","","","html-keyboard-response","251","754343","0.0-3.0-4.0-0.7","62911a82ead4bc61607aa7d8","E1","batch5","","null","<p class=block-text>Trial 32 out of 60</p>","null","spm_show_trial_num","","","","","","","","","","","","","","","","","","","","","","","","",""
"","","","","","image-button-response","252","758899","0.0-3.0-4.0-1.7","62911a82ead4bc61607aa7d8","E1","batch5","","4552.800000011921","img/question_3_8.jpeg","0","spm_respsonse","1","1","mat_32","","","","","","1","4552.800000011921","","","","","","","","","","","","","","",""
"","","","","","html-keyboard-response","253","759962","0.0-3.0-4.0-0.8","62911a82ead4bc61607aa7d8","E1","batch5","","null","<p class=block-text>Trial 33 out of 60</p>","null","spm_show_trial_num","","","","","","","","","","","","","","","","","","","","","","","","",""
"","","","","","image-button-response","254","765763","0.0-3.0-4.0-1.8","62911a82ead4bc61607aa7d8","E1","batch5","","5799","img/question_3_9.jpeg","6","spm_respsonse","1","7","mat_33","","","","","","1","5799","","","","","","","","","","","","","","",""
"","","","","","html-keyboard-response","255","766822","0.0-3.0-4.0-0.9","62911a82ead4bc61607aa7d8","E1","batch5","","null","<p class=block-text>Trial 34 out of 60</p>","null","spm_show_trial_num","","","","","","","","","","","","","","","","","","","","","","","","",""
"","","","","","image-button-response","256","788067","0.0-3.0-4.0-1.9","62911a82ead4bc61607aa7d8","E1","batch5","","21243.09999999404","img/question_3_10.jpeg","5","spm_respsonse","1","6","mat_34","","","","","","1","21243.09999999404","","","","","","","","","","","","","","",""
"","","","","","html-keyboard-response","257","789153","0.0-3.0-4.0-0.10","62911a82ead4bc61607aa7d8","E1","batch5","","null","<p class=block-text>Trial 35 out of 60</p>","null","spm_show_trial_num","","","","","","","","","","","","","","","","","","","","","","","","",""
"","","","","","image-button-response","258","800235","0.0-3.0-4.0-1.10","62911a82ead4bc61607aa7d8","E1","batch5","","11078.39999999106","img/question_3_11.jpeg","0","spm_respsonse","1","1","mat_35","","","","","","1","11078.39999999106","","","","","","","","","","","","","","",""
"","","","","","html-keyboard-response","259","801323","0.0-3.0-4.0-0.11","62911a82ead4bc61607aa7d8","E1","batch5","","null","<p class=block-text>Trial 36 out of 60</p>","null","spm_show_trial_num","","","","","","","","","","","","","","","","","","","","","","","","",""
"","","","","","image-button-response","260","819707","0.0-3.0-4.0-1.11","62911a82ead4bc61607aa7d8","E1","batch5","","18380.29999999702","img/question_3_12.jpeg","1","spm_respsonse","1","2","mat_36","","","","","","1","18380.29999999702","","","","","","","","","","","","","","",""
"","","","","","html-keyboard-response","261","820783","0.0-3.0-4.0-0.12","62911a82ead4bc61607aa7d8","E1","batch5","","null","<p class=block-text>Trial 37 out of 60</p>","null","spm_show_trial_num","","","","","","","","","","","","","","","","","","","","","","","","",""
"","","","","","image-button-response","262","824435","0.0-3.0-4.0-1.12","62911a82ead4bc61607aa7d8","E1","batch5","","3648","img/question_4_1.jpeg","2","spm_respsonse","1","3","mat_37","","","","","","1","3648","","","","","","","","","","","","","","",""
"","","","","","html-keyboard-response","263","825513","0.0-3.0-4.0-0.13","62911a82ead4bc61607aa7d8","E1","batch5","","null","<p class=block-text>Trial 38 out of 60</p>","null","spm_show_trial_num","","","","","","","","","","","","","","","","","","","","","","","","",""
"","","","","","image-button-response","264","836835","0.0-3.0-4.0-1.13","62911a82ead4bc61607aa7d8","E1","batch5","","11318.5","img/question_4_2.jpeg","3","spm_respsonse","1","4","mat_38","","","","","","1","11318.5","","","","","","","","","","","","","","",""
"","","","","","html-keyboard-response","265","837923","0.0-3.0-4.0-0.14","62911a82ead4bc61607aa7d8","E1","batch5","","null","<p class=block-text>Trial 39 out of 60</p>","null","spm_show_trial_num","","","","","","","","","","","","","","","","","","","","","","","","",""
"","","","","","image-button-response","266","844179","0.0-3.0-4.0-1.14","62911a82ead4bc61607aa7d8","E1","batch5","","6252.29999999702","img/question_4_3.jpeg","2","spm_respsonse","1","3","mat_39","","","","","","1","6252.29999999702","","","","","","","","","","","","","","",""
"","","","","","html-keyboard-response","267","845253","0.0-3.0-4.0-0.15","62911a82ead4bc61607aa7d8","E1","batch5","","null","<p class=block-text>Trial 40 out of 60</p>","null","spm_show_trial_num","","","","","","","","","","","","","","","","","","","","","","","","",""
"","","","","","image-button-response","268","857490","0.0-3.0-4.0-1.15","62911a82ead4bc61607aa7d8","E1","batch5","","12234.5","img/question_4_4.jpeg","6","spm_respsonse","1","7","mat_40","","","","","","1","12234.5","","","","","","","","","","","","","","",""
"","","","","","html-keyboard-response","269","858553","0.0-3.0-4.0-0.16","62911a82ead4bc61607aa7d8","E1","batch5","","null","<p class=block-text>Trial 41 out of 60</p>","null","spm_show_trial_num","","","","","","","","","","","","","","","","","","","","","","","","",""
"","","","","","image-button-response","270","869770","0.0-3.0-4.0-1.16","62911a82ead4bc61607aa7d8","E1","batch5","","11215.10000000894","img/question_4_5.jpeg","7","spm_respsonse","1","8","mat_41","","","","","","1","11215.10000000894","","","","","","","","","","","","","","",""
"","","","","","html-keyboard-response","271","870822","0.0-3.0-4.0-0.17","62911a82ead4bc61607aa7d8","E1","batch5","","null","<p class=block-text>Trial 42 out of 60</p>","null","spm_show_trial_num","","","","","","","","","","","","","","","","","","","","","","","","",""
"","","","","","image-button-response","272","886386","0.0-3.0-4.0-1.17","62911a82ead4bc61607aa7d8","E1","batch5","","15562.5","img/question_4_6.jpeg","5","spm_respsonse","1","6","mat_42","","","","","","1","15562.5","","","","","","","","","","","","","","",""
"","","","","","html-keyboard-response","273","887471","0.0-3.0-4.0-0.18","62911a82ead4bc61607aa7d8","E1","batch5","","null","<p class=block-text>Trial 43 out of 60</p>","null","spm_show_trial_num","","","","","","","","","","","","","","","","","","","","","","","","",""
"","","","","","image-button-response","274","897074","0.0-3.0-4.0-1.18","62911a82ead4bc61607aa7d8","E1","batch5","","9599.09999999404","img/question_4_7.jpeg","4","spm_respsonse","1","5","mat_43","","","","","","1","9599.09999999404","","","","","","","","","","","","","","",""
"","","","","","html-keyboard-response","275","898152","0.0-3.0-4.0-0.19","62911a82ead4bc61607aa7d8","E1","batch5","","null","<p class=block-text>Trial 44 out of 60</p>","null","spm_show_trial_num","","","","","","","","","","","","","","","","","","","","","","","","",""
"","","","","","image-button-response","276","903962","0.0-3.0-4.0-1.19","62911a82ead4bc61607aa7d8","E1","batch5","","5807","img/question_4_8.jpeg","3","spm_respsonse","1","4","mat_44","","","","","","1","5807","","","","","","","","","","","","","","",""
"","","","","","html-keyboard-response","277","905042","0.0-3.0-4.0-0.20","62911a82ead4bc61607aa7d8","E1","batch5","","null","<p class=block-text>Trial 45 out of 60</p>","null","spm_show_trial_num","","","","","","","","","","","","","","","","","","","","","","","","",""
"","","","","","image-button-response","278","917890","0.0-3.0-4.0-1.20","62911a82ead4bc61607aa7d8","E1","batch5","","12844.40000000596","img/question_4_9.jpeg","0","spm_respsonse","1","1","mat_45","","","","","","1","12844.40000000596","","","","","","","","","","","","","","",""
"","","","","","html-keyboard-response","279","918962","0.0-3.0-4.0-0.21","62911a82ead4bc61607aa7d8","E1","batch5","","null","<p class=block-text>Trial 46 out of 60</p>","null","spm_show_trial_num","","","","","","","","","","","","","","","","","","","","","","","","",""
"","","","","","image-button-response","280","945274","0.0-3.0-4.0-1.21","62911a82ead4bc61607aa7d8","E1","batch5","","26308.60000000894","img/question_4_10.jpeg","1","spm_respsonse","1","2","mat_46","","","","","","1","26308.60000000894","","","","","","","","","","","","","","",""
"","","","","","html-keyboard-response","281","946342","0.0-3.0-4.0-0.22","62911a82ead4bc61607aa7d8","E1","batch5","","null","<p class=block-text>Trial 47 out of 60</p>","null","spm_show_trial_num","","","","","","","","","","","","","","","","","","","","","","","","",""
"","","","","","image-button-response","282","978051","0.0-3.0-4.0-1.22","62911a82ead4bc61607aa7d8","E1","batch5","","31707.60000000894","img/question_4_11.jpeg","4","spm_respsonse","1","5","mat_47","","","","","","1","31707.60000000894","","","","","","","","","","","","","","",""
"","","","","","html-keyboard-response","283","979113","0.0-3.0-4.0-0.23","62911a82ead4bc61607aa7d8","E1","batch5","","null","<p class=block-text>Trial 48 out of 60</p>","null","spm_show_trial_num","","","","","","","","","","","","","","","","","","","","","","","","",""
"","","","","","image-button-response","284","998171","0.0-3.0-4.0-1.23","62911a82ead4bc61607aa7d8","E1","batch5","","19057.09999999404","img/question_4_12.jpeg","7","spm_respsonse","0","6","mat_48","","","","","","0","19057.09999999404","","","","","","","","","","","","","","",""
"","","","","","html-keyboard-response","285","999236","0.0-3.0-4.0-0.24","62911a82ead4bc61607aa7d8","E1","batch5","","null","<p class=block-text>Trial 49 out of 60</p>","null","spm_show_trial_num","","","","","","","","","","","","","","","","","","","","","","","","",""
"","","","","","image-button-response","286","1005467","0.0-3.0-4.0-1.24","62911a82ead4bc61607aa7d8","E1","batch5","","6227.899999991059","img/question_5_1.jpeg","6","spm_respsonse","1","7","mat_49","","","","","","1","6227.899999991059","","","","","","","","","","","","","","",""
"","","","","","html-keyboard-response","287","1006538","0.0-3.0-4.0-0.25","62911a82ead4bc61607aa7d8","E1","batch5","","null","<p class=block-text>Trial 50 out of 60</p>","null","spm_show_trial_num","","","","","","","","","","","","","","","","","","","","","","","","",""
"","","","","","image-button-response","288","1018027","0.0-3.0-4.0-1.25","62911a82ead4bc61607aa7d8","E1","batch5","","11486.5","img/question_5_2.jpeg","5","spm_respsonse","1","6","mat_50","","","","","","1","11486.5","","","","","","","","","","","","","","",""
"","","","","","html-keyboard-response","289","1019102","0.0-3.0-4.0-0.26","62911a82ead4bc61607aa7d8","E1","batch5","","null","<p class=block-text>Trial 51 out of 60</p>","null","spm_show_trial_num","","","","","","","","","","","","","","","","","","","","","","","","",""
"","","","","","image-button-response","290","1025379","0.0-3.0-4.0-1.26","62911a82ead4bc61607aa7d8","E1","batch5","","6275.0999999940395","img/question_5_3.jpeg","7","spm_respsonse","1","8","mat_51","","","","","","1","6275.0999999940395","","","","","","","","","","","","","","",""
"","","","","","html-keyboard-response","291","1026453","0.0-3.0-4.0-0.27","62911a82ead4bc61607aa7d8","E1","batch5","","null","<p class=block-text>Trial 52 out of 60</p>","null","spm_show_trial_num","","","","","","","","","","","","","","","","","","","","","","","","",""
"","","","","","image-button-response","292","1033595","0.0-3.0-4.0-1.27","62911a82ead4bc61607aa7d8","E1","batch5","","7138.5999999940395","img/question_5_4.jpeg","1","spm_respsonse","1","2","mat_52","","","","","","1","7138.5999999940395","","","","","","","","","","","","","","",""
"","","","","","html-keyboard-response","293","1034653","0.0-3.0-4.0-0.28","62911a82ead4bc61607aa7d8","E1","batch5","","null","<p class=block-text>Trial 53 out of 60</p>","null","spm_show_trial_num","","","","","","","","","","","","","","","","","","","","","","","","",""
"","","","","","image-button-response","294","1045243","0.0-3.0-4.0-1.28","62911a82ead4bc61607aa7d8","E1","batch5","","10586.29999999702","img/question_5_5.jpeg","0","spm_respsonse","1","1","mat_53","","","","","","1","10586.29999999702","","","","","","","","","","","","","","",""
"","","","","","html-keyboard-response","295","1046296","0.0-3.0-4.0-0.29","62911a82ead4bc61607aa7d8","E1","batch5","","null","<p class=block-text>Trial 54 out of 60</p>","null","spm_show_trial_num","","","","","","","","","","","","","","","","","","","","","","","","",""
"","","","","","image-button-response","296","1079171","0.0-3.0-4.0-1.29","62911a82ead4bc61607aa7d8","E1","batch5","","32873.30000001192","img/question_5_6.jpeg","4","spm_respsonse","1","5","mat_54","","","","","","1","32873.30000001192","","","","","","","","","","","","","","",""
"","","","","","html-keyboard-response","297","1080243","0.0-3.0-4.0-0.30","62911a82ead4bc61607aa7d8","E1","batch5","","null","<p class=block-text>Trial 55 out of 60</p>","null","spm_show_trial_num","","","","","","","","","","","","","","","","","","","","","","","","",""
"","","","","","image-button-response","298","1099547","0.0-3.0-4.0-1.30","62911a82ead4bc61607aa7d8","E1","batch5","","19302.80000001192","img/question_5_7.jpeg","0","spm_respsonse","1","1","mat_55","","","","","","1","19302.80000001192","","","","","","","","","","","","","","",""
"","","","","","html-keyboard-response","299","1100614","0.0-3.0-4.0-0.31","62911a82ead4bc61607aa7d8","E1","batch5","","null","<p class=block-text>Trial 56 out of 60</p>","null","spm_show_trial_num","","","","","","","","","","","","","","","","","","","","","","","","",""
"","","","","","image-button-response","300","1108387","0.0-3.0-4.0-1.31","62911a82ead4bc61607aa7d8","E1","batch5","","7769.5","img/question_5_8.jpeg","5","spm_respsonse","1","6","mat_56","","","","","","1","7769.5","","","","","","","","","","","","","","",""
"","","","","","html-keyboard-response","301","1109473","0.0-3.0-4.0-0.32","62911a82ead4bc61607aa7d8","E1","batch5","","null","<p class=block-text>Trial 57 out of 60</p>","null","spm_show_trial_num","","","","","","","","","","","","","","","","","","","","","","","","",""
"","","","","","image-button-response","302","1120483","0.0-3.0-4.0-1.32","62911a82ead4bc61607aa7d8","E1","batch5","","11006.59999999404","img/question_5_9.jpeg","2","spm_respsonse","1","3","mat_57","","","","","","1","11006.59999999404","","","","","","","","","","","","","","",""
"","","","","","html-keyboard-response","303","1121563","0.0-3.0-4.0-0.33","62911a82ead4bc61607aa7d8","E1","batch5","","null","<p class=block-text>Trial 58 out of 60</p>","null","spm_show_trial_num","","","","","","","","","","","","","","","","","","","","","","","","",""
"","","","","","image-button-response","304","1160691","0.0-3.0-4.0-1.33","62911a82ead4bc61607aa7d8","E1","batch5","","39124.39999999106","img/question_5_10.jpeg","4","spm_respsonse","0","2","mat_58","","","","","","0","39124.39999999106","","","","","","","","","","","","","","",""
"","","","","","html-keyboard-response","305","1161773","0.0-3.0-4.0-0.34","62911a82ead4bc61607aa7d8","E1","batch5","","null","<p class=block-text>Trial 59 out of 60</p>","null","spm_show_trial_num","","","","","","","","","","","","","","","","","","","","","","","","",""
"","","","","","image-button-response","306","1256003","0.0-3.0-4.0-1.34","62911a82ead4bc61607aa7d8","E1","batch5","","94228.29999999702","img/question_5_11.jpeg","7","spm_respsonse","0","4","mat_59","","","","","","0","94228.29999999702","","","","","","","","","","","","","","",""
"","","","","","html-keyboard-response","307","1257072","0.0-3.0-4.0-0.35","62911a82ead4bc61607aa7d8","E1","batch5","","null","<p class=block-text>Trial 60 out of 60</p>","null","spm_show_trial_num","","","","","","","","","","","","","","","","","","","","","","","","",""
"","","","","","image-button-response","308","1280955","0.0-3.0-4.0-1.35","62911a82ead4bc61607aa7d8","E1","batch5","","23881","img/question_5_12.jpeg","0","spm_respsonse","0","5","mat_60","","","","","","0","23881","","","","","","","","","","","","","","",""
"","","","","","html-button-response","309","1283003","0.0-3.0-5.0","62911a82ead4bc61607aa7d8","E1","batch5","","1789","<p class= block-text>This concludes the Standard Progressive Matrix game. Thank you for your responses!<br> When you are ready, click the button continue</p>","0","spm_goodbye","","","","","","","","","","","","","","","","","","","","","","","","",""
"true","","","","","fullscreen","310","1285582","0.0-4.0-0.0","62911a82ead4bc61607aa7d8","E1","batch5","","","","","","","","","","","","","","","","","","","","","","","","","","","","","",""
"","","","","","instructions","311","1327203","0.0-4.0-1.0-0.0-0.0","62911a82ead4bc61607aa7d8","E1","batch5","[{""page_index"":0,""viewing_time"":8474.29999999702},{""page_index"":1,""viewing_time"":4480},{""page_index"":2,""viewing_time"":2031.7000000029802},{""page_index"":3,""viewing_time"":6592.29999999702},{""page_index"":4,""viewing_time"":8416.10000000894},{""page_index"":5,""viewing_time"":9463.79999999702},{""page_index"":6,""viewing_time"":2160.2000000029802}]","41618.70000000298","","","tol-instructions","","","","","","","","","","","","","","","","","","","","","","","","",""
"","","","","","html-button-response","312","1328235","0.0-4.0-1.0-1.0-0.0","62911a82ead4bc61607aa7d8","E1","batch5","","1030.9000000059605","<p class=block-text> Let's answer a few questions <br>","0","tol_enter_quiz","","","","","","","","","","","","","","","","","","","","","","","","",""
"","","","","","html-button-response","313","1331939","0.0-4.0-1.0-1.0-1.0","62911a82ead4bc61607aa7d8","E1","batch5","","3703.2000000029802","<p class = block-text>True or False: You can only move the ball on top of a peg. <br></p>","0","tol_quiz","true","","","","","","","","","","","","","","","","","","","","","","","",""
"","","","","","html-button-response","314","1332883","0.0-4.0-1.0-1.0-2.0","62911a82ead4bc61607aa7d8","E1","batch5","","943.5999999940395","<p class = block-text>Correct! You can only move the ball on top of a peg.</p>","0","tol_quiz_feedback","","","","","","","","","","","","","","","","","","","","","","","","",""
"","","","","","html-button-response","315","1335395","0.0-4.0-1.0-1.0-3.0","62911a82ead4bc61607aa7d8","E1","batch5","","2511.1000000089407","<p class = block-text>True or False: You should try to match your board with the target board with fewest moves possible. <br></p>","0","tol_quiz","true","","","","","","","","","","","","","","","","","","","","","","","",""
"","","","","","html-button-response","316","1336083","0.0-4.0-1.0-1.0-4.0","62911a82ead4bc61607aa7d8","E1","batch5","","687.6999999880791","<p class = block-text>Correct! </p>","0","tol_quiz_feedback","","","","","","","","","","","","","","","","","","","","","","","","",""
"","","","","","html-button-response","317","1337147","0.0-4.0-2.0","62911a82ead4bc61607aa7d8","E1","batch5","","1062.5999999940395","<p class=block-text> Now that you've understood the game, let's practice a few easier examples before we start!<br> <br>","0","","","","","","","","","","","","","","","","","","","","","","","","","",""
"","","","","","single-stim-button","318","1344501","0.0-4.0-3.0-0.0","62911a82ead4bc61607aa7d8","E1","batch5","","7352","","","tol_practice","","","","","","","","","","","tol_peg_2","7352","7352","0","[[1,2,0],[0,0],[0]]","1","[[1,2,0],[0,0],[3]]","practice","7352","","","","","",""
"","","","","","single-stim-button","319","1345427","0.0-4.0-3.0-1.0","62911a82ead4bc61607aa7d8","E1","batch5","","926","","","tol_practice","","","","","","","","","","","tol_peg_3","926","926","0","[[1,2,0],[0,0],[3]]","1","[[1,2,0],[0,0],[3]]","practice","926","","","","","",""
"","","","","","poldrack-single-stim","320","1346429","0.0-4.0-4.0","62911a82ead4bc61607aa7d8","E1","batch5","","-1","","","tol_feedback","true","","","","","","","","","","","1000","1000","500","","","","","","-1","none","true","","0",""
"","","","","","single-stim-button","321","1351875","0.0-4.0-5.0-0.0","62911a82ead4bc61607aa7d8","E1","batch5","","5445","","","tol_practice","","","","","","","","","","","tol_peg_1","5445","5445","0","[[1,0,0],[3,0],[0]]","2","[[0,0,0],[3,1],[2]]","practice","5445","","","","","",""
"","","","","","single-stim-button","322","1352755","0.0-4.0-5.0-1.0","62911a82ead4bc61607aa7d8","E1","batch5","","879","","","tol_practice","","","","","","","","","","","tol_peg_3","879","879","0","[[1,0,0],[3,0],[2]]","2","[[0,0,0],[3,1],[2]]","practice","879","","","","","",""
"","","","","","single-stim-button","323","1353499","0.0-4.0-5.1-0.1","62911a82ead4bc61607aa7d8","E1","batch5","","744","","","tol_practice","","","","","","","","","","","tol_peg_1","744","744","0","[[0,0,0],[3,0],[2]]","3","[[0,0,0],[3,1],[2]]","practice","744","","","","","",""
"","","","","","single-stim-button","324","1354147","0.0-4.0-5.1-1.1","62911a82ead4bc61607aa7d8","E1","batch5","","647","","","tol_practice","","","","","","","","","","","tol_peg_2","647","647","0","[[0,0,0],[3,1],[2]]","3","[[0,0,0],[3,1],[2]]","practice","647","","","","","",""
"","","","","","poldrack-single-stim","325","1355164","0.0-4.0-6.0","62911a82ead4bc61607aa7d8","E1","batch5","","-1","","","tol_feedback","true","","","","","","","","","","","1000","1000","500","","","","","","-1","none","true","","0",""
"","","","","","single-stim-button","326","1358659","0.0-4.0-7.0-0.0","62911a82ead4bc61607aa7d8","E1","batch5","","3495","","","tol_practice","","","","","","","","","","","tol_peg_2","3495","3495","0","[[1,2,0],[0,0],[0]]","4","[[1,0,0],[2,0],[3]]","practice","3495","","","","","",""
"","","","","","single-stim-button","327","1359187","0.0-4.0-7.0-1.0","62911a82ead4bc61607aa7d8","E1","batch5","","527","","","tol_practice","","","","","","","","","","","tol_peg_3","527","527","0","[[1,2,0],[0,0],[3]]","4","[[1,0,0],[2,0],[3]]","practice","527","","","","","",""
"","","","","","single-stim-button","328","1360219","0.0-4.0-7.1-0.1","62911a82ead4bc61607aa7d8","E1","batch5","","1031","","","tol_practice","","","","","","","","","","","tol_peg_1","1031","1031","0","[[1,0,0],[0,0],[3]]","5","[[1,0,0],[2,0],[3]]","practice","1031","","","","","",""
"","","","","","single-stim-button","329","1360715","0.0-4.0-7.1-1.1","62911a82ead4bc61607aa7d8","E1","batch5","","495","","","tol_practice","","","","","","","","","","","tol_peg_2","495","495","0","[[1,0,0],[2,0],[3]]","5","[[1,0,0],[2,0],[3]]","practice","495","","","","","",""
"","","","","","poldrack-single-stim","330","1361733","0.0-4.0-8.0","62911a82ead4bc61607aa7d8","E1","batch5","","-1","","","tol_feedback","true","","","","","","","","","","","1000","1000","500","","","","","","-1","none","true","","0",""
"","","","","","html-button-response","331","1363339","0.0-4.0-9.0","62911a82ead4bc61607aa7d8","E1","batch5","","1604.9000000059605","<div class = centerbox><p class = center-block-text>Great job! You are done with practice trials<br>You are about to start official trials.<br> <br> Problem <strong>1</strong> out of 25 problems</p></div>","0","tol_instruction","","","","","","","","","","","","","","","","","","","","","","","","",""
"","","","","","single-stim-button","332","1368107","0.0-4.0-10.0-0.0","62911a82ead4bc61607aa7d8","E1","batch5","","3763","","","tol_tohand","","","","","","","","","","","tol_peg_1","3763","3763","0","[[1,0,0],[3,0],[0]]","1","[[1,3,0],[2,0],[0]]","0","0","","","","","","3"
"","","","","","single-stim-button","333","1368675","0.0-4.0-10.0-1.0","62911a82ead4bc61607aa7d8","E1","batch5","","567","","","tol_toboard","","","","","","","","","","","tol_peg_3","567","567","0","[[1,0,0],[3,0],[2]]","1","[[1,3,0],[2,0],[0]]","0","0","","","","","","3"
"","","","","","single-stim-button","334","1369187","0.0-4.0-10.1-0.1","62911a82ead4bc61607aa7d8","E1","batch5","","511","","","tol_tohand","","","","","","","","","","","tol_peg_2","511","511","0","[[1,0,0],[0,0],[2]]","2","[[1,3,0],[2,0],[0]]","0","0","","","","","","3"
"","","","","","single-stim-button","335","1369819","0.0-4.0-10.1-1.1","62911a82ead4bc61607aa7d8","E1","batch5","","632","","","tol_toboard","","","","","","","","","","","tol_peg_1","632","632","0","[[1,3,0],[0,0],[2]]","2","[[1,3,0],[2,0],[0]]","0","0","","","","","","3"
"","","","","","single-stim-button","336","1370307","0.0-4.0-10.2-0.2","62911a82ead4bc61607aa7d8","E1","batch5","","487","","","tol_tohand","","","","","","","","","","","tol_peg_3","487","487","0","[[1,3,0],[0,0],[0]]","3","[[1,3,0],[2,0],[0]]","0","0","","","","","","3"
"","","","","","single-stim-button","337","1370875","0.0-4.0-10.2-1.2","62911a82ead4bc61607aa7d8","E1","batch5","","567","","","tol_toboard","","","","","","","","","","","tol_peg_2","567","567","0","[[1,3,0],[2,0],[0]]","3","[[1,3,0],[2,0],[0]]","0","0","","","","","","3"
"","","","","","poldrack-single-stim","338","1371877","0.0-4.0-11.0","62911a82ead4bc61607aa7d8","E1","batch5","","-1","","","tol_feedback","true","","","","","","","","","","","1000","1000","500","","","","","","-1","none","true","3763","4761",""
"","","","","","html-button-response","339","1376051","0.0-4.0-12.0","62911a82ead4bc61607aa7d8","E1","batch5","","4173.899999991059","<div class = centerbox><p class = center-block-text>problem <strong>2</strong> out of 25 problems</p></div>","0","tol_trial_num","","","","","","","","","","","","","","","","","","","","","","","","",""
"","","","","","single-stim-button","340","1378267","0.0-4.0-13.0-0.0","62911a82ead4bc61607aa7d8","E1","batch5","","2215","","","tol_tohand","","","","","","","","","","","tol_peg_1","2215","2215","0","[[1,0,0],[3,0],[0]]","1","[[2,1,3],[0,0],[0]]","1","0","","","","","","5"
"","","","","","single-stim-button","341","1379211","0.0-4.0-13.0-1.0","62911a82ead4bc61607aa7d8","E1","batch5","","944","","","tol_toboard","","","","","","","","","","","tol_peg_3","944","944","0","[[1,0,0],[3,0],[2]]","1","[[2,1,3],[0,0],[0]]","1","0","","","","","","5"
"","","","","","single-stim-button","342","1381659","0.0-4.0-13.1-0.1","62911a82ead4bc61607aa7d8","E1","batch5","","2447","","","tol_tohand","","","","","","","","","","","tol_peg_1","2447","2447","0","[[0,0,0],[3,0],[2]]","2","[[2,1,3],[0,0],[0]]","1","0","","","","","","5"
"","","","","","single-stim-button","343","1382339","0.0-4.0-13.1-1.1","62911a82ead4bc61607aa7d8","E1","batch5","","679","","","tol_toboard","","","","","","","","","","","tol_peg_2","679","679","0","[[0,0,0],[3,1],[2]]","2","[[2,1,3],[0,0],[0]]","1","0","","","","","","5"
"","","","","","single-stim-button","344","1382771","0.0-4.0-13.2-0.2","62911a82ead4bc61607aa7d8","E1","batch5","","431","","","tol_tohand","","","","","","","","","","","tol_peg_3","431","431","0","[[0,0,0],[3,1],[0]]","3","[[2,1,3],[0,0],[0]]","1","0","","","","","","5"
"","","","","","single-stim-button","345","1383515","0.0-4.0-13.2-1.2","62911a82ead4bc61607aa7d8","E1","batch5","","744","","","tol_toboard","","","","","","","","","","","tol_peg_1","744","744","0","[[2,0,0],[3,1],[0]]","3","[[2,1,3],[0,0],[0]]","1","0","","","","","","5"
"","","","","","single-stim-button","346","1384387","0.0-4.0-13.3-0.3","62911a82ead4bc61607aa7d8","E1","batch5","","872","","","tol_tohand","","","","","","","","","","","tol_peg_2","872","872","0","[[2,0,0],[3,0],[0]]","4","[[2,1,3],[0,0],[0]]","1","0","","","","","","5"
