"success","timeout","failed_images","failed_audio","failed_video","trial_type","trial_index","time_elapsed","internal_node_id","subject_id","study_id","session_id","view_history","rt","stimulus","response","task","correct","answer","item","fiar_detect_rt","fiar_detect_correct","total_correct_fiar_detect","post_trial_gap","choices","spm_correct","spm_rt","mouse_click","stim_duration","block_duration","timing_post_trial","current_position","tol_num_moves_made","tol_target","tol_problem_id","tol_rt","key_press","possible_responses","tol_correct","preplanning","tol_rt_per_trial","tol_min_moves"
"true","false","[]","[]","[]","preload","0","10349","0.0-0.0","6291003fe4c10d24d42082dd","E1","batch5","","","","","","","","","","","","","","","","","","","","","","","","","","","","","",""
"true","","","","","fullscreen","1","105250","0.0-1.0-0.0","6291003fe4c10d24d42082dd","E1","batch5","","","","","","","","","","","","","","","","","","","","","","","","","","","","","",""
"true","","","","","fullscreen","2","152833","0.0-2.0-0.0","6291003fe4c10d24d42082dd","E1","batch5","","","","","","","","","","","","","","","","","","","","","","","","","","","","","",""
"","","","","","instructions","3","387670","0.0-2.0-1.0-0.0","6291003fe4c10d24d42082dd","E1","batch5","[{""page_index"":0,""viewing_time"":184307.59999999404},{""page_index"":1,""viewing_time"":12579.5},{""page_index"":0,""viewing_time"":1801.2999999970198},{""page_index"":1,""viewing_time"":36149}]","234837.70000000298","","","","","","","","","","","","","","","","","","","","","","","","","","","",""
"","","","","","html-button-response","4","388804","0.0-2.0-1.0-1.0-0.0","6291003fe4c10d24d42082dd","E1","batch5","","1132.699999988079","<p class=block-text> Let's answer a few questions <br>","0","pattern_enter_quiz","","","","","","","","","","","","","","","","","","","","","","","","",""
"","","","","","html-button-response","5","408857","0.0-2.0-1.0-1.0-1.0","6291003fe4c10d24d42082dd","E1","batch5","","20051.60000000894","<p class = block-text>True or False: You will have as much time as you want to make each choice. <br></p>","0","pattern_quiz","false","","","","","","","","","","","","","","","","","","","","","","","",""
"","","","","","html-button-response","6","411039","0.0-2.0-1.0-1.0-2.0","6291003fe4c10d24d42082dd","E1","batch5","","2179.2999999970198","<p class = block-text>Incorrect. Remember, You should make your choice as fast as you can.</p>","0","pattern_quiz_feedback","","","","","","","","","","","","","","","","","","","","","","","","",""
"","","","","","html-button-response","7","414822","0.0-2.0-1.0-1.0-3.0","6291003fe4c10d24d42082dd","E1","batch5","","3782.0999999940395","<p class = block-text>True or False: You will look for 4 pieces in black or white color connected in a row either horizontally, vertically or diagonally. <br></p>","0","pattern_quiz","true","","","","","","","","","","","","","","","","","","","","","","","",""
"","","","","","html-button-response","8","415671","0.0-2.0-1.0-1.0-4.0","6291003fe4c10d24d42082dd","E1","batch5","","847.6000000089407","<p class = block-text>Correct! </p>","0","pattern_quiz_feedback","","","","","","","","","","","","","","","","","","","","","","","","",""
"","","","","","html-button-response","9","417555","0.0-2.0-1.0-2.0-0.0","6291003fe4c10d24d42082dd","E1","batch5","","1881.2999999970198","<p class = block-text>You made too many incorrect choices.</p><p class = block-text>You will now repeat the instruction and quiz</p>","0","","","","","","","","","","","","","","","","","","","","","","","","","",""
"","","","","","instructions","10","419454","0.0-2.0-1.1-0.1","6291003fe4c10d24d42082dd","E1","batch5","[{""page_index"":0,""viewing_time"":1097.6000000089407},{""page_index"":1,""viewing_time"":799.5999999940395}]","1897.6000000089407","","","","","","","","","","","","","","","","","","","","","","","","","","","",""
"","","","","","html-button-response","11","420521","0.0-2.0-1.1-1.1-0.1","6291003fe4c10d24d42082dd","E1","batch5","","1065.7000000029802","<p class=block-text> Let's answer a few questions <br>","0","pattern_enter_quiz","","","","","","","","","","","","","","","","","","","","","","","","",""
"","","","","","html-button-response","12","422024","0.0-2.0-1.1-1.1-1.1","6291003fe4c10d24d42082dd","E1","batch5","","1501.5","<p class = block-text>True or False: You will have as much time as you want to make each choice. <br></p>","1","pattern_quiz","true","","","","","","","","","","","","","","","","","","","","","","","",""
"","","","","","html-button-response","13","423039","0.0-2.0-1.1-1.1-2.1","6291003fe4c10d24d42082dd","E1","batch5","","1013.6000000089407","<p class = block-text>Correct! You should make your choice <strong> as fast as you can</strong>.</p>","0","pattern_quiz_feedback","","","","","","","","","","","","","","","","","","","","","","","","",""
"","","","","","html-button-response","14","424623","0.0-2.0-1.1-1.1-3.1","6291003fe4c10d24d42082dd","E1","batch5","","1583.3999999910593","<p class = block-text>True or False: You will look for 4 pieces in black or white color connected in a row either horizontally, vertically or diagonally. <br></p>","0","pattern_quiz","true","","","","","","","","","","","","","","","","","","","","","","","",""
"","","","","","html-button-response","15","425290","0.0-2.0-1.1-1.1-4.1","6291003fe4c10d24d42082dd","E1","batch5","","665.2999999970198","<p class = block-text>Correct! </p>","0","pattern_quiz_feedback","","","","","","","","","","","","","","","","","","","","","","","","",""
"","","","","","html-button-response","16","427224","0.0-2.0-2.0","6291003fe4c10d24d42082dd","E1","batch5","","1932.2000000029802","<p class=block-text> Now that you've understood the game, let's do a few practice trials before we start!<br> <br>","0","pattern_enter_practice","","","","","","","","","","","","","","","","","","","","","","","","",""
"","","","","","image-keyboard-response","17","432795","0.0-2.0-3.0-0.0","6291003fe4c10d24d42082dd","E1","batch5","","5566.0999999940395","stim/prac_no_16_1.png","j","pattern_practice","true","j","","","","","","","","","","","","","","","","","","","","","","",""
"","","","","","html-keyboard-response","18","433810","0.0-2.0-3.0-1.0","6291003fe4c10d24d42082dd","E1","batch5","","null","<p style=""font-size:30px;color:green;"">Correct!</p>","null","pattern_feedback","","","","","","","","","","","","","","","","","","","","","","","","",""
"","","","","","image-keyboard-response","19","436130","0.0-2.0-3.0-0.1","6291003fe4c10d24d42082dd","E1","batch5","","2316.9000000059605","stim/prac_no_18_1.png","j","pattern_practice","true","j","","","","","","","","","","","","","","","","","","","","","","",""
"","","","","","html-keyboard-response","20","437142","0.0-2.0-3.0-1.1","6291003fe4c10d24d42082dd","E1","batch5","","null","<p style=""font-size:30px;color:green;"">Correct!</p>","null","pattern_feedback","","","","","","","","","","","","","","","","","","","","","","","","",""
"","","","","","image-keyboard-response","21","438105","0.0-2.0-3.0-0.2","6291003fe4c10d24d42082dd","E1","batch5","","959.7000000029802","stim/prac_yes_18_hor_w1.png","f","pattern_practice","true","f","","","","","","","","","","","","","","","","","","","","","","",""
"","","","","","html-keyboard-response","22","439118","0.0-2.0-3.0-1.2","6291003fe4c10d24d42082dd","E1","batch5","","null","<p style=""font-size:30px;color:green;"">Correct!</p>","null","pattern_feedback","","","","","","","","","","","","","","","","","","","","","","","","",""
"","","","","","image-keyboard-response","23","440025","0.0-2.0-3.0-0.3","6291003fe4c10d24d42082dd","E1","batch5","","904.9000000059605","stim/prac_yes_16_ver_w1.png","f","pattern_practice","true","f","","","","","","","","","","","","","","","","","","","","","","",""
"","","","","","html-keyboard-response","24","441046","0.0-2.0-3.0-1.3","6291003fe4c10d24d42082dd","E1","batch5","","null","<p style=""font-size:30px;color:green;"">Correct!</p>","null","pattern_feedback","","","","","","","","","","","","","","","","","","","","","","","","",""
"","","","","","image-keyboard-response","25","442334","0.0-2.0-3.0-0.4","6291003fe4c10d24d42082dd","E1","batch5","","1284.9000000059605","stim/prac_yes_20_dia_b1.png","f","pattern_practice","true","f","","","","","","","","","","","","","","","","","","","","","","",""
"","","","","","html-keyboard-response","26","443358","0.0-2.0-3.0-1.4","6291003fe4c10d24d42082dd","E1","batch5","","null","<p style=""font-size:30px;color:green;"">Correct!</p>","null","pattern_feedback","","","","","","","","","","","","","","","","","","","","","","","","",""
"","","","","","html-button-response","27","472386","0.0-2.0-4.0","6291003fe4c10d24d42082dd","E1","batch5","","29026.29999999702","<p class=block-text> Good job! You are done with practice trials!<br>
        You responded correctly on 100% of the trials.<br>
        Press the button below to start official trials. Now you won't see any feedback about your response</p>","0","pattern_enter_official_trials","","","","","","","","","","","","","","","","","","","","","","","","",""
"","","","","","html-keyboard-response","28","473197","0.0-2.0-5.0-0.0","6291003fe4c10d24d42082dd","E1","batch5","","null","<p class=block-text>Trial 1 out of 78</p>","null","pattern_show_trial_num","","","","","","","","","","","","","","","","","","","","","","","","",""
"","","","","","image-keyboard-response","29","476128","0.0-2.0-5.0-1.0","6291003fe4c10d24d42082dd","E1","batch5","","2927.3999999910593","stim/no_45_1_w.png","j","pattern_response","true","j","pattern_25","2927.3999999910593","true","1","","","","","","","","","","","","","","","","","","",""
"","","","","","html-keyboard-response","30","477446","0.0-2.0-5.0-0.1","6291003fe4c10d24d42082dd","E1","batch5","","null","<p class=block-text>Trial 2 out of 78</p>","null","pattern_show_trial_num","","","","","","","","","","","","","","","","","","","","","","","","",""
"","","","","","image-keyboard-response","31","478654","0.0-2.0-5.0-1.1","6291003fe4c10d24d42082dd","E1","batch5","","1205.9000000059605","stim/yes_37_hor_w1_w.png","f","pattern_response","true","f","pattern_60","1205.9000000059605","true","2","","","","","","","","","","","","","","","","","","",""
"","","","","","html-keyboard-response","32","479972","0.0-2.0-5.0-0.2","6291003fe4c10d24d42082dd","E1","batch5","","null","<p class=block-text>Trial 3 out of 78</p>","null","pattern_show_trial_num","","","","","","","","","","","","","","","","","","","","","","","","",""
"","","","","","image-keyboard-response","33","481466","0.0-2.0-5.0-1.2","6291003fe4c10d24d42082dd","E1","batch5","","1491.4000000059605","stim/yes_29_hor_b1_b.png","f","pattern_response","true","f","pattern_52","1491.4000000059605","true","3","","","","","","","","","","","","","","","","","","",""
"","","","","","html-keyboard-response","34","482782","0.0-2.0-5.0-0.3","6291003fe4c10d24d42082dd","E1","batch5","","null","<p class=block-text>Trial 4 out of 78</p>","null","pattern_show_trial_num","","","","","","","","","","","","","","","","","","","","","","","","",""
"","","","","","image-keyboard-response","35","485020","0.0-2.0-5.0-1.3","6291003fe4c10d24d42082dd","E1","batch5","","2235","stim/no_53_1_b.png","j","pattern_response","true","j","pattern_33","2235","true","4","","","","","","","","","","","","","","","","","","",""
"","","","","","html-keyboard-response","36","486331","0.0-2.0-5.0-0.4","6291003fe4c10d24d42082dd","E1","batch5","","null","<p class=block-text>Trial 5 out of 78</p>","null","pattern_show_trial_num","","","","","","","","","","","","","","","","","","","","","","","","",""
"","","","","","image-keyboard-response","37","487971","0.0-2.0-5.0-1.4","6291003fe4c10d24d42082dd","E1","batch5","","1638.2000000029802","stim/no_12_1.png","j","pattern_response","true","j","pattern_01","1638.2000000029802","true","5","","","","","","","","","","","","","","","","","","",""
"","","","","","html-keyboard-response","38","489283","0.0-2.0-5.0-0.5","6291003fe4c10d24d42082dd","E1","batch5","","null","<p class=block-text>Trial 6 out of 78</p>","null","pattern_show_trial_num","","","","","","","","","","","","","","","","","","","","","","","","",""
"","","","","","image-keyboard-response","39","491877","0.0-2.0-5.0-1.5","6291003fe4c10d24d42082dd","E1","batch5","","2590.9000000059605","stim/yes_51_dia_b1.png","f","pattern_response","true","f","pattern_72","2590.9000000059605","true","6","","","","","","","","","","","","","","","","","","",""
"","","","","","html-keyboard-response","40","493194","0.0-2.0-5.0-0.6","6291003fe4c10d24d42082dd","E1","batch5","","null","<p class=block-text>Trial 7 out of 78</p>","null","pattern_show_trial_num","","","","","","","","","","","","","","","","","","","","","","","","",""
"","","","","","image-keyboard-response","41","496403","0.0-2.0-5.0-1.6","6291003fe4c10d24d42082dd","E1","batch5","","3205.9000000059605","stim/yes_58_dia_w1_w.png","j","pattern_response","false","f","pattern_76","3205.9000000059605","false","6","","","","","","","","","","","","","","","","","","",""
"","","","","","html-keyboard-response","42","497717","0.0-2.0-5.0-0.7","6291003fe4c10d24d42082dd","E1","batch5","","null","<p class=block-text>Trial 8 out of 78</p>","null","pattern_show_trial_num","","","","","","","","","","","","","","","","","","","","","","","","",""
"","","","","","image-keyboard-response","43","500720","0.0-2.0-5.0-1.7","6291003fe4c10d24d42082dd","E1","batch5","","2999.2000000029802","stim/yes_42_dia_w1_w.png","f","pattern_response","true","f","pattern_64","2999.2000000029802","true","7","","","","","","","","","","","","","","","","","","",""
"","","","","","html-keyboard-response","44","502037","0.0-2.0-5.0-0.8","6291003fe4c10d24d42082dd","E1","batch5","","null","<p class=block-text>Trial 9 out of 78</p>","null","pattern_show_trial_num","","","","","","","","","","","","","","","","","","","","","","","","",""
"","","","","","image-keyboard-response","45","503022","0.0-2.0-5.0-1.8","6291003fe4c10d24d42082dd","E1","batch5","","981.5","stim/yes_12_hor_w1_w.png","f","pattern_response","true","f","pattern_42","981.5","true","8","","","","","","","","","","","","","","","","","","",""
"","","","","","html-keyboard-response","46","504341","0.0-2.0-5.0-0.9","6291003fe4c10d24d42082dd","E1","batch5","","null","<p class=block-text>Trial 10 out of 78</p>","null","pattern_show_trial_num","","","","","","","","","","","","","","","","","","","","","","","","",""
"","","","","","image-keyboard-response","47","507440","0.0-2.0-5.0-1.9","6291003fe4c10d24d42082dd","E1","batch5","","3096.2999999970198","stim/no_25_1_b.png","j","pattern_response","true","j","pattern_09","3096.2999999970198","true","9","","","","","","","","","","","","","","","","","","",""
"","","","","","html-keyboard-response","48","508757","0.0-2.0-5.0-0.10","6291003fe4c10d24d42082dd","E1","batch5","","null","<p class=block-text>Trial 11 out of 78</p>","null","pattern_show_trial_num","","","","","","","","","","","","","","","","","","","","","","","","",""
"","","","","","image-keyboard-response","49","512421","0.0-2.0-5.0-1.10","6291003fe4c10d24d42082dd","E1","batch5","","3660.2000000029802","stim/yes_46_ver_b1_b.png","j","pattern_response","false","f","pattern_68","3660.2000000029802","false","9","","","","","","","","","","","","","","","","","","",""
"","","","","","html-keyboard-response","50","513741","0.0-2.0-5.0-0.11","6291003fe4c10d24d42082dd","E1","batch5","","null","<p class=block-text>Trial 12 out of 78</p>","null","pattern_show_trial_num","","","","","","","","","","","","","","","","","","","","","","","","",""
"","","","","","image-keyboard-response","51","517398","0.0-2.0-5.0-1.11","6291003fe4c10d24d42082dd","E1","batch5","","3654","stim/no_36_1_b.png","j","pattern_response","true","j","pattern_17","3654","true","10","","","","","","","","","","","","","","","","","","",""
"","","","","","html-keyboard-response","52","518714","0.0-2.0-5.0-0.12","6291003fe4c10d24d42082dd","E1","batch5","","null","<p class=block-text>Trial 13 out of 78</p>","null","pattern_show_trial_num","","","","","","","","","","","","","","","","","","","","","","","","",""
"","","","","","image-keyboard-response","53","520055","0.0-2.0-5.0-1.12","6291003fe4c10d24d42082dd","E1","batch5","","1338.0999999940395","stim/yes_70_ver_b1.png","f","pattern_response","true","f","pattern_80","1338.0999999940395","true","11","","","","","","","","","","","","","","","","","","",""
"","","","","","html-keyboard-response","54","521373","0.0-2.0-5.0-0.13","6291003fe4c10d24d42082dd","E1","batch5","","null","<p class=block-text>Trial 14 out of 78</p>","null","pattern_show_trial_num","","","","","","","","","","","","","","","","","","","","","","","","",""
"","","","","","image-keyboard-response","55","526024","0.0-2.0-5.0-1.13","6291003fe4c10d24d42082dd","E1","batch5","","4649","stim/yes_63_dia_b1.png","j","pattern_response","false","f","pattern_78","4649","false","11","","","","","","","","","","","","","","","","","","",""
"","","","","","html-keyboard-response","56","527337","0.0-2.0-5.0-0.14","6291003fe4c10d24d42082dd","E1","batch5","","null","<p class=block-text>Trial 15 out of 78</p>","null","pattern_show_trial_num","","","","","","","","","","","","","","","","","","","","","","","","",""
"","","","","","image-keyboard-response","57","528310","0.0-2.0-5.0-1.14","6291003fe4c10d24d42082dd","E1","batch5","","969.5","stim/yes_17_ver_b1_b.png","f","pattern_response","true","f","pattern_46","969.5","true","12","","","","","","","","","","","","","","","","","","",""
"","","","","","html-keyboard-response","58","529625","0.0-2.0-5.0-0.15","6291003fe4c10d24d42082dd","E1","batch5","","null","<p class=block-text>Trial 16 out of 78</p>","null","pattern_show_trial_num","","","","","","","","","","","","","","","","","","","","","","","","",""
"","","","","","image-keyboard-response","59","534448","0.0-2.0-5.0-1.15","6291003fe4c10d24d42082dd","E1","batch5","","4820.5","stim/yes_44_ver_w1_w.png","j","pattern_response","false","f","pattern_66","4820.5","false","12","","","","","","","","","","","","","","","","","","",""
"","","","","","html-keyboard-response","60","535761","0.0-2.0-5.0-0.16","6291003fe4c10d24d42082dd","E1","batch5","","null","<p class=block-text>Trial 17 out of 78</p>","null","pattern_show_trial_num","","","","","","","","","","","","","","","","","","","","","","","","",""
"","","","","","image-keyboard-response","61","538452","0.0-2.0-5.0-1.16","6291003fe4c10d24d42082dd","E1","batch5","","2688","stim/no_30_1_b.png","j","pattern_response","true","j","pattern_13","2688","true","13","","","","","","","","","","","","","","","","","","",""
"","","","","","html-keyboard-response","62","539773","0.0-2.0-5.0-0.17","6291003fe4c10d24d42082dd","E1","batch5","","null","<p class=block-text>Trial 18 out of 78</p>","null","pattern_show_trial_num","","","","","","","","","","","","","","","","","","","","","","","","",""
"","","","","","image-keyboard-response","63","540907","0.0-2.0-5.0-1.17","6291003fe4c10d24d42082dd","E1","batch5","","1130.6000000089407","stim/yes_23_ver_b1.png","f","pattern_response","true","f","pattern_48","1130.6000000089407","true","14","","","","","","","","","","","","","","","","","","",""
"","","","","","html-keyboard-response","64","542221","0.0-2.0-5.0-0.18","6291003fe4c10d24d42082dd","E1","batch5","","null","<p class=block-text>Trial 19 out of 78</p>","null","pattern_show_trial_num","","","","","","","","","","","","","","","","","","","","","","","","",""
"","","","","","image-keyboard-response","65","545750","0.0-2.0-5.0-1.18","6291003fe4c10d24d42082dd","E1","batch5","","3526.9000000059605","stim/no_39_1_w.png","j","pattern_response","true","j","pattern_21","3526.9000000059605","true","15","","","","","","","","","","","","","","","","","","",""
"","","","","","html-keyboard-response","66","547069","0.0-2.0-5.0-0.19","6291003fe4c10d24d42082dd","E1","batch5","","null","<p class=block-text>Trial 20 out of 78</p>","null","pattern_show_trial_num","","","","","","","","","","","","","","","","","","","","","","","","",""
"","","","","","image-keyboard-response","67","548761","0.0-2.0-5.0-1.19","6291003fe4c10d24d42082dd","E1","batch5","","1689.2999999970198","stim/yes_49_hor_w1_b.png","f","pattern_response","true","f","pattern_70","1689.2999999970198","true","16","","","","","","","","","","","","","","","","","","",""
"","","","","","html-keyboard-response","68","550077","0.0-2.0-5.0-0.20","6291003fe4c10d24d42082dd","E1","batch5","","null","<p class=block-text>Trial 21 out of 78</p>","null","pattern_show_trial_num","","","","","","","","","","","","","","","","","","","","","","","","",""
"","","","","","image-keyboard-response","69","553459","0.0-2.0-5.0-1.20","6291003fe4c10d24d42082dd","E1","batch5","","3380","stim/no_33_1_b.png","j","pattern_response","true","j","pattern_15","3380","true","17","","","","","","","","","","","","","","","","","","",""
"","","","","","html-keyboard-response","70","554768","0.0-2.0-5.0-0.21","6291003fe4c10d24d42082dd","E1","batch5","","null","<p class=block-text>Trial 22 out of 78</p>","null","pattern_show_trial_num","","","","","","","","","","","","","","","","","","","","","","","","",""
"","","","","","image-keyboard-response","71","558566","0.0-2.0-5.0-1.21","6291003fe4c10d24d42082dd","E1","batch5","","3795","stim/no_37_2_w.png","j","pattern_response","true","j","pattern_19","3795","true","18","","","","","","","","","","","","","","","","","","",""
"","","","","","html-keyboard-response","72","559885","0.0-2.0-5.0-0.22","6291003fe4c10d24d42082dd","E1","batch5","","null","<p class=block-text>Trial 23 out of 78</p>","null","pattern_show_trial_num","","","","","","","","","","","","","","","","","","","","","","","","",""
"","","","","","image-keyboard-response","73","561696","0.0-2.0-5.0-1.22","6291003fe4c10d24d42082dd","E1","batch5","","1808.5","stim/no_15_1_w.png","j","pattern_response","true","j","pattern_03","1808.5","true","19","","","","","","","","","","","","","","","","","","",""
"","","","","","html-keyboard-response","74","563008","0.0-2.0-5.0-0.23","6291003fe4c10d24d42082dd","E1","batch5","","null","<p class=block-text>Trial 24 out of 78</p>","null","pattern_show_trial_num","","","","","","","","","","","","","","","","","","","","","","","","",""
"","","","","","image-keyboard-response","75","564104","0.0-2.0-5.0-1.23","6291003fe4c10d24d42082dd","E1","batch5","","1092.0999999940395","stim/yes_26_dia_w2_w.png","f","pattern_response","true","f","pattern_50","1092.0999999940395","true","20","","","","","","","","","","","","","","","","","","",""
"","","","","","html-keyboard-response","76","565421","0.0-2.0-5.0-0.24","6291003fe4c10d24d42082dd","E1","batch5","","null","<p class=block-text>Trial 25 out of 78</p>","null","pattern_show_trial_num","","","","","","","","","","","","","","","","","","","","","","","","",""
"","","","","","image-keyboard-response","77","571009","0.0-2.0-5.0-1.24","6291003fe4c10d24d42082dd","E1","batch5","","5586.20000000298","stim/no_58_1_w.png","j","pattern_response","true","j","pattern_35","5586.20000000298","true","21","","","","","","","","","","","","","","","","","","",""
"","","","","","html-keyboard-response","78","572325","0.0-2.0-5.0-0.25","6291003fe4c10d24d42082dd","E1","batch5","","null","<p class=block-text>Trial 26 out of 78</p>","null","pattern_show_trial_num","","","","","","","","","","","","","","","","","","","","","","","","",""
"","","","","","image-keyboard-response","79","575741","0.0-2.0-5.0-1.25","6291003fe4c10d24d42082dd","E1","batch5","","3413.7999999970198","stim/no_22_1_b.png","j","pattern_response","true","j","pattern_07","3413.7999999970198","true","22","","","","","","","","","","","","","","","","","","",""
"","","","","","html-keyboard-response","80","577060","0.0-2.0-5.0-0.26","6291003fe4c10d24d42082dd","E1","batch5","","null","<p class=block-text>Trial 27 out of 78</p>","null","pattern_show_trial_num","","","","","","","","","","","","","","","","","","","","","","","","",""
"","","","","","image-keyboard-response","81","579685","0.0-2.0-5.0-1.26","6291003fe4c10d24d42082dd","E1","batch5","","2621.5","stim/no_28_2.png","j","pattern_response","true","j","pattern_11","2621.5","true","23","","","","","","","","","","","","","","","","","","",""
"","","","","","html-keyboard-response","82","581002","0.0-2.0-5.0-0.27","6291003fe4c10d24d42082dd","E1","batch5","","null","<p class=block-text>Trial 28 out of 78</p>","null","pattern_show_trial_num","","","","","","","","","","","","","","","","","","","","","","","","",""
"","","","","","image-keyboard-response","83","588297","0.0-2.0-5.0-1.27","6291003fe4c10d24d42082dd","E1","batch5","","7281.399999991059","stim/yes_53_ver_b1_b.png","j","pattern_response","false","f","pattern_74","7281.399999991059","false","23","","","","","","","","","","","","","","","","","","",""
"","","","","","html-keyboard-response","84","589616","0.0-2.0-5.0-0.28","6291003fe4c10d24d42082dd","E1","batch5","","null","<p class=block-text>Trial 29 out of 78</p>","null","pattern_show_trial_num","","","","","","","","","","","","","","","","","","","","","","","","",""
"","","","","","image-keyboard-response","85","593353","0.0-2.0-5.0-1.28","6291003fe4c10d24d42082dd","E1","batch5","","3727.0999999940395","stim/no_47_1_b.png","j","pattern_response","true","j","pattern_27","3727.0999999940395","true","24","","","","","","","","","","","","","","","","","","",""
"","","","","","html-keyboard-response","86","594674","0.0-2.0-5.0-0.29","6291003fe4c10d24d42082dd","E1","batch5","","null","<p class=block-text>Trial 30 out of 78</p>","null","pattern_show_trial_num","","","","","","","","","","","","","","","","","","","","","","","","",""
"","","","","","image-keyboard-response","87","595907","0.0-2.0-5.0-1.29","6291003fe4c10d24d42082dd","E1","batch5","","1219.199999988079","stim/yes_33_dia_w1_w.png","f","pattern_response","true","f","pattern_56","1219.199999988079","true","25","","","","","","","","","","","","","","","","","","",""
"","","","","","html-keyboard-response","88","597222","0.0-2.0-5.0-0.30","6291003fe4c10d24d42082dd","E1","batch5","","null","<p class=block-text>Trial 31 out of 78</p>","null","pattern_show_trial_num","","","","","","","","","","","","","","","","","","","","","","","","",""
"","","","","","image-keyboard-response","89","600949","0.0-2.0-5.0-1.30","6291003fe4c10d24d42082dd","E1","batch5","","3720.5999999940395","stim/no_43_2_b.png","j","pattern_response","true","j","pattern_23","3720.5999999940395","true","26","","","","","","","","","","","","","","","","","","",""
"","","","","","html-keyboard-response","90","602262","0.0-2.0-5.0-0.31","6291003fe4c10d24d42082dd","E1","batch5","","null","<p class=block-text>Trial 32 out of 78</p>","null","pattern_show_trial_num","","","","","","","","","","","","","","","","","","","","","","","","",""
"","","","","","image-keyboard-response","91","604524","0.0-2.0-5.0-1.31","6291003fe4c10d24d42082dd","E1","batch5","","2257","stim/no_18_1_b.png","j","pattern_response","true","j","pattern_05","2257","true","27","","","","","","","","","","","","","","","","","","",""
"","","","","","html-keyboard-response","92","605843","0.0-2.0-5.0-0.32","6291003fe4c10d24d42082dd","E1","batch5","","null","<p class=block-text>Trial 33 out of 78</p>","null","pattern_show_trial_num","","","","","","","","","","","","","","","","","","","","","","","","",""
"","","","","","image-keyboard-response","93","606932","0.0-2.0-5.0-1.32","6291003fe4c10d24d42082dd","E1","batch5","","1084.8999999910593","stim/yes_15_dia_b1u_b.png","f","pattern_response","true","f","pattern_44","1084.8999999910593","true","28","","","","","","","","","","","","","","","","","","",""
"","","","","","html-keyboard-response","94","608246","0.0-2.0-5.0-0.33","6291003fe4c10d24d42082dd","E1","batch5","","null","<p class=block-text>Trial 34 out of 78</p>","null","pattern_show_trial_num","","","","","","","","","","","","","","","","","","","","","","","","",""
"","","","","","image-keyboard-response","95","609343","0.0-2.0-5.0-1.33","6291003fe4c10d24d42082dd","E1","batch5","","1094.699999988079","stim/yes_39_hor_w1_w.png","f","pattern_response","true","f","pattern_62","1094.699999988079","true","29","","","","","","","","","","","","","","","","","","",""
"","","","","","html-keyboard-response","96","610654","0.0-2.0-5.0-0.34","6291003fe4c10d24d42082dd","E1","batch5","","null","<p class=block-text>Trial 35 out of 78</p>","null","pattern_show_trial_num","","","","","","","","","","","","","","","","","","","","","","","","",""
"","","","","","image-keyboard-response","97","616758","0.0-2.0-5.0-1.34","6291003fe4c10d24d42082dd","E1","batch5","","6098.70000000298","stim/no_67_1.png","j","pattern_response","true","j","pattern_39","6098.70000000298","true","30","","","","","","","","","","","","","","","","","","",""
"","","","","","html-keyboard-response","98","618072","0.0-2.0-5.0-0.35","6291003fe4c10d24d42082dd","E1","batch5","","null","<p class=block-text>Trial 36 out of 78</p>","null","pattern_show_trial_num","","","","","","","","","","","","","","","","","","","","","","","","",""
"","","","","","image-keyboard-response","99","623447","0.0-2.0-5.0-1.35","6291003fe4c10d24d42082dd","E1","batch5","","5370.29999999702","stim/no_49_2_b.png","j","pattern_response","true","j","pattern_29","5370.29999999702","true","31","","","","","","","","","","","","","","","","","","",""
"","","","","","html-keyboard-response","100","624762","0.0-2.0-5.0-0.36","6291003fe4c10d24d42082dd","E1","batch5","","null","<p class=block-text>Trial 37 out of 78</p>","null","pattern_show_trial_num","","","","","","","","","","","","","","","","","","","","","","","","",""
"","","","","","image-keyboard-response","101","625635","0.0-2.0-5.0-1.36","6291003fe4c10d24d42082dd","E1","batch5","","870","stim/yes_36_ver_w1_w.png","f","pattern_response","true","f","pattern_58","870","true","32","","","","","","","","","","","","","","","","","","",""
"","","","","","html-keyboard-response","102","626950","0.0-2.0-5.0-0.37","6291003fe4c10d24d42082dd","E1","batch5","","null","<p class=block-text>Trial 38 out of 78</p>","null","pattern_show_trial_num","","","","","","","","","","","","","","","","","","","","","","","","",""
"","","","","","image-keyboard-response","103","627932","0.0-2.0-5.0-1.37","6291003fe4c10d24d42082dd","E1","batch5","","978.7000000029802","stim/yes_30_ver_b1_b.png","f","pattern_response","true","f","pattern_54","978.7000000029802","true","33","","","","","","","","","","","","","","","","","","",""
"","","","","","html-keyboard-response","104","629246","0.0-2.0-5.0-0.38","6291003fe4c10d24d42082dd","E1","batch5","","null","<p class=block-text>Trial 39 out of 78</p>","null","pattern_show_trial_num","","","","","","","","","","","","","","","","","","","","","","","","",""
"","","","","","image-keyboard-response","105","635128","0.0-2.0-5.0-1.38","6291003fe4c10d24d42082dd","E1","batch5","","5879","stim/no_51_1.png","j","pattern_response","true","j","pattern_31","5879","true","34","","","","","","","","","","","","","","","","","","",""
"","","","","","image-keyboard-response","106","639484","0.0-2.0-6.0","6291003fe4c10d24d42082dd","E1","batch5","","3842.6000000089407","stim/empty_board.png","j","attention_check","true","j","","","","","500","[""f"",""j""]","","","","","","","","","","","","","","","","",""
"","","","","","html-keyboard-response","107","640296","0.0-2.0-7.0-0.0","6291003fe4c10d24d42082dd","E1","batch5","","null","<p class=block-text>Trial 40 out of 78</p>","null","pattern_show_trial_num","","","","","","","","","","","","","","","","","","","","","","","","",""
"","","","","","image-keyboard-response","108","641617","0.0-2.0-7.0-1.0","6291003fe4c10d24d42082dd","E1","batch5","","1317","stim/yes_28_ver_b1.png","f","pattern_response","true","f","pattern_51","1317","true","35","","","","","","","","","","","","","","","","","","",""
"","","","","","html-keyboard-response","109","642936","0.0-2.0-7.0-0.1","6291003fe4c10d24d42082dd","E1","batch5","","null","<p class=block-text>Trial 41 out of 78</p>","null","pattern_show_trial_num","","","","","","","","","","","","","","","","","","","","","","","","",""
"","","","","","image-keyboard-response","110","644749","0.0-2.0-7.0-1.1","6291003fe4c10d24d42082dd","E1","batch5","","1810.2000000029802","stim/no_23_1.png","j","pattern_response","true","j","pattern_08","1810.2000000029802","true","36","","","","","","","","","","","","","","","","","","",""
"","","","","","html-keyboard-response","111","646061","0.0-2.0-7.0-0.2","6291003fe4c10d24d42082dd","E1","batch5","","null","<p class=block-text>Trial 42 out of 78</p>","null","pattern_show_trial_num","","","","","","","","","","","","","","","","","","","","","","","","",""
"","","","","","image-keyboard-response","112","650928","0.0-2.0-7.0-1.2","6291003fe4c10d24d42082dd","E1","batch5","","4864.20000000298","stim/yes_37_dia_w1.png","f","pattern_response","true","f","pattern_59","4864.20000000298","true","37","","","","","","","","","","","","","","","","","","",""
"","","","","","html-keyboard-response","113","652241","0.0-2.0-7.0-0.3","6291003fe4c10d24d42082dd","E1","batch5","","null","<p class=block-text>Trial 43 out of 78</p>","null","pattern_show_trial_num","","","","","","","","","","","","","","","","","","","","","","","","",""
"","","","","","image-keyboard-response","114","658438","0.0-2.0-7.0-1.3","6291003fe4c10d24d42082dd","E1","batch5","","6194.0999999940395","stim/no_50_1.png","j","pattern_response","true","j","pattern_30","6194.0999999940395","true","38","","","","","","","","","","","","","","","","","","",""
"","","","","","html-keyboard-response","115","659753","0.0-2.0-7.0-0.4","6291003fe4c10d24d42082dd","E1","batch5","","null","<p class=block-text>Trial 44 out of 78</p>","null","pattern_show_trial_num","","","","","","","","","","","","","","","","","","","","","","","","",""
"","","","","","image-keyboard-response","116","664433","0.0-2.0-7.0-1.4","6291003fe4c10d24d42082dd","E1","batch5","","4676.399999991059","stim/no_48_1_w.png","j","pattern_response","true","j","pattern_28","4676.399999991059","true","39","","","","","","","","","","","","","","","","","","",""
"","","","","","html-keyboard-response","117","665753","0.0-2.0-7.0-0.5","6291003fe4c10d24d42082dd","E1","batch5","","null","<p class=block-text>Trial 45 out of 78</p>","null","pattern_show_trial_num","","","","","","","","","","","","","","","","","","","","","","","","",""
"","","","","","image-keyboard-response","118","669134","0.0-2.0-7.0-1.5","6291003fe4c10d24d42082dd","E1","batch5","","3377.7000000029802","stim/yes_67_hor_b1.png","f","pattern_response","true","f","pattern_79","3377.7000000029802","true","40","","","","","","","","","","","","","","","","","","",""
"","","","","","html-keyboard-response","119","670448","0.0-2.0-7.0-0.6","6291003fe4c10d24d42082dd","E1","batch5","","null","<p class=block-text>Trial 46 out of 78</p>","null","pattern_show_trial_num","","","","","","","","","","","","","","","","","","","","","","","","",""
"","","","","","image-keyboard-response","120","677499","0.0-2.0-7.0-1.6","6291003fe4c10d24d42082dd","E1","batch5","","7047.399999991059","stim/no_65_1_b.png","j","pattern_response","true","j","pattern_38","7047.399999991059","true","41","","","","","","","","","","","","","","","","","","",""
"","","","","","html-keyboard-response","121","678814","0.0-2.0-7.0-0.7","6291003fe4c10d24d42082dd","E1","batch5","","null","<p class=block-text>Trial 47 out of 78</p>","null","pattern_show_trial_num","","","","","","","","","","","","","","","","","","","","","","","","",""
"","","","","","image-keyboard-response","122","681626","0.0-2.0-7.0-1.7","6291003fe4c10d24d42082dd","E1","batch5","","2808.5","stim/yes_31_hor_b1.png","f","pattern_response","true","f","pattern_55","2808.5","true","42","","","","","","","","","","","","","","","","","","",""
"","","","","","html-keyboard-response","123","682943","0.0-2.0-7.0-0.8","6291003fe4c10d24d42082dd","E1","batch5","","null","<p class=block-text>Trial 48 out of 78</p>","null","pattern_show_trial_num","","","","","","","","","","","","","","","","","","","","","","","","",""
"","","","","","image-keyboard-response","124","684728","0.0-2.0-7.0-1.8","6291003fe4c10d24d42082dd","E1","batch5","","1782.2999999970198","stim/yes_22_ver_w1.png","f","pattern_response","true","f","pattern_47","1782.2999999970198","true","43","","","","","","","","","","","","","","","","","","",""
"","","","","","html-keyboard-response","125","686031","0.0-2.0-7.0-0.9","6291003fe4c10d24d42082dd","E1","batch5","","null","<p class=block-text>Trial 49 out of 78</p>","null","pattern_show_trial_num","","","","","","","","","","","","","","","","","","","","","","","","",""
"","","","","","image-keyboard-response","126","687198","0.0-2.0-7.0-1.9","6291003fe4c10d24d42082dd","E1","batch5","","1163.8999999910593","stim/yes_14_hor_b1_w.png","f","pattern_response","true","f","pattern_43","1163.8999999910593","true","44","","","","","","","","","","","","","","","","","","",""
"","","","","","html-keyboard-response","127","688513","0.0-2.0-7.0-0.10","6291003fe4c10d24d42082dd","E1","batch5","","null","<p class=block-text>Trial 50 out of 78</p>","null","pattern_show_trial_num","","","","","","","","","","","","","","","","","","","","","","","","",""
"","","","","","image-keyboard-response","128","694862","0.0-2.0-7.0-1.10","6291003fe4c10d24d42082dd","E1","batch5","","6345.899999991059","stim/no_44_1.png","j","pattern_response","true","j","pattern_24","6345.899999991059","true","45","","","","","","","","","","","","","","","","","","",""
"","","","","","html-keyboard-response","129","696177","0.0-2.0-7.0-0.11","6291003fe4c10d24d42082dd","E1","batch5","","null","<p class=block-text>Trial 51 out of 78</p>","null","pattern_show_trial_num","","","","","","","","","","","","","","","","","","","","","","","","",""
"","","","","","image-keyboard-response","130","698235","0.0-2.0-7.0-1.11","6291003fe4c10d24d42082dd","E1","batch5","","2054.2999999970198","stim/yes_52_ver_w1.png","f","pattern_response","true","f","pattern_73","2054.2999999970198","true","46","","","","","","","","","","","","","","","","","","",""
"","","","","","html-keyboard-response","131","699553","0.0-2.0-7.0-0.12","6291003fe4c10d24d42082dd","E1","batch5","","null","<p class=block-text>Trial 52 out of 78</p>","null","pattern_show_trial_num","","","","","","","","","","","","","","","","","","","","","","","","",""
"","","","","","image-keyboard-response","132","702350","0.0-2.0-7.0-1.12","6291003fe4c10d24d42082dd","E1","batch5","","2793.7000000029802","stim/no_32_1_w.png","j","pattern_response","true","j","pattern_14","2793.7000000029802","true","47","","","","","","","","","","","","","","","","","","",""
"","","","","","html-keyboard-response","133","703665","0.0-2.0-7.0-0.13","6291003fe4c10d24d42082dd","E1","batch5","","null","<p class=block-text>Trial 53 out of 78</p>","null","pattern_show_trial_num","","","","","","","","","","","","","","","","","","","","","","","","",""
"","","","","","image-keyboard-response","134","706077","0.0-2.0-7.0-1.13","6291003fe4c10d24d42082dd","E1","batch5","","2408.7000000029802","stim/no_17_1_w.png","j","pattern_response","true","j","pattern_04","2408.7000000029802","true","48","","","","","","","","","","","","","","","","","","",""
"","","","","","html-keyboard-response","135","707391","0.0-2.0-7.0-0.14","6291003fe4c10d24d42082dd","E1","batch5","","null","<p class=block-text>Trial 54 out of 78</p>","null","pattern_show_trial_num","","","","","","","","","","","","","","","","","","","","","","","","",""
"","","","","","image-keyboard-response","136","709323","0.0-2.0-7.0-1.14","6291003fe4c10d24d42082dd","E1","batch5","","1928.5999999940395","stim/yes_60_ver_b1_b.png","f","pattern_response","true","f","pattern_77","1928.5999999940395","true","49","","","","","","","","","","","","","","","","","","",""
"","","","","","html-keyboard-response","137","710641","0.0-2.0-7.0-0.15","6291003fe4c10d24d42082dd","E1","batch5","","null","<p class=block-text>Trial 55 out of 78</p>","null","pattern_show_trial_num","","","","","","","","","","","","","","","","","","","","","","","","",""
"","","","","","image-keyboard-response","138","716067","0.0-2.0-7.0-1.15","6291003fe4c10d24d42082dd","E1","batch5","","5423.399999991059","stim/no_42_1_w.png","j","pattern_response","true","j","pattern_22","5423.399999991059","true","50","","","","","","","","","","","","","","","","","","",""
"","","","","","html-keyboard-response","139","717385","0.0-2.0-7.0-0.16","6291003fe4c10d24d42082dd","E1","batch5","","null","<p class=block-text>Trial 56 out of 78</p>","null","pattern_show_trial_num","","","","","","","","","","","","","","","","","","","","","","","","",""
"","","","","","image-keyboard-response","140","719900","0.0-2.0-7.0-1.16","6291003fe4c10d24d42082dd","E1","batch5","","2511","stim/no_13_2_b.png","j","pattern_response","true","j","pattern_02","2511","true","51","","","","","","","","","","","","","","","","","","",""
"","","","","","html-keyboard-response","141","721215","0.0-2.0-7.0-0.17","6291003fe4c10d24d42082dd","E1","batch5","","null","<p class=block-text>Trial 57 out of 78</p>","null","pattern_show_trial_num","","","","","","","","","","","","","","","","","","","","","","","","",""
"","","","","","image-keyboard-response","142","726854","0.0-2.0-7.0-1.17","6291003fe4c10d24d42082dd","E1","batch5","","5627.20000000298","stim/no_52_1.png","j","pattern_response","true","j","pattern_32","5627.20000000298","true","52","","","","","","","","","","","","","","","","","","",""
"","","","","","html-keyboard-response","143","728169","0.0-2.0-7.0-0.18","6291003fe4c10d24d42082dd","E1","batch5","","null","<p class=block-text>Trial 58 out of 78</p>","null","pattern_show_trial_num","","","","","","","","","","","","","","","","","","","","","","","","",""
"","","","","","image-keyboard-response","144","730084","0.0-2.0-7.0-1.18","6291003fe4c10d24d42082dd","E1","batch5","","1911.6000000089407","stim/yes_43_ver_w1_w.png","f","pattern_response","true","f","pattern_65","1911.6000000089407","true","53","","","","","","","","","","","","","","","","","","",""
"","","","","","html-keyboard-response","145","731401","0.0-2.0-7.0-0.19","6291003fe4c10d24d42082dd","E1","batch5","","null","<p class=block-text>Trial 59 out of 78</p>","null","pattern_show_trial_num","","","","","","","","","","","","","","","","","","","","","","","","",""
"","","","","","image-keyboard-response","146","734558","0.0-2.0-7.0-1.19","6291003fe4c10d24d42082dd","E1","batch5","","3155.2000000029802","stim/no_29_1_b.png","j","pattern_response","true","j","pattern_12","3155.2000000029802","true","54","","","","","","","","","","","","","","","","","","",""
"","","","","","html-keyboard-response","147","735869","0.0-2.0-7.0-0.20","6291003fe4c10d24d42082dd","E1","batch5","","null","<p class=block-text>Trial 60 out of 78</p>","null","pattern_show_trial_num","","","","","","","","","","","","","","","","","","","","","","","","",""
"","","","","","image-keyboard-response","148","736895","0.0-2.0-7.0-1.20","6291003fe4c10d24d42082dd","E1","batch5","","1022.5999999940395","stim/yes_17_dia_w1.png","f","pattern_response","true","f","pattern_45","1022.5999999940395","true","55","","","","","","","","","","","","","","","","","","",""
"","","","","","html-keyboard-response","149","738210","0.0-2.0-7.0-0.21","6291003fe4c10d24d42082dd","E1","batch5","","null","<p class=block-text>Trial 61 out of 78</p>","null","pattern_show_trial_num","","","","","","","","","","","","","","","","","","","","","","","","",""
"","","","","","image-keyboard-response","150","743944","0.0-2.0-7.0-1.21","6291003fe4c10d24d42082dd","E1","batch5","","5732.29999999702","stim/no_62_1_w.png","j","pattern_response","true","j","pattern_36","5732.29999999702","true","56","","","","","","","","","","","","","","","","","","",""
"","","","","","html-keyboard-response","151","745258","0.0-2.0-7.0-0.22","6291003fe4c10d24d42082dd","E1","batch5","","null","<p class=block-text>Trial 62 out of 78</p>","null","pattern_show_trial_num","","","","","","","","","","","","","","","","","","","","","","","","",""
"","","","","","image-keyboard-response","152","746667","0.0-2.0-7.0-1.22","6291003fe4c10d24d42082dd","E1","batch5","","1405.9000000059605","stim/yes_25_hor_b1_b.png","f","pattern_response","true","f","pattern_49","1405.9000000059605","true","57","","","","","","","","","","","","","","","","","","",""
"","","","","","html-keyboard-response","153","747982","0.0-2.0-7.0-0.23","6291003fe4c10d24d42082dd","E1","batch5","","null","<p class=block-text>Trial 63 out of 78</p>","null","pattern_show_trial_num","","","","","","","","","","","","","","","","","","","","","","","","",""
"","","","","","image-keyboard-response","154","751924","0.0-2.0-7.0-1.23","6291003fe4c10d24d42082dd","E1","batch5","","3939.2999999970198","stim/yes_50_dia_w1.png","j","pattern_response","false","f","pattern_71","3939.2999999970198","false","57","","","","","","","","","","","","","","","","","","",""
"","","","","","html-keyboard-response","155","753237","0.0-2.0-7.0-0.24","6291003fe4c10d24d42082dd","E1","batch5","","null","<p class=block-text>Trial 64 out of 78</p>","null","pattern_show_trial_num","","","","","","","","","","","","","","","","","","","","","","","","",""
"","","","","","image-keyboard-response","156","754640","0.0-2.0-7.0-1.24","6291003fe4c10d24d42082dd","E1","batch5","","1400.3999999910593","stim/yes_38_hor_b1_b.png","f","pattern_response","true","f","pattern_61","1400.3999999910593","true","58","","","","","","","","","","","","","","","","","","",""
"","","","","","html-keyboard-response","157","755960","0.0-2.0-7.0-0.25","6291003fe4c10d24d42082dd","E1","batch5","","null","<p class=block-text>Trial 65 out of 78</p>","null","pattern_show_trial_num","","","","","","","","","","","","","","","","","","","","","","","","",""
"","","","","","image-keyboard-response","158","758655","0.0-2.0-7.0-1.25","6291003fe4c10d24d42082dd","E1","batch5","","2692.1000000089407","stim/no_38_1_b.png","j","pattern_response","true","j","pattern_20","2692.1000000089407","true","59","","","","","","","","","","","","","","","","","","",""
"","","","","","html-keyboard-response","159","759969","0.0-2.0-7.0-0.26","6291003fe4c10d24d42082dd","E1","batch5","","null","<p class=block-text>Trial 66 out of 78</p>","null","pattern_show_trial_num","","","","","","","","","","","","","","","","","","","","","","","","",""
"","","","","","image-keyboard-response","160","761631","0.0-2.0-7.0-1.26","6291003fe4c10d24d42082dd","E1","batch5","","1659.0999999940395","stim/yes_45_hor_b2_b.png","f","pattern_response","true","f","pattern_67","1659.0999999940395","true","60","","","","","","","","","","","","","","","","","","",""
"","","","","","html-keyboard-response","161","762943","0.0-2.0-7.0-0.27","6291003fe4c10d24d42082dd","E1","batch5","","null","<p class=block-text>Trial 67 out of 78</p>","null","pattern_show_trial_num","","","","","","","","","","","","","","","","","","","","","","","","",""
"","","","","","image-keyboard-response","162","769899","0.0-2.0-7.0-1.27","6291003fe4c10d24d42082dd","E1","batch5","","6953.20000000298","stim/no_70_2.png","j","pattern_response","true","j","pattern_40","6953.20000000298","true","61","","","","","","","","","","","","","","","","","","",""
"","","","","","html-keyboard-response","163","771217","0.0-2.0-7.0-0.28","6291003fe4c10d24d42082dd","E1","batch5","","null","<p class=block-text>Trial 68 out of 78</p>","null","pattern_show_trial_num","","","","","","","","","","","","","","","","","","","","","","","","",""
"","","","","","image-keyboard-response","164","772534","0.0-2.0-7.0-1.28","6291003fe4c10d24d42082dd","E1","batch5","","1313.9000000059605","stim/yes_29_ver_w1.png","f","pattern_response","true","f","pattern_53","1313.9000000059605","true","62","","","","","","","","","","","","","","","","","","",""
"","","","","","html-keyboard-response","165","773848","0.0-2.0-7.0-0.29","6291003fe4c10d24d42082dd","E1","batch5","","null","<p class=block-text>Trial 69 out of 78</p>","null","pattern_show_trial_num","","","","","","","","","","","","","","","","","","","","","","","","",""
"","","","","","image-keyboard-response","166","775849","0.0-2.0-7.0-1.29","6291003fe4c10d24d42082dd","E1","batch5","","1997.8999999910593","stim/no_26_1_w.png","j","pattern_response","true","j","pattern_10","1997.8999999910593","true","63","","","","","","","","","","","","","","","","","","",""
"","","","","","html-keyboard-response","167","777167","0.0-2.0-7.0-0.30","6291003fe4c10d24d42082dd","E1","batch5","","null","<p class=block-text>Trial 70 out of 78</p>","null","pattern_show_trial_num","","","","","","","","","","","","","","","","","","","","","","","","",""
"","","","","","image-keyboard-response","168","779448","0.0-2.0-7.0-1.30","6291003fe4c10d24d42082dd","E1","batch5","","2278.5","stim/yes_40_dia_b1_b.png","f","pattern_response","true","f","pattern_63","2278.5","true","64","","","","","","","","","","","","","","","","","","",""
"","","","","","html-keyboard-response","169","780758","0.0-2.0-7.0-0.31","6291003fe4c10d24d42082dd","E1","batch5","","null","<p class=block-text>Trial 71 out of 78</p>","null","pattern_show_trial_num","","","","","","","","","","","","","","","","","","","","","","","","",""
"","","","","","image-keyboard-response","170","783666","0.0-2.0-7.0-1.31","6291003fe4c10d24d42082dd","E1","batch5","","2905.7000000029802","stim/no_46_1_b.png","j","pattern_response","true","j","pattern_26","2905.7000000029802","true","65","","","","","","","","","","","","","","","","","","",""
"","","","","","html-keyboard-response","171","784986","0.0-2.0-7.0-0.32","6291003fe4c10d24d42082dd","E1","batch5","","null","<p class=block-text>Trial 72 out of 78</p>","null","pattern_show_trial_num","","","","","","","","","","","","","","","","","","","","","","","","",""
"","","","","","image-keyboard-response","172","788768","0.0-2.0-7.0-1.32","6291003fe4c10d24d42082dd","E1","batch5","","3779.3999999910593","stim/no_36_2_w.png","j","pattern_response","true","j","pattern_18","3779.3999999910593","true","66","","","","","","","","","","","","","","","","","","",""
"","","","","","html-keyboard-response","173","790079","0.0-2.0-7.0-0.33","6291003fe4c10d24d42082dd","E1","batch5","","null","<p class=block-text>Trial 73 out of 78</p>","null","pattern_show_trial_num","","","","","","","","","","","","","","","","","","","","","","","","",""
"","","","","","image-keyboard-response","174","791982","0.0-2.0-7.0-1.33","6291003fe4c10d24d42082dd","E1","batch5","","1899.7999999970198","stim/no_20_1_w.png","j","pattern_response","true","j","pattern_06","1899.7999999970198","true","67","","","","","","","","","","","","","","","","","","",""
"","","","","","html-keyboard-response","175","793296","0.0-2.0-7.0-0.34","6291003fe4c10d24d42082dd","E1","batch5","","null","<p class=block-text>Trial 74 out of 78</p>","null","pattern_show_trial_num","","","","","","","","","","","","","","","","","","","","","","","","",""
"","","","","","image-keyboard-response","176","795948","0.0-2.0-7.0-1.34","6291003fe4c10d24d42082dd","E1","batch5","","2650.2999999970198","stim/yes_48_dia_w1_w.png","f","pattern_response","true","f","pattern_69","2650.2999999970198","true","68","","","","","","","","","","","","","","","","","","",""
"","","","","","html-keyboard-response","177","797265","0.0-2.0-7.0-0.35","6291003fe4c10d24d42082dd","E1","batch5","","null","<p class=block-text>Trial 75 out of 78</p>","null","pattern_show_trial_num","","","","","","","","","","","","","","","","","","","","","","","","",""
"","","","","","image-keyboard-response","178","800824","0.0-2.0-7.0-1.35","6291003fe4c10d24d42082dd","E1","batch5","","3555.5999999940395","stim/no_34_1_b.png","j","pattern_response","true","j","pattern_16","3555.5999999940395","true","69","","","","","","","","","","","","","","","","","","",""
"","","","","","html-keyboard-response","179","802137","0.0-2.0-7.0-0.36","6291003fe4c10d24d42082dd","E1","batch5","","null","<p class=block-text>Trial 76 out of 78</p>","null","pattern_show_trial_num","","","","","","","","","","","","","","","","","","","","","","","","",""
"","","","","","image-keyboard-response","180","803303","0.0-2.0-7.0-1.36","6291003fe4c10d24d42082dd","E1","batch5","","1162.2999999970198","stim/yes_55_hor_w1_w.png","f","pattern_response","true","f","pattern_75","1162.2999999970198","true","70","","","","","","","","","","","","","","","","","","",""
"","","","","","html-keyboard-response","181","804618","0.0-2.0-7.0-0.37","6291003fe4c10d24d42082dd","E1","batch5","","null","<p class=block-text>Trial 77 out of 78</p>","null","pattern_show_trial_num","","","","","","","","","","","","","","","","","","","","","","","","",""
"","","","","","image-keyboard-response","182","808611","0.0-2.0-7.0-1.37","6291003fe4c10d24d42082dd","E1","batch5","","3991.199999988079","stim/no_55_1_w.png","j","pattern_response","true","j","pattern_34","3991.199999988079","true","71","","","","","","","","","","","","","","","","","","",""
"","","","","","html-keyboard-response","183","809927","0.0-2.0-7.0-0.38","6291003fe4c10d24d42082dd","E1","batch5","","null","<p class=block-text>Trial 78 out of 78</p>","null","pattern_show_trial_num","","","","","","","","","","","","","","","","","","","","","","","","",""
"","","","","","image-keyboard-response","184","812034","0.0-2.0-7.0-1.38","6291003fe4c10d24d42082dd","E1","batch5","","2104.0999999940395","stim/yes_35_dia_b1.png","f","pattern_response","true","f","pattern_57","2104.0999999940395","true","72","","","","","","","","","","","","","","","","","","",""
"","","","","","html-button-response","185","817466","0.0-2.0-8.0","6291003fe4c10d24d42082dd","E1","batch5","","4921.399999991059","<p class = block-text>This concludes the 4-in-a-row detection game.Thank you for your responses!<br>
            You responded correctly on 92% of the trials.<br>
            When you are ready, press ""Continue"" button to continue </p>","0","","","","","","","","","","","","","","","","","","","","","","","","","",""
"true","","","","","fullscreen","186","821943","0.0-3.0-0.0","6291003fe4c10d24d42082dd","E1","batch5","","","","","spm_fullscreen","","","","","","","","","","","","","","","","","","","","","","","","",""
"","","","","","html-button-response","187","871399","0.0-3.0-1.0","6291003fe4c10d24d42082dd","E1","batch5","","49453.70000000298","<p class = block-text><b>Instructions</b> <br>This is a widely used intelligence test in research. <br>In this test, a figure with a missing piece will be presented.<br>Below the figure are alternative pieces to complete the figure, only one of which is correct.<br> Different figures might involve different principles for obtaining the missing piece<br>Your job is to select the most logical piece to complete the figure.</p>","0","","","","","","","","","","","","","","","","","","","","","","","","","",""
"","","","","","html-keyboard-response","188","872210","0.0-3.0-2.0-0.0","6291003fe4c10d24d42082dd","E1","batch5","","null","<p class=block-text>Trial 1 out of 60</p>","null","spm_show_trial_num","","","","","","","","","","","","","","","","","","","","","","","","",""
"","","","","","image-button-response","189","884984","0.0-3.0-2.0-1.0","6291003fe4c10d24d42082dd","E1","batch5","","12769.89999999106","img/question_1_1.jpeg","3","spm_respsonse","1","4","mat_01","","","","","","1","12769.89999999106","","","","","","","","","","","","","","",""
"","","","","","html-keyboard-response","190","886048","0.0-3.0-2.0-0.1","6291003fe4c10d24d42082dd","E1","batch5","","null","<p class=block-text>Trial 2 out of 60</p>","null","spm_show_trial_num","","","","","","","","","","","","","","","","","","","","","","","","",""
"","","","","","image-button-response","191","890753","0.0-3.0-2.0-1.1","6291003fe4c10d24d42082dd","E1","batch5","","4701","img/question_1_2.jpeg","4","spm_respsonse","1","5","mat_02","","","","","","1","4701","","","","","","","","","","","","","","",""
"","","","","","html-keyboard-response","192","891814","0.0-3.0-2.0-0.2","6291003fe4c10d24d42082dd","E1","batch5","","null","<p class=block-text>Trial 3 out of 60</p>","null","spm_show_trial_num","","","","","","","","","","","","","","","","","","","","","","","","",""
"","","","","","image-button-response","193","894584","0.0-3.0-2.0-1.2","6291003fe4c10d24d42082dd","E1","batch5","","2766.4000000059605","img/question_1_3.jpeg","0","spm_respsonse","1","1","mat_03","","","","","","1","2766.4000000059605","","","","","","","","","","","","","","",""
"","","","","","html-keyboard-response","194","895648","0.0-3.0-2.0-0.3","6291003fe4c10d24d42082dd","E1","batch5","","null","<p class=block-text>Trial 4 out of 60</p>","null","spm_show_trial_num","","","","","","","","","","","","","","","","","","","","","","","","",""
"","","","","","image-button-response","195","900768","0.0-3.0-2.0-1.3","6291003fe4c10d24d42082dd","E1","batch5","","5115.600000008941","img/question_1_4.jpeg","1","spm_respsonse","1","2","mat_04","","","","","","1","5115.600000008941","","","","","","","","","","","","","","",""
"","","","","","html-keyboard-response","196","901834","0.0-3.0-2.0-0.4","6291003fe4c10d24d42082dd","E1","batch5","","null","<p class=block-text>Trial 5 out of 60</p>","null","spm_show_trial_num","","","","","","","","","","","","","","","","","","","","","","","","",""
"","","","","","image-button-response","197","907569","0.0-3.0-2.0-1.4","6291003fe4c10d24d42082dd","E1","batch5","","5731.600000008941","img/question_1_5.jpeg","5","spm_respsonse","1","6","mat_05","","","","","","1","5731.600000008941","","","","","","","","","","","","","","",""
"","","","","","html-keyboard-response","198","908634","0.0-3.0-2.0-0.5","6291003fe4c10d24d42082dd","E1","batch5","","null","<p class=block-text>Trial 6 out of 60</p>","null","spm_show_trial_num","","","","","","","","","","","","","","","","","","","","","","","","",""
"","","","","","image-button-response","199","918352","0.0-3.0-2.0-1.5","6291003fe4c10d24d42082dd","E1","batch5","","9714.29999999702","img/question_1_6.jpeg","2","spm_respsonse","1","3","mat_06","","","","","","1","9714.29999999702","","","","","","","","","","","","","","",""
"","","","","","html-keyboard-response","200","919418","0.0-3.0-2.0-0.6","6291003fe4c10d24d42082dd","E1","batch5","","null","<p class=block-text>Trial 7 out of 60</p>","null","spm_show_trial_num","","","","","","","","","","","","","","","","","","","","","","","","",""
"","","","","","image-button-response","201","927401","0.0-3.0-2.0-1.6","6291003fe4c10d24d42082dd","E1","batch5","","7979.5999999940395","img/question_1_7.jpeg","5","spm_respsonse","1","6","mat_07","","","","","","1","7979.5999999940395","","","","","","","","","","","","","","",""
"","","","","","html-keyboard-response","202","928466","0.0-3.0-2.0-0.7","6291003fe4c10d24d42082dd","E1","batch5","","null","<p class=block-text>Trial 8 out of 60</p>","null","spm_show_trial_num","","","","","","","","","","","","","","","","","","","","","","","","",""
"","","","","","image-button-response","203","935884","0.0-3.0-2.0-1.7","6291003fe4c10d24d42082dd","E1","batch5","","7415","img/question_1_8.jpeg","1","spm_respsonse","1","2","mat_08","","","","","","1","7415","","","","","","","","","","","","","","",""
"","","","","","html-keyboard-response","204","936952","0.0-3.0-2.0-0.8","6291003fe4c10d24d42082dd","E1","batch5","","null","<p class=block-text>Trial 9 out of 60</p>","null","spm_show_trial_num","","","","","","","","","","","","","","","","","","","","","","","","",""
"","","","","","image-button-response","205","947384","0.0-3.0-2.0-1.8","6291003fe4c10d24d42082dd","E1","batch5","","10427.79999999702","img/question_1_9.jpeg","0","spm_respsonse","1","1","mat_09","","","","","","1","10427.79999999702","","","","","","","","","","","","","","",""
"","","","","","html-keyboard-response","206","948448","0.0-3.0-2.0-0.9","6291003fe4c10d24d42082dd","E1","batch5","","null","<p class=block-text>Trial 10 out of 60</p>","null","spm_show_trial_num","","","","","","","","","","","","","","","","","","","","","","","","",""
"","","","","","image-button-response","207","959234","0.0-3.0-2.0-1.9","6291003fe4c10d24d42082dd","E1","batch5","","10782.09999999404","img/question_1_10.jpeg","2","spm_respsonse","1","3","mat_10","","","","","","1","10782.09999999404","","","","","","","","","","","","","","",""
"","","","","","html-keyboard-response","208","960302","0.0-3.0-2.0-0.10","6291003fe4c10d24d42082dd","E1","batch5","","null","<p class=block-text>Trial 11 out of 60</p>","null","spm_show_trial_num","","","","","","","","","","","","","","","","","","","","","","","","",""
"","","","","","image-button-response","209","977504","0.0-3.0-2.0-1.10","6291003fe4c10d24d42082dd","E1","batch5","","17198.20000000298","img/question_1_11.jpeg","3","spm_respsonse","1","4","mat_11","","","","","","1","17198.20000000298","","","","","","","","","","","","","","",""
"","","","","","html-keyboard-response","210","978570","0.0-3.0-2.0-0.11","6291003fe4c10d24d42082dd","E1","batch5","","null","<p class=block-text>Trial 12 out of 60</p>","null","spm_show_trial_num","","","","","","","","","","","","","","","","","","","","","","","","",""
"","","","","","image-button-response","211","997816","0.0-3.0-2.0-1.11","6291003fe4c10d24d42082dd","E1","batch5","","19243.29999999702","img/question_1_12.jpeg","0","spm_respsonse","0","5","mat_12","","","","","","0","19243.29999999702","","","","","","","","","","","","","","",""
"","","","","","html-keyboard-response","212","998879","0.0-3.0-2.0-0.12","6291003fe4c10d24d42082dd","E1","batch5","","null","<p class=block-text>Trial 13 out of 60</p>","null","spm_show_trial_num","","","","","","","","","","","","","","","","","","","","","","","","",""
"","","","","","image-button-response","213","1002801","0.0-3.0-2.0-1.12","6291003fe4c10d24d42082dd","E1","batch5","","3917.9000000059605","img/question_2_1.jpeg","1","spm_respsonse","1","2","mat_13","","","","","","1","3917.9000000059605","","","","","","","","","","","","","","",""
"","","","","","html-keyboard-response","214","1003861","0.0-3.0-2.0-0.13","6291003fe4c10d24d42082dd","E1","batch5","","null","<p class=block-text>Trial 14 out of 60</p>","null","spm_show_trial_num","","","","","","","","","","","","","","","","","","","","","","","","",""
"","","","","","image-button-response","215","1014951","0.0-3.0-2.0-1.13","6291003fe4c10d24d42082dd","E1","batch5","","11086.10000000894","img/question_2_2.jpeg","5","spm_respsonse","1","6","mat_14","","","","","","1","11086.10000000894","","","","","","","","","","","","","","",""
"","","","","","html-keyboard-response","216","1016018","0.0-3.0-2.0-0.14","6291003fe4c10d24d42082dd","E1","batch5","","null","<p class=block-text>Trial 15 out of 60</p>","null","spm_show_trial_num","","","","","","","","","","","","","","","","","","","","","","","","",""
"","","","","","image-button-response","217","1021421","0.0-3.0-2.0-1.14","6291003fe4c10d24d42082dd","E1","batch5","","5399.29999999702","img/question_2_3.jpeg","0","spm_respsonse","1","1","mat_15","","","","","","1","5399.29999999702","","","","","","","","","","","","","","",""
"","","","","","html-keyboard-response","218","1022486","0.0-3.0-2.0-0.15","6291003fe4c10d24d42082dd","E1","batch5","","null","<p class=block-text>Trial 16 out of 60</p>","null","spm_show_trial_num","","","","","","","","","","","","","","","","","","","","","","","","",""
"","","","","","image-button-response","219","1026018","0.0-3.0-2.0-1.15","6291003fe4c10d24d42082dd","E1","batch5","","3527.9000000059605","img/question_2_4.jpeg","1","spm_respsonse","1","2","mat_16","","","","","","1","3527.9000000059605","","","","","","","","","","","","","","",""
"","","","","","html-keyboard-response","220","1027078","0.0-3.0-2.0-0.16","6291003fe4c10d24d42082dd","E1","batch5","","null","<p class=block-text>Trial 17 out of 60</p>","null","spm_show_trial_num","","","","","","","","","","","","","","","","","","","","","","","","",""
"","","","","","image-button-response","221","1033537","0.0-3.0-2.0-1.16","6291003fe4c10d24d42082dd","E1","batch5","","6455.79999999702","img/question_2_5.jpeg","0","spm_respsonse","1","1","mat_17","","","","","","1","6455.79999999702","","","","","","","","","","","","","","",""
"","","","","","html-keyboard-response","222","1034597","0.0-3.0-2.0-0.17","6291003fe4c10d24d42082dd","E1","batch5","","null","<p class=block-text>Trial 18 out of 60</p>","null","spm_show_trial_num","","","","","","","","","","","","","","","","","","","","","","","","",""
"","","","","","image-button-response","223","1049838","0.0-3.0-2.0-1.17","6291003fe4c10d24d42082dd","E1","batch5","","15236.60000000894","img/question_2_6.jpeg","2","spm_respsonse","1","3","mat_18","","","","","","1","15236.60000000894","","","","","","","","","","","","","","",""
"","","","","","html-keyboard-response","224","1050903","0.0-3.0-2.0-0.18","6291003fe4c10d24d42082dd","E1","batch5","","null","<p class=block-text>Trial 19 out of 60</p>","null","spm_show_trial_num","","","","","","","","","","","","","","","","","","","","","","","","",""
"","","","","","image-button-response","225","1063203","0.0-3.0-2.0-1.18","6291003fe4c10d24d42082dd","E1","batch5","","12296.40000000596","img/question_2_7.jpeg","4","spm_respsonse","1","5","mat_19","","","","","","1","12296.40000000596","","","","","","","","","","","","","","",""
"","","","","","html-keyboard-response","226","1064270","0.0-3.0-2.0-0.19","6291003fe4c10d24d42082dd","E1","batch5","","null","<p class=block-text>Trial 20 out of 60</p>","null","spm_show_trial_num","","","","","","","","","","","","","","","","","","","","","","","","",""
"","","","","","image-button-response","227","1075651","0.0-3.0-2.0-1.19","6291003fe4c10d24d42082dd","E1","batch5","","11377.5","img/question_2_8.jpeg","5","spm_respsonse","1","6","mat_20","","","","","","1","11377.5","","","","","","","","","","","","","","",""
"","","","","","html-keyboard-response","228","1076720","0.0-3.0-2.0-0.20","6291003fe4c10d24d42082dd","E1","batch5","","null","<p class=block-text>Trial 21 out of 60</p>","null","spm_show_trial_num","","","","","","","","","","","","","","","","","","","","","","","","",""
"","","","","","image-button-response","229","1083136","0.0-3.0-2.0-1.20","6291003fe4c10d24d42082dd","E1","batch5","","6411.70000000298","img/question_2_9.jpeg","3","spm_respsonse","1","4","mat_21","","","","","","1","6411.70000000298","","","","","","","","","","","","","","",""
"","","","","","html-keyboard-response","230","1084198","0.0-3.0-2.0-0.21","6291003fe4c10d24d42082dd","E1","batch5","","null","<p class=block-text>Trial 22 out of 60</p>","null","spm_show_trial_num","","","","","","","","","","","","","","","","","","","","","","","","",""
"","","","","","image-button-response","231","1092918","0.0-3.0-2.0-1.21","6291003fe4c10d24d42082dd","E1","batch5","","8717","img/question_2_10.jpeg","2","spm_respsonse","1","3","mat_22","","","","","","1","8717","","","","","","","","","","","","","","",""
"","","","","","html-keyboard-response","232","1093978","0.0-3.0-2.0-0.22","6291003fe4c10d24d42082dd","E1","batch5","","null","<p class=block-text>Trial 23 out of 60</p>","null","spm_show_trial_num","","","","","","","","","","","","","","","","","","","","","","","","",""
"","","","","","image-button-response","233","1121671","0.0-3.0-2.0-1.22","6291003fe4c10d24d42082dd","E1","batch5","","27689.90000000596","img/question_2_11.jpeg","3","spm_respsonse","1","4","mat_23","","","","","","1","27689.90000000596","","","","","","","","","","","","","","",""
"","","","","","html-keyboard-response","234","1122737","0.0-3.0-2.0-0.23","6291003fe4c10d24d42082dd","E1","batch5","","null","<p class=block-text>Trial 24 out of 60</p>","null","spm_show_trial_num","","","","","","","","","","","","","","","","","","","","","","","","",""
"","","","","","image-button-response","235","1134888","0.0-3.0-2.0-1.23","6291003fe4c10d24d42082dd","E1","batch5","","12147.79999999702","img/question_2_12.jpeg","4","spm_respsonse","1","5","mat_24","","","","","","1","12147.79999999702","","","","","","","","","","","","","","",""
"","","","","","html-button-response","236","1137054","0.0-3.0-3.0","6291003fe4c10d24d42082dd","E1","batch5","","1906.5","<p class = block-text>Attention check: Please choose 1<br></p>","0","attention_check","true","","","","","","","","","","","","","","","","","","","","","","","",""
"","","","","","html-keyboard-response","237","1137862","0.0-3.0-4.0-0.0","6291003fe4c10d24d42082dd","E1","batch5","","null","<p class=block-text>Trial 25 out of 60</p>","null","spm_show_trial_num","","","","","","","","","","","","","","","","","","","","","","","","",""
"","","","","","image-button-response","238","1145887","0.0-3.0-4.0-1.0","6291003fe4c10d24d42082dd","E1","batch5","","8021.100000008941","img/question_3_1.jpeg","7","spm_respsonse","1","8","mat_25","","","","","","1","8021.100000008941","","","","","","","","","","","","","","",""
"","","","","","html-keyboard-response","239","1146954","0.0-3.0-4.0-0.1","6291003fe4c10d24d42082dd","E1","batch5","","null","<p class=block-text>Trial 26 out of 60</p>","null","spm_show_trial_num","","","","","","","","","","","","","","","","","","","","","","","","",""
"","","","","","image-button-response","240","1150938","0.0-3.0-4.0-1.1","6291003fe4c10d24d42082dd","E1","batch5","","3980.7000000029802","img/question_3_2.jpeg","1","spm_respsonse","1","2","mat_26","","","","","","1","3980.7000000029802","","","","","","","","","","","","","","",""
"","","","","","html-keyboard-response","241","1152002","0.0-3.0-4.0-0.2","6291003fe4c10d24d42082dd","E1","batch5","","null","<p class=block-text>Trial 27 out of 60</p>","null","spm_show_trial_num","","","","","","","","","","","","","","","","","","","","","","","","",""
"","","","","","image-button-response","242","1160003","0.0-3.0-4.0-1.2","6291003fe4c10d24d42082dd","E1","batch5","","7997.199999988079","img/question_3_3.jpeg","2","spm_respsonse","1","3","mat_27","","","","","","1","7997.199999988079","","","","","","","","","","","","","","",""
"","","","","","html-keyboard-response","243","1161074","0.0-3.0-4.0-0.3","6291003fe4c10d24d42082dd","E1","batch5","","null","<p class=block-text>Trial 28 out of 60</p>","null","spm_show_trial_num","","","","","","","","","","","","","","","","","","","","","","","","",""
"","","","","","image-button-response","244","1167137","0.0-3.0-4.0-1.3","6291003fe4c10d24d42082dd","E1","batch5","","6059.199999988079","img/question_3_4.jpeg","7","spm_respsonse","1","8","mat_28","","","","","","1","6059.199999988079","","","","","","","","","","","","","","",""
"","","","","","html-keyboard-response","245","1168202","0.0-3.0-4.0-0.4","6291003fe4c10d24d42082dd","E1","batch5","","null","<p class=block-text>Trial 29 out of 60</p>","null","spm_show_trial_num","","","","","","","","","","","","","","","","","","","","","","","","",""
"","","","","","image-button-response","246","1179486","0.0-3.0-4.0-1.4","6291003fe4c10d24d42082dd","E1","batch5","","11279.79999999702","img/question_3_5.jpeg","6","spm_respsonse","1","7","mat_29","","","","","","1","11279.79999999702","","","","","","","","","","","","","","",""
"","","","","","html-keyboard-response","247","1180551","0.0-3.0-4.0-0.5","6291003fe4c10d24d42082dd","E1","batch5","","null","<p class=block-text>Trial 30 out of 60</p>","null","spm_show_trial_num","","","","","","","","","","","","","","","","","","","","","","","","",""
"","","","","","image-button-response","248","1190102","0.0-3.0-4.0-1.5","6291003fe4c10d24d42082dd","E1","batch5","","9547.10000000894","img/question_3_6.jpeg","3","spm_respsonse","1","4","mat_30","","","","","","1","9547.10000000894","","","","","","","","","","","","","","",""
"","","","","","html-keyboard-response","249","1191170","0.0-3.0-4.0-0.6","6291003fe4c10d24d42082dd","E1","batch5","","null","<p class=block-text>Trial 31 out of 60</p>","null","spm_show_trial_num","","","","","","","","","","","","","","","","","","","","","","","","",""
"","","","","","image-button-response","250","1198222","0.0-3.0-4.0-1.6","6291003fe4c10d24d42082dd","E1","batch5","","7048","img/question_3_7.jpeg","2","spm_respsonse","0","5","mat_31","","","","","","0","7048","","","","","","","","","","","","","","",""
"","","","","","html-keyboard-response","251","1199287","0.0-3.0-4.0-0.7","6291003fe4c10d24d42082dd","E1","batch5","","null","<p class=block-text>Trial 32 out of 60</p>","null","spm_show_trial_num","","","","","","","","","","","","","","","","","","","","","","","","",""
"","","","","","image-button-response","252","1207986","0.0-3.0-4.0-1.7","6291003fe4c10d24d42082dd","E1","batch5","","8694.800000011921","img/question_3_8.jpeg","0","spm_respsonse","1","1","mat_32","","","","","","1","8694.800000011921","","","","","","","","","","","","","","",""
"","","","","","html-keyboard-response","253","1209049","0.0-3.0-4.0-0.8","6291003fe4c10d24d42082dd","E1","batch5","","null","<p class=block-text>Trial 33 out of 60</p>","null","spm_show_trial_num","","","","","","","","","","","","","","","","","","","","","","","","",""
"","","","","","image-button-response","254","1217753","0.0-3.0-4.0-1.8","6291003fe4c10d24d42082dd","E1","batch5","","8700.79999999702","img/question_3_9.jpeg","6","spm_respsonse","1","7","mat_33","","","","","","1","8700.79999999702","","","","","","","","","","","","","","",""
"","","","","","html-keyboard-response","255","1218818","0.0-3.0-4.0-0.9","6291003fe4c10d24d42082dd","E1","batch5","","null","<p class=block-text>Trial 34 out of 60</p>","null","spm_show_trial_num","","","","","","","","","","","","","","","","","","","","","","","","",""
"","","","","","image-button-response","256","1231372","0.0-3.0-4.0-1.9","6291003fe4c10d24d42082dd","E1","batch5","","12550.79999999702","img/question_3_10.jpeg","5","spm_respsonse","1","6","mat_34","","","","","","1","12550.79999999702","","","","","","","","","","","","","","",""
"","","","","","html-keyboard-response","257","1232438","0.0-3.0-4.0-0.10","6291003fe4c10d24d42082dd","E1","batch5","","null","<p class=block-text>Trial 35 out of 60</p>","null","spm_show_trial_num","","","","","","","","","","","","","","","","","","","","","","","","",""
"","","","","","image-button-response","258","1251256","0.0-3.0-4.0-1.10","6291003fe4c10d24d42082dd","E1","batch5","","18814.60000000894","img/question_3_11.jpeg","7","spm_respsonse","0","1","mat_35","","","","","","0","18814.60000000894","","","","","","","","","","","","","","",""
"","","","","","html-keyboard-response","259","1252322","0.0-3.0-4.0-0.11","6291003fe4c10d24d42082dd","E1","batch5","","null","<p class=block-text>Trial 36 out of 60</p>","null","spm_show_trial_num","","","","","","","","","","","","","","","","","","","","","","","","",""
"","","","","","image-button-response","260","1267069","0.0-3.0-4.0-1.11","6291003fe4c10d24d42082dd","E1","batch5","","14743.5","img/question_3_12.jpeg","3","spm_respsonse","0","2","mat_36","","","","","","0","14743.5","","","","","","","","","","","","","","",""
"","","","","","html-keyboard-response","261","1268138","0.0-3.0-4.0-0.12","6291003fe4c10d24d42082dd","E1","batch5","","null","<p class=block-text>Trial 37 out of 60</p>","null","spm_show_trial_num","","","","","","","","","","","","","","","","","","","","","","","","",""
"","","","","","image-button-response","262","1272837","0.0-3.0-4.0-1.12","6291003fe4c10d24d42082dd","E1","batch5","","4694.79999999702","img/question_4_1.jpeg","2","spm_respsonse","1","3","mat_37","","","","","","1","4694.79999999702","","","","","","","","","","","","","","",""
"","","","","","html-keyboard-response","263","1273896","0.0-3.0-4.0-0.13","6291003fe4c10d24d42082dd","E1","batch5","","null","<p class=block-text>Trial 38 out of 60</p>","null","spm_show_trial_num","","","","","","","","","","","","","","","","","","","","","","","","",""
"","","","","","image-button-response","264","1291656","0.0-3.0-4.0-1.13","6291003fe4c10d24d42082dd","E1","batch5","","17756","img/question_4_2.jpeg","3","spm_respsonse","1","4","mat_38","","","","","","1","17756","","","","","","","","","","","","","","",""
"","","","","","html-keyboard-response","265","1292722","0.0-3.0-4.0-0.14","6291003fe4c10d24d42082dd","E1","batch5","","null","<p class=block-text>Trial 39 out of 60</p>","null","spm_show_trial_num","","","","","","","","","","","","","","","","","","","","","","","","",""
"","","","","","image-button-response","266","1305952","0.0-3.0-4.0-1.14","6291003fe4c10d24d42082dd","E1","batch5","","13226.5","img/question_4_3.jpeg","2","spm_respsonse","1","3","mat_39","","","","","","1","13226.5","","","","","","","","","","","","","","",""
"","","","","","html-keyboard-response","267","1307016","0.0-3.0-4.0-0.15","6291003fe4c10d24d42082dd","E1","batch5","","null","<p class=block-text>Trial 40 out of 60</p>","null","spm_show_trial_num","","","","","","","","","","","","","","","","","","","","","","","","",""
"","","","","","image-button-response","268","1330219","0.0-3.0-4.0-1.15","6291003fe4c10d24d42082dd","E1","batch5","","23199.20000000298","img/question_4_4.jpeg","6","spm_respsonse","1","7","mat_40","","","","","","1","23199.20000000298","","","","","","","","","","","","","","",""
"","","","","","html-keyboard-response","269","1331290","0.0-3.0-4.0-0.16","6291003fe4c10d24d42082dd","E1","batch5","","null","<p class=block-text>Trial 41 out of 60</p>","null","spm_show_trial_num","","","","","","","","","","","","","","","","","","","","","","","","",""
"","","","","","image-button-response","270","1348236","0.0-3.0-4.0-1.16","6291003fe4c10d24d42082dd","E1","batch5","","16941.90000000596","img/question_4_5.jpeg","7","spm_respsonse","1","8","mat_41","","","","","","1","16941.90000000596","","","","","","","","","","","","","","",""
"","","","","","html-keyboard-response","271","1349305","0.0-3.0-4.0-0.17","6291003fe4c10d24d42082dd","E1","batch5","","null","<p class=block-text>Trial 42 out of 60</p>","null","spm_show_trial_num","","","","","","","","","","","","","","","","","","","","","","","","",""
"","","","","","image-button-response","272","1357171","0.0-3.0-4.0-1.17","6291003fe4c10d24d42082dd","E1","batch5","","7862","img/question_4_6.jpeg","5","spm_respsonse","1","6","mat_42","","","","","","1","7862","","","","","","","","","","","","","","",""
"","","","","","html-keyboard-response","273","1358237","0.0-3.0-4.0-0.18","6291003fe4c10d24d42082dd","E1","batch5","","null","<p class=block-text>Trial 43 out of 60</p>","null","spm_show_trial_num","","","","","","","","","","","","","","","","","","","","","","","","",""
"","","","","","image-button-response","274","1372786","0.0-3.0-4.0-1.18","6291003fe4c10d24d42082dd","E1","batch5","","14545.59999999404","img/question_4_7.jpeg","4","spm_respsonse","1","5","mat_43","","","","","","1","14545.59999999404","","","","","","","","","","","","","","",""
"","","","","","html-keyboard-response","275","1373849","0.0-3.0-4.0-0.19","6291003fe4c10d24d42082dd","E1","batch5","","null","<p class=block-text>Trial 44 out of 60</p>","null","spm_show_trial_num","","","","","","","","","","","","","","","","","","","","","","","","",""
"","","","","","image-button-response","276","1396619","0.0-3.0-4.0-1.19","6291003fe4c10d24d42082dd","E1","batch5","","22766.89999999106","img/question_4_8.jpeg","3","spm_respsonse","1","4","mat_44","","","","","","1","22766.89999999106","","","","","","","","","","","","","","",""
"","","","","","html-keyboard-response","277","1397686","0.0-3.0-4.0-0.20","6291003fe4c10d24d42082dd","E1","batch5","","null","<p class=block-text>Trial 45 out of 60</p>","null","spm_show_trial_num","","","","","","","","","","","","","","","","","","","","","","","","",""
"","","","","","image-button-response","278","1413036","0.0-3.0-4.0-1.20","6291003fe4c10d24d42082dd","E1","batch5","","15346.300000011921","img/question_4_9.jpeg","5","spm_respsonse","0","1","mat_45","","","","","","0","15346.300000011921","","","","","","","","","","","","","","",""
"","","","","","html-keyboard-response","279","1414105","0.0-3.0-4.0-0.21","6291003fe4c10d24d42082dd","E1","batch5","","null","<p class=block-text>Trial 46 out of 60</p>","null","spm_show_trial_num","","","","","","","","","","","","","","","","","","","","","","","","",""
"","","","","","image-button-response","280","1428586","0.0-3.0-4.0-1.21","6291003fe4c10d24d42082dd","E1","batch5","","14477.29999999702","img/question_4_10.jpeg","7","spm_respsonse","0","2","mat_46","","","","","","0","14477.29999999702","","","","","","","","","","","","","","",""
"","","","","","html-keyboard-response","281","1429648","0.0-3.0-4.0-0.22","6291003fe4c10d24d42082dd","E1","batch5","","null","<p class=block-text>Trial 47 out of 60</p>","null","spm_show_trial_num","","","","","","","","","","","","","","","","","","","","","","","","",""
"","","","","","image-button-response","282","1450540","0.0-3.0-4.0-1.22","6291003fe4c10d24d42082dd","E1","batch5","","20888.29999999702","img/question_4_11.jpeg","1","spm_respsonse","0","5","mat_47","","","","","","0","20888.29999999702","","","","","","","","","","","","","","",""
"","","","","","html-keyboard-response","283","1451606","0.0-3.0-4.0-0.23","6291003fe4c10d24d42082dd","E1","batch5","","null","<p class=block-text>Trial 48 out of 60</p>","null","spm_show_trial_num","","","","","","","","","","","","","","","","","","","","","","","","",""
"","","","","","image-button-response","284","1478970","0.0-3.0-4.0-1.23","6291003fe4c10d24d42082dd","E1","batch5","","27360.40000000596","img/question_4_12.jpeg","5","spm_respsonse","1","6","mat_48","","","","","","1","27360.40000000596","","","","","","","","","","","","","","",""
"","","","","","html-keyboard-response","285","1480031","0.0-3.0-4.0-0.24","6291003fe4c10d24d42082dd","E1","batch5","","null","<p class=block-text>Trial 49 out of 60</p>","null","spm_show_trial_num","","","","","","","","","","","","","","","","","","","","","","","","",""
"","","","","","image-button-response","286","1498289","0.0-3.0-4.0-1.24","6291003fe4c10d24d42082dd","E1","batch5","","18254.29999999702","img/question_5_1.jpeg","6","spm_respsonse","1","7","mat_49","","","","","","1","18254.29999999702","","","","","","","","","","","","","","",""
"","","","","","html-keyboard-response","287","1499351","0.0-3.0-4.0-0.25","6291003fe4c10d24d42082dd","E1","batch5","","null","<p class=block-text>Trial 50 out of 60</p>","null","spm_show_trial_num","","","","","","","","","","","","","","","","","","","","","","","","",""
"","","","","","image-button-response","288","1521254","0.0-3.0-4.0-1.25","6291003fe4c10d24d42082dd","E1","batch5","","21899.5","img/question_5_2.jpeg","5","spm_respsonse","1","6","mat_50","","","","","","1","21899.5","","","","","","","","","","","","","","",""
"","","","","","html-keyboard-response","289","1522322","0.0-3.0-4.0-0.26","6291003fe4c10d24d42082dd","E1","batch5","","null","<p class=block-text>Trial 51 out of 60</p>","null","spm_show_trial_num","","","","","","","","","","","","","","","","","","","","","","","","",""
"","","","","","image-button-response","290","1545007","0.0-3.0-4.0-1.26","6291003fe4c10d24d42082dd","E1","batch5","","22681.59999999404","img/question_5_3.jpeg","1","spm_respsonse","0","8","mat_51","","","","","","0","22681.59999999404","","","","","","","","","","","","","","",""
"","","","","","html-keyboard-response","291","1546073","0.0-3.0-4.0-0.27","6291003fe4c10d24d42082dd","E1","batch5","","null","<p class=block-text>Trial 52 out of 60</p>","null","spm_show_trial_num","","","","","","","","","","","","","","","","","","","","","","","","",""
"","","","","","image-button-response","292","1556321","0.0-3.0-4.0-1.27","6291003fe4c10d24d42082dd","E1","batch5","","10244.70000000298","img/question_5_4.jpeg","2","spm_respsonse","0","2","mat_52","","","","","","0","10244.70000000298","","","","","","","","","","","","","","",""
"","","","","","html-keyboard-response","293","1557381","0.0-3.0-4.0-0.28","6291003fe4c10d24d42082dd","E1","batch5","","null","<p class=block-text>Trial 53 out of 60</p>","null","spm_show_trial_num","","","","","","","","","","","","","","","","","","","","","","","","",""
"","","","","","image-button-response","294","1584325","0.0-3.0-4.0-1.28","6291003fe4c10d24d42082dd","E1","batch5","","26939.90000000596","img/question_5_5.jpeg","6","spm_respsonse","0","1","mat_53","","","","","","0","26939.90000000596","","","","","","","","","","","","","","",""
"","","","","","html-keyboard-response","295","1585392","0.0-3.0-4.0-0.29","6291003fe4c10d24d42082dd","E1","batch5","","null","<p class=block-text>Trial 54 out of 60</p>","null","spm_show_trial_num","","","","","","","","","","","","","","","","","","","","","","","","",""
"","","","","","image-button-response","296","1622438","0.0-3.0-4.0-1.29","6291003fe4c10d24d42082dd","E1","batch5","","37042.59999999404","img/question_5_6.jpeg","6","spm_respsonse","0","5","mat_54","","","","","","0","37042.59999999404","","","","","","","","","","","","","","",""
"","","","","","html-keyboard-response","297","1623506","0.0-3.0-4.0-0.30","6291003fe4c10d24d42082dd","E1","batch5","","null","<p class=block-text>Trial 55 out of 60</p>","null","spm_show_trial_num","","","","","","","","","","","","","","","","","","","","","","","","",""
"","","","","","image-button-response","298","1654587","0.0-3.0-4.0-1.30","6291003fe4c10d24d42082dd","E1","batch5","","31077.5","img/question_5_7.jpeg","0","spm_respsonse","1","1","mat_55","","","","","","1","31077.5","","","","","","","","","","","","","","",""
"","","","","","html-keyboard-response","299","1655658","0.0-3.0-4.0-0.31","6291003fe4c10d24d42082dd","E1","batch5","","null","<p class=block-text>Trial 56 out of 60</p>","null","spm_show_trial_num","","","","","","","","","","","","","","","","","","","","","","","","",""
"","","","","","image-button-response","300","1675121","0.0-3.0-4.0-1.31","6291003fe4c10d24d42082dd","E1","batch5","","19459.20000000298","img/question_5_8.jpeg","7","spm_respsonse","0","6","mat_56","","","","","","0","19459.20000000298","","","","","","","","","","","","","","",""
"","","","","","html-keyboard-response","301","1676182","0.0-3.0-4.0-0.32","6291003fe4c10d24d42082dd","E1","batch5","","null","<p class=block-text>Trial 57 out of 60</p>","null","spm_show_trial_num","","","","","","","","","","","","","","","","","","","","","","","","",""
"","","","","","image-button-response","302","1683756","0.0-3.0-4.0-1.32","6291003fe4c10d24d42082dd","E1","batch5","","7569.20000000298","img/question_5_9.jpeg","6","spm_respsonse","0","3","mat_57","","","","","","0","7569.20000000298","","","","","","","","","","","","","","",""
"","","","","","html-keyboard-response","303","1684824","0.0-3.0-4.0-0.33","6291003fe4c10d24d42082dd","E1","batch5","","null","<p class=block-text>Trial 58 out of 60</p>","null","spm_show_trial_num","","","","","","","","","","","","","","","","","","","","","","","","",""
"","","","","","image-button-response","304","1703773","0.0-3.0-4.0-1.33","6291003fe4c10d24d42082dd","E1","batch5","","18945.70000000298","img/question_5_10.jpeg","6","spm_respsonse","0","2","mat_58","","","","","","0","18945.70000000298","","","","","","","","","","","","","","",""
"","","","","","html-keyboard-response","305","1704841","0.0-3.0-4.0-0.34","6291003fe4c10d24d42082dd","E1","batch5","","null","<p class=block-text>Trial 59 out of 60</p>","null","spm_show_trial_num","","","","","","","","","","","","","","","","","","","","","","","","",""
"","","","","","image-button-response","306","1731038","0.0-3.0-4.0-1.34","6291003fe4c10d24d42082dd","E1","batch5","","26193.79999999702","img/question_5_11.jpeg","4","spm_respsonse","0","4","mat_59","","","","","","0","26193.79999999702","","","","","","","","","","","","","","",""
"","","","","","html-keyboard-response","307","1732106","0.0-3.0-4.0-0.35","6291003fe4c10d24d42082dd","E1","batch5","","null","<p class=block-text>Trial 60 out of 60</p>","null","spm_show_trial_num","","","","","","","","","","","","","","","","","","","","","","","","",""
"","","","","","image-button-response","308","1740340","0.0-3.0-4.0-1.35","6291003fe4c10d24d42082dd","E1","batch5","","8230.10000000894","img/question_5_12.jpeg","2","spm_respsonse","0","5","mat_60","","","","","","0","8230.10000000894","","","","","","","","","","","","","","",""
"","","","","","html-button-response","309","1742607","0.0-3.0-5.0","6291003fe4c10d24d42082dd","E1","batch5","","2007.7999999970198","<p class= block-text>This concludes the Standard Progressive Matrix game. Thank you for your responses!<br> When you are ready, click the button continue</p>","0","spm_goodbye","","","","","","","","","","","","","","","","","","","","","","","","",""
"true","","","","","fullscreen","310","1745419","0.0-4.0-0.0","6291003fe4c10d24d42082dd","E1","batch5","","","","","","","","","","","","","","","","","","","","","","","","","","","","","",""
"","","","","","instructions","311","1824890","0.0-4.0-1.0-0.0-0.0","6291003fe4c10d24d42082dd","E1","batch5","[{""page_index"":0,""viewing_time"":18135},{""page_index"":1,""viewing_time"":5054},{""page_index"":2,""viewing_time"":1999.2000000029802},{""page_index"":3,""viewing_time"":12297.20000000298},{""page_index"":4,""viewing_time"":3786.199999988079},{""page_index"":5,""viewing_time"":35896.80000001192},{""page_index"":6,""viewing_time"":2301.5}]","79470.09999999404","","","tol-instructions","","","","","","","","","","","","","","","","","","","","","","","","",""
"","","","","","html-button-response","312","1825876","0.0-4.0-1.0-1.0-0.0","6291003fe4c10d24d42082dd","E1","batch5","","984.0999999940395","<p class=block-text> Let's answer a few questions <br>","0","tol_enter_quiz","","","","","","","","","","","","","","","","","","","","","","","","",""
"","","","","","html-button-response","313","1833743","0.0-4.0-1.0-1.0-1.0","6291003fe4c10d24d42082dd","E1","batch5","","7865.20000000298","<p class = block-text>True or False: You can only move the ball on top of a peg. <br></p>","0","tol_quiz","true","","","","","","","","","","","","","","","","","","","","","","","",""
"","","","","","html-button-response","314","1834776","0.0-4.0-1.0-1.0-2.0","6291003fe4c10d24d42082dd","E1","batch5","","1031.5","<p class = block-text>Correct! You can only move the ball on top of a peg.</p>","0","tol_quiz_feedback","","","","","","","","","","","","","","","","","","","","","","","","",""
"","","","","","html-button-response","315","1836875","0.0-4.0-1.0-1.0-3.0","6291003fe4c10d24d42082dd","E1","batch5","","2097.7999999970198","<p class = block-text>True or False: You should try to match your board with the target board with fewest moves possible. <br></p>","0","tol_quiz","true","","","","","","","","","","","","","","","","","","","","","","","",""
"","","","","","html-button-response","316","1837509","0.0-4.0-1.0-1.0-4.0","6291003fe4c10d24d42082dd","E1","batch5","","631.6999999880791","<p class = block-text>Correct! </p>","0","tol_quiz_feedback","","","","","","","","","","","","","","","","","","","","","","","","",""
"","","","","","html-button-response","317","1838958","0.0-4.0-2.0","6291003fe4c10d24d42082dd","E1","batch5","","1446.7000000029802","<p class=block-text> Now that you've understood the game, let's practice a few easier examples before we start!<br> <br>","0","","","","","","","","","","","","","","","","","","","","","","","","","",""
"","","","","","single-stim-button","318","1842176","0.0-4.0-3.0-0.0","6291003fe4c10d24d42082dd","E1","batch5","","3215","","","tol_practice","","","","","","","","","","","tol_peg_2","3215","3215","0","[[1,2,0],[0,0],[0]]","1","[[1,2,0],[0,0],[3]]","practice","3215","","","","","",""
"","","","","","single-stim-button","319","1843458","0.0-4.0-3.0-1.0","6291003fe4c10d24d42082dd","E1","batch5","","1281","","","tol_practice","","","","","","","","","","","tol_peg_3","1281","1281","0","[[1,2,0],[0,0],[3]]","1","[[1,2,0],[0,0],[3]]","practice","1281","","","","","",""
"","","","","","poldrack-single-stim","320","1844465","0.0-4.0-4.0","6291003fe4c10d24d42082dd","E1","batch5","","-1","","","tol_feedback","true","","","","","","","","","","","1000","1000","500","","","","","","-1","none","true","","0",""
"","","","","","single-stim-button","321","1848357","0.0-4.0-5.0-0.0","6291003fe4c10d24d42082dd","E1","batch5","","3890","","","tol_practice","","","","","","","","","","","tol_peg_1","3890","3890","0","[[1,0,0],[3,0],[0]]","2","[[0,0,0],[3,1],[2]]","practice","3890","","","","","",""
"","","","","","single-stim-button","322","1852940","0.0-4.0-5.0-1.0","6291003fe4c10d24d42082dd","E1","batch5","","4582","","","tol_practice","","","","","","","","","","","tol_peg_3","4582","4582","0","[[1,0,0],[3,0],[2]]","2","[[0,0,0],[3,1],[2]]","practice","4582","","","","","",""
"","","","","","single-stim-button","323","1854641","0.0-4.0-5.1-0.1","6291003fe4c10d24d42082dd","E1","batch5","","1699","","","tol_practice","","","","","","","","","","","tol_peg_3","1699","1699","0","[[1,0,0],[3,0],[0]]","3","[[0,0,0],[3,1],[2]]","practice","1699","","","","","",""
"","","","","","single-stim-button","324","1855210","0.0-4.0-5.1-1.1","6291003fe4c10d24d42082dd","E1","batch5","","567","","","tol_practice","","","","","","","","","","","tol_peg_2","567","567","0","[[1,0,0],[3,2],[0]]","3","[[0,0,0],[3,1],[2]]","practice","567","","","","","",""
"","","","","","single-stim-button","325","1856357","0.0-4.0-5.2-0.2","6291003fe4c10d24d42082dd","E1","batch5","","1146","","","tol_practice","","","","","","","","","","","tol_peg_1","1146","1146","0","[[0,0,0],[3,2],[0]]","4","[[0,0,0],[3,1],[2]]","practice","1146","","","","","",""
"","","","","","single-stim-button","326","1857524","0.0-4.0-5.2-1.2","6291003fe4c10d24d42082dd","E1","batch5","","1167","","","tol_practice","","","","","","","","","","","tol_peg_3","1167","1167","0","[[0,0,0],[3,2],[1]]","4","[[0,0,0],[3,1],[2]]","practice","1167","","","","","",""
"","","","","","single-stim-button","327","1858374","0.0-4.0-5.3-0.3","6291003fe4c10d24d42082dd","E1","batch5","","848","","","tol_practice","","","","","","","","","","","tol_peg_2","848","848","0","[[0,0,0],[3,0],[1]]","5","[[0,0,0],[3,1],[2]]","practice","848","","","","","",""
"","","","","","single-stim-button","328","1859874","0.0-4.0-5.3-1.3","6291003fe4c10d24d42082dd","E1","batch5","","1499","","","tol_practice","","","","","","","","","","","tol_peg_1","1499","1499","0","[[2,0,0],[3,0],[1]]","5","[[0,0,0],[3,1],[2]]","practice","1499","","","","","",""
"","","","","","single-stim-button","329","1860525","0.0-4.0-5.4-0.4","6291003fe4c10d24d42082dd","E1","batch5","","649","","","tol_practice","","","","","","","","","","","tol_peg_2","649","649","0","[[2,0,0],[0,0],[1]]","6","[[0,0,0],[3,1],[2]]","practice","649","","","","","",""
"","","","","","single-stim-button","330","1860991","0.0-4.0-5.4-1.4","6291003fe4c10d24d42082dd","E1","batch5","","464","","","tol_practice","","","","","","","","","","","tol_peg_1","464","464","0","[[2,3,0],[0,0],[1]]","6","[[0,0,0],[3,1],[2]]","practice","464","","","","","",""
"","","","","","single-stim-button","331","1861907","0.0-4.0-5.5-0.5","6291003fe4c10d24d42082dd","E1","batch5","","915","","","tol_practice","","","","","","","","","","","tol_peg_3","915","915","0","[[2,3,0],[0,0],[0]]","7","[[0,0,0],[3,1],[2]]","practice","915","","","","","",""
"","","","","","single-stim-button","332","1862358","0.0-4.0-5.5-1.5","6291003fe4c10d24d42082dd","E1","batch5","","449","","","tol_practice","","","","","","","","","","","tol_peg_2","449","449","0","[[2,3,0],[1,0],[0]]","7","[[0,0,0],[3,1],[2]]","practice","449","","","","","",""
"","","","","","single-stim-button","333","1863091","0.0-4.0-5.6-0.6","6291003fe4c10d24d42082dd","E1","batch5","","732","","","tol_practice","","","","","","","","","","","tol_peg_1","732","732","0","[[2,0,0],[1,0],[0]]","8","[[0,0,0],[3,1],[2]]","practice","732","","","","","",""
"","","","","","single-stim-button","334","1863709","0.0-4.0-5.6-1.6","6291003fe4c10d24d42082dd","E1","batch5","","616","","","tol_practice","","","","","","","","","","","tol_peg_3","616","616","0","[[2,0,0],[1,0],[3]]","8","[[0,0,0],[3,1],[2]]","practice","616","","","","","",""
"","","","","","single-stim-button","335","1865390","0.0-4.0-5.7-0.7","6291003fe4c10d24d42082dd","E1","batch5","","1680","","","tol_practice","","","","","","","","","","","tol_peg_3","1680","1680","0","[[2,0,0],[1,0],[0]]","9","[[0,0,0],[3,1],[2]]","practice","1680","","","","","",""
"","","","","","single-stim-button","336","1866007","0.0-4.0-5.7-1.7","6291003fe4c10d24d42082dd","E1","batch5","","616","","","tol_practice","","","","","","","","","","","tol_peg_3","616","616","0","[[2,0,0],[1,0],[3]]","9","[[0,0,0],[3,1],[2]]","practice","616","","","","","",""
"","","","","","single-stim-button","337","1866891","0.0-4.0-5.8-0.8","6291003fe4c10d24d42082dd","E1","batch5","","882","","","tol_practice","","","","","","","","","","","tol_peg_1","882","882","0","[[0,0,0],[1,0],[3]]","10","[[0,0,0],[3,1],[2]]","practice","882","","","","","",""
"","","","","","single-stim-button","338","1867308","0.0-4.0-5.8-1.8","6291003fe4c10d24d42082dd","E1","batch5","","415","","","tol_practice","","","","","","","","","","","tol_peg_2","415","415","0","[[0,0,0],[1,2],[3]]","10","[[0,0,0],[3,1],[2]]","practice","415","","","","","",""
"","","","","","single-stim-button","339","1868174","0.0-4.0-5.9-0.9","6291003fe4c10d24d42082dd","E1","batch5","","866","","","tol_practice","","","","","","","","","","","tol_peg_3","866","866","0","[[0,0,0],[1,2],[0]]","11","[[0,0,0],[3,1],[2]]","practice","866","","","","","",""
"","","","","","single-stim-button","340","1869174","0.0-4.0-5.9-1.9","6291003fe4c10d24d42082dd","E1","batch5","","998","","","tol_practice","","","","","","","","","","","tol_peg_1","998","998","0","[[3,0,0],[1,2],[0]]","11","[[0,0,0],[3,1],[2]]","practice","998","","","","","",""
"","","","","","single-stim-button","341","1869675","0.0-4.0-5.10-0.10","6291003fe4c10d24d42082dd","E1","batch5","","499","","","tol_practice","","","","","","","","","","","tol_peg_2","499","499","0","[[3,0,0],[1,0],[0]]","12","[[0,0,0],[3,1],[2]]","practice","499","","","","","",""
"","","","","","single-stim-button","342","1870124","0.0-4.0-5.10-1.10","6291003fe4c10d24d42082dd","E1","batch5","","449","","","tol_practice","","","","","","","","","","","tol_peg_3","449","449","0","[[3,0,0],[1,0],[2]]","12","[[0,0,0],[3,1],[2]]","practice","449","","","","","",""
"","","","","","single-stim-button","343","1870541","0.0-4.0-5.11-0.11","6291003fe4c10d24d42082dd","E1","batch5","","415","","","tol_practice","","","","","","","","","","","tol_peg_2","415","415","0","[[3,0,0],[0,0],[2]]","13","[[0,0,0],[3,1],[2]]","practice","415","","","","","",""
"","","","","","single-stim-button","344","1871041","0.0-4.0-5.11-1.11","6291003fe4c10d24d42082dd","E1","batch5","","498","","","tol_practice","","","","","","","","","","","tol_peg_1","498","498","0","[[3,1,0],[0,0],[2]]","13","[[0,0,0],[3,1],[2]]","practice","498","","","","","",""
"","","","","","single-stim-button","345","1874741","0.0-4.0-5.12-0.12","6291003fe4c10d24d42082dd","E1","batch5","","3698","","","tol_practice","","","","","","","","","","","tol_peg_1","3698","3698","0","[[3,0,0],[0,0],[2]]","14","[[0,0,0],[3,1],[2]]","practice","3698","","","","","",""
