"success","timeout","failed_images","failed_audio","failed_video","trial_type","trial_index","time_elapsed","internal_node_id","subject_id","study_id","session_id","view_history","rt","stimulus","response","task","correct","answer","item","fiar_detect_rt","fiar_detect_correct","total_correct_fiar_detect","post_trial_gap","choices","mouse_click","stim_duration","block_duration","timing_post_trial","current_position","tol_num_moves_made","tol_target","tol_problem_id","tol_rt","key_press","possible_responses","tol_correct","preplanning","tol_rt_per_trial","tol_min_moves","spm_correct","spm_rt"
"true","false","[]","[]","[]","preload","0","1080","0.0-0.0","6294fc5023a8698296cbf7b0","E1","batch5","","","","","","","","","","","","","","","","","","","","","","","","","","","","","",""
"true","","","","","fullscreen","1","3904","0.0-1.0-0.0","6294fc5023a8698296cbf7b0","E1","batch5","","","","","","","","","","","","","","","","","","","","","","","","","","","","","",""
"true","","","","","fullscreen","2","8442","0.0-2.0-0.0","6294fc5023a8698296cbf7b0","E1","batch5","","","","","","","","","","","","","","","","","","","","","","","","","","","","","",""
"","","","","","instructions","3","97611","0.0-2.0-1.0-0.0","6294fc5023a8698296cbf7b0","E1","batch5","[{""page_index"":0,""viewing_time"":16962.399999976158},{""page_index"":1,""viewing_time"":72205.39999997616}]","89168.10000002384","","","","","","","","","","","","","","","","","","","","","","","","","","","",""
"","","","","","html-button-response","4","99273","0.0-2.0-1.0-1.0-0.0","6294fc5023a8698296cbf7b0","E1","batch5","","1661.1999999284744","<p class=block-text> Let's answer a few questions <br>","0","pattern_enter_quiz","","","","","","","","","","","","","","","","","","","","","","","","",""
"","","","","","html-button-response","5","101358","0.0-2.0-1.0-1.0-1.0","6294fc5023a8698296cbf7b0","E1","batch5","","2083.8000000715256","<p class = block-text>True or False: You will have as much time as you want to make each choice. <br></p>","1","pattern_quiz","true","","","","","","","","","","","","","","","","","","","","","","","",""
"","","","","","html-button-response","6","102802","0.0-2.0-1.0-1.0-2.0","6294fc5023a8698296cbf7b0","E1","batch5","","1443.8000000715256","<p class = block-text>Correct! You should make your choice <strong> as fast as you can</strong>.</p>","0","pattern_quiz_feedback","","","","","","","","","","","","","","","","","","","","","","","","",""
"","","","","","html-button-response","7","105400","0.0-2.0-1.0-1.0-3.0","6294fc5023a8698296cbf7b0","E1","batch5","","2597.2999999523163","<p class = block-text>True or False: You will look for 4 pieces in black or white color connected in a row either horizontally, vertically or diagonally. <br></p>","0","pattern_quiz","true","","","","","","","","","","","","","","","","","","","","","","","",""
"","","","","","html-button-response","8","105977","0.0-2.0-1.0-1.0-4.0","6294fc5023a8698296cbf7b0","E1","batch5","","576.2000000476837","<p class = block-text>Correct! </p>","0","pattern_quiz_feedback","","","","","","","","","","","","","","","","","","","","","","","","",""
"","","","","","html-button-response","9","106918","0.0-2.0-2.0","6294fc5023a8698296cbf7b0","E1","batch5","","939.8999999761581","<p class=block-text> Now that you've understood the game, let's do a few practice trials before we start!<br> <br>","0","pattern_enter_practice","","","","","","","","","","","","","","","","","","","","","","","","",""
"","","","","","image-keyboard-response","10","109617","0.0-2.0-3.0-0.0","6294fc5023a8698296cbf7b0","E1","batch5","","2697.4000000953674","stim/prac_no_18_1.png","j","pattern_practice","true","j","","","","","","","","","","","","","","","","","","","","","","",""
"","","","","","html-keyboard-response","11","110631","0.0-2.0-3.0-1.0","6294fc5023a8698296cbf7b0","E1","batch5","","null","<p style=""font-size:30px;color:green;"">Correct!</p>","null","pattern_feedback","","","","","","","","","","","","","","","","","","","","","","","","",""
"","","","","","image-keyboard-response","12","111498","0.0-2.0-3.0-0.1","6294fc5023a8698296cbf7b0","E1","batch5","","866.3000000715256","stim/prac_no_16_1.png","j","pattern_practice","true","j","","","","","","","","","","","","","","","","","","","","","","",""
"","","","","","html-keyboard-response","13","112516","0.0-2.0-3.0-1.1","6294fc5023a8698296cbf7b0","E1","batch5","","null","<p style=""font-size:30px;color:green;"">Correct!</p>","null","pattern_feedback","","","","","","","","","","","","","","","","","","","","","","","","",""
"","","","","","image-keyboard-response","14","113351","0.0-2.0-3.0-0.2","6294fc5023a8698296cbf7b0","E1","batch5","","834.7000000476837","stim/prac_yes_20_dia_b1.png","f","pattern_practice","true","f","","","","","","","","","","","","","","","","","","","","","","",""
"","","","","","html-keyboard-response","15","114373","0.0-2.0-3.0-1.2","6294fc5023a8698296cbf7b0","E1","batch5","","null","<p style=""font-size:30px;color:green;"">Correct!</p>","null","pattern_feedback","","","","","","","","","","","","","","","","","","","","","","","","",""
"","","","","","image-keyboard-response","16","115030","0.0-2.0-3.0-0.3","6294fc5023a8698296cbf7b0","E1","batch5","","655.7999999523163","stim/prac_yes_18_hor_w1.png","j","pattern_practice","false","f","","","","","","","","","","","","","","","","","","","","","","",""
"","","","","","html-keyboard-response","17","116053","0.0-2.0-3.0-1.3","6294fc5023a8698296cbf7b0","E1","batch5","","null","<p style=""font-size:30px;color:red;"">Wrong.</p>","null","pattern_feedback","","","","","","","","","","","","","","","","","","","","","","","","",""
"","","","","","image-keyboard-response","18","116621","0.0-2.0-3.0-0.4","6294fc5023a8698296cbf7b0","E1","batch5","","566.3000000715256","stim/prac_yes_16_ver_w1.png","f","pattern_practice","true","f","","","","","","","","","","","","","","","","","","","","","","",""
"","","","","","html-keyboard-response","19","117646","0.0-2.0-3.0-1.4","6294fc5023a8698296cbf7b0","E1","batch5","","null","<p style=""font-size:30px;color:green;"">Correct!</p>","null","pattern_feedback","","","","","","","","","","","","","","","","","","","","","","","","",""
"","","","","","html-button-response","20","120052","0.0-2.0-4.0","6294fc5023a8698296cbf7b0","E1","batch5","","2405.100000023842","<p class=block-text> Good job! You are done with practice trials!<br>
        You responded correctly on 80% of the trials.<br>
        Press the button below to start official trials. Now you won't see any feedback about your response</p>","0","pattern_enter_official_trials","","","","","","","","","","","","","","","","","","","","","","","","",""
"","","","","","html-keyboard-response","21","120857","0.0-2.0-5.0-0.0","6294fc5023a8698296cbf7b0","E1","batch5","","null","<p class=block-text>Trial 1 out of 78</p>","null","pattern_show_trial_num","","","","","","","","","","","","","","","","","","","","","","","","",""
"","","","","","image-keyboard-response","22","124636","0.0-2.0-5.0-1.0","6294fc5023a8698296cbf7b0","E1","batch5","","3778","stim/yes_51_dia_b1.png","f","pattern_response","true","f","pattern_72","3778","true","1","","","","","","","","","","","","","","","","","","",""
"","","","","","html-keyboard-response","23","125954","0.0-2.0-5.0-0.1","6294fc5023a8698296cbf7b0","E1","batch5","","null","<p class=block-text>Trial 2 out of 78</p>","null","pattern_show_trial_num","","","","","","","","","","","","","","","","","","","","","","","","",""
"","","","","","image-keyboard-response","24","126588","0.0-2.0-5.0-1.1","6294fc5023a8698296cbf7b0","E1","batch5","","633.2999999523163","stim/yes_23_ver_b1.png","f","pattern_response","true","f","pattern_48","633.2999999523163","true","2","","","","","","","","","","","","","","","","","","",""
"","","","","","html-keyboard-response","25","127899","0.0-2.0-5.0-0.2","6294fc5023a8698296cbf7b0","E1","batch5","","null","<p class=block-text>Trial 3 out of 78</p>","null","pattern_show_trial_num","","","","","","","","","","","","","","","","","","","","","","","","",""
"","","","","","image-keyboard-response","26","129120","0.0-2.0-5.0-1.2","6294fc5023a8698296cbf7b0","E1","batch5","","1220.6000000238419","stim/no_58_1_w.png","f","pattern_response","false","j","pattern_35","1220.6000000238419","false","2","","","","","","","","","","","","","","","","","","",""
"","","","","","html-keyboard-response","27","130448","0.0-2.0-5.0-0.3","6294fc5023a8698296cbf7b0","E1","batch5","","null","<p class=block-text>Trial 4 out of 78</p>","null","pattern_show_trial_num","","","","","","","","","","","","","","","","","","","","","","","","",""
"","","","","","image-keyboard-response","28","134952","0.0-2.0-5.0-1.3","6294fc5023a8698296cbf7b0","E1","batch5","","4502.5","stim/no_67_1.png","j","pattern_response","true","j","pattern_39","4502.5","true","3","","","","","","","","","","","","","","","","","","",""
"","","","","","html-keyboard-response","29","136263","0.0-2.0-5.0-0.4","6294fc5023a8698296cbf7b0","E1","batch5","","null","<p class=block-text>Trial 5 out of 78</p>","null","pattern_show_trial_num","","","","","","","","","","","","","","","","","","","","","","","","",""
"","","","","","image-keyboard-response","30","136991","0.0-2.0-5.0-1.4","6294fc5023a8698296cbf7b0","E1","batch5","","726.8999999761581","stim/no_12_1.png","j","pattern_response","true","j","pattern_01","726.8999999761581","true","4","","","","","","","","","","","","","","","","","","",""
"","","","","","html-keyboard-response","31","138304","0.0-2.0-5.0-0.5","6294fc5023a8698296cbf7b0","E1","batch5","","null","<p class=block-text>Trial 6 out of 78</p>","null","pattern_show_trial_num","","","","","","","","","","","","","","","","","","","","","","","","",""
"","","","","","image-keyboard-response","32","139624","0.0-2.0-5.0-1.5","6294fc5023a8698296cbf7b0","E1","batch5","","1319.3999999761581","stim/no_30_1_b.png","j","pattern_response","true","j","pattern_13","1319.3999999761581","true","5","","","","","","","","","","","","","","","","","","",""
"","","","","","html-keyboard-response","33","140932","0.0-2.0-5.0-0.6","6294fc5023a8698296cbf7b0","E1","batch5","","null","<p class=block-text>Trial 7 out of 78</p>","null","pattern_show_trial_num","","","","","","","","","","","","","","","","","","","","","","","","",""
"","","","","","image-keyboard-response","34","141997","0.0-2.0-5.0-1.6","6294fc5023a8698296cbf7b0","E1","batch5","","1064.0999999046326","stim/no_25_1_b.png","j","pattern_response","true","j","pattern_09","1064.0999999046326","true","6","","","","","","","","","","","","","","","","","","",""
"","","","","","html-keyboard-response","35","143304","0.0-2.0-5.0-0.7","6294fc5023a8698296cbf7b0","E1","batch5","","null","<p class=block-text>Trial 8 out of 78</p>","null","pattern_show_trial_num","","","","","","","","","","","","","","","","","","","","","","","","",""
"","","","","","image-keyboard-response","36","145440","0.0-2.0-5.0-1.7","6294fc5023a8698296cbf7b0","E1","batch5","","2135.8000000715256","stim/no_45_1_w.png","j","pattern_response","true","j","pattern_25","2135.8000000715256","true","7","","","","","","","","","","","","","","","","","","",""
"","","","","","html-keyboard-response","37","146753","0.0-2.0-5.0-0.8","6294fc5023a8698296cbf7b0","E1","batch5","","null","<p class=block-text>Trial 9 out of 78</p>","null","pattern_show_trial_num","","","","","","","","","","","","","","","","","","","","","","","","",""
"","","","","","image-keyboard-response","38","148564","0.0-2.0-5.0-1.8","6294fc5023a8698296cbf7b0","E1","batch5","","1809.6000000238419","stim/yes_42_dia_w1_w.png","f","pattern_response","true","f","pattern_64","1809.6000000238419","true","8","","","","","","","","","","","","","","","","","","",""
"","","","","","html-keyboard-response","39","149884","0.0-2.0-5.0-0.9","6294fc5023a8698296cbf7b0","E1","batch5","","null","<p class=block-text>Trial 10 out of 78</p>","null","pattern_show_trial_num","","","","","","","","","","","","","","","","","","","","","","","","",""
"","","","","","image-keyboard-response","40","152109","0.0-2.0-5.0-1.9","6294fc5023a8698296cbf7b0","E1","batch5","","2223.100000023842","stim/no_28_2.png","j","pattern_response","true","j","pattern_11","2223.100000023842","true","9","","","","","","","","","","","","","","","","","","",""
"","","","","","html-keyboard-response","41","153430","0.0-2.0-5.0-0.10","6294fc5023a8698296cbf7b0","E1","batch5","","null","<p class=block-text>Trial 11 out of 78</p>","null","pattern_show_trial_num","","","","","","","","","","","","","","","","","","","","","","","","",""
"","","","","","image-keyboard-response","42","155740","0.0-2.0-5.0-1.10","6294fc5023a8698296cbf7b0","E1","batch5","","2308.8000000715256","stim/no_33_1_b.png","j","pattern_response","true","j","pattern_15","2308.8000000715256","true","10","","","","","","","","","","","","","","","","","","",""
"","","","","","html-keyboard-response","43","157058","0.0-2.0-5.0-0.11","6294fc5023a8698296cbf7b0","E1","batch5","","null","<p class=block-text>Trial 12 out of 78</p>","null","pattern_show_trial_num","","","","","","","","","","","","","","","","","","","","","","","","",""
"","","","","","image-keyboard-response","44","159500","0.0-2.0-5.0-1.11","6294fc5023a8698296cbf7b0","E1","batch5","","2441.100000023842","stim/yes_49_hor_w1_b.png","j","pattern_response","false","f","pattern_70","2441.100000023842","false","10","","","","","","","","","","","","","","","","","","",""
"","","","","","html-keyboard-response","45","160820","0.0-2.0-5.0-0.12","6294fc5023a8698296cbf7b0","E1","batch5","","null","<p class=block-text>Trial 13 out of 78</p>","null","pattern_show_trial_num","","","","","","","","","","","","","","","","","","","","","","","","",""
"","","","","","image-keyboard-response","46","162221","0.0-2.0-5.0-1.12","6294fc5023a8698296cbf7b0","E1","batch5","","1399.3999999761581","stim/yes_30_ver_b1_b.png","j","pattern_response","false","f","pattern_54","1399.3999999761581","false","10","","","","","","","","","","","","","","","","","","",""
"","","","","","html-keyboard-response","47","163537","0.0-2.0-5.0-0.13","6294fc5023a8698296cbf7b0","E1","batch5","","null","<p class=block-text>Trial 14 out of 78</p>","null","pattern_show_trial_num","","","","","","","","","","","","","","","","","","","","","","","","",""
"","","","","","image-keyboard-response","48","167010","0.0-2.0-5.0-1.13","6294fc5023a8698296cbf7b0","E1","batch5","","3472.100000023842","stim/no_51_1.png","j","pattern_response","true","j","pattern_31","3472.100000023842","true","11","","","","","","","","","","","","","","","","","","",""
"","","","","","html-keyboard-response","49","168332","0.0-2.0-5.0-0.14","6294fc5023a8698296cbf7b0","E1","batch5","","null","<p class=block-text>Trial 15 out of 78</p>","null","pattern_show_trial_num","","","","","","","","","","","","","","","","","","","","","","","","",""
"","","","","","image-keyboard-response","50","169093","0.0-2.0-5.0-1.14","6294fc5023a8698296cbf7b0","E1","batch5","","759.8999999761581","stim/yes_12_hor_w1_w.png","f","pattern_response","true","f","pattern_42","759.8999999761581","true","12","","","","","","","","","","","","","","","","","","",""
"","","","","","html-keyboard-response","51","170400","0.0-2.0-5.0-0.15","6294fc5023a8698296cbf7b0","E1","batch5","","null","<p class=block-text>Trial 16 out of 78</p>","null","pattern_show_trial_num","","","","","","","","","","","","","","","","","","","","","","","","",""
"","","","","","image-keyboard-response","52","172045","0.0-2.0-5.0-1.15","6294fc5023a8698296cbf7b0","E1","batch5","","1644","stim/yes_46_ver_b1_b.png","f","pattern_response","true","f","pattern_68","1644","true","13","","","","","","","","","","","","","","","","","","",""
"","","","","","html-keyboard-response","53","173368","0.0-2.0-5.0-0.16","6294fc5023a8698296cbf7b0","E1","batch5","","null","<p class=block-text>Trial 17 out of 78</p>","null","pattern_show_trial_num","","","","","","","","","","","","","","","","","","","","","","","","",""
"","","","","","image-keyboard-response","54","175893","0.0-2.0-5.0-1.16","6294fc5023a8698296cbf7b0","E1","batch5","","2523.7000000476837","stim/no_37_2_w.png","j","pattern_response","true","j","pattern_19","2523.7000000476837","true","14","","","","","","","","","","","","","","","","","","",""
"","","","","","html-keyboard-response","55","177211","0.0-2.0-5.0-0.17","6294fc5023a8698296cbf7b0","E1","batch5","","null","<p class=block-text>Trial 18 out of 78</p>","null","pattern_show_trial_num","","","","","","","","","","","","","","","","","","","","","","","","",""
"","","","","","image-keyboard-response","56","178453","0.0-2.0-5.0-1.17","6294fc5023a8698296cbf7b0","E1","batch5","","1240.8000000715256","stim/yes_53_ver_b1_b.png","f","pattern_response","true","f","pattern_74","1240.8000000715256","true","15","","","","","","","","","","","","","","","","","","",""
"","","","","","html-keyboard-response","57","179766","0.0-2.0-5.0-0.18","6294fc5023a8698296cbf7b0","E1","batch5","","null","<p class=block-text>Trial 19 out of 78</p>","null","pattern_show_trial_num","","","","","","","","","","","","","","","","","","","","","","","","",""
"","","","","","image-keyboard-response","58","180450","0.0-2.0-5.0-1.18","6294fc5023a8698296cbf7b0","E1","batch5","","682.6999999284744","stim/yes_15_dia_b1u_b.png","f","pattern_response","true","f","pattern_44","682.6999999284744","true","16","","","","","","","","","","","","","","","","","","",""
"","","","","","html-keyboard-response","59","181765","0.0-2.0-5.0-0.19","6294fc5023a8698296cbf7b0","E1","batch5","","null","<p class=block-text>Trial 20 out of 78</p>","null","pattern_show_trial_num","","","","","","","","","","","","","","","","","","","","","","","","",""
"","","","","","image-keyboard-response","60","182720","0.0-2.0-5.0-1.19","6294fc5023a8698296cbf7b0","E1","batch5","","953.5","stim/yes_33_dia_w1_w.png","f","pattern_response","true","f","pattern_56","953.5","true","17","","","","","","","","","","","","","","","","","","",""
"","","","","","html-keyboard-response","61","184028","0.0-2.0-5.0-0.20","6294fc5023a8698296cbf7b0","E1","batch5","","null","<p class=block-text>Trial 21 out of 78</p>","null","pattern_show_trial_num","","","","","","","","","","","","","","","","","","","","","","","","",""
"","","","","","image-keyboard-response","62","184804","0.0-2.0-5.0-1.20","6294fc5023a8698296cbf7b0","E1","batch5","","774.3999999761581","stim/no_22_1_b.png","j","pattern_response","true","j","pattern_07","774.3999999761581","true","18","","","","","","","","","","","","","","","","","","",""
"","","","","","html-keyboard-response","63","186115","0.0-2.0-5.0-0.21","6294fc5023a8698296cbf7b0","E1","batch5","","null","<p class=block-text>Trial 22 out of 78</p>","null","pattern_show_trial_num","","","","","","","","","","","","","","","","","","","","","","","","",""
"","","","","","image-keyboard-response","64","188277","0.0-2.0-5.0-1.21","6294fc5023a8698296cbf7b0","E1","batch5","","2162.100000023842","stim/no_36_1_b.png","j","pattern_response","true","j","pattern_17","2162.100000023842","true","19","","","","","","","","","","","","","","","","","","",""
"","","","","","html-keyboard-response","65","189598","0.0-2.0-5.0-0.22","6294fc5023a8698296cbf7b0","E1","batch5","","null","<p class=block-text>Trial 23 out of 78</p>","null","pattern_show_trial_num","","","","","","","","","","","","","","","","","","","","","","","","",""
"","","","","","image-keyboard-response","66","190332","0.0-2.0-5.0-1.22","6294fc5023a8698296cbf7b0","E1","batch5","","733.5","stim/yes_36_ver_w1_w.png","f","pattern_response","true","f","pattern_58","733.5","true","20","","","","","","","","","","","","","","","","","","",""
"","","","","","html-keyboard-response","67","191648","0.0-2.0-5.0-0.23","6294fc5023a8698296cbf7b0","E1","batch5","","null","<p class=block-text>Trial 24 out of 78</p>","null","pattern_show_trial_num","","","","","","","","","","","","","","","","","","","","","","","","",""
"","","","","","image-keyboard-response","68","192501","0.0-2.0-5.0-1.23","6294fc5023a8698296cbf7b0","E1","batch5","","852.2000000476837","stim/yes_26_dia_w2_w.png","f","pattern_response","true","f","pattern_50","852.2000000476837","true","21","","","","","","","","","","","","","","","","","","",""
"","","","","","html-keyboard-response","69","193831","0.0-2.0-5.0-0.24","6294fc5023a8698296cbf7b0","E1","batch5","","null","<p class=block-text>Trial 25 out of 78</p>","null","pattern_show_trial_num","","","","","","","","","","","","","","","","","","","","","","","","",""
"","","","","","image-keyboard-response","70","195467","0.0-2.0-5.0-1.24","6294fc5023a8698296cbf7b0","E1","batch5","","1635.1999999284744","stim/no_43_2_b.png","j","pattern_response","true","j","pattern_23","1635.1999999284744","true","22","","","","","","","","","","","","","","","","","","",""
"","","","","","html-keyboard-response","71","196783","0.0-2.0-5.0-0.25","6294fc5023a8698296cbf7b0","E1","batch5","","null","<p class=block-text>Trial 26 out of 78</p>","null","pattern_show_trial_num","","","","","","","","","","","","","","","","","","","","","","","","",""
"","","","","","image-keyboard-response","72","197566","0.0-2.0-5.0-1.25","6294fc5023a8698296cbf7b0","E1","batch5","","782.1999999284744","stim/yes_17_ver_b1_b.png","f","pattern_response","true","f","pattern_46","782.1999999284744","true","23","","","","","","","","","","","","","","","","","","",""
"","","","","","html-keyboard-response","73","198885","0.0-2.0-5.0-0.26","6294fc5023a8698296cbf7b0","E1","batch5","","null","<p class=block-text>Trial 27 out of 78</p>","null","pattern_show_trial_num","","","","","","","","","","","","","","","","","","","","","","","","",""
"","","","","","image-keyboard-response","74","204972","0.0-2.0-5.0-1.26","6294fc5023a8698296cbf7b0","E1","batch5","","6086.200000047684","stim/yes_63_dia_b1.png","f","pattern_response","true","f","pattern_78","6086.200000047684","true","24","","","","","","","","","","","","","","","","","","",""
"","","","","","html-keyboard-response","75","206299","0.0-2.0-5.0-0.27","6294fc5023a8698296cbf7b0","E1","batch5","","null","<p class=block-text>Trial 28 out of 78</p>","null","pattern_show_trial_num","","","","","","","","","","","","","","","","","","","","","","","","",""
"","","","","","image-keyboard-response","76","207069","0.0-2.0-5.0-1.27","6294fc5023a8698296cbf7b0","E1","batch5","","769.6999999284744","stim/yes_39_hor_w1_w.png","f","pattern_response","true","f","pattern_62","769.6999999284744","true","25","","","","","","","","","","","","","","","","","","",""
"","","","","","html-keyboard-response","77","208383","0.0-2.0-5.0-0.28","6294fc5023a8698296cbf7b0","E1","batch5","","null","<p class=block-text>Trial 29 out of 78</p>","null","pattern_show_trial_num","","","","","","","","","","","","","","","","","","","","","","","","",""
"","","","","","image-keyboard-response","78","209644","0.0-2.0-5.0-1.28","6294fc5023a8698296cbf7b0","E1","batch5","","1259.7000000476837","stim/no_18_1_b.png","j","pattern_response","true","j","pattern_05","1259.7000000476837","true","26","","","","","","","","","","","","","","","","","","",""
"","","","","","html-keyboard-response","79","210950","0.0-2.0-5.0-0.29","6294fc5023a8698296cbf7b0","E1","batch5","","null","<p class=block-text>Trial 30 out of 78</p>","null","pattern_show_trial_num","","","","","","","","","","","","","","","","","","","","","","","","",""
"","","","","","image-keyboard-response","80","214388","0.0-2.0-5.0-1.29","6294fc5023a8698296cbf7b0","E1","batch5","","3436.5","stim/no_39_1_w.png","j","pattern_response","true","j","pattern_21","3436.5","true","27","","","","","","","","","","","","","","","","","","",""
"","","","","","html-keyboard-response","81","215719","0.0-2.0-5.0-0.30","6294fc5023a8698296cbf7b0","E1","batch5","","null","<p class=block-text>Trial 31 out of 78</p>","null","pattern_show_trial_num","","","","","","","","","","","","","","","","","","","","","","","","",""
"","","","","","image-keyboard-response","82","218628","0.0-2.0-5.0-1.30","6294fc5023a8698296cbf7b0","E1","batch5","","2908","stim/no_49_2_b.png","j","pattern_response","true","j","pattern_29","2908","true","28","","","","","","","","","","","","","","","","","","",""
"","","","","","html-keyboard-response","83","219939","0.0-2.0-5.0-0.31","6294fc5023a8698296cbf7b0","E1","batch5","","null","<p class=block-text>Trial 32 out of 78</p>","null","pattern_show_trial_num","","","","","","","","","","","","","","","","","","","","","","","","",""
"","","","","","image-keyboard-response","84","223344","0.0-2.0-5.0-1.31","6294fc5023a8698296cbf7b0","E1","batch5","","3404.2000000476837","stim/no_53_1_b.png","j","pattern_response","true","j","pattern_33","3404.2000000476837","true","29","","","","","","","","","","","","","","","","","","",""
"","","","","","html-keyboard-response","85","224649","0.0-2.0-5.0-0.32","6294fc5023a8698296cbf7b0","E1","batch5","","null","<p class=block-text>Trial 33 out of 78</p>","null","pattern_show_trial_num","","","","","","","","","","","","","","","","","","","","","","","","",""
"","","","","","image-keyboard-response","86","225730","0.0-2.0-5.0-1.32","6294fc5023a8698296cbf7b0","E1","batch5","","1080.3999999761581","stim/yes_29_hor_b1_b.png","f","pattern_response","true","f","pattern_52","1080.3999999761581","true","30","","","","","","","","","","","","","","","","","","",""
"","","","","","html-keyboard-response","87","227035","0.0-2.0-5.0-0.33","6294fc5023a8698296cbf7b0","E1","batch5","","null","<p class=block-text>Trial 34 out of 78</p>","null","pattern_show_trial_num","","","","","","","","","","","","","","","","","","","","","","","","",""
"","","","","","image-keyboard-response","88","228986","0.0-2.0-5.0-1.33","6294fc5023a8698296cbf7b0","E1","batch5","","1950","stim/no_47_1_b.png","j","pattern_response","true","j","pattern_27","1950","true","31","","","","","","","","","","","","","","","","","","",""
"","","","","","html-keyboard-response","89","230299","0.0-2.0-5.0-0.34","6294fc5023a8698296cbf7b0","E1","batch5","","null","<p class=block-text>Trial 35 out of 78</p>","null","pattern_show_trial_num","","","","","","","","","","","","","","","","","","","","","","","","",""
"","","","","","image-keyboard-response","90","232558","0.0-2.0-5.0-1.34","6294fc5023a8698296cbf7b0","E1","batch5","","2258.7000000476837","stim/yes_44_ver_w1_w.png","f","pattern_response","true","f","pattern_66","2258.7000000476837","true","32","","","","","","","","","","","","","","","","","","",""
"","","","","","html-keyboard-response","91","233869","0.0-2.0-5.0-0.35","6294fc5023a8698296cbf7b0","E1","batch5","","null","<p class=block-text>Trial 36 out of 78</p>","null","pattern_show_trial_num","","","","","","","","","","","","","","","","","","","","","","","","",""
"","","","","","image-keyboard-response","92","234757","0.0-2.0-5.0-1.35","6294fc5023a8698296cbf7b0","E1","batch5","","887.6000000238419","stim/yes_70_ver_b1.png","f","pattern_response","true","f","pattern_80","887.6000000238419","true","33","","","","","","","","","","","","","","","","","","",""
"","","","","","html-keyboard-response","93","236081","0.0-2.0-5.0-0.36","6294fc5023a8698296cbf7b0","E1","batch5","","null","<p class=block-text>Trial 37 out of 78</p>","null","pattern_show_trial_num","","","","","","","","","","","","","","","","","","","","","","","","",""
"","","","","","image-keyboard-response","94","236796","0.0-2.0-5.0-1.36","6294fc5023a8698296cbf7b0","E1","batch5","","714.6000000238419","stim/yes_37_hor_w1_w.png","f","pattern_response","true","f","pattern_60","714.6000000238419","true","34","","","","","","","","","","","","","","","","","","",""
"","","","","","html-keyboard-response","95","238102","0.0-2.0-5.0-0.37","6294fc5023a8698296cbf7b0","E1","batch5","","null","<p class=block-text>Trial 38 out of 78</p>","null","pattern_show_trial_num","","","","","","","","","","","","","","","","","","","","","","","","",""
"","","","","","image-keyboard-response","96","243436","0.0-2.0-5.0-1.37","6294fc5023a8698296cbf7b0","E1","batch5","","5333","stim/yes_58_dia_w1_w.png","j","pattern_response","false","f","pattern_76","5333","false","34","","","","","","","","","","","","","","","","","","",""
"","","","","","html-keyboard-response","97","244751","0.0-2.0-5.0-0.38","6294fc5023a8698296cbf7b0","E1","batch5","","null","<p class=block-text>Trial 39 out of 78</p>","null","pattern_show_trial_num","","","","","","","","","","","","","","","","","","","","","","","","",""
"","","","","","image-keyboard-response","98","245475","0.0-2.0-5.0-1.38","6294fc5023a8698296cbf7b0","E1","batch5","","722.3999999761581","stim/no_15_1_w.png","j","pattern_response","true","j","pattern_03","722.3999999761581","true","35","","","","","","","","","","","","","","","","","","",""
"","","","","","image-keyboard-response","99","247601","0.0-2.0-6.0","6294fc5023a8698296cbf7b0","E1","batch5","","1616.1000000238419","stim/empty_board.png","j","attention_check","true","j","","","","","500","[""f"",""j""]","","","","","","","","","","","","","","","","",""
"","","","","","html-keyboard-response","100","248410","0.0-2.0-7.0-0.0","6294fc5023a8698296cbf7b0","E1","batch5","","null","<p class=block-text>Trial 40 out of 78</p>","null","pattern_show_trial_num","","","","","","","","","","","","","","","","","","","","","","","","",""
"","","","","","image-keyboard-response","101","250959","0.0-2.0-7.0-1.0","6294fc5023a8698296cbf7b0","E1","batch5","","2547.8000000715256","stim/no_29_1_b.png","j","pattern_response","true","j","pattern_12","2547.8000000715256","true","36","","","","","","","","","","","","","","","","","","",""
"","","","","","html-keyboard-response","102","252268","0.0-2.0-7.0-0.1","6294fc5023a8698296cbf7b0","E1","batch5","","null","<p class=block-text>Trial 41 out of 78</p>","null","pattern_show_trial_num","","","","","","","","","","","","","","","","","","","","","","","","",""
"","","","","","image-keyboard-response","103","252941","0.0-2.0-7.0-1.1","6294fc5023a8698296cbf7b0","E1","batch5","","671.6000000238419","stim/yes_14_hor_b1_w.png","f","pattern_response","true","f","pattern_43","671.6000000238419","true","37","","","","","","","","","","","","","","","","","","",""
"","","","","","html-keyboard-response","104","254264","0.0-2.0-7.0-0.2","6294fc5023a8698296cbf7b0","E1","batch5","","null","<p class=block-text>Trial 42 out of 78</p>","null","pattern_show_trial_num","","","","","","","","","","","","","","","","","","","","","","","","",""
"","","","","","image-keyboard-response","105","255965","0.0-2.0-7.0-1.2","6294fc5023a8698296cbf7b0","E1","batch5","","1699.7999999523163","stim/yes_45_hor_b2_b.png","f","pattern_response","true","f","pattern_67","1699.7999999523163","true","38","","","","","","","","","","","","","","","","","","",""
"","","","","","html-keyboard-response","106","257268","0.0-2.0-7.0-0.3","6294fc5023a8698296cbf7b0","E1","batch5","","null","<p class=block-text>Trial 43 out of 78</p>","null","pattern_show_trial_num","","","","","","","","","","","","","","","","","","","","","","","","",""
"","","","","","image-keyboard-response","107","259019","0.0-2.0-7.0-1.3","6294fc5023a8698296cbf7b0","E1","batch5","","1749.7999999523163","stim/yes_37_dia_w1.png","f","pattern_response","true","f","pattern_59","1749.7999999523163","true","39","","","","","","","","","","","","","","","","","","",""
"","","","","","html-keyboard-response","108","260321","0.0-2.0-7.0-0.4","6294fc5023a8698296cbf7b0","E1","batch5","","null","<p class=block-text>Trial 44 out of 78</p>","null","pattern_show_trial_num","","","","","","","","","","","","","","","","","","","","","","","","",""
"","","","","","image-keyboard-response","109","263068","0.0-2.0-7.0-1.4","6294fc5023a8698296cbf7b0","E1","batch5","","2746.2000000476837","stim/yes_40_dia_b1_b.png","j","pattern_response","false","f","pattern_63","2746.2000000476837","false","39","","","","","","","","","","","","","","","","","","",""
"","","","","","html-keyboard-response","110","264384","0.0-2.0-7.0-0.5","6294fc5023a8698296cbf7b0","E1","batch5","","null","<p class=block-text>Trial 45 out of 78</p>","null","pattern_show_trial_num","","","","","","","","","","","","","","","","","","","","","","","","",""
"","","","","","image-keyboard-response","111","267814","0.0-2.0-7.0-1.5","6294fc5023a8698296cbf7b0","E1","batch5","","3428.899999976158","stim/no_36_2_w.png","j","pattern_response","true","j","pattern_18","3428.899999976158","true","40","","","","","","","","","","","","","","","","","","",""
"","","","","","html-keyboard-response","112","269129","0.0-2.0-7.0-0.6","6294fc5023a8698296cbf7b0","E1","batch5","","null","<p class=block-text>Trial 46 out of 78</p>","null","pattern_show_trial_num","","","","","","","","","","","","","","","","","","","","","","","","",""
"","","","","","image-keyboard-response","113","271892","0.0-2.0-7.0-1.6","6294fc5023a8698296cbf7b0","E1","batch5","","2761.6999999284744","stim/yes_50_dia_w1.png","f","pattern_response","true","f","pattern_71","2761.6999999284744","true","41","","","","","","","","","","","","","","","","","","",""
"","","","","","html-keyboard-response","114","273210","0.0-2.0-7.0-0.7","6294fc5023a8698296cbf7b0","E1","batch5","","null","<p class=block-text>Trial 47 out of 78</p>","null","pattern_show_trial_num","","","","","","","","","","","","","","","","","","","","","","","","",""
"","","","","","image-keyboard-response","115","273917","0.0-2.0-7.0-1.7","6294fc5023a8698296cbf7b0","E1","batch5","","706.5","stim/yes_25_hor_b1_b.png","f","pattern_response","true","f","pattern_49","706.5","true","42","","","","","","","","","","","","","","","","","","",""
"","","","","","html-keyboard-response","116","275229","0.0-2.0-7.0-0.8","6294fc5023a8698296cbf7b0","E1","batch5","","null","<p class=block-text>Trial 48 out of 78</p>","null","pattern_show_trial_num","","","","","","","","","","","","","","","","","","","","","","","","",""
"","","","","","image-keyboard-response","117","276217","0.0-2.0-7.0-1.8","6294fc5023a8698296cbf7b0","E1","batch5","","987.3999999761581","stim/no_13_2_b.png","j","pattern_response","true","j","pattern_02","987.3999999761581","true","43","","","","","","","","","","","","","","","","","","",""
"","","","","","html-keyboard-response","118","277537","0.0-2.0-7.0-0.9","6294fc5023a8698296cbf7b0","E1","batch5","","null","<p class=block-text>Trial 49 out of 78</p>","null","pattern_show_trial_num","","","","","","","","","","","","","","","","","","","","","","","","",""
"","","","","","image-keyboard-response","119","278315","0.0-2.0-7.0-1.9","6294fc5023a8698296cbf7b0","E1","batch5","","777.6000000238419","stim/no_17_1_w.png","j","pattern_response","true","j","pattern_04","777.6000000238419","true","44","","","","","","","","","","","","","","","","","","",""
"","","","","","html-keyboard-response","120","279626","0.0-2.0-7.0-0.10","6294fc5023a8698296cbf7b0","E1","batch5","","null","<p class=block-text>Trial 50 out of 78</p>","null","pattern_show_trial_num","","","","","","","","","","","","","","","","","","","","","","","","",""
"","","","","","image-keyboard-response","121","280471","0.0-2.0-7.0-1.10","6294fc5023a8698296cbf7b0","E1","batch5","","844.1000000238419","stim/yes_55_hor_w1_w.png","f","pattern_response","true","f","pattern_75","844.1000000238419","true","45","","","","","","","","","","","","","","","","","","",""
"","","","","","html-keyboard-response","122","281781","0.0-2.0-7.0-0.11","6294fc5023a8698296cbf7b0","E1","batch5","","null","<p class=block-text>Trial 51 out of 78</p>","null","pattern_show_trial_num","","","","","","","","","","","","","","","","","","","","","","","","",""
"","","","","","image-keyboard-response","123","284711","0.0-2.0-7.0-1.11","6294fc5023a8698296cbf7b0","E1","batch5","","2928.399999976158","stim/no_42_1_w.png","j","pattern_response","true","j","pattern_22","2928.399999976158","true","46","","","","","","","","","","","","","","","","","","",""
"","","","","","html-keyboard-response","124","286018","0.0-2.0-7.0-0.12","6294fc5023a8698296cbf7b0","E1","batch5","","null","<p class=block-text>Trial 52 out of 78</p>","null","pattern_show_trial_num","","","","","","","","","","","","","","","","","","","","","","","","",""
"","","","","","image-keyboard-response","125","288487","0.0-2.0-7.0-1.12","6294fc5023a8698296cbf7b0","E1","batch5","","2468.5","stim/yes_67_hor_b1.png","f","pattern_response","true","f","pattern_79","2468.5","true","47","","","","","","","","","","","","","","","","","","",""
"","","","","","html-keyboard-response","126","289799","0.0-2.0-7.0-0.13","6294fc5023a8698296cbf7b0","E1","batch5","","null","<p class=block-text>Trial 53 out of 78</p>","null","pattern_show_trial_num","","","","","","","","","","","","","","","","","","","","","","","","",""
"","","","","","image-keyboard-response","127","292378","0.0-2.0-7.0-1.13","6294fc5023a8698296cbf7b0","E1","batch5","","2578.2000000476837","stim/no_34_1_b.png","j","pattern_response","true","j","pattern_16","2578.2000000476837","true","48","","","","","","","","","","","","","","","","","","",""
"","","","","","html-keyboard-response","128","293690","0.0-2.0-7.0-0.14","6294fc5023a8698296cbf7b0","E1","batch5","","null","<p class=block-text>Trial 54 out of 78</p>","null","pattern_show_trial_num","","","","","","","","","","","","","","","","","","","","","","","","",""
"","","","","","image-keyboard-response","129","295084","0.0-2.0-7.0-1.14","6294fc5023a8698296cbf7b0","E1","batch5","","1393","stim/yes_28_ver_b1.png","f","pattern_response","true","f","pattern_51","1393","true","49","","","","","","","","","","","","","","","","","","",""
"","","","","","html-keyboard-response","130","296409","0.0-2.0-7.0-0.15","6294fc5023a8698296cbf7b0","E1","batch5","","null","<p class=block-text>Trial 55 out of 78</p>","null","pattern_show_trial_num","","","","","","","","","","","","","","","","","","","","","","","","",""
"","","","","","image-keyboard-response","131","297298","0.0-2.0-7.0-1.15","6294fc5023a8698296cbf7b0","E1","batch5","","888.2999999523163","stim/yes_43_ver_w1_w.png","f","pattern_response","true","f","pattern_65","888.2999999523163","true","50","","","","","","","","","","","","","","","","","","",""
"","","","","","html-keyboard-response","132","298626","0.0-2.0-7.0-0.16","6294fc5023a8698296cbf7b0","E1","batch5","","null","<p class=block-text>Trial 56 out of 78</p>","null","pattern_show_trial_num","","","","","","","","","","","","","","","","","","","","","","","","",""
"","","","","","image-keyboard-response","133","303115","0.0-2.0-7.0-1.16","6294fc5023a8698296cbf7b0","E1","batch5","","4487.699999928474","stim/no_46_1_b.png","j","pattern_response","true","j","pattern_26","4487.699999928474","true","51","","","","","","","","","","","","","","","","","","",""
"","","","","","html-keyboard-response","134","304427","0.0-2.0-7.0-0.17","6294fc5023a8698296cbf7b0","E1","batch5","","null","<p class=block-text>Trial 57 out of 78</p>","null","pattern_show_trial_num","","","","","","","","","","","","","","","","","","","","","","","","",""
"","","","","","image-keyboard-response","135","308249","0.0-2.0-7.0-1.17","6294fc5023a8698296cbf7b0","E1","batch5","","3821.3000000715256","stim/yes_48_dia_w1_w.png","f","pattern_response","true","f","pattern_69","3821.3000000715256","true","52","","","","","","","","","","","","","","","","","","",""
"","","","","","html-keyboard-response","136","309567","0.0-2.0-7.0-0.18","6294fc5023a8698296cbf7b0","E1","batch5","","null","<p class=block-text>Trial 58 out of 78</p>","null","pattern_show_trial_num","","","","","","","","","","","","","","","","","","","","","","","","",""
"","","","","","image-keyboard-response","137","313818","0.0-2.0-7.0-1.18","6294fc5023a8698296cbf7b0","E1","batch5","","4249.800000071526","stim/no_55_1_w.png","j","pattern_response","true","j","pattern_34","4249.800000071526","true","53","","","","","","","","","","","","","","","","","","",""
"","","","","","html-keyboard-response","138","315128","0.0-2.0-7.0-0.19","6294fc5023a8698296cbf7b0","E1","batch5","","null","<p class=block-text>Trial 59 out of 78</p>","null","pattern_show_trial_num","","","","","","","","","","","","","","","","","","","","","","","","",""
"","","","","","image-keyboard-response","139","319185","0.0-2.0-7.0-1.19","6294fc5023a8698296cbf7b0","E1","batch5","","4055.5","stim/no_70_2.png","j","pattern_response","true","j","pattern_40","4055.5","true","54","","","","","","","","","","","","","","","","","","",""
"","","","","","html-keyboard-response","140","320513","0.0-2.0-7.0-0.20","6294fc5023a8698296cbf7b0","E1","batch5","","null","<p class=block-text>Trial 60 out of 78</p>","null","pattern_show_trial_num","","","","","","","","","","","","","","","","","","","","","","","","",""
"","","","","","image-keyboard-response","141","324220","0.0-2.0-7.0-1.20","6294fc5023a8698296cbf7b0","E1","batch5","","3705.2999999523163","stim/yes_52_ver_w1.png","j","pattern_response","false","f","pattern_73","3705.2999999523163","false","54","","","","","","","","","","","","","","","","","","",""
"","","","","","html-keyboard-response","142","325528","0.0-2.0-7.0-0.21","6294fc5023a8698296cbf7b0","E1","batch5","","null","<p class=block-text>Trial 61 out of 78</p>","null","pattern_show_trial_num","","","","","","","","","","","","","","","","","","","","","","","","",""
"","","","","","image-keyboard-response","143","326433","0.0-2.0-7.0-1.21","6294fc5023a8698296cbf7b0","E1","batch5","","903.7999999523163","stim/yes_29_ver_w1.png","f","pattern_response","true","f","pattern_53","903.7999999523163","true","55","","","","","","","","","","","","","","","","","","",""
"","","","","","html-keyboard-response","144","327735","0.0-2.0-7.0-0.22","6294fc5023a8698296cbf7b0","E1","batch5","","null","<p class=block-text>Trial 62 out of 78</p>","null","pattern_show_trial_num","","","","","","","","","","","","","","","","","","","","","","","","",""
"","","","","","image-keyboard-response","145","328691","0.0-2.0-7.0-1.22","6294fc5023a8698296cbf7b0","E1","batch5","","955.5","stim/yes_60_ver_b1_b.png","f","pattern_response","true","f","pattern_77","955.5","true","56","","","","","","","","","","","","","","","","","","",""
"","","","","","html-keyboard-response","146","330011","0.0-2.0-7.0-0.23","6294fc5023a8698296cbf7b0","E1","batch5","","null","<p class=block-text>Trial 63 out of 78</p>","null","pattern_show_trial_num","","","","","","","","","","","","","","","","","","","","","","","","",""
"","","","","","image-keyboard-response","147","331136","0.0-2.0-7.0-1.23","6294fc5023a8698296cbf7b0","E1","batch5","","1124.3000000715256","stim/no_23_1.png","j","pattern_response","true","j","pattern_08","1124.3000000715256","true","57","","","","","","","","","","","","","","","","","","",""
"","","","","","html-keyboard-response","148","332449","0.0-2.0-7.0-0.24","6294fc5023a8698296cbf7b0","E1","batch5","","null","<p class=block-text>Trial 64 out of 78</p>","null","pattern_show_trial_num","","","","","","","","","","","","","","","","","","","","","","","","",""
"","","","","","image-keyboard-response","149","333105","0.0-2.0-7.0-1.24","6294fc5023a8698296cbf7b0","E1","batch5","","654.5","stim/yes_22_ver_w1.png","f","pattern_response","true","f","pattern_47","654.5","true","58","","","","","","","","","","","","","","","","","","",""
"","","","","","html-keyboard-response","150","334415","0.0-2.0-7.0-0.25","6294fc5023a8698296cbf7b0","E1","batch5","","null","<p class=block-text>Trial 65 out of 78</p>","null","pattern_show_trial_num","","","","","","","","","","","","","","","","","","","","","","","","",""
"","","","","","image-keyboard-response","151","335580","0.0-2.0-7.0-1.25","6294fc5023a8698296cbf7b0","E1","batch5","","1163.8999999761581","stim/no_26_1_w.png","j","pattern_response","true","j","pattern_10","1163.8999999761581","true","59","","","","","","","","","","","","","","","","","","",""
"","","","","","html-keyboard-response","152","336892","0.0-2.0-7.0-0.26","6294fc5023a8698296cbf7b0","E1","batch5","","null","<p class=block-text>Trial 66 out of 78</p>","null","pattern_show_trial_num","","","","","","","","","","","","","","","","","","","","","","","","",""
"","","","","","image-keyboard-response","153","340787","0.0-2.0-7.0-1.26","6294fc5023a8698296cbf7b0","E1","batch5","","3894.7000000476837","stim/no_62_1_w.png","j","pattern_response","true","j","pattern_36","3894.7000000476837","true","60","","","","","","","","","","","","","","","","","","",""
"","","","","","html-keyboard-response","154","342096","0.0-2.0-7.0-0.27","6294fc5023a8698296cbf7b0","E1","batch5","","null","<p class=block-text>Trial 67 out of 78</p>","null","pattern_show_trial_num","","","","","","","","","","","","","","","","","","","","","","","","",""
"","","","","","image-keyboard-response","155","347645","0.0-2.0-7.0-1.27","6294fc5023a8698296cbf7b0","E1","batch5","","5547.399999976158","stim/no_65_1_b.png","j","pattern_response","true","j","pattern_38","5547.399999976158","true","61","","","","","","","","","","","","","","","","","","",""
"","","","","","html-keyboard-response","156","348957","0.0-2.0-7.0-0.28","6294fc5023a8698296cbf7b0","E1","batch5","","null","<p class=block-text>Trial 68 out of 78</p>","null","pattern_show_trial_num","","","","","","","","","","","","","","","","","","","","","","","","",""
"","","","","","image-keyboard-response","157","350074","0.0-2.0-7.0-1.28","6294fc5023a8698296cbf7b0","E1","batch5","","1116.1999999284744","stim/yes_17_dia_w1.png","f","pattern_response","true","f","pattern_45","1116.1999999284744","true","62","","","","","","","","","","","","","","","","","","",""
"","","","","","html-keyboard-response","158","351382","0.0-2.0-7.0-0.29","6294fc5023a8698296cbf7b0","E1","batch5","","null","<p class=block-text>Trial 69 out of 78</p>","null","pattern_show_trial_num","","","","","","","","","","","","","","","","","","","","","","","","",""
"","","","","","image-keyboard-response","159","352273","0.0-2.0-7.0-1.29","6294fc5023a8698296cbf7b0","E1","batch5","","890.2000000476837","stim/yes_38_hor_b1_b.png","f","pattern_response","true","f","pattern_61","890.2000000476837","true","63","","","","","","","","","","","","","","","","","","",""
"","","","","","html-keyboard-response","160","353595","0.0-2.0-7.0-0.30","6294fc5023a8698296cbf7b0","E1","batch5","","null","<p class=block-text>Trial 70 out of 78</p>","null","pattern_show_trial_num","","","","","","","","","","","","","","","","","","","","","","","","",""
"","","","","","image-keyboard-response","161","354848","0.0-2.0-7.0-1.30","6294fc5023a8698296cbf7b0","E1","batch5","","1252.1000000238419","stim/yes_35_dia_b1.png","f","pattern_response","true","f","pattern_57","1252.1000000238419","true","64","","","","","","","","","","","","","","","","","","",""
"","","","","","html-keyboard-response","162","356165","0.0-2.0-7.0-0.31","6294fc5023a8698296cbf7b0","E1","batch5","","null","<p class=block-text>Trial 71 out of 78</p>","null","pattern_show_trial_num","","","","","","","","","","","","","","","","","","","","","","","","",""
"","","","","","image-keyboard-response","163","358234","0.0-2.0-7.0-1.31","6294fc5023a8698296cbf7b0","E1","batch5","","2068.0999999046326","stim/no_44_1.png","j","pattern_response","true","j","pattern_24","2068.0999999046326","true","65","","","","","","","","","","","","","","","","","","",""
"","","","","","html-keyboard-response","164","359548","0.0-2.0-7.0-0.32","6294fc5023a8698296cbf7b0","E1","batch5","","null","<p class=block-text>Trial 72 out of 78</p>","null","pattern_show_trial_num","","","","","","","","","","","","","","","","","","","","","","","","",""
"","","","","","image-keyboard-response","165","361909","0.0-2.0-7.0-1.32","6294fc5023a8698296cbf7b0","E1","batch5","","2360.2000000476837","stim/no_48_1_w.png","j","pattern_response","true","j","pattern_28","2360.2000000476837","true","66","","","","","","","","","","","","","","","","","","",""
"","","","","","html-keyboard-response","166","363227","0.0-2.0-7.0-0.33","6294fc5023a8698296cbf7b0","E1","batch5","","null","<p class=block-text>Trial 73 out of 78</p>","null","pattern_show_trial_num","","","","","","","","","","","","","","","","","","","","","","","","",""
"","","","","","image-keyboard-response","167","365684","0.0-2.0-7.0-1.33","6294fc5023a8698296cbf7b0","E1","batch5","","2456.8000000715256","stim/no_50_1.png","j","pattern_response","true","j","pattern_30","2456.8000000715256","true","67","","","","","","","","","","","","","","","","","","",""
"","","","","","html-keyboard-response","168","366991","0.0-2.0-7.0-0.34","6294fc5023a8698296cbf7b0","E1","batch5","","null","<p class=block-text>Trial 74 out of 78</p>","null","pattern_show_trial_num","","","","","","","","","","","","","","","","","","","","","","","","",""
"","","","","","image-keyboard-response","169","368898","0.0-2.0-7.0-1.34","6294fc5023a8698296cbf7b0","E1","batch5","","1905.6000000238419","stim/no_32_1_w.png","j","pattern_response","true","j","pattern_14","1905.6000000238419","true","68","","","","","","","","","","","","","","","","","","",""
"","","","","","html-keyboard-response","170","370225","0.0-2.0-7.0-0.35","6294fc5023a8698296cbf7b0","E1","batch5","","null","<p class=block-text>Trial 75 out of 78</p>","null","pattern_show_trial_num","","","","","","","","","","","","","","","","","","","","","","","","",""
"","","","","","image-keyboard-response","171","372412","0.0-2.0-7.0-1.35","6294fc5023a8698296cbf7b0","E1","batch5","","2186.2999999523163","stim/no_52_1.png","j","pattern_response","true","j","pattern_32","2186.2999999523163","true","69","","","","","","","","","","","","","","","","","","",""
"","","","","","html-keyboard-response","172","373716","0.0-2.0-7.0-0.36","6294fc5023a8698296cbf7b0","E1","batch5","","null","<p class=block-text>Trial 76 out of 78</p>","null","pattern_show_trial_num","","","","","","","","","","","","","","","","","","","","","","","","",""
"","","","","","image-keyboard-response","173","376218","0.0-2.0-7.0-1.36","6294fc5023a8698296cbf7b0","E1","batch5","","2501.100000023842","stim/no_38_1_b.png","j","pattern_response","true","j","pattern_20","2501.100000023842","true","70","","","","","","","","","","","","","","","","","","",""
"","","","","","html-keyboard-response","174","377532","0.0-2.0-7.0-0.37","6294fc5023a8698296cbf7b0","E1","batch5","","null","<p class=block-text>Trial 77 out of 78</p>","null","pattern_show_trial_num","","","","","","","","","","","","","","","","","","","","","","","","",""
"","","","","","image-keyboard-response","175","378519","0.0-2.0-7.0-1.37","6294fc5023a8698296cbf7b0","E1","batch5","","985.6000000238419","stim/no_20_1_w.png","j","pattern_response","true","j","pattern_06","985.6000000238419","true","71","","","","","","","","","","","","","","","","","","",""
"","","","","","html-keyboard-response","176","379846","0.0-2.0-7.0-0.38","6294fc5023a8698296cbf7b0","E1","batch5","","null","<p class=block-text>Trial 78 out of 78</p>","null","pattern_show_trial_num","","","","","","","","","","","","","","","","","","","","","","","","",""
"","","","","","image-keyboard-response","177","381919","0.0-2.0-7.0-1.38","6294fc5023a8698296cbf7b0","E1","batch5","","2072.5","stim/yes_31_hor_b1.png","j","pattern_response","false","f","pattern_55","2072.5","false","71","","","","","","","","","","","","","","","","","","",""
"","","","","","html-button-response","178","385988","0.0-2.0-8.0","6294fc5023a8698296cbf7b0","E1","batch5","","3556.600000023842","<p class = block-text>This concludes the 4-in-a-row detection game.Thank you for your responses!<br>
            You responded correctly on 91% of the trials.<br>
            When you are ready, press ""Continue"" button to continue </p>","0","","","","","","","","","","","","","","","","","","","","","","","","","",""
"true","","","","","fullscreen","179","388834","0.0-3.0-0.0","6294fc5023a8698296cbf7b0","E1","batch5","","","","","","","","","","","","","","","","","","","","","","","","","","","","","",""
"","","","","","instructions","180","429764","0.0-3.0-1.0-0.0-0.0","6294fc5023a8698296cbf7b0","E1","batch5","[{""page_index"":0,""viewing_time"":5571.699999928474},{""page_index"":1,""viewing_time"":1666.8999999761581},{""page_index"":2,""viewing_time"":5278.900000095367},{""page_index"":3,""viewing_time"":18914.199999928474},{""page_index"":4,""viewing_time"":3719},{""page_index"":5,""viewing_time"":4775.800000071526},{""page_index"":6,""viewing_time"":1002}]","40928.699999928474","","","tol-instructions","","","","","","","","","","","","","","","","","","","","","","","","",""
"","","","","","html-button-response","181","430476","0.0-3.0-1.0-1.0-0.0","6294fc5023a8698296cbf7b0","E1","batch5","","712.2999999523163","<p class=block-text> Let's answer a few questions <br>","0","tol_enter_quiz","","","","","","","","","","","","","","","","","","","","","","","","",""
"","","","","","html-button-response","182","432570","0.0-3.0-1.0-1.0-1.0","6294fc5023a8698296cbf7b0","E1","batch5","","2092.2000000476837","<p class = block-text>True or False: You can only move the ball on top of a peg. <br></p>","0","tol_quiz","true","","","","","","","","","","","","","","","","","","","","","","","",""
"","","","","","html-button-response","183","433245","0.0-3.0-1.0-1.0-2.0","6294fc5023a8698296cbf7b0","E1","batch5","","674.8999999761581","<p class = block-text>Correct! You can only move the ball on top of a peg.</p>","0","tol_quiz_feedback","","","","","","","","","","","","","","","","","","","","","","","","",""
"","","","","","html-button-response","184","434584","0.0-3.0-1.0-1.0-3.0","6294fc5023a8698296cbf7b0","E1","batch5","","1338.3999999761581","<p class = block-text>True or False: You should try to match your board with the target board with fewest moves possible. <br></p>","0","tol_quiz","true","","","","","","","","","","","","","","","","","","","","","","","",""
"","","","","","html-button-response","185","435135","0.0-3.0-1.0-1.0-4.0","6294fc5023a8698296cbf7b0","E1","batch5","","550.3999999761581","<p class = block-text>Correct! </p>","0","tol_quiz_feedback","","","","","","","","","","","","","","","","","","","","","","","","",""
"","","","","","html-button-response","186","436059","0.0-3.0-2.0","6294fc5023a8698296cbf7b0","E1","batch5","","923","<p class=block-text> Now that you've understood the game, let's practice a few easier examples before we start!<br> <br>","0","","","","","","","","","","","","","","","","","","","","","","","","","",""
"","","","","","single-stim-button","187","438084","0.0-3.0-3.0-0.0","6294fc5023a8698296cbf7b0","E1","batch5","","2024","","","tol_practice","","","","","","","","","tol_peg_2","2024","2024","0","[[1,2,0],[0,0],[0]]","1","[[1,2,0],[0,0],[3]]","practice","2024","","","","","","","",""
"","","","","","single-stim-button","188","439439","0.0-3.0-3.0-1.0","6294fc5023a8698296cbf7b0","E1","batch5","","1355","","","tol_practice","","","","","","","","","tol_peg_3","1355","1355","0","[[1,2,0],[0,0],[3]]","1","[[1,2,0],[0,0],[3]]","practice","1355","","","","","","","",""
"","","","","","poldrack-single-stim","189","440448","0.0-3.0-4.0","6294fc5023a8698296cbf7b0","E1","batch5","","-1","","","tol_feedback","true","","","","","","","","","1000","1000","500","","","","","","-1","none","true","","0","","",""
"","","","","","single-stim-button","190","443402","0.0-3.0-5.0-0.0","6294fc5023a8698296cbf7b0","E1","batch5","","2954","","","tol_practice","","","","","","","","","tol_peg_1","2954","2954","0","[[1,0,0],[3,0],[0]]","2","[[0,0,0],[3,1],[2]]","practice","2954","","","","","","","",""
"","","","","","single-stim-button","191","444082","0.0-3.0-5.0-1.0","6294fc5023a8698296cbf7b0","E1","batch5","","679","","","tol_practice","","","","","","","","","tol_peg_3","679","679","0","[[1,0,0],[3,0],[2]]","2","[[0,0,0],[3,1],[2]]","practice","679","","","","","","","",""
"","","","","","single-stim-button","192","444945","0.0-3.0-5.1-0.1","6294fc5023a8698296cbf7b0","E1","batch5","","862","","","tol_practice","","","","","","","","","tol_peg_1","862","862","0","[[0,0,0],[3,0],[2]]","3","[[0,0,0],[3,1],[2]]","practice","862","","","","","","","",""
"","","","","","single-stim-button","193","445628","0.0-3.0-5.1-1.1","6294fc5023a8698296cbf7b0","E1","batch5","","683","","","tol_practice","","","","","","","","","tol_peg_2","683","683","0","[[0,0,0],[3,1],[2]]","3","[[0,0,0],[3,1],[2]]","practice","683","","","","","","","",""
"","","","","","poldrack-single-stim","194","446632","0.0-3.0-6.0","6294fc5023a8698296cbf7b0","E1","batch5","","-1","","","tol_feedback","true","","","","","","","","","1000","1000","500","","","","","","-1","none","true","","0","","",""
"","","","","","single-stim-button","195","448811","0.0-3.0-7.0-0.0","6294fc5023a8698296cbf7b0","E1","batch5","","2178","","","tol_practice","","","","","","","","","tol_peg_2","2178","2178","0","[[1,2,0],[0,0],[0]]","4","[[1,0,0],[2,0],[3]]","practice","2178","","","","","","","",""
"","","","","","single-stim-button","196","449269","0.0-3.0-7.0-1.0","6294fc5023a8698296cbf7b0","E1","batch5","","458","","","tol_practice","","","","","","","","","tol_peg_3","458","458","0","[[1,2,0],[0,0],[3]]","4","[[1,0,0],[2,0],[3]]","practice","458","","","","","","","",""
"","","","","","single-stim-button","197","449753","0.0-3.0-7.1-0.1","6294fc5023a8698296cbf7b0","E1","batch5","","484","","","tol_practice","","","","","","","","","tol_peg_1","484","484","0","[[1,0,0],[0,0],[3]]","5","[[1,0,0],[2,0],[3]]","practice","484","","","","","","","",""
"","","","","","single-stim-button","198","450057","0.0-3.0-7.1-1.1","6294fc5023a8698296cbf7b0","E1","batch5","","304","","","tol_practice","","","","","","","","","tol_peg_2","304","304","0","[[1,0,0],[2,0],[3]]","5","[[1,0,0],[2,0],[3]]","practice","304","","","","","","","",""
"","","","","","poldrack-single-stim","199","451065","0.0-3.0-8.0","6294fc5023a8698296cbf7b0","E1","batch5","","-1","","","tol_feedback","true","","","","","","","","","1000","1000","500","","","","","","-1","none","true","","0","","",""
"","","","","","html-button-response","200","451746","0.0-3.0-9.0","6294fc5023a8698296cbf7b0","E1","batch5","","679.7999999523163","<div class = centerbox><p class = center-block-text>Great job! You are done with practice trials<br>You are about to start official trials.<br> <br> Problem <strong>1</strong> out of 25 problems</p></div>","0","tol_instruction","","","","","","","","","","","","","","","","","","","","","","","","",""
"","","","","","single-stim-button","201","458840","0.0-3.0-10.0-0.0","6294fc5023a8698296cbf7b0","E1","batch5","","6085","","","tol_tohand","","","","","","","","","tol_peg_1","6085","6085","0","[[1,0,0],[3,0],[0]]","1","[[1,3,0],[2,0],[0]]","0","0","","","","","","3","",""
"","","","","","single-stim-button","202","460652","0.0-3.0-10.0-1.0","6294fc5023a8698296cbf7b0","E1","batch5","","1811","","","tol_toboard","","","","","","","","","tol_peg_2","1811","1811","0","[[1,0,0],[3,2],[0]]","1","[[1,3,0],[2,0],[0]]","0","0","","","","","","3","",""
"","","","","","single-stim-button","203","462130","0.0-3.0-10.1-0.1","6294fc5023a8698296cbf7b0","E1","batch5","","1477","","","tol_tohand","","","","","","","","","tol_peg_2","1477","1477","0","[[1,0,0],[3,0],[0]]","2","[[1,3,0],[2,0],[0]]","0","0","","","","","","3","",""
"","","","","","single-stim-button","204","464708","0.0-3.0-10.1-1.1","6294fc5023a8698296cbf7b0","E1","batch5","","2578","","","tol_toboard","","","","","","","","","tol_peg_3","2578","2578","0","[[1,0,0],[3,0],[2]]","2","[[1,3,0],[2,0],[0]]","0","0","","","","","","3","",""
"","","","","","single-stim-button","205","465093","0.0-3.0-10.2-0.2","6294fc5023a8698296cbf7b0","E1","batch5","","384","","","tol_tohand","","","","","","","","","tol_peg_2","384","384","0","[[1,0,0],[0,0],[2]]","3","[[1,3,0],[2,0],[0]]","0","0","","","","","","3","",""
"","","","","","single-stim-button","206","465637","0.0-3.0-10.2-1.2","6294fc5023a8698296cbf7b0","E1","batch5","","543","","","tol_toboard","","","","","","","","","tol_peg_1","543","543","0","[[1,3,0],[0,0],[2]]","3","[[1,3,0],[2,0],[0]]","0","0","","","","","","3","",""
"","","","","","single-stim-button","207","466250","0.0-3.0-10.3-0.3","6294fc5023a8698296cbf7b0","E1","batch5","","612","","","tol_tohand","","","","","","","","","tol_peg_3","612","612","0","[[1,3,0],[0,0],[0]]","4","[[1,3,0],[2,0],[0]]","0","0","","","","","","3","",""
"","","","","","single-stim-button","208","466533","0.0-3.0-10.3-1.3","6294fc5023a8698296cbf7b0","E1","batch5","","282","","","tol_toboard","","","","","","","","","tol_peg_2","282","282","0","[[1,3,0],[2,0],[0]]","4","[[1,3,0],[2,0],[0]]","0","0","","","","","","3","",""
"","","","","","poldrack-single-stim","209","467546","0.0-3.0-11.0","6294fc5023a8698296cbf7b0","E1","batch5","","-1","","","tol_feedback","true","","","","","","","","","1000","1000","500","","","","","","-1","none","true","6085","8558","","",""
"","","","","","html-button-response","210","468225","0.0-3.0-12.0","6294fc5023a8698296cbf7b0","E1","batch5","","678.7000000476837","<div class = centerbox><p class = center-block-text>problem <strong>2</strong> out of 25 problems</p></div>","0","tol_trial_num","","","","","","","","","","","","","","","","","","","","","","","","",""
"","","","","","single-stim-button","211","470732","0.0-3.0-13.0-0.0","6294fc5023a8698296cbf7b0","E1","batch5","","2506","","","tol_tohand","","","","","","","","","tol_peg_1","2506","2506","0","[[1,0,0],[3,0],[0]]","1","[[2,1,3],[0,0],[0]]","1","0","","","","","","5","",""
"","","","","","single-stim-button","212","471647","0.0-3.0-13.0-1.0","6294fc5023a8698296cbf7b0","E1","batch5","","914","","","tol_toboard","","","","","","","","","tol_peg_3","914","914","0","[[1,0,0],[3,0],[2]]","1","[[2,1,3],[0,0],[0]]","1","0","","","","","","5","",""
"","","","","","single-stim-button","213","474370","0.0-3.0-13.1-0.1","6294fc5023a8698296cbf7b0","E1","batch5","","2722","","","tol_tohand","","","","","","","","","tol_peg_1","2722","2722","0","[[0,0,0],[3,0],[2]]","2","[[2,1,3],[0,0],[0]]","1","0","","","","","","5","",""
"","","","","","single-stim-button","214","474946","0.0-3.0-13.1-1.1","6294fc5023a8698296cbf7b0","E1","batch5","","576","","","tol_toboard","","","","","","","","","tol_peg_2","576","576","0","[[0,0,0],[3,1],[2]]","2","[[2,1,3],[0,0],[0]]","1","0","","","","","","5","",""
"","","","","","single-stim-button","215","475354","0.0-3.0-13.2-0.2","6294fc5023a8698296cbf7b0","E1","batch5","","408","","","tol_tohand","","","","","","","","","tol_peg_3","408","408","0","[[0,0,0],[3,1],[0]]","3","[[2,1,3],[0,0],[0]]","1","0","","","","","","5","",""
"","","","","","single-stim-button","216","475851","0.0-3.0-13.2-1.2","6294fc5023a8698296cbf7b0","E1","batch5","","497","","","tol_toboard","","","","","","","","","tol_peg_1","497","497","0","[[2,0,0],[3,1],[0]]","3","[[2,1,3],[0,0],[0]]","1","0","","","","","","5","",""
"","","","","","single-stim-button","217","476902","0.0-3.0-13.3-0.3","6294fc5023a8698296cbf7b0","E1","batch5","","1051","","","tol_tohand","","","","","","","","","tol_peg_2","1051","1051","0","[[2,0,0],[3,0],[0]]","4","[[2,1,3],[0,0],[0]]","1","0","","","","","","5","",""
"","","","","","single-stim-button","218","477254","0.0-3.0-13.3-1.3","6294fc5023a8698296cbf7b0","E1","batch5","","352","","","tol_toboard","","","","","","","","","tol_peg_1","352","352","0","[[2,1,0],[3,0],[0]]","4","[[2,1,3],[0,0],[0]]","1","0","","","","","","5","",""
"","","","","","single-stim-button","219","478344","0.0-3.0-13.4-0.4","6294fc5023a8698296cbf7b0","E1","batch5","","1090","","","tol_tohand","","","","","","","","","tol_peg_2","1090","1090","0","[[2,1,0],[0,0],[0]]","5","[[2,1,3],[0,0],[0]]","1","0","","","","","","5","",""
"","","","","","single-stim-button","220","478680","0.0-3.0-13.4-1.4","6294fc5023a8698296cbf7b0","E1","batch5","","336","","","tol_toboard","","","","","","","","","tol_peg_1","336","336","0","[[2,1,3],[0,0],[0]]","5","[[2,1,3],[0,0],[0]]","1","0","","","","","","5","",""
"","","","","","poldrack-single-stim","221","479690","0.0-3.0-14.0","6294fc5023a8698296cbf7b0","E1","batch5","","-1","","","tol_feedback","true","","","","","","","","","1000","1000","500","","","","","","-1","none","true","2506","7777","","",""
"","","","","","html-button-response","222","480104","0.0-3.0-15.0","6294fc5023a8698296cbf7b0","E1","batch5","","413.10000002384186","<div class = centerbox><p class = center-block-text>problem <strong>3</strong> out of 25 problems</p></div>","0","tol_trial_num","","","","","","","","","","","","","","","","","","","","","","","","",""
"","","","","","single-stim-button","223","481833","0.0-3.0-16.0-0.0","6294fc5023a8698296cbf7b0","E1","batch5","","1729","","","tol_tohand","","","","","","","","","tol_peg_1","1729","1729","0","[[2,0,0],[0,0],[1]]","1","[[1,2,0],[3,0],[0]]","2","0","","","","","","4","",""
"","","","","","single-stim-button","224","482239","0.0-3.0-16.0-1.0","6294fc5023a8698296cbf7b0","E1","batch5","","406","","","tol_toboard","","","","","","","","","tol_peg_2","406","406","0","[[2,0,0],[3,0],[1]]","1","[[1,2,0],[3,0],[0]]","2","0","","","","","","4","",""
"","","","","","single-stim-button","225","484367","0.0-3.0-16.1-0.1","6294fc5023a8698296cbf7b0","E1","batch5","","2128","","","tol_tohand","","","","","","","","","tol_peg_1","2128","2128","0","[[0,0,0],[3,0],[1]]","2","[[1,2,0],[3,0],[0]]","2","0","","","","","","4","",""
"","","","","","single-stim-button","226","485011","0.0-3.0-16.1-1.1","6294fc5023a8698296cbf7b0","E1","batch5","","643","","","tol_toboard","","","","","","","","","tol_peg_2","643","643","0","[[0,0,0],[3,2],[1]]","2","[[1,2,0],[3,0],[0]]","2","0","","","","","","4","",""
"","","","","","single-stim-button","227","485409","0.0-3.0-16.2-0.2","6294fc5023a8698296cbf7b0","E1","batch5","","398","","","tol_tohand","","","","","","","","","tol_peg_3","398","398","0","[[0,0,0],[3,2],[0]]","3","[[1,2,0],[3,0],[0]]","2","0","","","","","","4","",""
"","","","","","single-stim-button","228","486000","0.0-3.0-16.2-1.2","6294fc5023a8698296cbf7b0","E1","batch5","","591","","","tol_toboard","","","","","","","","","tol_peg_1","591","591","0","[[1,0,0],[3,2],[0]]","3","[[1,2,0],[3,0],[0]]","2","0","","","","","","4","",""
"","","","","","single-stim-button","229","486707","0.0-3.0-16.3-0.3","6294fc5023a8698296cbf7b0","E1","batch5","","707","","","tol_tohand","","","","","","","","","tol_peg_2","707","707","0","[[1,0,0],[3,0],[0]]","4","[[1,2,0],[3,0],[0]]","2","0","","","","","","4","",""
"","","","","","single-stim-button","230","487309","0.0-3.0-16.3-1.3","6294fc5023a8698296cbf7b0","E1","batch5","","602","","","tol_toboard","","","","","","","","","tol_peg_1","602","602","0","[[1,2,0],[3,0],[0]]","4","[[1,2,0],[3,0],[0]]","2","0","","","","","","4","",""
"","","","","","poldrack-single-stim","231","488312","0.0-3.0-17.0","6294fc5023a8698296cbf7b0","E1","batch5","","-1","","","tol_feedback","true","","","","","","","","","1000","1000","500","","","","","","-1","none","true","1729","4962","","",""
"","","","","","html-button-response","232","488944","0.0-3.0-18.0","6294fc5023a8698296cbf7b0","E1","batch5","","631","<div class = centerbox><p class = center-block-text>problem <strong>4</strong> out of 25 problems</p></div>","0","tol_trial_num","","","","","","","","","","","","","","","","","","","","","","","","",""
"","","","","","single-stim-button","233","491105","0.0-3.0-19.0-0.0","6294fc5023a8698296cbf7b0","E1","batch5","","2161","","","tol_tohand","","","","","","","","","tol_peg_2","2161","2161","0","[[3,0,0],[2,0],[0]]","1","[[3,0,0],[1,0],[2]]","3","0","","","","","","3","",""
"","","","","","single-stim-button","234","493334","0.0-3.0-19.0-1.0","6294fc5023a8698296cbf7b0","E1","batch5","","2228","","","tol_toboard","","","","","","","","","tol_peg_1","2228","2228","0","[[3,1,0],[2,0],[0]]","1","[[3,0,0],[1,0],[2]]","3","0","","","","","","3","",""
"","","","","","single-stim-button","235","493876","0.0-3.0-19.1-0.1","6294fc5023a8698296cbf7b0","E1","batch5","","541","","","tol_tohand","","","","","","","","","tol_peg_2","541","541","0","[[3,1,0],[0,0],[0]]","2","[[3,0,0],[1,0],[2]]","3","0","","","","","","3","",""
"","","","","","single-stim-button","236","494308","0.0-3.0-19.1-1.1","6294fc5023a8698296cbf7b0","E1","batch5","","431","","","tol_toboard","","","","","","","","","tol_peg_3","431","431","0","[[3,1,0],[0,0],[2]]","2","[[3,0,0],[1,0],[2]]","3","0","","","","","","3","",""
"","","","","","single-stim-button","237","494997","0.0-3.0-19.2-0.2","6294fc5023a8698296cbf7b0","E1","batch5","","688","","","tol_tohand","","","","","","","","","tol_peg_1","688","688","0","[[3,0,0],[0,0],[2]]","3","[[3,0,0],[1,0],[2]]","3","0","","","","","","3","",""
"","","","","","single-stim-button","238","495338","0.0-3.0-19.2-1.2","6294fc5023a8698296cbf7b0","E1","batch5","","339","","","tol_toboard","","","","","","","","","tol_peg_2","339","339","0","[[3,0,0],[1,0],[2]]","3","[[3,0,0],[1,0],[2]]","3","0","","","","","","3","",""
"","","","","","poldrack-single-stim","239","496345","0.0-3.0-20.0","6294fc5023a8698296cbf7b0","E1","batch5","","-1","","","tol_feedback","true","","","","","","","","","1000","1000","500","","","","","","-1","none","true","2161","3390","","",""
"","","","","","html-button-response","240","496838","0.0-3.0-21.0","6294fc5023a8698296cbf7b0","E1","batch5","","492.5","<div class = centerbox><p class = center-block-text>problem <strong>5</strong> out of 25 problems</p></div>","0","tol_trial_num","","","","","","","","","","","","","","","","","","","","","","","","",""
"","","","","","single-stim-button","241","500604","0.0-3.0-22.0-0.0","6294fc5023a8698296cbf7b0","E1","batch5","","3765","","","tol_tohand","","","","","","","","","tol_peg_2","3765","3765","0","[[1,0,0],[0,0],[3]]","1","[[0,0,0],[1,2],[3]]","4","0","","","","","","7","",""
"","","","","","single-stim-button","242","501051","0.0-3.0-22.0-1.0","6294fc5023a8698296cbf7b0","E1","batch5","","447","","","tol_toboard","","","","","","","","","tol_peg_1","447","447","0","[[1,2,0],[0,0],[3]]","1","[[0,0,0],[1,2],[3]]","4","0","","","","","","7","",""
"","","","","","single-stim-button","243","502689","0.0-3.0-22.1-0.1","6294fc5023a8698296cbf7b0","E1","batch5","","1637","","","tol_tohand","","","","","","","","","tol_peg_1","1637","1637","0","[[1,0,0],[0,0],[3]]","2","[[0,0,0],[1,2],[3]]","4","0","","","","","","7","",""
"","","","","","single-stim-button","244","503623","0.0-3.0-22.1-1.1","6294fc5023a8698296cbf7b0","E1","batch5","","934","","","tol_toboard","","","","","","","","","tol_peg_2","934","934","0","[[1,0,0],[2,0],[3]]","2","[[0,0,0],[1,2],[3]]","4","0","","","","","","7","",""
"","","","","","single-stim-button","245","503915","0.0-3.0-22.2-0.2","6294fc5023a8698296cbf7b0","E1","batch5","","292","","","tol_tohand","","","","","","","","","tol_peg_3","292","292","0","[[1,0,0],[2,0],[0]]","3","[[0,0,0],[1,2],[3]]","4","0","","","","","","7","",""
"","","","","","single-stim-button","246","504334","0.0-3.0-22.2-1.2","6294fc5023a8698296cbf7b0","E1","batch5","","418","","","tol_toboard","","","","","","","","","tol_peg_1","418","418","0","[[1,3,0],[2,0],[0]]","3","[[0,0,0],[1,2],[3]]","4","0","","","","","","7","",""
"","","","","","single-stim-button","247","505633","0.0-3.0-22.3-0.3","6294fc5023a8698296cbf7b0","E1","batch5","","1299","","","tol_tohand","","","","","","","","","tol_peg_2","1299","1299","0","[[1,3,0],[0,0],[0]]","4","[[0,0,0],[1,2],[3]]","4","0","","","","","","7","",""
"","","","","","single-stim-button","248","505994","0.0-3.0-22.3-1.3","6294fc5023a8698296cbf7b0","E1","batch5","","361","","","tol_toboard","","","","","","","","","tol_peg_3","361","361","0","[[1,3,0],[0,0],[2]]","4","[[0,0,0],[1,2],[3]]","4","0","","","","","","7","",""
"","","","","","single-stim-button","249","506666","0.0-3.0-22.4-0.4","6294fc5023a8698296cbf7b0","E1","batch5","","672","","","tol_tohand","","","","","","","","","tol_peg_1","672","672","0","[[1,0,0],[0,0],[2]]","5","[[0,0,0],[1,2],[3]]","4","0","","","","","","7","",""
"","","","","","single-stim-button","250","507037","0.0-3.0-22.4-1.4","6294fc5023a8698296cbf7b0","E1","batch5","","371","","","tol_toboard","","","","","","","","","tol_peg_2","371","371","0","[[1,0,0],[3,0],[2]]","5","[[0,0,0],[1,2],[3]]","4","0","","","","","","7","",""
"","","","","","single-stim-button","251","515735","0.0-3.0-22.5-0.5","6294fc5023a8698296cbf7b0","E1","batch5","","8698","","","tol_tohand","","","","","","","","","tol_peg_2","8698","8698","0","[[1,0,0],[0,0],[2]]","6","[[0,0,0],[1,2],[3]]","4","0","","","","","","7","",""
"","","","","","single-stim-button","252","516703","0.0-3.0-22.5-1.5","6294fc5023a8698296cbf7b0","E1","batch5","","968","","","tol_toboard","","","","","","","","","tol_peg_1","968","968","0","[[1,3,0],[0,0],[2]]","6","[[0,0,0],[1,2],[3]]","4","0","","","","","","7","",""
"","","","","","single-stim-button","253","517403","0.0-3.0-22.6-0.6","6294fc5023a8698296cbf7b0","E1","batch5","","699","","","tol_tohand","","","","","","","","","tol_peg_3","699","699","0","[[1,3,0],[0,0],[0]]","7","[[0,0,0],[1,2],[3]]","4","0","","","","","","7","",""
"","","","","","single-stim-button","254","517691","0.0-3.0-22.6-1.6","6294fc5023a8698296cbf7b0","E1","batch5","","288","","","tol_toboard","","","","","","","","","tol_peg_2","288","288","0","[[1,3,0],[2,0],[0]]","7","[[0,0,0],[1,2],[3]]","4","0","","","","","","7","",""
"","","","","","single-stim-button","255","518112","0.0-3.0-22.7-0.7","6294fc5023a8698296cbf7b0","E1","batch5","","421","","","tol_tohand","","","","","","","","","tol_peg_1","421","421","0","[[1,0,0],[2,0],[0]]","8","[[0,0,0],[1,2],[3]]","4","0","","","","","","7","",""
"","","","","","single-stim-button","256","518450","0.0-3.0-22.7-1.7","6294fc5023a8698296cbf7b0","E1","batch5","","337","","","tol_toboard","","","","","","","","","tol_peg_3","337","337","0","[[1,0,0],[2,0],[3]]","8","[[0,0,0],[1,2],[3]]","4","0","","","","","","7","",""
"","","","","","single-stim-button","257","519525","0.0-3.0-22.8-0.8","6294fc5023a8698296cbf7b0","E1","batch5","","1074","","","tol_tohand","","","","","","","","","tol_peg_2","1074","1074","0","[[1,0,0],[0,0],[3]]","9","[[0,0,0],[1,2],[3]]","4","0","","","","","","7","",""
"","","","","","single-stim-button","258","520227","0.0-3.0-22.8-1.8","6294fc5023a8698296cbf7b0","E1","batch5","","702","","","tol_toboard","","","","","","","","","tol_peg_1","702","702","0","[[1,2,0],[0,0],[3]]","9","[[0,0,0],[1,2],[3]]","4","0","","","","","","7","",""
"","","","","","single-stim-button","259","529551","0.0-3.0-22.9-0.9","6294fc5023a8698296cbf7b0","E1","batch5","","9324","","","tol_tohand","","","","","","","","","tol_peg_1","9324","9324","0","[[1,0,0],[0,0],[3]]","10","[[0,0,0],[1,2],[3]]","4","0","","","","","","7","",""
"","","","","","single-stim-button","260","530082","0.0-3.0-22.9-1.9","6294fc5023a8698296cbf7b0","E1","batch5","","530","","","tol_toboard","","","","","","","","","tol_peg_2","530","530","0","[[1,0,0],[2,0],[3]]","10","[[0,0,0],[1,2],[3]]","4","0","","","","","","7","",""
"","","","","","single-stim-button","261","530682","0.0-3.0-22.10-0.10","6294fc5023a8698296cbf7b0","E1","batch5","","600","","","tol_tohand","","","","","","","","","tol_peg_1","600","600","0","[[0,0,0],[2,0],[3]]","11","[[0,0,0],[1,2],[3]]","4","0","","","","","","7","",""
"","","","","","single-stim-button","262","531018","0.0-3.0-22.10-1.10","6294fc5023a8698296cbf7b0","E1","batch5","","335","","","tol_toboard","","","","","","","","","tol_peg_2","335","335","0","[[0,0,0],[2,1],[3]]","11","[[0,0,0],[1,2],[3]]","4","0","","","","","","7","",""
"","","","","","single-stim-button","263","531591","0.0-3.0-22.11-0.11","6294fc5023a8698296cbf7b0","E1","batch5","","572","","","tol_tohand","","","","","","","","","tol_peg_2","572","572","0","[[0,0,0],[2,0],[3]]","12","[[0,0,0],[1,2],[3]]","4","0","","","","","","7","",""
"","","","","","single-stim-button","264","531974","0.0-3.0-22.11-1.11","6294fc5023a8698296cbf7b0","E1","batch5","","383","","","tol_toboard","","","","","","","","","tol_peg_1","383","383","0","[[1,0,0],[2,0],[3]]","12","[[0,0,0],[1,2],[3]]","4","0","","","","","","7","",""
"","","","","","single-stim-button","265","532467","0.0-3.0-22.12-0.12","6294fc5023a8698296cbf7b0","E1","batch5","","493","","","tol_tohand","","","","","","","","","tol_peg_3","493","493","0","[[1,0,0],[2,0],[0]]","13","[[0,0,0],[1,2],[3]]","4","0","","","","","","7","",""
"","","","","","single-stim-button","266","532817","0.0-3.0-22.12-1.12","6294fc5023a8698296cbf7b0","E1","batch5","","349","","","tol_toboard","","","","","","","","","tol_peg_1","349","349","0","[[1,3,0],[2,0],[0]]","13","[[0,0,0],[1,2],[3]]","4","0","","","","","","7","",""
"","","","","","single-stim-button","267","534019","0.0-3.0-22.13-0.13","6294fc5023a8698296cbf7b0","E1","batch5","","1201","","","tol_tohand","","","","","","","","","tol_peg_2","1201","1201","0","[[1,3,0],[0,0],[0]]","14","[[0,0,0],[1,2],[3]]","4","0","","","","","","7","",""
"","","","","","single-stim-button","268","535241","0.0-3.0-22.13-1.13","6294fc5023a8698296cbf7b0","E1","batch5","","1222","","","tol_toboard","","","","","","","","","tol_peg_3","1222","1222","0","[[1,3,0],[0,0],[2]]","14","[[0,0,0],[1,2],[3]]","4","0","","","","","","7","",""
"","","","","","single-stim-button","269","536312","0.0-3.0-22.14-0.14","6294fc5023a8698296cbf7b0","E1","batch5","","1071","","","tol_tohand","","","","","","","","","tol_peg_1","1071","1071","0","[[1,0,0],[0,0],[2]]","15","[[0,0,0],[1,2],[3]]","4","0","","","","","","7","",""
"","","","","","single-stim-button","270","537125","0.0-3.0-22.14-1.14","6294fc5023a8698296cbf7b0","E1","batch5","","813","","","tol_toboard","","","","","","","","","tol_peg_2","813","813","0","[[1,0,0],[3,0],[2]]","15","[[0,0,0],[1,2],[3]]","4","0","","","","","","7","",""
"","","","","","single-stim-button","271","537833","0.0-3.0-22.15-0.15","6294fc5023a8698296cbf7b0","E1","batch5","","708","","","tol_tohand","","","","","","","","","tol_peg_1","708","708","0","[[0,0,0],[3,0],[2]]","16","[[0,0,0],[1,2],[3]]","4","0","","","","","","7","",""
"","","","","","single-stim-button","272","538447","0.0-3.0-22.15-1.15","6294fc5023a8698296cbf7b0","E1","batch5","","614","","","tol_toboard","","","","","","","","","tol_peg_2","614","614","0","[[0,0,0],[3,1],[2]]","16","[[0,0,0],[1,2],[3]]","4","0","","","","","","7","",""
"","","","","","single-stim-button","273","539068","0.0-3.0-22.16-0.16","6294fc5023a8698296cbf7b0","E1","batch5","","621","","","tol_tohand","","","","","","","","","tol_peg_2","621","621","0","[[0,0,0],[3,0],[2]]","17","[[0,0,0],[1,2],[3]]","4","0","","","","","","7","",""
"","","","","","single-stim-button","274","539526","0.0-3.0-22.16-1.16","6294fc5023a8698296cbf7b0","E1","batch5","","458","","","tol_toboard","","","","","","","","","tol_peg_2","458","458","0","[[0,0,0],[3,1],[2]]","17","[[0,0,0],[1,2],[3]]","4","0","","","","","","7","",""
"","","","","","single-stim-button","275","539934","0.0-3.0-22.17-0.17","6294fc5023a8698296cbf7b0","E1","batch5","","408","","","tol_tohand","","","","","","","","","tol_peg_3","408","408","0","[[0,0,0],[3,1],[0]]","18","[[0,0,0],[1,2],[3]]","4","0","","","","","","7","",""
"","","","","","single-stim-button","276","540441","0.0-3.0-22.17-1.17","6294fc5023a8698296cbf7b0","E1","batch5","","507","","","tol_toboard","","","","","","","","","tol_peg_1","507","507","0","[[2,0,0],[3,1],[0]]","18","[[0,0,0],[1,2],[3]]","4","0","","","","","","7","",""
"","","","","","single-stim-button","277","540812","0.0-3.0-22.18-0.18","6294fc5023a8698296cbf7b0","E1","batch5","","371","","","tol_tohand","","","","","","","","","tol_peg_2","371","371","0","[[2,0,0],[3,0],[0]]","19","[[0,0,0],[1,2],[3]]","4","0","","","","","","7","",""
"","","","","","single-stim-button","278","541149","0.0-3.0-22.18-1.18","6294fc5023a8698296cbf7b0","E1","batch5","","337","","","tol_toboard","","","","","","","","","tol_peg_3","337","337","0","[[2,0,0],[3,0],[1]]","19","[[0,0,0],[1,2],[3]]","4","0","","","","","","7","",""
"","","","","","single-stim-button","279","542938","0.0-3.0-22.19-0.19","6294fc5023a8698296cbf7b0","E1","batch5","","1789","","","tol_tohand","","","","","","","","","tol_peg_2","1789","1789","0","[[2,0,0],[0,0],[1]]","20","[[0,0,0],[1,2],[3]]","4","0","","","","","","7","",""
"","","","","","single-stim-button","280","543493","0.0-3.0-22.19-1.19","6294fc5023a8698296cbf7b0","E1","batch5","","555","","","tol_toboard","","","","","","","","","tol_peg_1","555","555","0","[[2,3,0],[0,0],[1]]","20","[[0,0,0],[1,2],[3]]","4","0","","","","","","7","",""
"","","","","","single-stim-button","281","544149","0.0-3.0-22.20-0.20","6294fc5023a8698296cbf7b0","E1","batch5","","656","","","tol_tohand","","","","","","","","","tol_peg_3","656","656","0","[[2,3,0],[0,0],[0]]","21","[[0,0,0],[1,2],[3]]","4","0","","","","","","7","",""
"","","","","","single-stim-button","282","544471","0.0-3.0-22.20-1.20","6294fc5023a8698296cbf7b0","E1","batch5","","322","","","tol_toboard","","","","","","","","","tol_peg_2","322","322","0","[[2,3,0],[1,0],[0]]","21","[[0,0,0],[1,2],[3]]","4","0","","","","","","7","",""
"","","","","","single-stim-button","283","545490","0.0-3.0-22.21-0.21","6294fc5023a8698296cbf7b0","E1","batch5","","1019","","","tol_tohand","","","","","","","","","tol_peg_1","1019","1019","0","[[2,0,0],[1,0],[0]]","22","[[0,0,0],[1,2],[3]]","4","0","","","","","","7","",""
"","","","","","single-stim-button","284","545907","0.0-3.0-22.21-1.21","6294fc5023a8698296cbf7b0","E1","batch5","","417","","","tol_toboard","","","","","","","","","tol_peg_3","417","417","0","[[2,0,0],[1,0],[3]]","22","[[0,0,0],[1,2],[3]]","4","0","","","","","","7","",""
"","","","","","single-stim-button","285","546566","0.0-3.0-22.22-0.22","6294fc5023a8698296cbf7b0","E1","batch5","","659","","","tol_tohand","","","","","","","","","tol_peg_1","659","659","0","[[0,0,0],[1,0],[3]]","23","[[0,0,0],[1,2],[3]]","4","0","","","","","","7","",""
"","","","","","single-stim-button","286","546916","0.0-3.0-22.22-1.22","6294fc5023a8698296cbf7b0","E1","batch5","","350","","","tol_toboard","","","","","","","","","tol_peg_2","350","350","0","[[0,0,0],[1,2],[3]]","23","[[0,0,0],[1,2],[3]]","4","0","","","","","","7","",""
"","","","","","poldrack-single-stim","287","547916","0.0-3.0-23.0","6294fc5023a8698296cbf7b0","E1","batch5","","-1","","","tol_feedback","true","","","","","","","","","1000","1000","500","","","","","","-1","none","true","3765","38049","","",""
"","","","","","html-button-response","288","548404","0.0-3.0-24.0","6294fc5023a8698296cbf7b0","E1","batch5","","486.7000000476837","<div class = centerbox><p class = center-block-text>problem <strong>6</strong> out of 25 problems</p></div>","0","tol_trial_num","","","","","","","","","","","","","","","","","","","","","","","","",""
"","","","","","single-stim-button","289","551065","0.0-3.0-25.0-0.0","6294fc5023a8698296cbf7b0","E1","batch5","","2661","","","tol_tohand","","","","","","","","","tol_peg_2","2661","2661","0","[[0,0,0],[1,0],[3]]","1","[[1,0,0],[2,3],[0]]","5","0","","","","","","6","",""
"","","","","","single-stim-button","290","555126","0.0-3.0-25.0-1.0","6294fc5023a8698296cbf7b0","E1","batch5","","4060","","","tol_toboard","","","","","","","","","tol_peg_2","4060","4060","0","[[0,0,0],[1,2],[3]]","1","[[1,0,0],[2,3],[0]]","5","0","","","","","","6","",""
"","","","","","single-stim-button","291","555625","0.0-3.0-25.1-0.1","6294fc5023a8698296cbf7b0","E1","batch5","","498","","","tol_tohand","","","","","","","","","tol_peg_3","498","498","0","[[0,0,0],[1,2],[0]]","2","[[1,0,0],[2,3],[0]]","5","0","","","","","","6","",""
"","","","","","single-stim-button","292","556707","0.0-3.0-25.1-1.1","6294fc5023a8698296cbf7b0","E1","batch5","","1081","","","tol_toboard","","","","","","","","","tol_peg_1","1081","1081","0","[[3,0,0],[1,2],[0]]","2","[[1,0,0],[2,3],[0]]","5","0","","","","","","6","",""
"","","","","","single-stim-button","293","557517","0.0-3.0-25.2-0.2","6294fc5023a8698296cbf7b0","E1","batch5","","810","","","tol_tohand","","","","","","","","","tol_peg_2","810","810","0","[[3,0,0],[1,0],[0]]","3","[[1,0,0],[2,3],[0]]","5","0","","","","","","6","",""
"","","","","","single-stim-button","294","557840","0.0-3.0-25.2-1.2","6294fc5023a8698296cbf7b0","E1","batch5","","322","","","tol_toboard","","","","","","","","","tol_peg_3","322","322","0","[[3,0,0],[1,0],[2]]","3","[[1,0,0],[2,3],[0]]","5","0","","","","","","6","",""
"","","","","","single-stim-button","295","563034","0.0-3.0-25.3-0.3","6294fc5023a8698296cbf7b0","E1","batch5","","5193","","","tol_tohand","","","","","","","","","tol_peg_2","5193","5193","0","[[3,0,0],[0,0],[2]]","4","[[1,0,0],[2,3],[0]]","5","0","","","","","","6","",""
"","","","","","single-stim-button","296","563870","0.0-3.0-25.3-1.3","6294fc5023a8698296cbf7b0","E1","batch5","","835","","","tol_toboard","","","","","","","","","tol_peg_1","835","835","0","[[3,1,0],[0,0],[2]]","4","[[1,0,0],[2,3],[0]]","5","0","","","","","","6","",""
"","","","","","single-stim-button","297","565597","0.0-3.0-25.4-0.4","6294fc5023a8698296cbf7b0","E1","batch5","","1726","","","tol_tohand","","","","","","","","","tol_peg_3","1726","1726","0","[[3,1,0],[0,0],[0]]","5","[[1,0,0],[2,3],[0]]","5","0","","","","","","6","",""
"","","","","","single-stim-button","298","566114","0.0-3.0-25.4-1.4","6294fc5023a8698296cbf7b0","E1","batch5","","516","","","tol_toboard","","","","","","","","","tol_peg_2","516","516","0","[[3,1,0],[2,0],[0]]","5","[[1,0,0],[2,3],[0]]","5","0","","","","","","6","",""
"","","","","","single-stim-button","299","567097","0.0-3.0-25.5-0.5","6294fc5023a8698296cbf7b0","E1","batch5","","983","","","tol_tohand","","","","","","","","","tol_peg_1","983","983","0","[[3,0,0],[2,0],[0]]","6","[[1,0,0],[2,3],[0]]","5","0","","","","","","6","",""
"","","","","","single-stim-button","300","569456","0.0-3.0-25.5-1.5","6294fc5023a8698296cbf7b0","E1","batch5","","2359","","","tol_toboard","","","","","","","","","tol_peg_3","2359","2359","0","[[3,0,0],[2,0],[1]]","6","[[1,0,0],[2,3],[0]]","5","0","","","","","","6","",""
"","","","","","single-stim-button","301","569953","0.0-3.0-25.6-0.6","6294fc5023a8698296cbf7b0","E1","batch5","","497","","","tol_tohand","","","","","","","","","tol_peg_1","497","497","0","[[0,0,0],[2,0],[1]]","7","[[1,0,0],[2,3],[0]]","5","0","","","","","","6","",""
"","","","","","single-stim-button","302","570316","0.0-3.0-25.6-1.6","6294fc5023a8698296cbf7b0","E1","batch5","","363","","","tol_toboard","","","","","","","","","tol_peg_2","363","363","0","[[0,0,0],[2,3],[1]]","7","[[1,0,0],[2,3],[0]]","5","0","","","","","","6","",""
"","","","","","single-stim-button","303","570848","0.0-3.0-25.7-0.7","6294fc5023a8698296cbf7b0","E1","batch5","","532","","","tol_tohand","","","","","","","","","tol_peg_3","532","532","0","[[0,0,0],[2,3],[0]]","8","[[1,0,0],[2,3],[0]]","5","0","","","","","","6","",""
"","","","","","single-stim-button","304","571280","0.0-3.0-25.7-1.7","6294fc5023a8698296cbf7b0","E1","batch5","","432","","","tol_toboard","","","","","","","","","tol_peg_1","432","432","0","[[1,0,0],[2,3],[0]]","8","[[1,0,0],[2,3],[0]]","5","0","","","","","","6","",""
"","","","","","poldrack-single-stim","305","572281","0.0-3.0-26.0","6294fc5023a8698296cbf7b0","E1","batch5","","-1","","","tol_feedback","true","","","","","","","","","1000","1000","500","","","","","","-1","none","true","2661","12900","","",""
"","","","","","html-button-response","306","572672","0.0-3.0-27.0","6294fc5023a8698296cbf7b0","E1","batch5","","390.2999999523163","<div class = centerbox><p class = center-block-text>problem <strong>7</strong> out of 25 problems</p></div>","0","tol_trial_num","","","","","","","","","","","","","","","","","","","","","","","","",""
"","","","","","single-stim-button","307","580321","0.0-3.0-28.0-0.0","6294fc5023a8698296cbf7b0","E1","batch5","","7648","","","tol_tohand","","","","","","","","","tol_peg_3","7648","7648","0","[[2,1,0],[0,0],[0]]","1","[[1,2,0],[3,0],[0]]","6","0","","","","","","5","",""
"","","","","","single-stim-button","308","580733","0.0-3.0-28.0-1.0","6294fc5023a8698296cbf7b0","E1","batch5","","412","","","tol_toboard","","","","","","","","","tol_peg_2","412","412","0","[[2,1,0],[3,0],[0]]","1","[[1,2,0],[3,0],[0]]","6","0","","","","","","5","",""
"","","","","","single-stim-button","309","581346","0.0-3.0-28.1-0.1","6294fc5023a8698296cbf7b0","E1","batch5","","612","","","tol_tohand","","","","","","","","","tol_peg_1","612","612","0","[[2,0,0],[3,0],[0]]","2","[[1,2,0],[3,0],[0]]","6","0","","","","","","5","",""
"","","","","","single-stim-button","310","584185","0.0-3.0-28.1-1.1","6294fc5023a8698296cbf7b0","E1","batch5","","2839","","","tol_toboard","","","","","","","","","tol_peg_2","2839","2839","0","[[2,0,0],[3,1],[0]]","2","[[1,2,0],[3,0],[0]]","6","0","","","","","","5","",""
"","","","","","single-stim-button","311","585180","0.0-3.0-28.2-0.2","6294fc5023a8698296cbf7b0","E1","batch5","","994","","","tol_tohand","","","","","","","","","tol_peg_1","994","994","0","[[0,0,0],[3,1],[0]]","3","[[1,2,0],[3,0],[0]]","6","0","","","","","","5","",""
"","","","","","single-stim-button","312","585785","0.0-3.0-28.2-1.2","6294fc5023a8698296cbf7b0","E1","batch5","","604","","","tol_toboard","","","","","","","","","tol_peg_3","604","604","0","[[0,0,0],[3,1],[2]]","3","[[1,2,0],[3,0],[0]]","6","0","","","","","","5","",""
"","","","","","single-stim-button","313","586269","0.0-3.0-28.3-0.3","6294fc5023a8698296cbf7b0","E1","batch5","","483","","","tol_tohand","","","","","","","","","tol_peg_2","483","483","0","[[0,0,0],[3,0],[2]]","4","[[1,2,0],[3,0],[0]]","6","0","","","","","","5","",""
"","","","","","single-stim-button","314","586600","0.0-3.0-28.3-1.3","6294fc5023a8698296cbf7b0","E1","batch5","","330","","","tol_toboard","","","","","","","","","tol_peg_1","330","330","0","[[1,0,0],[3,0],[2]]","4","[[1,2,0],[3,0],[0]]","6","0","","","","","","5","",""
"","","","","","single-stim-button","315","587043","0.0-3.0-28.4-0.4","6294fc5023a8698296cbf7b0","E1","batch5","","442","","","tol_tohand","","","","","","","","","tol_peg_3","442","442","0","[[1,0,0],[3,0],[0]]","5","[[1,2,0],[3,0],[0]]","6","0","","","","","","5","",""
"","","","","","single-stim-button","316","587414","0.0-3.0-28.4-1.4","6294fc5023a8698296cbf7b0","E1","batch5","","369","","","tol_toboard","","","","","","","","","tol_peg_1","369","369","0","[[1,2,0],[3,0],[0]]","5","[[1,2,0],[3,0],[0]]","6","0","","","","","","5","",""
"","","","","","poldrack-single-stim","317","588414","0.0-3.0-29.0","6294fc5023a8698296cbf7b0","E1","batch5","","-1","","","tol_feedback","true","","","","","","","","","1000","1000","500","","","","","","-1","none","true","7648","10179","","",""
"","","","","","html-button-response","318","588842","0.0-3.0-30.0","6294fc5023a8698296cbf7b0","E1","batch5","","427.2000000476837","<div class = centerbox><p class = center-block-text>problem <strong>8</strong> out of 25 problems</p></div>","0","tol_trial_num","","","","","","","","","","","","","","","","","","","","","","","","",""
"","","","","","single-stim-button","319","590908","0.0-3.0-31.0-0.0","6294fc5023a8698296cbf7b0","E1","batch5","","2065","","","tol_tohand","","","","","","","","","tol_peg_2","2065","2065","0","[[0,0,0],[2,0],[1]]","1","[[1,2,0],[3,0],[0]]","7","0","","","","","","4","",""
"","","","","","single-stim-button","320","592982","0.0-3.0-31.0-1.0","6294fc5023a8698296cbf7b0","E1","batch5","","2074","","","tol_toboard","","","","","","","","","tol_peg_2","2074","2074","0","[[0,0,0],[2,3],[1]]","1","[[1,2,0],[3,0],[0]]","7","0","","","","","","4","",""
"","","","","","single-stim-button","321","593687","0.0-3.0-31.1-0.1","6294fc5023a8698296cbf7b0","E1","batch5","","705","","","tol_tohand","","","","","","","","","tol_peg_3","705","705","0","[[0,0,0],[2,3],[0]]","2","[[1,2,0],[3,0],[0]]","7","0","","","","","","4","",""
"","","","","","single-stim-button","322","594080","0.0-3.0-31.1-1.1","6294fc5023a8698296cbf7b0","E1","batch5","","393","","","tol_toboard","","","","","","","","","tol_peg_1","393","393","0","[[1,0,0],[2,3],[0]]","2","[[1,2,0],[3,0],[0]]","7","0","","","","","","4","",""
"","","","","","single-stim-button","323","595932","0.0-3.0-31.2-0.2","6294fc5023a8698296cbf7b0","E1","batch5","","1852","","","tol_tohand","","","","","","","","","tol_peg_2","1852","1852","0","[[1,0,0],[2,0],[0]]","3","[[1,2,0],[3,0],[0]]","7","0","","","","","","4","",""
"","","","","","single-stim-button","324","596398","0.0-3.0-31.2-1.2","6294fc5023a8698296cbf7b0","E1","batch5","","466","","","tol_toboard","","","","","","","","","tol_peg_3","466","466","0","[[1,0,0],[2,0],[3]]","3","[[1,2,0],[3,0],[0]]","7","0","","","","","","4","",""
"","","","","","single-stim-button","325","596722","0.0-3.0-31.3-0.3","6294fc5023a8698296cbf7b0","E1","batch5","","324","","","tol_tohand","","","","","","","","","tol_peg_2","324","324","0","[[1,0,0],[0,0],[3]]","4","[[1,2,0],[3,0],[0]]","7","0","","","","","","4","",""
"","","","","","single-stim-button","326","597081","0.0-3.0-31.3-1.3","6294fc5023a8698296cbf7b0","E1","batch5","","359","","","tol_toboard","","","","","","","","","tol_peg_1","359","359","0","[[1,2,0],[0,0],[3]]","4","[[1,2,0],[3,0],[0]]","7","0","","","","","","4","",""
"","","","","","single-stim-button","327","597429","0.0-3.0-31.4-0.4","6294fc5023a8698296cbf7b0","E1","batch5","","348","","","tol_tohand","","","","","","","","","tol_peg_3","348","348","0","[[1,2,0],[0,0],[0]]","5","[[1,2,0],[3,0],[0]]","7","0","","","","","","4","",""
"","","","","","single-stim-button","328","597747","0.0-3.0-31.4-1.4","6294fc5023a8698296cbf7b0","E1","batch5","","318","","","tol_toboard","","","","","","","","","tol_peg_2","318","318","0","[[1,2,0],[3,0],[0]]","5","[[1,2,0],[3,0],[0]]","7","0","","","","","","4","",""
"","","","","","poldrack-single-stim","329","598749","0.0-3.0-32.0","6294fc5023a8698296cbf7b0","E1","batch5","","-1","","","tol_feedback","true","","","","","","","","","1000","1000","500","","","","","","-1","none","true","2065","5294","","",""
"","","","","","html-button-response","330","599243","0.0-3.0-33.0","6294fc5023a8698296cbf7b0","E1","batch5","","493.1999999284744","<div class = centerbox><p class = center-block-text>problem <strong>9</strong> out of 25 problems</p></div>","0","tol_trial_num","","","","","","","","","","","","","","","","","","","","","","","","",""
"","","","","","single-stim-button","331","604005","0.0-3.0-34.0-0.0","6294fc5023a8698296cbf7b0","E1","batch5","","4762","","","tol_tohand","","","","","","","","","tol_peg_1","4762","4762","0","[[3,0,0],[0,0],[1]]","1","[[2,1,0],[3,0],[0]]","8","0","","","","","","6","",""
"","","","","","single-stim-button","332","604306","0.0-3.0-34.0-1.0","6294fc5023a8698296cbf7b0","E1","batch5","","301","","","tol_toboard","","","","","","","","","tol_peg_2","301","301","0","[[3,0,0],[2,0],[1]]","1","[[2,1,0],[3,0],[0]]","8","0","","","","","","6","",""
"","","","","","single-stim-button","333","605164","0.0-3.0-34.1-0.1","6294fc5023a8698296cbf7b0","E1","batch5","","857","","","tol_tohand","","","","","","","","","tol_peg_1","857","857","0","[[0,0,0],[2,0],[1]]","2","[[2,1,0],[3,0],[0]]","8","0","","","","","","6","",""
"","","","","","single-stim-button","334","606135","0.0-3.0-34.1-1.1","6294fc5023a8698296cbf7b0","E1","batch5","","970","","","tol_toboard","","","","","","","","","tol_peg_1","970","970","0","[[3,0,0],[2,0],[1]]","2","[[2,1,0],[3,0],[0]]","8","0","","","","","","6","",""
"","","","","","single-stim-button","335","606599","0.0-3.0-34.2-0.2","6294fc5023a8698296cbf7b0","E1","batch5","","464","","","tol_tohand","","","","","","","","","tol_peg_3","464","464","0","[[3,0,0],[2,0],[0]]","3","[[2,1,0],[3,0],[0]]","8","0","","","","","","6","",""
"","","","","","single-stim-button","336","608311","0.0-3.0-34.2-1.2","6294fc5023a8698296cbf7b0","E1","batch5","","1712","","","tol_toboard","","","","","","","","","tol_peg_1","1712","1712","0","[[3,1,0],[2,0],[0]]","3","[[2,1,0],[3,0],[0]]","8","0","","","","","","6","",""
"","","","","","single-stim-button","337","608647","0.0-3.0-34.3-0.3","6294fc5023a8698296cbf7b0","E1","batch5","","335","","","tol_tohand","","","","","","","","","tol_peg_2","335","335","0","[[3,1,0],[0,0],[0]]","4","[[2,1,0],[3,0],[0]]","8","0","","","","","","6","",""
"","","","","","single-stim-button","338","608916","0.0-3.0-34.3-1.3","6294fc5023a8698296cbf7b0","E1","batch5","","267","","","tol_toboard","","","","","","","","","tol_peg_3","267","267","0","[[3,1,0],[0,0],[2]]","4","[[2,1,0],[3,0],[0]]","8","0","","","","","","6","",""
"","","","","","single-stim-button","339","610093","0.0-3.0-34.4-0.4","6294fc5023a8698296cbf7b0","E1","batch5","","1177","","","tol_tohand","","","","","","","","","tol_peg_1","1177","1177","0","[[3,0,0],[0,0],[2]]","5","[[2,1,0],[3,0],[0]]","8","0","","","","","","6","",""
"","","","","","single-stim-button","340","610760","0.0-3.0-34.4-1.4","6294fc5023a8698296cbf7b0","E1","batch5","","666","","","tol_toboard","","","","","","","","","tol_peg_2","666","666","0","[[3,0,0],[1,0],[2]]","5","[[2,1,0],[3,0],[0]]","8","0","","","","","","6","",""
"","","","","","single-stim-button","341","612860","0.0-3.0-34.5-0.5","6294fc5023a8698296cbf7b0","E1","batch5","","2099","","","tol_tohand","","","","","","","","","tol_peg_3","2099","2099","0","[[3,0,0],[1,0],[0]]","6","[[2,1,0],[3,0],[0]]","8","0","","","","","","6","",""
"","","","","","single-stim-button","342","613404","0.0-3.0-34.5-1.5","6294fc5023a8698296cbf7b0","E1","batch5","","543","","","tol_toboard","","","","","","","","","tol_peg_1","543","543","0","[[3,2,0],[1,0],[0]]","6","[[2,1,0],[3,0],[0]]","8","0","","","","","","6","",""
"","","","","","single-stim-button","343","614493","0.0-3.0-34.6-0.6","6294fc5023a8698296cbf7b0","E1","batch5","","1088","","","tol_tohand","","","","","","","","","tol_peg_2","1088","1088","0","[[3,2,0],[0,0],[0]]","7","[[2,1,0],[3,0],[0]]","8","0","","","","","","6","",""
"","","","","","single-stim-button","344","614809","0.0-3.0-34.6-1.6","6294fc5023a8698296cbf7b0","E1","batch5","","315","","","tol_toboard","","","","","","","","","tol_peg_3","315","315","0","[[3,2,0],[0,0],[1]]","7","[[2,1,0],[3,0],[0]]","8","0","","","","","","6","",""
"","","","","","single-stim-button","345","615402","0.0-3.0-34.7-0.7","6294fc5023a8698296cbf7b0","E1","batch5","","592","","","tol_tohand","","","","","","","","","tol_peg_1","592","592","0","[[3,0,0],[0,0],[1]]","8","[[2,1,0],[3,0],[0]]","8","0","","","","","","6","",""
"","","","","","single-stim-button","346","615702","0.0-3.0-34.7-1.7","6294fc5023a8698296cbf7b0","E1","batch5","","299","","","tol_toboard","","","","","","","","","tol_peg_2","299","299","0","[[3,0,0],[2,0],[1]]","8","[[2,1,0],[3,0],[0]]","8","0","","","","","","6","",""
"","","","","","single-stim-button","347","616161","0.0-3.0-34.8-0.8","6294fc5023a8698296cbf7b0","E1","batch5","","458","","","tol_tohand","","","","","","","","","tol_peg_1","458","458","0","[[0,0,0],[2,0],[1]]","9","[[2,1,0],[3,0],[0]]","8","0","","","","","","6","",""
"","","","","","single-stim-button","348","616656","0.0-3.0-34.8-1.8","6294fc5023a8698296cbf7b0","E1","batch5","","494","","","tol_toboard","","","","","","","","","tol_peg_2","494","494","0","[[0,0,0],[2,3],[1]]","9","[[2,1,0],[3,0],[0]]","8","0","","","","","","6","",""
"","","","","","single-stim-button","349","617483","0.0-3.0-34.9-0.9","6294fc5023a8698296cbf7b0","E1","batch5","","827","","","tol_tohand","","","","","","","","","tol_peg_2","827","827","0","[[0,0,0],[2,0],[1]]","10","[[2,1,0],[3,0],[0]]","8","0","","","","","","6","",""
