"success","timeout","failed_images","failed_audio","failed_video","trial_type","trial_index","time_elapsed","internal_node_id","subject_id","study_id","session_id","view_history","rt","task","stimulus","response","correct","mouse_click","stim_duration","block_duration","timing_post_trial","current_position","tol_num_moves_made","tol_target","tol_problem_id","tol_rt","key_press","possible_responses","tol_correct","preplanning","tol_rt_per_trial","tol_min_moves","item","answer","spm_correct","spm_rt","fiar_detect_rt","fiar_detect_correct","total_correct_fiar_detect","post_trial_gap","choices"
"true","false","[]","[]","[]","preload","0","23047","0.0-0.0","6294de1b341cd20e308d1a4a","F1","batch6","","","","","","","","","","","","","","","","","","","","","","","","","","","","","",""
"true","","","","","fullscreen","1","410614","0.0-1.0-0.0","6294de1b341cd20e308d1a4a","F1","batch6","","","","","","","","","","","","","","","","","","","","","","","","","","","","","",""
"true","","","","","fullscreen","2","468462","0.0-2.0-0.0","6294de1b341cd20e308d1a4a","F1","batch6","","","","","","","","","","","","","","","","","","","","","","","","","","","","","",""
"","","","","","instructions","3","589163","0.0-2.0-1.0-0.0-0.0","6294de1b341cd20e308d1a4a","F1","batch6","[{""page_index"":0,""viewing_time"":17243.199999999255},{""page_index"":1,""viewing_time"":26360.900000000373},{""page_index"":2,""viewing_time"":13425.800000000745},{""page_index"":3,""viewing_time"":34719.40000000037},{""page_index"":4,""viewing_time"":7874.89999999851},{""page_index"":5,""viewing_time"":17257.60000000149},{""page_index"":6,""viewing_time"":3815.2999999988824}]","120698.30000000075","tol-instructions","","","","","","","","","","","","","","","","","","","","","","","","","","",""
"","","","","","html-button-response","4","619001","0.0-2.0-1.0-1.0-0.0","6294de1b341cd20e308d1a4a","F1","batch6","","29831.900000000373","tol_enter_quiz","<p class=block-text> Let's answer a few questions <br>","0","","","","","","","","","","","","","","","","","","","","","","","","",""
"","","","","","html-button-response","5","635243","0.0-2.0-1.0-1.0-1.0","6294de1b341cd20e308d1a4a","F1","batch6","","16236.300000000745","tol_quiz","<p class = block-text>True or False: You can only move the ball on top of a peg. <br></p>","0","true","","","","","","","","","","","","","","","","","","","","","","","",""
"","","","","","html-button-response","6","637057","0.0-2.0-1.0-1.0-2.0","6294de1b341cd20e308d1a4a","F1","batch6","","1807.300000000745","tol_quiz_feedback","<p class = block-text>Correct! You can only move the ball on top of a peg.</p>","0","","","","","","","","","","","","","","","","","","","","","","","","",""
"","","","","","html-button-response","7","640311","0.0-2.0-1.0-1.0-3.0","6294de1b341cd20e308d1a4a","F1","batch6","","3250.10000000149","tol_quiz","<p class = block-text>True or False: You should try to match your board with the target board with fewest moves possible. <br></p>","0","true","","","","","","","","","","","","","","","","","","","","","","","",""
"","","","","","html-button-response","8","641333","0.0-2.0-1.0-1.0-4.0","6294de1b341cd20e308d1a4a","F1","batch6","","1016.3999999985099","tol_quiz_feedback","<p class = block-text>Correct! </p>","0","","","","","","","","","","","","","","","","","","","","","","","","",""
"","","","","","html-button-response","9","645112","0.0-2.0-2.0","6294de1b341cd20e308d1a4a","F1","batch6","","3772.0999999996275","","<p class=block-text> Now that you've understood the game, let's practice a few easier examples before we start!<br> <br>","0","","","","","","","","","","","","","","","","","","","","","","","","",""
"","","","","","single-stim-button","10","648369","0.0-2.0-3.0-0.0","6294de1b341cd20e308d1a4a","F1","batch6","","3249","tol_practice","","","","tol_peg_2","3249","3249","0","[[1,2,0],[0,0],[0]]","1","[[1,2,0],[0,0],[3]]","practice","3249","","","","","","","","","","","","","","",""
"","","","","","single-stim-button","11","649529","0.0-2.0-3.0-1.0","6294de1b341cd20e308d1a4a","F1","batch6","","1154","tol_practice","","","","tol_peg_3","1154","1154","0","[[1,2,0],[0,0],[3]]","1","[[1,2,0],[0,0],[3]]","practice","1154","","","","","","","","","","","","","","",""
"","","","","","poldrack-single-stim","12","650543","0.0-2.0-4.0","6294de1b341cd20e308d1a4a","F1","batch6","","-1","tol_feedback","","","true","","1000","1000","500","","","","","","-1","none","true","","0","","","","","","","","","",""
"","","","","","single-stim-button","13","656709","0.0-2.0-5.0-0.0","6294de1b341cd20e308d1a4a","F1","batch6","","6162","tol_practice","","","","tol_peg_1","6162","6162","0","[[1,0,0],[3,0],[0]]","2","[[0,0,0],[3,1],[2]]","practice","6162","","","","","","","","","","","","","","",""
"","","","","","single-stim-button","14","657812","0.0-2.0-5.0-1.0","6294de1b341cd20e308d1a4a","F1","batch6","","1099","tol_practice","","","","tol_peg_3","1099","1099","0","[[1,0,0],[3,0],[2]]","2","[[0,0,0],[3,1],[2]]","practice","1099","","","","","","","","","","","","","","",""
"","","","","","single-stim-button","15","658887","0.0-2.0-5.1-0.1","6294de1b341cd20e308d1a4a","F1","batch6","","1071","tol_practice","","","","tol_peg_1","1071","1071","0","[[0,0,0],[3,0],[2]]","3","[[0,0,0],[3,1],[2]]","practice","1071","","","","","","","","","","","","","","",""
"","","","","","single-stim-button","16","660044","0.0-2.0-5.1-1.1","6294de1b341cd20e308d1a4a","F1","batch6","","1154","tol_practice","","","","tol_peg_2","1154","1154","0","[[0,0,0],[3,1],[2]]","3","[[0,0,0],[3,1],[2]]","practice","1154","","","","","","","","","","","","","","",""
"","","","","","poldrack-single-stim","17","661054","0.0-2.0-6.0","6294de1b341cd20e308d1a4a","F1","batch6","","-1","tol_feedback","","","true","","1000","1000","500","","","","","","-1","none","true","","0","","","","","","","","","",""
"","","","","","single-stim-button","18","665202","0.0-2.0-7.0-0.0","6294de1b341cd20e308d1a4a","F1","batch6","","4145","tol_practice","","","","tol_peg_2","4145","4145","0","[[1,2,0],[0,0],[0]]","4","[[1,0,0],[2,0],[3]]","practice","4145","","","","","","","","","","","","","","",""
"","","","","","single-stim-button","19","666343","0.0-2.0-7.0-1.0","6294de1b341cd20e308d1a4a","F1","batch6","","1137","tol_practice","","","","tol_peg_3","1137","1137","0","[[1,2,0],[0,0],[3]]","4","[[1,0,0],[2,0],[3]]","practice","1137","","","","","","","","","","","","","","",""
"","","","","","single-stim-button","20","667225","0.0-2.0-7.1-0.1","6294de1b341cd20e308d1a4a","F1","batch6","","879","tol_practice","","","","tol_peg_1","879","879","0","[[1,0,0],[0,0],[3]]","5","[[1,0,0],[2,0],[3]]","practice","879","","","","","","","","","","","","","","",""
"","","","","","single-stim-button","21","668329","0.0-2.0-7.1-1.1","6294de1b341cd20e308d1a4a","F1","batch6","","1101","tol_practice","","","","tol_peg_2","1101","1101","0","[[1,0,0],[2,0],[3]]","5","[[1,0,0],[2,0],[3]]","practice","1101","","","","","","","","","","","","","","",""
"","","","","","poldrack-single-stim","22","669335","0.0-2.0-8.0","6294de1b341cd20e308d1a4a","F1","batch6","","-1","tol_feedback","","","true","","1000","1000","500","","","","","","-1","none","true","","0","","","","","","","","","",""
"","","","","","html-button-response","23","697797","0.0-2.0-9.0","6294de1b341cd20e308d1a4a","F1","batch6","","28459","tol_instruction","<div class = centerbox><p class = center-block-text>Great job! You are done with practice trials<br>You are about to start official trials.<br> <br> Problem <strong>1</strong> out of 25 problems</p></div>","0","","","","","","","","","","","","","","","","","","","","","","","","",""
"","","","","","single-stim-button","24","708577","0.0-2.0-10.0-0.0","6294de1b341cd20e308d1a4a","F1","batch6","","9768","tol_tohand","","","","tol_peg_1","9768","9768","0","[[1,0,0],[3,0],[0]]","1","[[1,3,0],[2,0],[0]]","0","0","","","","","","3","","","","","","","","",""
"","","","","","single-stim-button","25","710259","0.0-2.0-10.0-1.0","6294de1b341cd20e308d1a4a","F1","batch6","","1678","tol_toboard","","","","tol_peg_3","1678","1678","0","[[1,0,0],[3,0],[2]]","1","[[1,3,0],[2,0],[0]]","0","0","","","","","","3","","","","","","","","",""
"","","","","","single-stim-button","26","711313","0.0-2.0-10.1-0.1","6294de1b341cd20e308d1a4a","F1","batch6","","1050","tol_tohand","","","","tol_peg_2","1050","1050","0","[[1,0,0],[0,0],[2]]","2","[[1,3,0],[2,0],[0]]","0","0","","","","","","3","","","","","","","","",""
"","","","","","single-stim-button","27","712240","0.0-2.0-10.1-1.1","6294de1b341cd20e308d1a4a","F1","batch6","","921","tol_toboard","","","","tol_peg_1","921","921","0","[[1,3,0],[0,0],[2]]","2","[[1,3,0],[2,0],[0]]","0","0","","","","","","3","","","","","","","","",""
"","","","","","single-stim-button","28","714493","0.0-2.0-10.2-0.2","6294de1b341cd20e308d1a4a","F1","batch6","","2250","tol_tohand","","","","tol_peg_3","2250","2250","0","[[1,3,0],[0,0],[0]]","3","[[1,3,0],[2,0],[0]]","0","0","","","","","","3","","","","","","","","",""
"","","","","","single-stim-button","29","715614","0.0-2.0-10.2-1.2","6294de1b341cd20e308d1a4a","F1","batch6","","1118","tol_toboard","","","","tol_peg_2","1118","1118","0","[[1,3,0],[2,0],[0]]","3","[[1,3,0],[2,0],[0]]","0","0","","","","","","3","","","","","","","","",""
"","","","","","poldrack-single-stim","30","716622","0.0-2.0-11.0","6294de1b341cd20e308d1a4a","F1","batch6","","-1","tol_feedback","","","true","","1000","1000","500","","","","","","-1","none","true","9768","13068","","","","","","","","","",""
"","","","","","html-button-response","31","717785","0.0-2.0-12.0","6294de1b341cd20e308d1a4a","F1","batch6","","1158.5999999996275","tol_trial_num","<div class = centerbox><p class = center-block-text>problem <strong>2</strong> out of 25 problems</p></div>","0","","","","","","","","","","","","","","","","","","","","","","","","",""
"","","","","","single-stim-button","32","730704","0.0-2.0-13.0-0.0","6294de1b341cd20e308d1a4a","F1","batch6","","12915","tol_tohand","","","","tol_peg_1","12915","12915","0","[[1,0,0],[3,0],[0]]","1","[[2,1,3],[0,0],[0]]","1","0","","","","","","5","","","","","","","","",""
"","","","","","single-stim-button","33","734366","0.0-2.0-13.0-1.0","6294de1b341cd20e308d1a4a","F1","batch6","","3658","tol_toboard","","","","tol_peg_2","3658","3658","0","[[1,0,0],[3,2],[0]]","1","[[2,1,3],[0,0],[0]]","1","0","","","","","","5","","","","","","","","",""
"","","","","","single-stim-button","34","735620","0.0-2.0-13.1-0.1","6294de1b341cd20e308d1a4a","F1","batch6","","1251","tol_tohand","","","","tol_peg_1","1251","1251","0","[[0,0,0],[3,2],[0]]","2","[[2,1,3],[0,0],[0]]","1","0","","","","","","5","","","","","","","","",""
"","","","","","single-stim-button","35","737643","0.0-2.0-13.1-1.1","6294de1b341cd20e308d1a4a","F1","batch6","","2020","tol_toboard","","","","tol_peg_3","2020","2020","0","[[0,0,0],[3,2],[1]]","2","[[2,1,3],[0,0],[0]]","1","0","","","","","","5","","","","","","","","",""
"","","","","","single-stim-button","36","738546","0.0-2.0-13.2-0.2","6294de1b341cd20e308d1a4a","F1","batch6","","900","tol_tohand","","","","tol_peg_2","900","900","0","[[0,0,0],[3,0],[1]]","3","[[2,1,3],[0,0],[0]]","1","0","","","","","","5","","","","","","","","",""
"","","","","","single-stim-button","37","739383","0.0-2.0-13.2-1.2","6294de1b341cd20e308d1a4a","F1","batch6","","834","tol_toboard","","","","tol_peg_1","834","834","0","[[2,0,0],[3,0],[1]]","3","[[2,1,3],[0,0],[0]]","1","0","","","","","","5","","","","","","","","",""
"","","","","","single-stim-button","38","740896","0.0-2.0-13.3-0.3","6294de1b341cd20e308d1a4a","F1","batch6","","1510","tol_tohand","","","","tol_peg_3","1510","1510","0","[[2,0,0],[3,0],[0]]","4","[[2,1,3],[0,0],[0]]","1","0","","","","","","5","","","","","","","","",""
"","","","","","single-stim-button","39","742090","0.0-2.0-13.3-1.3","6294de1b341cd20e308d1a4a","F1","batch6","","1191","tol_toboard","","","","tol_peg_1","1191","1191","0","[[2,1,0],[3,0],[0]]","4","[[2,1,3],[0,0],[0]]","1","0","","","","","","5","","","","","","","","",""
"","","","","","single-stim-button","40","743158","0.0-2.0-13.4-0.4","6294de1b341cd20e308d1a4a","F1","batch6","","1064","tol_tohand","","","","tol_peg_2","1064","1064","0","[[2,1,0],[0,0],[0]]","5","[[2,1,3],[0,0],[0]]","1","0","","","","","","5","","","","","","","","",""
"","","","","","single-stim-button","41","744238","0.0-2.0-13.4-1.4","6294de1b341cd20e308d1a4a","F1","batch6","","1077","tol_toboard","","","","tol_peg_1","1077","1077","0","[[2,1,3],[0,0],[0]]","5","[[2,1,3],[0,0],[0]]","1","0","","","","","","5","","","","","","","","",""
"","","","","","poldrack-single-stim","42","745246","0.0-2.0-14.0","6294de1b341cd20e308d1a4a","F1","batch6","","-1","tol_feedback","","","true","","1000","1000","500","","","","","","-1","none","true","12915","17640","","","","","","","","","",""
"","","","","","html-button-response","43","746604","0.0-2.0-15.0","6294de1b341cd20e308d1a4a","F1","batch6","","1354.300000000745","tol_trial_num","<div class = centerbox><p class = center-block-text>problem <strong>3</strong> out of 25 problems</p></div>","0","","","","","","","","","","","","","","","","","","","","","","","","",""
"","","","","","single-stim-button","44","752998","0.0-2.0-16.0-0.0","6294de1b341cd20e308d1a4a","F1","batch6","","6390","tol_tohand","","","","tol_peg_1","6390","6390","0","[[2,0,0],[0,0],[1]]","1","[[1,2,0],[3,0],[0]]","2","0","","","","","","4","","","","","","","","",""
"","","","","","single-stim-button","45","754384","0.0-2.0-16.0-1.0","6294de1b341cd20e308d1a4a","F1","batch6","","1382","tol_toboard","","","","tol_peg_2","1382","1382","0","[[2,0,0],[3,0],[1]]","1","[[1,2,0],[3,0],[0]]","2","0","","","","","","4","","","","","","","","",""
"","","","","","single-stim-button","46","755770","0.0-2.0-16.1-0.1","6294de1b341cd20e308d1a4a","F1","batch6","","1383","tol_tohand","","","","tol_peg_1","1383","1383","0","[[0,0,0],[3,0],[1]]","2","[[1,2,0],[3,0],[0]]","2","0","","","","","","4","","","","","","","","",""
"","","","","","single-stim-button","47","756949","0.0-2.0-16.1-1.1","6294de1b341cd20e308d1a4a","F1","batch6","","1176","tol_toboard","","","","tol_peg_2","1176","1176","0","[[0,0,0],[3,2],[1]]","2","[[1,2,0],[3,0],[0]]","2","0","","","","","","4","","","","","","","","",""
"","","","","","single-stim-button","48","757821","0.0-2.0-16.2-0.2","6294de1b341cd20e308d1a4a","F1","batch6","","869","tol_tohand","","","","tol_peg_3","869","869","0","[[0,0,0],[3,2],[0]]","3","[[1,2,0],[3,0],[0]]","2","0","","","","","","4","","","","","","","","",""
"","","","","","single-stim-button","49","759156","0.0-2.0-16.2-1.2","6294de1b341cd20e308d1a4a","F1","batch6","","1332","tol_toboard","","","","tol_peg_1","1332","1332","0","[[1,0,0],[3,2],[0]]","3","[[1,2,0],[3,0],[0]]","2","0","","","","","","4","","","","","","","","",""
"","","","","","single-stim-button","50","760126","0.0-2.0-16.3-0.3","6294de1b341cd20e308d1a4a","F1","batch6","","966","tol_tohand","","","","tol_peg_2","966","966","0","[[1,0,0],[3,0],[0]]","4","[[1,2,0],[3,0],[0]]","2","0","","","","","","4","","","","","","","","",""
"","","","","","single-stim-button","51","761163","0.0-2.0-16.3-1.3","6294de1b341cd20e308d1a4a","F1","batch6","","1035","tol_toboard","","","","tol_peg_1","1035","1035","0","[[1,2,0],[3,0],[0]]","4","[[1,2,0],[3,0],[0]]","2","0","","","","","","4","","","","","","","","",""
"","","","","","poldrack-single-stim","52","762174","0.0-2.0-17.0","6294de1b341cd20e308d1a4a","F1","batch6","","-1","tol_feedback","","","true","","1000","1000","500","","","","","","-1","none","true","6390","9608","","","","","","","","","",""
"","","","","","html-button-response","53","763287","0.0-2.0-18.0","6294de1b341cd20e308d1a4a","F1","batch6","","1108.800000000745","tol_trial_num","<div class = centerbox><p class = center-block-text>problem <strong>4</strong> out of 25 problems</p></div>","0","","","","","","","","","","","","","","","","","","","","","","","","",""
"","","","","","single-stim-button","54","766243","0.0-2.0-19.0-0.0","6294de1b341cd20e308d1a4a","F1","batch6","","2953","tol_tohand","","","","tol_peg_2","2953","2953","0","[[3,0,0],[2,0],[0]]","1","[[3,0,0],[1,0],[2]]","3","0","","","","","","3","","","","","","","","",""
"","","","","","single-stim-button","55","767607","0.0-2.0-19.0-1.0","6294de1b341cd20e308d1a4a","F1","batch6","","1361","tol_toboard","","","","tol_peg_1","1361","1361","0","[[3,1,0],[2,0],[0]]","1","[[3,0,0],[1,0],[2]]","3","0","","","","","","3","","","","","","","","",""
"","","","","","single-stim-button","56","768526","0.0-2.0-19.1-0.1","6294de1b341cd20e308d1a4a","F1","batch6","","916","tol_tohand","","","","tol_peg_2","916","916","0","[[3,1,0],[0,0],[0]]","2","[[3,0,0],[1,0],[2]]","3","0","","","","","","3","","","","","","","","",""
"","","","","","single-stim-button","57","769824","0.0-2.0-19.1-1.1","6294de1b341cd20e308d1a4a","F1","batch6","","1294","tol_toboard","","","","tol_peg_3","1294","1294","0","[[3,1,0],[0,0],[2]]","2","[[3,0,0],[1,0],[2]]","3","0","","","","","","3","","","","","","","","",""
"","","","","","single-stim-button","58","770713","0.0-2.0-19.2-0.2","6294de1b341cd20e308d1a4a","F1","batch6","","885","tol_tohand","","","","tol_peg_1","885","885","0","[[3,0,0],[0,0],[2]]","3","[[3,0,0],[1,0],[2]]","3","0","","","","","","3","","","","","","","","",""
"","","","","","single-stim-button","59","771578","0.0-2.0-19.2-1.2","6294de1b341cd20e308d1a4a","F1","batch6","","863","tol_toboard","","","","tol_peg_2","863","863","0","[[3,0,0],[1,0],[2]]","3","[[3,0,0],[1,0],[2]]","3","0","","","","","","3","","","","","","","","",""
"","","","","","poldrack-single-stim","60","772590","0.0-2.0-20.0","6294de1b341cd20e308d1a4a","F1","batch6","","-1","tol_feedback","","","true","","1000","1000","500","","","","","","-1","none","true","2953","4754","","","","","","","","","",""
"","","","","","html-button-response","61","773973","0.0-2.0-21.0","6294de1b341cd20e308d1a4a","F1","batch6","","1379.4000000003725","tol_trial_num","<div class = centerbox><p class = center-block-text>problem <strong>5</strong> out of 25 problems</p></div>","0","","","","","","","","","","","","","","","","","","","","","","","","",""
"","","","","","single-stim-button","62","812072","0.0-2.0-22.0-0.0","6294de1b341cd20e308d1a4a","F1","batch6","","38095","tol_tohand","","","","tol_peg_1","38095","38095","0","[[0,0,0],[2,0],[3]]","1","[[0,0,0],[1,2],[3]]","4","0","","","","","","7","","","","","","","","",""
"","","","","","single-stim-button","63","814168","0.0-2.0-22.0-1.0","6294de1b341cd20e308d1a4a","F1","batch6","","2093","tol_toboard","","","","tol_peg_2","2093","2093","0","[[0,0,0],[2,1],[3]]","1","[[0,0,0],[1,2],[3]]","4","0","","","","","","7","","","","","","","","",""
"","","","","","single-stim-button","64","825276","0.0-2.0-22.1-0.1","6294de1b341cd20e308d1a4a","F1","batch6","","11105","tol_tohand","","","","tol_peg_3","11105","11105","0","[[0,0,0],[2,1],[0]]","2","[[0,0,0],[1,2],[3]]","4","0","","","","","","7","","","","","","","","",""
"","","","","","single-stim-button","65","826514","0.0-2.0-22.1-1.1","6294de1b341cd20e308d1a4a","F1","batch6","","1235","tol_toboard","","","","tol_peg_1","1235","1235","0","[[3,0,0],[2,1],[0]]","2","[[0,0,0],[1,2],[3]]","4","0","","","","","","7","","","","","","","","",""
"","","","","","single-stim-button","66","831875","0.0-2.0-22.2-0.2","6294de1b341cd20e308d1a4a","F1","batch6","","5359","tol_tohand","","","","tol_peg_2","5359","5359","0","[[3,0,0],[2,0],[0]]","3","[[0,0,0],[1,2],[3]]","4","0","","","","","","7","","","","","","","","",""
"","","","","","single-stim-button","67","835025","0.0-2.0-22.2-1.2","6294de1b341cd20e308d1a4a","F1","batch6","","3147","tol_toboard","","","","tol_peg_3","3147","3147","0","[[3,0,0],[2,0],[1]]","3","[[0,0,0],[1,2],[3]]","4","0","","","","","","7","","","","","","","","",""
"","","","","","single-stim-button","68","836611","0.0-2.0-22.3-0.3","6294de1b341cd20e308d1a4a","F1","batch6","","1583","tol_tohand","","","","tol_peg_2","1583","1583","0","[[3,0,0],[0,0],[1]]","4","[[0,0,0],[1,2],[3]]","4","0","","","","","","7","","","","","","","","",""
"","","","","","single-stim-button","69","838499","0.0-2.0-22.3-1.3","6294de1b341cd20e308d1a4a","F1","batch6","","1885","tol_toboard","","","","tol_peg_1","1885","1885","0","[[3,2,0],[0,0],[1]]","4","[[0,0,0],[1,2],[3]]","4","0","","","","","","7","","","","","","","","",""
"","","","","","single-stim-button","70","839351","0.0-2.0-22.4-0.4","6294de1b341cd20e308d1a4a","F1","batch6","","849","tol_tohand","","","","tol_peg_3","849","849","0","[[3,2,0],[0,0],[0]]","5","[[0,0,0],[1,2],[3]]","4","0","","","","","","7","","","","","","","","",""
"","","","","","single-stim-button","71","840698","0.0-2.0-22.4-1.4","6294de1b341cd20e308d1a4a","F1","batch6","","1345","tol_toboard","","","","tol_peg_2","1345","1345","0","[[3,2,0],[1,0],[0]]","5","[[0,0,0],[1,2],[3]]","4","0","","","","","","7","","","","","","","","",""
"","","","","","single-stim-button","72","841699","0.0-2.0-22.5-0.5","6294de1b341cd20e308d1a4a","F1","batch6","","997","tol_tohand","","","","tol_peg_1","997","997","0","[[3,0,0],[1,0],[0]]","6","[[0,0,0],[1,2],[3]]","4","0","","","","","","7","","","","","","","","",""
"","","","","","single-stim-button","73","842587","0.0-2.0-22.5-1.5","6294de1b341cd20e308d1a4a","F1","batch6","","886","tol_toboard","","","","tol_peg_2","886","886","0","[[3,0,0],[1,2],[0]]","6","[[0,0,0],[1,2],[3]]","4","0","","","","","","7","","","","","","","","",""
"","","","","","single-stim-button","74","843266","0.0-2.0-22.6-0.6","6294de1b341cd20e308d1a4a","F1","batch6","","676","tol_tohand","","","","tol_peg_1","676","676","0","[[0,0,0],[1,2],[0]]","7","[[0,0,0],[1,2],[3]]","4","0","","","","","","7","","","","","","","","",""
"","","","","","single-stim-button","75","844095","0.0-2.0-22.6-1.6","6294de1b341cd20e308d1a4a","F1","batch6","","826","tol_toboard","","","","tol_peg_3","826","826","0","[[0,0,0],[1,2],[3]]","7","[[0,0,0],[1,2],[3]]","4","0","","","","","","7","","","","","","","","",""
"","","","","","poldrack-single-stim","76","845103","0.0-2.0-23.0","6294de1b341cd20e308d1a4a","F1","batch6","","-1","tol_feedback","","","true","","1000","1000","500","","","","","","-1","none","true","38095","58664","","","","","","","","","",""
"","","","","","html-button-response","77","846212","0.0-2.0-24.0","6294de1b341cd20e308d1a4a","F1","batch6","","1105.199999999255","tol_trial_num","<div class = centerbox><p class = center-block-text>problem <strong>6</strong> out of 25 problems</p></div>","0","","","","","","","","","","","","","","","","","","","","","","","","",""
"","","","","","single-stim-button","78","864349","0.0-2.0-25.0-0.0","6294de1b341cd20e308d1a4a","F1","batch6","","18134","tol_tohand","","","","tol_peg_2","18134","18134","0","[[0,0,0],[1,0],[3]]","1","[[1,0,0],[2,3],[0]]","5","0","","","","","","6","","","","","","","","",""
"","","","","","single-stim-button","79","866706","0.0-2.0-25.0-1.0","6294de1b341cd20e308d1a4a","F1","batch6","","2354","tol_toboard","","","","tol_peg_1","2354","2354","0","[[2,0,0],[1,0],[3]]","1","[[1,0,0],[2,3],[0]]","5","0","","","","","","6","","","","","","","","",""
"","","","","","single-stim-button","80","868268","0.0-2.0-25.1-0.1","6294de1b341cd20e308d1a4a","F1","batch6","","1559","tol_tohand","","","","tol_peg_3","1559","1559","0","[[2,0,0],[1,0],[0]]","2","[[1,0,0],[2,3],[0]]","5","0","","","","","","6","","","","","","","","",""
"","","","","","single-stim-button","81","891971","0.0-2.0-25.1-1.1","6294de1b341cd20e308d1a4a","F1","batch6","","23700","tol_toboard","","","","tol_peg_3","23700","23700","0","[[2,0,0],[1,0],[3]]","2","[[1,0,0],[2,3],[0]]","5","0","","","","","","6","","","","","","","","",""
"","","","","","single-stim-button","82","909600","0.0-2.0-25.2-0.2","6294de1b341cd20e308d1a4a","F1","batch6","","17625","tol_tohand","","","","tol_peg_3","17625","17625","0","[[2,0,0],[1,0],[0]]","3","[[1,0,0],[2,3],[0]]","5","0","","","","","","6","","","","","","","","",""
"","","","","","single-stim-button","83","910459","0.0-2.0-25.2-1.2","6294de1b341cd20e308d1a4a","F1","batch6","","856","tol_toboard","","","","tol_peg_1","856","856","0","[[2,3,0],[1,0],[0]]","3","[[1,0,0],[2,3],[0]]","5","0","","","","","","6","","","","","","","","",""
"","","","","","single-stim-button","84","911460","0.0-2.0-25.3-0.3","6294de1b341cd20e308d1a4a","F1","batch6","","998","tol_tohand","","","","tol_peg_2","998","998","0","[[2,3,0],[0,0],[0]]","4","[[1,0,0],[2,3],[0]]","5","0","","","","","","6","","","","","","","","",""
"","","","","","single-stim-button","85","912562","0.0-2.0-25.3-1.3","6294de1b341cd20e308d1a4a","F1","batch6","","1098","tol_toboard","","","","tol_peg_3","1098","1098","0","[[2,3,0],[0,0],[1]]","4","[[1,0,0],[2,3],[0]]","5","0","","","","","","6","","","","","","","","",""
"","","","","","single-stim-button","86","914012","0.0-2.0-25.4-0.4","6294de1b341cd20e308d1a4a","F1","batch6","","1448","tol_tohand","","","","tol_peg_1","1448","1448","0","[[2,0,0],[0,0],[1]]","5","[[1,0,0],[2,3],[0]]","5","0","","","","","","6","","","","","","","","",""
"","","","","","single-stim-button","87","915130","0.0-2.0-25.4-1.4","6294de1b341cd20e308d1a4a","F1","batch6","","1115","tol_toboard","","","","tol_peg_2","1115","1115","0","[[2,0,0],[3,0],[1]]","5","[[1,0,0],[2,3],[0]]","5","0","","","","","","6","","","","","","","","",""
"","","","","","single-stim-button","88","915946","0.0-2.0-25.5-0.5","6294de1b341cd20e308d1a4a","F1","batch6","","813","tol_tohand","","","","tol_peg_1","813","813","0","[[0,0,0],[3,0],[1]]","6","[[1,0,0],[2,3],[0]]","5","0","","","","","","6","","","","","","","","",""
"","","","","","single-stim-button","89","917171","0.0-2.0-25.5-1.5","6294de1b341cd20e308d1a4a","F1","batch6","","1223","tol_toboard","","","","tol_peg_2","1223","1223","0","[[0,0,0],[3,2],[1]]","6","[[1,0,0],[2,3],[0]]","5","0","","","","","","6","","","","","","","","",""
"","","","","","single-stim-button","90","918009","0.0-2.0-25.6-0.6","6294de1b341cd20e308d1a4a","F1","batch6","","835","tol_tohand","","","","tol_peg_3","835","835","0","[[0,0,0],[3,2],[0]]","7","[[1,0,0],[2,3],[0]]","5","0","","","","","","6","","","","","","","","",""
"","","","","","single-stim-button","91","918993","0.0-2.0-25.6-1.6","6294de1b341cd20e308d1a4a","F1","batch6","","981","tol_toboard","","","","tol_peg_1","981","981","0","[[1,0,0],[3,2],[0]]","7","[[1,0,0],[2,3],[0]]","5","0","","","","","","6","","","","","","","","",""
"","","","","","single-stim-button","92","920936","0.0-2.0-25.7-0.7","6294de1b341cd20e308d1a4a","F1","batch6","","1940","tol_tohand","","","","tol_peg_2","1940","1940","0","[[1,0,0],[3,0],[0]]","8","[[1,0,0],[2,3],[0]]","5","0","","","","","","6","","","","","","","","",""
"","","","","","single-stim-button","93","921913","0.0-2.0-25.7-1.7","6294de1b341cd20e308d1a4a","F1","batch6","","973","tol_toboard","","","","tol_peg_1","973","973","0","[[1,2,0],[3,0],[0]]","8","[[1,0,0],[2,3],[0]]","5","0","","","","","","6","","","","","","","","",""
"","","","","","single-stim-button","94","922726","0.0-2.0-25.8-0.8","6294de1b341cd20e308d1a4a","F1","batch6","","810","tol_tohand","","","","tol_peg_2","810","810","0","[[1,2,0],[0,0],[0]]","9","[[1,0,0],[2,3],[0]]","5","0","","","","","","6","","","","","","","","",""
"","","","","","single-stim-button","95","923481","0.0-2.0-25.8-1.8","6294de1b341cd20e308d1a4a","F1","batch6","","752","tol_toboard","","","","tol_peg_3","752","752","0","[[1,2,0],[0,0],[3]]","9","[[1,0,0],[2,3],[0]]","5","0","","","","","","6","","","","","","","","",""
"","","","","","single-stim-button","96","924392","0.0-2.0-25.9-0.9","6294de1b341cd20e308d1a4a","F1","batch6","","907","tol_tohand","","","","tol_peg_1","907","907","0","[[1,0,0],[0,0],[3]]","10","[[1,0,0],[2,3],[0]]","5","0","","","","","","6","","","","","","","","",""
"","","","","","single-stim-button","97","925368","0.0-2.0-25.9-1.9","6294de1b341cd20e308d1a4a","F1","batch6","","974","tol_toboard","","","","tol_peg_2","974","974","0","[[1,0,0],[2,0],[3]]","10","[[1,0,0],[2,3],[0]]","5","0","","","","","","6","","","","","","","","",""
"","","","","","single-stim-button","98","926226","0.0-2.0-25.10-0.10","6294de1b341cd20e308d1a4a","F1","batch6","","855","tol_tohand","","","","tol_peg_3","855","855","0","[[1,0,0],[2,0],[0]]","11","[[1,0,0],[2,3],[0]]","5","0","","","","","","6","","","","","","","","",""
"","","","","","single-stim-button","99","927179","0.0-2.0-25.10-1.10","6294de1b341cd20e308d1a4a","F1","batch6","","950","tol_toboard","","","","tol_peg_2","950","950","0","[[1,0,0],[2,3],[0]]","11","[[1,0,0],[2,3],[0]]","5","0","","","","","","6","","","","","","","","",""
"","","","","","poldrack-single-stim","100","928190","0.0-2.0-26.0","6294de1b341cd20e308d1a4a","F1","batch6","","-1","tol_feedback","","","true","","1000","1000","500","","","","","","-1","none","true","18134","45924","","","","","","","","","",""
"","","","","","html-button-response","101","929293","0.0-2.0-27.0","6294de1b341cd20e308d1a4a","F1","batch6","","1098.699999999255","tol_trial_num","<div class = centerbox><p class = center-block-text>problem <strong>7</strong> out of 25 problems</p></div>","0","","","","","","","","","","","","","","","","","","","","","","","","",""
"","","","","","single-stim-button","102","937071","0.0-2.0-28.0-0.0","6294de1b341cd20e308d1a4a","F1","batch6","","7774","tol_tohand","","","","tol_peg_3","7774","7774","0","[[2,1,0],[0,0],[0]]","1","[[1,2,0],[3,0],[0]]","6","0","","","","","","5","","","","","","","","",""
"","","","","","single-stim-button","103","938059","0.0-2.0-28.0-1.0","6294de1b341cd20e308d1a4a","F1","batch6","","984","tol_toboard","","","","tol_peg_2","984","984","0","[[2,1,0],[3,0],[0]]","1","[[1,2,0],[3,0],[0]]","6","0","","","","","","5","","","","","","","","",""
"","","","","","single-stim-button","104","938842","0.0-2.0-28.1-0.1","6294de1b341cd20e308d1a4a","F1","batch6","","780","tol_tohand","","","","tol_peg_1","780","780","0","[[2,0,0],[3,0],[0]]","2","[[1,2,0],[3,0],[0]]","6","0","","","","","","5","","","","","","","","",""
"","","","","","single-stim-button","105","939952","0.0-2.0-28.1-1.1","6294de1b341cd20e308d1a4a","F1","batch6","","1107","tol_toboard","","","","tol_peg_2","1107","1107","0","[[2,0,0],[3,1],[0]]","2","[[1,2,0],[3,0],[0]]","6","0","","","","","","5","","","","","","","","",""
"","","","","","single-stim-button","106","940899","0.0-2.0-28.2-0.2","6294de1b341cd20e308d1a4a","F1","batch6","","944","tol_tohand","","","","tol_peg_1","944","944","0","[[0,0,0],[3,1],[0]]","3","[[1,2,0],[3,0],[0]]","6","0","","","","","","5","","","","","","","","",""
"","","","","","single-stim-button","107","941948","0.0-2.0-28.2-1.2","6294de1b341cd20e308d1a4a","F1","batch6","","1046","tol_toboard","","","","tol_peg_3","1046","1046","0","[[0,0,0],[3,1],[2]]","3","[[1,2,0],[3,0],[0]]","6","0","","","","","","5","","","","","","","","",""
"","","","","","single-stim-button","108","942763","0.0-2.0-28.3-0.3","6294de1b341cd20e308d1a4a","F1","batch6","","813","tol_tohand","","","","tol_peg_2","813","813","0","[[0,0,0],[3,0],[2]]","4","[[1,2,0],[3,0],[0]]","6","0","","","","","","5","","","","","","","","",""
"","","","","","single-stim-button","109","943532","0.0-2.0-28.3-1.3","6294de1b341cd20e308d1a4a","F1","batch6","","767","tol_toboard","","","","tol_peg_1","767","767","0","[[1,0,0],[3,0],[2]]","4","[[1,2,0],[3,0],[0]]","6","0","","","","","","5","","","","","","","","",""
"","","","","","single-stim-button","110","944775","0.0-2.0-28.4-0.4","6294de1b341cd20e308d1a4a","F1","batch6","","1240","tol_tohand","","","","tol_peg_3","1240","1240","0","[[1,0,0],[3,0],[0]]","5","[[1,2,0],[3,0],[0]]","6","0","","","","","","5","","","","","","","","",""
"","","","","","single-stim-button","111","945792","0.0-2.0-28.4-1.4","6294de1b341cd20e308d1a4a","F1","batch6","","1013","tol_toboard","","","","tol_peg_1","1013","1013","0","[[1,2,0],[3,0],[0]]","5","[[1,2,0],[3,0],[0]]","6","0","","","","","","5","","","","","","","","",""
"","","","","","poldrack-single-stim","112","946798","0.0-2.0-29.0","6294de1b341cd20e308d1a4a","F1","batch6","","-1","tol_feedback","","","true","","1000","1000","500","","","","","","-1","none","true","7774","11551","","","","","","","","","",""
"","","","","","html-button-response","113","947787","0.0-2.0-30.0","6294de1b341cd20e308d1a4a","F1","batch6","","985.9000000003725","tol_trial_num","<div class = centerbox><p class = center-block-text>problem <strong>8</strong> out of 25 problems</p></div>","0","","","","","","","","","","","","","","","","","","","","","","","","",""
"","","","","","single-stim-button","114","950136","0.0-2.0-31.0-0.0","6294de1b341cd20e308d1a4a","F1","batch6","","2345","tol_tohand","","","","tol_peg_3","2345","2345","0","[[0,0,0],[2,3],[0]]","1","[[1,2,0],[3,0],[0]]","7","0","","","","","","4","","","","","","","","",""
"","","","","","single-stim-button","115","951253","0.0-2.0-31.0-1.0","6294de1b341cd20e308d1a4a","F1","batch6","","1114","tol_toboard","","","","tol_peg_1","1114","1114","0","[[1,0,0],[2,3],[0]]","1","[[1,2,0],[3,0],[0]]","7","0","","","","","","4","","","","","","","","",""
"","","","","","single-stim-button","116","952043","0.0-2.0-31.1-0.1","6294de1b341cd20e308d1a4a","F1","batch6","","787","tol_tohand","","","","tol_peg_2","787","787","0","[[1,0,0],[2,0],[0]]","2","[[1,2,0],[3,0],[0]]","7","0","","","","","","4","","","","","","","","",""
"","","","","","single-stim-button","117","953016","0.0-2.0-31.1-1.1","6294de1b341cd20e308d1a4a","F1","batch6","","970","tol_toboard","","","","tol_peg_3","970","970","0","[[1,0,0],[2,0],[3]]","2","[[1,2,0],[3,0],[0]]","7","0","","","","","","4","","","","","","","","",""
"","","","","","single-stim-button","118","953710","0.0-2.0-31.2-0.2","6294de1b341cd20e308d1a4a","F1","batch6","","691","tol_tohand","","","","tol_peg_2","691","691","0","[[1,0,0],[0,0],[3]]","3","[[1,2,0],[3,0],[0]]","7","0","","","","","","4","","","","","","","","",""
"","","","","","single-stim-button","119","954722","0.0-2.0-31.2-1.2","6294de1b341cd20e308d1a4a","F1","batch6","","1009","tol_toboard","","","","tol_peg_1","1009","1009","0","[[1,2,0],[0,0],[3]]","3","[[1,2,0],[3,0],[0]]","7","0","","","","","","4","","","","","","","","",""
"","","","","","single-stim-button","120","955521","0.0-2.0-31.3-0.3","6294de1b341cd20e308d1a4a","F1","batch6","","796","tol_tohand","","","","tol_peg_3","796","796","0","[[1,2,0],[0,0],[0]]","4","[[1,2,0],[3,0],[0]]","7","0","","","","","","4","","","","","","","","",""
"","","","","","single-stim-button","121","956527","0.0-2.0-31.3-1.3","6294de1b341cd20e308d1a4a","F1","batch6","","1003","tol_toboard","","","","tol_peg_2","1003","1003","0","[[1,2,0],[3,0],[0]]","4","[[1,2,0],[3,0],[0]]","7","0","","","","","","4","","","","","","","","",""
"","","","","","poldrack-single-stim","122","957534","0.0-2.0-32.0","6294de1b341cd20e308d1a4a","F1","batch6","","-1","tol_feedback","","","true","","1000","1000","500","","","","","","-1","none","true","2345","4619","","","","","","","","","",""
"","","","","","html-button-response","123","958722","0.0-2.0-33.0","6294de1b341cd20e308d1a4a","F1","batch6","","1184.4000000003725","tol_trial_num","<div class = centerbox><p class = center-block-text>problem <strong>9</strong> out of 25 problems</p></div>","0","","","","","","","","","","","","","","","","","","","","","","","","",""
"","","","","","single-stim-button","124","967086","0.0-2.0-34.0-0.0","6294de1b341cd20e308d1a4a","F1","batch6","","8360","tol_tohand","","","","tol_peg_3","8360","8360","0","[[3,2,0],[0,0],[0]]","1","[[2,1,0],[3,0],[0]]","8","0","","","","","","6","","","","","","","","",""
"","","","","","single-stim-button","125","968255","0.0-2.0-34.0-1.0","6294de1b341cd20e308d1a4a","F1","batch6","","1166","tol_toboard","","","","tol_peg_2","1166","1166","0","[[3,2,0],[1,0],[0]]","1","[[2,1,0],[3,0],[0]]","8","0","","","","","","6","","","","","","","","",""
"","","","","","single-stim-button","126","969017","0.0-2.0-34.1-0.1","6294de1b341cd20e308d1a4a","F1","batch6","","759","tol_tohand","","","","tol_peg_1","759","759","0","[[3,0,0],[1,0],[0]]","2","[[2,1,0],[3,0],[0]]","8","0","","","","","","6","","","","","","","","",""
"","","","","","single-stim-button","127","970104","0.0-2.0-34.1-1.1","6294de1b341cd20e308d1a4a","F1","batch6","","1084","tol_toboard","","","","tol_peg_2","1084","1084","0","[[3,0,0],[1,2],[0]]","2","[[2,1,0],[3,0],[0]]","8","0","","","","","","6","","","","","","","","",""
"","","","","","single-stim-button","128","971118","0.0-2.0-34.2-0.2","6294de1b341cd20e308d1a4a","F1","batch6","","1011","tol_tohand","","","","tol_peg_1","1011","1011","0","[[0,0,0],[1,2],[0]]","3","[[2,1,0],[3,0],[0]]","8","0","","","","","","6","","","","","","","","",""
"","","","","","single-stim-button","129","972049","0.0-2.0-34.2-1.2","6294de1b341cd20e308d1a4a","F1","batch6","","928","tol_toboard","","","","tol_peg_3","928","928","0","[[0,0,0],[1,2],[3]]","3","[[2,1,0],[3,0],[0]]","8","0","","","","","","6","","","","","","","","",""
"","","","","","single-stim-button","130","972833","0.0-2.0-34.3-0.3","6294de1b341cd20e308d1a4a","F1","batch6","","781","tol_tohand","","","","tol_peg_2","781","781","0","[[0,0,0],[1,0],[3]]","4","[[2,1,0],[3,0],[0]]","8","0","","","","","","6","","","","","","","","",""
"","","","","","single-stim-button","131","973759","0.0-2.0-34.3-1.3","6294de1b341cd20e308d1a4a","F1","batch6","","923","tol_toboard","","","","tol_peg_1","923","923","0","[[2,0,0],[1,0],[3]]","4","[[2,1,0],[3,0],[0]]","8","0","","","","","","6","","","","","","","","",""
"","","","","","single-stim-button","132","974712","0.0-2.0-34.4-0.4","6294de1b341cd20e308d1a4a","F1","batch6","","951","tol_tohand","","","","tol_peg_2","951","951","0","[[2,0,0],[0,0],[3]]","5","[[2,1,0],[3,0],[0]]","8","0","","","","","","6","","","","","","","","",""
"","","","","","single-stim-button","133","975637","0.0-2.0-34.4-1.4","6294de1b341cd20e308d1a4a","F1","batch6","","922","tol_toboard","","","","tol_peg_1","922","922","0","[[2,1,0],[0,0],[3]]","5","[[2,1,0],[3,0],[0]]","8","0","","","","","","6","","","","","","","","",""
"","","","","","single-stim-button","134","976487","0.0-2.0-34.5-0.5","6294de1b341cd20e308d1a4a","F1","batch6","","847","tol_tohand","","","","tol_peg_3","847","847","0","[[2,1,0],[0,0],[0]]","6","[[2,1,0],[3,0],[0]]","8","0","","","","","","6","","","","","","","","",""
"","","","","","single-stim-button","135","977419","0.0-2.0-34.5-1.5","6294de1b341cd20e308d1a4a","F1","batch6","","929","tol_toboard","","","","tol_peg_2","929","929","0","[[2,1,0],[3,0],[0]]","6","[[2,1,0],[3,0],[0]]","8","0","","","","","","6","","","","","","","","",""
"","","","","","poldrack-single-stim","136","978431","0.0-2.0-35.0","6294de1b341cd20e308d1a4a","F1","batch6","","-1","tol_feedback","","","true","","1000","1000","500","","","","","","-1","none","true","8360","12709","","","","","","","","","",""
"","","","","","html-button-response","137","979540","0.0-2.0-36.0","6294de1b341cd20e308d1a4a","F1","batch6","","1105.8999999985099","tol_trial_num","<div class = centerbox><p class = center-block-text>problem <strong>10</strong> out of 25 problems</p></div>","0","","","","","","","","","","","","","","","","","","","","","","","","",""
"","","","","","single-stim-button","138","983092","0.0-2.0-37.0-0.0","6294de1b341cd20e308d1a4a","F1","batch6","","3547","tol_tohand","","","","tol_peg_2","3547","3547","0","[[3,0,0],[0,0],[2]]","1","[[3,0,0],[2,1],[0]]","9","0","","","","","","3","","","","","","","","",""
"","","","","","single-stim-button","139","983973","0.0-2.0-37.0-1.0","6294de1b341cd20e308d1a4a","F1","batch6","","877","tol_toboard","","","","tol_peg_1","877","877","0","[[3,1,0],[0,0],[2]]","1","[[3,0,0],[2,1],[0]]","9","0","","","","","","3","","","","","","","","",""
"","","","","","single-stim-button","140","984855","0.0-2.0-37.1-0.1","6294de1b341cd20e308d1a4a","F1","batch6","","880","tol_tohand","","","","tol_peg_3","880","880","0","[[3,1,0],[0,0],[0]]","2","[[3,0,0],[2,1],[0]]","9","0","","","","","","3","","","","","","","","",""
"","","","","","single-stim-button","141","985956","0.0-2.0-37.1-1.1","6294de1b341cd20e308d1a4a","F1","batch6","","1098","tol_toboard","","","","tol_peg_2","1098","1098","0","[[3,1,0],[2,0],[0]]","2","[[3,0,0],[2,1],[0]]","9","0","","","","","","3","","","","","","","","",""
"","","","","","single-stim-button","142","986858","0.0-2.0-37.2-0.2","6294de1b341cd20e308d1a4a","F1","batch6","","899","tol_tohand","","","","tol_peg_1","899","899","0","[[3,0,0],[2,0],[0]]","3","[[3,0,0],[2,1],[0]]","9","0","","","","","","3","","","","","","","","",""
"","","","","","single-stim-button","143","987882","0.0-2.0-37.2-1.2","6294de1b341cd20e308d1a4a","F1","batch6","","1021","tol_toboard","","","","tol_peg_2","1021","1021","0","[[3,0,0],[2,1],[0]]","3","[[3,0,0],[2,1],[0]]","9","0","","","","","","3","","","","","","","","",""
"","","","","","poldrack-single-stim","144","988894","0.0-2.0-38.0","6294de1b341cd20e308d1a4a","F1","batch6","","-1","tol_feedback","","","true","","1000","1000","500","","","","","","-1","none","true","3547","5326","","","","","","","","","",""
"","","","","","html-button-response","145","989784","0.0-2.0-39.0","6294de1b341cd20e308d1a4a","F1","batch6","","886.3999999985099","tol_trial_num","<div class = centerbox><p class = center-block-text>problem <strong>11</strong> out of 25 problems</p></div>","0","","","","","","","","","","","","","","","","","","","","","","","","",""
"","","","","","single-stim-button","146","994449","0.0-2.0-40.0-0.0","6294de1b341cd20e308d1a4a","F1","batch6","","4662","tol_tohand","","","","tol_peg_1","4662","4662","0","[[1,0,0],[3,0],[0]]","1","[[2,0,0],[1,3],[0]]","10","0","","","","","","6","","","","","","","","",""
"","","","","","single-stim-button","147","995300","0.0-2.0-40.0-1.0","6294de1b341cd20e308d1a4a","F1","batch6","","847","tol_toboard","","","","tol_peg_2","847","847","0","[[1,0,0],[3,2],[0]]","1","[[2,0,0],[1,3],[0]]","10","0","","","","","","6","","","","","","","","",""
"","","","","","single-stim-button","148","996239","0.0-2.0-40.1-0.1","6294de1b341cd20e308d1a4a","F1","batch6","","937","tol_tohand","","","","tol_peg_1","937","937","0","[[0,0,0],[3,2],[0]]","2","[[2,0,0],[1,3],[0]]","10","0","","","","","","6","","","","","","","","",""
"","","","","","single-stim-button","149","997112","0.0-2.0-40.1-1.1","6294de1b341cd20e308d1a4a","F1","batch6","","870","tol_toboard","","","","tol_peg_3","870","870","0","[[0,0,0],[3,2],[1]]","2","[[2,0,0],[1,3],[0]]","10","0","","","","","","6","","","","","","","","",""
"","","","","","single-stim-button","150","997993","0.0-2.0-40.2-0.2","6294de1b341cd20e308d1a4a","F1","batch6","","878","tol_tohand","","","","tol_peg_2","878","878","0","[[0,0,0],[3,0],[1]]","3","[[2,0,0],[1,3],[0]]","10","0","","","","","","6","","","","","","","","",""
"","","","","","single-stim-button","151","998858","0.0-2.0-40.2-1.2","6294de1b341cd20e308d1a4a","F1","batch6","","861","tol_toboard","","","","tol_peg_1","861","861","0","[[2,0,0],[3,0],[1]]","3","[[2,0,0],[1,3],[0]]","10","0","","","","","","6","","","","","","","","",""
"","","","","","single-stim-button","152","999922","0.0-2.0-40.3-0.3","6294de1b341cd20e308d1a4a","F1","batch6","","1061","tol_tohand","","","","tol_peg_2","1061","1061","0","[[2,0,0],[0,0],[1]]","4","[[2,0,0],[1,3],[0]]","10","0","","","","","","6","","","","","","","","",""
"","","","","","single-stim-button","153","1000949","0.0-2.0-40.3-1.3","6294de1b341cd20e308d1a4a","F1","batch6","","1025","tol_toboard","","","","tol_peg_1","1025","1025","0","[[2,3,0],[0,0],[1]]","4","[[2,0,0],[1,3],[0]]","10","0","","","","","","6","","","","","","","","",""
"","","","","","single-stim-button","154","1001703","0.0-2.0-40.4-0.4","6294de1b341cd20e308d1a4a","F1","batch6","","751","tol_tohand","","","","tol_peg_3","751","751","0","[[2,3,0],[0,0],[0]]","5","[[2,0,0],[1,3],[0]]","10","0","","","","","","6","","","","","","","","",""
"","","","","","single-stim-button","155","1002693","0.0-2.0-40.4-1.4","6294de1b341cd20e308d1a4a","F1","batch6","","987","tol_toboard","","","","tol_peg_2","987","987","0","[[2,3,0],[1,0],[0]]","5","[[2,0,0],[1,3],[0]]","10","0","","","","","","6","","","","","","","","",""
"","","","","","single-stim-button","156","1003448","0.0-2.0-40.5-0.5","6294de1b341cd20e308d1a4a","F1","batch6","","752","tol_tohand","","","","tol_peg_1","752","752","0","[[2,0,0],[1,0],[0]]","6","[[2,0,0],[1,3],[0]]","10","0","","","","","","6","","","","","","","","",""
"","","","","","single-stim-button","157","1004477","0.0-2.0-40.5-1.5","6294de1b341cd20e308d1a4a","F1","batch6","","1026","tol_toboard","","","","tol_peg_2","1026","1026","0","[[2,0,0],[1,3],[0]]","6","[[2,0,0],[1,3],[0]]","10","0","","","","","","6","","","","","","","","",""
"","","","","","poldrack-single-stim","158","1005486","0.0-2.0-41.0","6294de1b341cd20e308d1a4a","F1","batch6","","-1","tol_feedback","","","true","","1000","1000","500","","","","","","-1","none","true","4662","9041","","","","","","","","","",""
"","","","","","html-button-response","159","1006531","0.0-2.0-42.0","6294de1b341cd20e308d1a4a","F1","batch6","","1041.5999999996275","tol_trial_num","<div class = centerbox><p class = center-block-text>problem <strong>12</strong> out of 25 problems</p></div>","0","","","","","","","","","","","","","","","","","","","","","","","","",""
"","","","","","single-stim-button","160","1008338","0.0-2.0-43.0-0.0","6294de1b341cd20e308d1a4a","F1","batch6","","1803","tol_tohand","","","","tol_peg_1","1803","1803","0","[[1,0,0],[3,0],[0]]","1","[[2,3,0],[0,0],[1]]","11","0","","","","","","4","","","","","","","","",""
"","","","","","single-stim-button","161","1009237","0.0-2.0-43.0-1.0","6294de1b341cd20e308d1a4a","F1","batch6","","896","tol_toboard","","","","tol_peg_2","896","896","0","[[1,0,0],[3,2],[0]]","1","[[2,3,0],[0,0],[1]]","11","0","","","","","","4","","","","","","","","",""
"","","","","","single-stim-button","162","1010094","0.0-2.0-43.1-0.1","6294de1b341cd20e308d1a4a","F1","batch6","","853","tol_tohand","","","","tol_peg_1","853","853","0","[[0,0,0],[3,2],[0]]","2","[[2,3,0],[0,0],[1]]","11","0","","","","","","4","","","","","","","","",""
"","","","","","single-stim-button","163","1011050","0.0-2.0-43.1-1.1","6294de1b341cd20e308d1a4a","F1","batch6","","953","tol_toboard","","","","tol_peg_3","953","953","0","[[0,0,0],[3,2],[1]]","2","[[2,3,0],[0,0],[1]]","11","0","","","","","","4","","","","","","","","",""
"","","","","","single-stim-button","164","1011765","0.0-2.0-43.2-0.2","6294de1b341cd20e308d1a4a","F1","batch6","","713","tol_tohand","","","","tol_peg_2","713","713","0","[[0,0,0],[3,0],[1]]","3","[[2,3,0],[0,0],[1]]","11","0","","","","","","4","","","","","","","","",""
"","","","","","single-stim-button","165","1012735","0.0-2.0-43.2-1.2","6294de1b341cd20e308d1a4a","F1","batch6","","967","tol_toboard","","","","tol_peg_1","967","967","0","[[2,0,0],[3,0],[1]]","3","[[2,3,0],[0,0],[1]]","11","0","","","","","","4","","","","","","","","",""
"","","","","","single-stim-button","166","1013644","0.0-2.0-43.3-0.3","6294de1b341cd20e308d1a4a","F1","batch6","","906","tol_tohand","","","","tol_peg_2","906","906","0","[[2,0,0],[0,0],[1]]","4","[[2,3,0],[0,0],[1]]","11","0","","","","","","4","","","","","","","","",""
"","","","","","single-stim-button","167","1014629","0.0-2.0-43.3-1.3","6294de1b341cd20e308d1a4a","F1","batch6","","983","tol_toboard","","","","tol_peg_1","983","983","0","[[2,3,0],[0,0],[1]]","4","[[2,3,0],[0,0],[1]]","11","0","","","","","","4","","","","","","","","",""
"","","","","","poldrack-single-stim","168","1015638","0.0-2.0-44.0","6294de1b341cd20e308d1a4a","F1","batch6","","-1","tol_feedback","","","true","","1000","1000","500","","","","","","-1","none","true","1803","4275","","","","","","","","","",""
"","","","","","html-button-response","169","1016608","0.0-2.0-45.0","6294de1b341cd20e308d1a4a","F1","batch6","","966.9000000003725","tol_trial_num","<div class = centerbox><p class = center-block-text>problem <strong>13</strong> out of 25 problems</p></div>","0","","","","","","","","","","","","","","","","","","","","","","","","",""
"","","","","","single-stim-button","170","1018341","0.0-2.0-46.0-0.0","6294de1b341cd20e308d1a4a","F1","batch6","","1730","tol_tohand","","","","tol_peg_1","1730","1730","0","[[1,0,0],[3,0],[0]]","1","[[0,0,0],[2,3],[1]]","12","0","","","","","","4","","","","","","","","",""
"","","","","","single-stim-button","171","1019217","0.0-2.0-46.0-1.0","6294de1b341cd20e308d1a4a","F1","batch6","","873","tol_toboard","","","","tol_peg_2","873","873","0","[[1,0,0],[3,2],[0]]","1","[[0,0,0],[2,3],[1]]","12","0","","","","","","4","","","","","","","","",""
"","","","","","single-stim-button","172","1020103","0.0-2.0-46.1-0.1","6294de1b341cd20e308d1a4a","F1","batch6","","882","tol_tohand","","","","tol_peg_1","882","882","0","[[0,0,0],[3,2],[0]]","2","[[0,0,0],[2,3],[1]]","12","0","","","","","","4","","","","","","","","",""
"","","","","","single-stim-button","173","1021273","0.0-2.0-46.1-1.1","6294de1b341cd20e308d1a4a","F1","batch6","","1168","tol_toboard","","","","tol_peg_3","1168","1168","0","[[0,0,0],[3,2],[1]]","2","[[0,0,0],[2,3],[1]]","12","0","","","","","","4","","","","","","","","",""
"","","","","","single-stim-button","174","1033487","0.0-2.0-46.2-0.2","6294de1b341cd20e308d1a4a","F1","batch6","","12211","tol_tohand","","","","tol_peg_3","12211","12211","0","[[0,0,0],[3,2],[0]]","3","[[0,0,0],[2,3],[1]]","12","0","","","","","","4","","","","","","","","",""
"","","","","","single-stim-button","175","1034397","0.0-2.0-46.2-1.2","6294de1b341cd20e308d1a4a","F1","batch6","","906","tol_toboard","","","","tol_peg_1","906","906","0","[[1,0,0],[3,2],[0]]","3","[[0,0,0],[2,3],[1]]","12","0","","","","","","4","","","","","","","","",""
"","","","","","single-stim-button","176","1035277","0.0-2.0-46.3-0.3","6294de1b341cd20e308d1a4a","F1","batch6","","876","tol_tohand","","","","tol_peg_2","876","876","0","[[1,0,0],[3,0],[0]]","4","[[0,0,0],[2,3],[1]]","12","0","","","","","","4","","","","","","","","",""
"","","","","","single-stim-button","177","1036395","0.0-2.0-46.3-1.3","6294de1b341cd20e308d1a4a","F1","batch6","","1116","tol_toboard","","","","tol_peg_3","1116","1116","0","[[1,0,0],[3,0],[2]]","4","[[0,0,0],[2,3],[1]]","12","0","","","","","","4","","","","","","","","",""
"","","","","","single-stim-button","178","1037520","0.0-2.0-46.4-0.4","6294de1b341cd20e308d1a4a","F1","batch6","","1122","tol_tohand","","","","tol_peg_2","1122","1122","0","[[1,0,0],[0,0],[2]]","5","[[0,0,0],[2,3],[1]]","12","0","","","","","","4","","","","","","","","",""
"","","","","","single-stim-button","179","1038354","0.0-2.0-46.4-1.4","6294de1b341cd20e308d1a4a","F1","batch6","","831","tol_toboard","","","","tol_peg_1","831","831","0","[[1,3,0],[0,0],[2]]","5","[[0,0,0],[2,3],[1]]","12","0","","","","","","4","","","","","","","","",""
"","","","","","single-stim-button","180","1039220","0.0-2.0-46.5-0.5","6294de1b341cd20e308d1a4a","F1","batch6","","863","tol_tohand","","","","tol_peg_3","863","863","0","[[1,3,0],[0,0],[0]]","6","[[0,0,0],[2,3],[1]]","12","0","","","","","","4","","","","","","","","",""
"","","","","","single-stim-button","181","1040107","0.0-2.0-46.5-1.5","6294de1b341cd20e308d1a4a","F1","batch6","","884","tol_toboard","","","","tol_peg_2","884","884","0","[[1,3,0],[2,0],[0]]","6","[[0,0,0],[2,3],[1]]","12","0","","","","","","4","","","","","","","","",""
"","","","","","single-stim-button","182","1040786","0.0-2.0-46.6-0.6","6294de1b341cd20e308d1a4a","F1","batch6","","675","tol_tohand","","","","tol_peg_1","675","675","0","[[1,0,0],[2,0],[0]]","7","[[0,0,0],[2,3],[1]]","12","0","","","","","","4","","","","","","","","",""
"","","","","","single-stim-button","183","1041556","0.0-2.0-46.6-1.6","6294de1b341cd20e308d1a4a","F1","batch6","","767","tol_toboard","","","","tol_peg_2","767","767","0","[[1,0,0],[2,3],[0]]","7","[[0,0,0],[2,3],[1]]","12","0","","","","","","4","","","","","","","","",""
"","","","","","single-stim-button","184","1042230","0.0-2.0-46.7-0.7","6294de1b341cd20e308d1a4a","F1","batch6","","671","tol_tohand","","","","tol_peg_1","671","671","0","[[0,0,0],[2,3],[0]]","8","[[0,0,0],[2,3],[1]]","12","0","","","","","","4","","","","","","","","",""
"","","","","","single-stim-button","185","1043798","0.0-2.0-46.7-1.7","6294de1b341cd20e308d1a4a","F1","batch6","","1566","tol_toboard","","","","tol_peg_3","1566","1566","0","[[0,0,0],[2,3],[1]]","8","[[0,0,0],[2,3],[1]]","12","0","","","","","","4","","","","","","","","",""
"","","","","","poldrack-single-stim","186","1044806","0.0-2.0-47.0","6294de1b341cd20e308d1a4a","F1","batch6","","-1","tol_feedback","","","true","","1000","1000","500","","","","","","-1","none","true","1730","19030","","","","","","","","","",""
"","","","","","html-button-response","187","1050466","0.0-2.0-48.0","6294de1b341cd20e308d1a4a","F1","batch6","","5655.4000000003725","attention_check","<p class = block-text>How many balls are in your board<br></p>","1","true","","","","","","","","","","","","","","","","","","","","","","","",""
"","","","","","html-button-response","188","1051832","0.0-2.0-49.0","6294de1b341cd20e308d1a4a","F1","batch6","","1361.9000000003725","tol_trial_num","<div class = centerbox><p class = center-block-text>problem <strong>14</strong> out of 25 problems</p></div>","0","","","","","","","","","","","","","","","","","","","","","","","","",""
"","","","","","single-stim-button","189","1054049","0.0-2.0-50.0-0.0","6294de1b341cd20e308d1a4a","F1","batch6","","2213","tol_tohand","","","","tol_peg_1","2213","2213","0","[[2,0,0],[3,0],[0]]","1","[[1,2,0],[3,0],[0]]","13","0","","","","","","4","","","","","","","","",""
"","","","","","single-stim-button","190","1055582","0.0-2.0-50.0-1.0","6294de1b341cd20e308d1a4a","F1","batch6","","1529","tol_toboard","","","","tol_peg_3","1529","1529","0","[[2,0,0],[3,0],[1]]","1","[[1,2,0],[3,0],[0]]","13","0","","","","","","4","","","","","","","","",""
"","","","","","single-stim-button","191","1056491","0.0-2.0-50.1-0.1","6294de1b341cd20e308d1a4a","F1","batch6","","906","tol_tohand","","","","tol_peg_1","906","906","0","[[0,0,0],[3,0],[1]]","2","[[1,2,0],[3,0],[0]]","13","0","","","","","","4","","","","","","","","",""
"","","","","","single-stim-button","192","1057622","0.0-2.0-50.1-1.1","6294de1b341cd20e308d1a4a","F1","batch6","","1128","tol_toboard","","","","tol_peg_2","1128","1128","0","[[0,0,0],[3,2],[1]]","2","[[1,2,0],[3,0],[0]]","13","0","","","","","","4","","","","","","","","",""
"","","","","","single-stim-button","193","1058325","0.0-2.0-50.2-0.2","6294de1b341cd20e308d1a4a","F1","batch6","","700","tol_tohand","","","","tol_peg_3","700","700","0","[[0,0,0],[3,2],[0]]","3","[[1,2,0],[3,0],[0]]","13","0","","","","","","4","","","","","","","","",""
"","","","","","single-stim-button","194","1059345","0.0-2.0-50.2-1.2","6294de1b341cd20e308d1a4a","F1","batch6","","1016","tol_toboard","","","","tol_peg_1","1016","1016","0","[[1,0,0],[3,2],[0]]","3","[[1,2,0],[3,0],[0]]","13","0","","","","","","4","","","","","","","","",""
"","","","","","single-stim-button","195","1060247","0.0-2.0-50.3-0.3","6294de1b341cd20e308d1a4a","F1","batch6","","899","tol_tohand","","","","tol_peg_2","899","899","0","[[1,0,0],[3,0],[0]]","4","[[1,2,0],[3,0],[0]]","13","0","","","","","","4","","","","","","","","",""
"","","","","","single-stim-button","196","1061555","0.0-2.0-50.3-1.3","6294de1b341cd20e308d1a4a","F1","batch6","","1305","tol_toboard","","","","tol_peg_1","1305","1305","0","[[1,2,0],[3,0],[0]]","4","[[1,2,0],[3,0],[0]]","13","0","","","","","","4","","","","","","","","",""
"","","","","","poldrack-single-stim","197","1062566","0.0-2.0-51.0","6294de1b341cd20e308d1a4a","F1","batch6","","-1","tol_feedback","","","true","","1000","1000","500","","","","","","-1","none","true","2213","4718","","","","","","","","","",""
"","","","","","html-button-response","198","1063669","0.0-2.0-52.0","6294de1b341cd20e308d1a4a","F1","batch6","","1099","tol_trial_num","<div class = centerbox><p class = center-block-text>problem <strong>15</strong> out of 25 problems</p></div>","0","","","","","","","","","","","","","","","","","","","","","","","","",""
"","","","","","single-stim-button","199","1065773","0.0-2.0-53.0-0.0","6294de1b341cd20e308d1a4a","F1","batch6","","2101","tol_tohand","","","","tol_peg_1","2101","2101","0","[[1,0,0],[3,0],[0]]","1","[[2,0,0],[3,0],[1]]","14","0","","","","","","3","","","","","","","","",""
"","","","","","single-stim-button","200","1067046","0.0-2.0-53.0-1.0","6294de1b341cd20e308d1a4a","F1","batch6","","1270","tol_toboard","","","","tol_peg_2","1270","1270","0","[[1,0,0],[3,2],[0]]","1","[[2,0,0],[3,0],[1]]","14","0","","","","","","3","","","","","","","","",""
"","","","","","single-stim-button","201","1067917","0.0-2.0-53.1-0.1","6294de1b341cd20e308d1a4a","F1","batch6","","868","tol_tohand","","","","tol_peg_1","868","868","0","[[0,0,0],[3,2],[0]]","2","[[2,0,0],[3,0],[1]]","14","0","","","","","","3","","","","","","","","",""
"","","","","","single-stim-button","202","1068895","0.0-2.0-53.1-1.1","6294de1b341cd20e308d1a4a","F1","batch6","","975","tol_toboard","","","","tol_peg_3","975","975","0","[[0,0,0],[3,2],[1]]","2","[[2,0,0],[3,0],[1]]","14","0","","","","","","3","","","","","","","","",""
"","","","","","single-stim-button","203","1069812","0.0-2.0-53.2-0.2","6294de1b341cd20e308d1a4a","F1","batch6","","914","tol_tohand","","","","tol_peg_2","914","914","0","[[0,0,0],[3,0],[1]]","3","[[2,0,0],[3,0],[1]]","14","0","","","","","","3","","","","","","","","",""
"","","","","","single-stim-button","204","1070669","0.0-2.0-53.2-1.2","6294de1b341cd20e308d1a4a","F1","batch6","","854","tol_toboard","","","","tol_peg_1","854","854","0","[[2,0,0],[3,0],[1]]","3","[[2,0,0],[3,0],[1]]","14","0","","","","","","3","","","","","","","","",""
"","","","","","poldrack-single-stim","205","1071678","0.0-2.0-54.0","6294de1b341cd20e308d1a4a","F1","batch6","","-1","tol_feedback","","","true","","1000","1000","500","","","","","","-1","none","true","2101","3883","","","","","","","","","",""
"","","","","","html-button-response","206","1073056","0.0-2.0-55.0","6294de1b341cd20e308d1a4a","F1","batch6","","1374.5","tol_trial_num","<div class = centerbox><p class = center-block-text>problem <strong>16</strong> out of 25 problems</p></div>","0","","","","","","","","","","","","","","","","","","","","","","","","",""
"","","","","","single-stim-button","207","1077144","0.0-2.0-56.0-0.0","6294de1b341cd20e308d1a4a","F1","batch6","","4084","tol_tohand","","","","tol_peg_3","4084","4084","0","[[0,0,0],[2,3],[0]]","1","[[2,3,0],[1,0],[0]]","15","0","","","","","","7","","","","","","","","",""
"","","","","","single-stim-button","208","1081844","0.0-2.0-56.0-1.0","6294de1b341cd20e308d1a4a","F1","batch6","","4696","tol_toboard","","","","tol_peg_1","4696","4696","0","[[1,0,0],[2,3],[0]]","1","[[2,3,0],[1,0],[0]]","15","0","","","","","","7","","","","","","","","",""
"","","","","","single-stim-button","209","1091630","0.0-2.0-56.1-0.1","6294de1b341cd20e308d1a4a","F1","batch6","","9781","tol_tohand","","","","tol_peg_2","9781","9781","0","[[1,0,0],[2,0],[0]]","2","[[2,3,0],[1,0],[0]]","15","0","","","","","","7","","","","","","","","",""
"","","","","","single-stim-button","210","1092526","0.0-2.0-56.1-1.1","6294de1b341cd20e308d1a4a","F1","batch6","","893","tol_toboard","","","","tol_peg_1","893","893","0","[[1,3,0],[2,0],[0]]","2","[[2,3,0],[1,0],[0]]","15","0","","","","","","7","","","","","","","","",""
"","","","","","single-stim-button","211","1093643","0.0-2.0-56.2-0.2","6294de1b341cd20e308d1a4a","F1","batch6","","1114","tol_tohand","","","","tol_peg_2","1114","1114","0","[[1,3,0],[0,0],[0]]","3","[[2,3,0],[1,0],[0]]","15","0","","","","","","7","","","","","","","","",""
"","","","","","single-stim-button","212","1094804","0.0-2.0-56.2-1.2","6294de1b341cd20e308d1a4a","F1","batch6","","1158","tol_toboard","","","","tol_peg_3","1158","1158","0","[[1,3,0],[0,0],[2]]","3","[[2,3,0],[1,0],[0]]","15","0","","","","","","7","","","","","","","","",""
"","","","","","single-stim-button","213","1096225","0.0-2.0-56.3-0.3","6294de1b341cd20e308d1a4a","F1","batch6","","1418","tol_tohand","","","","tol_peg_1","1418","1418","0","[[1,0,0],[0,0],[2]]","4","[[2,3,0],[1,0],[0]]","15","0","","","","","","7","","","","","","","","",""
"","","","","","single-stim-button","214","1097281","0.0-2.0-56.3-1.3","6294de1b341cd20e308d1a4a","F1","batch6","","1053","tol_toboard","","","","tol_peg_2","1053","1053","0","[[1,0,0],[3,0],[2]]","4","[[2,3,0],[1,0],[0]]","15","0","","","","","","7","","","","","","","","",""
"","","","","","single-stim-button","215","1098214","0.0-2.0-56.4-0.4","6294de1b341cd20e308d1a4a","F1","batch6","","930","tol_tohand","","","","tol_peg_1","930","930","0","[[0,0,0],[3,0],[2]]","5","[[2,3,0],[1,0],[0]]","15","0","","","","","","7","","","","","","","","",""
"","","","","","single-stim-button","216","1099177","0.0-2.0-56.4-1.4","6294de1b341cd20e308d1a4a","F1","batch6","","960","tol_toboard","","","","tol_peg_2","960","960","0","[[0,0,0],[3,1],[2]]","5","[[2,3,0],[1,0],[0]]","15","0","","","","","","7","","","","","","","","",""
"","","","","","single-stim-button","217","1099848","0.0-2.0-56.5-0.5","6294de1b341cd20e308d1a4a","F1","batch6","","668","tol_tohand","","","","tol_peg_3","668","668","0","[[0,0,0],[3,1],[0]]","6","[[2,3,0],[1,0],[0]]","15","0","","","","","","7","","","","","","","","",""
"","","","","","single-stim-button","218","1101253","0.0-2.0-56.5-1.5","6294de1b341cd20e308d1a4a","F1","batch6","","1402","tol_toboard","","","","tol_peg_1","1402","1402","0","[[2,0,0],[3,1],[0]]","6","[[2,3,0],[1,0],[0]]","15","0","","","","","","7","","","","","","","","",""
"","","","","","single-stim-button","219","1101956","0.0-2.0-56.6-0.6","6294de1b341cd20e308d1a4a","F1","batch6","","699","tol_tohand","","","","tol_peg_2","699","699","0","[[2,0,0],[3,0],[0]]","7","[[2,3,0],[1,0],[0]]","15","0","","","","","","7","","","","","","","","",""
"","","","","","single-stim-button","220","1102999","0.0-2.0-56.6-1.6","6294de1b341cd20e308d1a4a","F1","batch6","","1040","tol_toboard","","","","tol_peg_3","1040","1040","0","[[2,0,0],[3,0],[1]]","7","[[2,3,0],[1,0],[0]]","15","0","","","","","","7","","","","","","","","",""
"","","","","","single-stim-button","221","1103642","0.0-2.0-56.7-0.7","6294de1b341cd20e308d1a4a","F1","batch6","","640","tol_tohand","","","","tol_peg_2","640","640","0","[[2,0,0],[0,0],[1]]","8","[[2,3,0],[1,0],[0]]","15","0","","","","","","7","","","","","","","","",""
"","","","","","single-stim-button","222","1104484","0.0-2.0-56.7-1.7","6294de1b341cd20e308d1a4a","F1","batch6","","839","tol_toboard","","","","tol_peg_1","839","839","0","[[2,3,0],[0,0],[1]]","8","[[2,3,0],[1,0],[0]]","15","0","","","","","","7","","","","","","","","",""
"","","","","","single-stim-button","223","1105504","0.0-2.0-56.8-0.8","6294de1b341cd20e308d1a4a","F1","batch6","","1017","tol_tohand","","","","tol_peg_3","1017","1017","0","[[2,3,0],[0,0],[0]]","9","[[2,3,0],[1,0],[0]]","15","0","","","","","","7","","","","","","","","",""
"","","","","","single-stim-button","224","1106355","0.0-2.0-56.8-1.8","6294de1b341cd20e308d1a4a","F1","batch6","","848","tol_toboard","","","","tol_peg_2","848","848","0","[[2,3,0],[1,0],[0]]","9","[[2,3,0],[1,0],[0]]","15","0","","","","","","7","","","","","","","","",""
"","","","","","poldrack-single-stim","225","1107366","0.0-2.0-57.0","6294de1b341cd20e308d1a4a","F1","batch6","","-1","tol_feedback","","","true","","1000","1000","500","","","","","","-1","none","true","4084","20351","","","","","","","","","",""
"","","","","","html-button-response","226","1108508","0.0-2.0-58.0","6294de1b341cd20e308d1a4a","F1","batch6","","1138.4000000003725","tol_trial_num","<div class = centerbox><p class = center-block-text>problem <strong>17</strong> out of 25 problems</p></div>","0","","","","","","","","","","","","","","","","","","","","","","","","",""
"","","","","","single-stim-button","227","1110020","0.0-2.0-59.0-0.0","6294de1b341cd20e308d1a4a","F1","batch6","","1508","tol_tohand","","","","tol_peg_2","1508","1508","0","[[1,2,0],[0,0],[0]]","1","[[3,1,0],[2,0],[0]]","16","0","","","","","","5","","","","","","","","",""
"","","","","","single-stim-button","228","1111128","0.0-2.0-59.0-1.0","6294de1b341cd20e308d1a4a","F1","batch6","","1105","tol_toboard","","","","tol_peg_3","1105","1105","0","[[1,2,0],[0,0],[3]]","1","[[3,1,0],[2,0],[0]]","16","0","","","","","","5","","","","","","","","",""
"","","","","","single-stim-button","229","1112024","0.0-2.0-59.1-0.1","6294de1b341cd20e308d1a4a","F1","batch6","","893","tol_tohand","","","","tol_peg_1","893","893","0","[[1,0,0],[0,0],[3]]","2","[[3,1,0],[2,0],[0]]","16","0","","","","","","5","","","","","","","","",""
"","","","","","single-stim-button","230","1112976","0.0-2.0-59.1-1.1","6294de1b341cd20e308d1a4a","F1","batch6","","949","tol_toboard","","","","tol_peg_2","949","949","0","[[1,0,0],[2,0],[3]]","2","[[3,1,0],[2,0],[0]]","16","0","","","","","","5","","","","","","","","",""
"","","","","","single-stim-button","231","1113681","0.0-2.0-59.2-0.2","6294de1b341cd20e308d1a4a","F1","batch6","","701","tol_tohand","","","","tol_peg_1","701","701","0","[[0,0,0],[2,0],[3]]","3","[[3,1,0],[2,0],[0]]","16","0","","","","","","5","","","","","","","","",""
"","","","","","single-stim-button","232","1114728","0.0-2.0-59.2-1.2","6294de1b341cd20e308d1a4a","F1","batch6","","1044","tol_toboard","","","","tol_peg_2","1044","1044","0","[[0,0,0],[2,1],[3]]","3","[[3,1,0],[2,0],[0]]","16","0","","","","","","5","","","","","","","","",""
"","","","","","single-stim-button","233","1115534","0.0-2.0-59.3-0.3","6294de1b341cd20e308d1a4a","F1","batch6","","803","tol_tohand","","","","tol_peg_3","803","803","0","[[0,0,0],[2,1],[0]]","4","[[3,1,0],[2,0],[0]]","16","0","","","","","","5","","","","","","","","",""
"","","","","","single-stim-button","234","1116457","0.0-2.0-59.3-1.3","6294de1b341cd20e308d1a4a","F1","batch6","","920","tol_toboard","","","","tol_peg_1","920","920","0","[[3,0,0],[2,1],[0]]","4","[[3,1,0],[2,0],[0]]","16","0","","","","","","5","","","","","","","","",""
"","","","","","single-stim-button","235","1117167","0.0-2.0-59.4-0.4","6294de1b341cd20e308d1a4a","F1","batch6","","707","tol_tohand","","","","tol_peg_2","707","707","0","[[3,0,0],[2,0],[0]]","5","[[3,1,0],[2,0],[0]]","16","0","","","","","","5","","","","","","","","",""
"","","","","","single-stim-button","236","1118359","0.0-2.0-59.4-1.4","6294de1b341cd20e308d1a4a","F1","batch6","","1189","tol_toboard","","","","tol_peg_1","1189","1189","0","[[3,1,0],[2,0],[0]]","5","[[3,1,0],[2,0],[0]]","16","0","","","","","","5","","","","","","","","",""
"","","","","","poldrack-single-stim","237","1119366","0.0-2.0-60.0","6294de1b341cd20e308d1a4a","F1","batch6","","-1","tol_feedback","","","true","","1000","1000","500","","","","","","-1","none","true","1508","4612","","","","","","","","","",""
"","","","","","html-button-response","238","1120391","0.0-2.0-61.0","6294de1b341cd20e308d1a4a","F1","batch6","","1021.2999999988824","tol_trial_num","<div class = centerbox><p class = center-block-text>problem <strong>18</strong> out of 25 problems</p></div>","0","","","","","","","","","","","","","","","","","","","","","","","","",""
"","","","","","single-stim-button","239","1122438","0.0-2.0-62.0-0.0","6294de1b341cd20e308d1a4a","F1","batch6","","2043","tol_tohand","","","","tol_peg_1","2043","2043","0","[[1,0,0],[3,0],[0]]","1","[[3,0,0],[2,0],[1]]","17","0","","","","","","5","","","","","","","","",""
"","","","","","single-stim-button","240","1123504","0.0-2.0-62.0-1.0","6294de1b341cd20e308d1a4a","F1","batch6","","1063","tol_toboard","","","","tol_peg_2","1063","1063","0","[[1,0,0],[3,2],[0]]","1","[[3,0,0],[2,0],[1]]","17","0","","","","","","5","","","","","","","","",""
"","","","","","single-stim-button","241","1124348","0.0-2.0-62.1-0.1","6294de1b341cd20e308d1a4a","F1","batch6","","841","tol_tohand","","","","tol_peg_1","841","841","0","[[0,0,0],[3,2],[0]]","2","[[3,0,0],[2,0],[1]]","17","0","","","","","","5","","","","","","","","",""
"","","","","","single-stim-button","242","1125389","0.0-2.0-62.1-1.1","6294de1b341cd20e308d1a4a","F1","batch6","","1038","tol_toboard","","","","tol_peg_3","1038","1038","0","[[0,0,0],[3,2],[1]]","2","[[3,0,0],[2,0],[1]]","17","0","","","","","","5","","","","","","","","",""
"","","","","","single-stim-button","243","1128365","0.0-2.0-62.2-0.2","6294de1b341cd20e308d1a4a","F1","batch6","","2973","tol_tohand","","","","tol_peg_2","2973","2973","0","[[0,0,0],[3,0],[1]]","3","[[3,0,0],[2,0],[1]]","17","0","","","","","","5","","","","","","","","",""
"","","","","","single-stim-button","244","1129563","0.0-2.0-62.2-1.2","6294de1b341cd20e308d1a4a","F1","batch6","","1194","tol_toboard","","","","tol_peg_1","1194","1194","0","[[2,0,0],[3,0],[1]]","3","[[3,0,0],[2,0],[1]]","17","0","","","","","","5","","","","","","","","",""
"","","","","","single-stim-button","245","1139001","0.0-2.0-62.3-0.3","6294de1b341cd20e308d1a4a","F1","batch6","","9434","tol_tohand","","","","tol_peg_3","9434","9434","0","[[2,0,0],[3,0],[0]]","4","[[3,0,0],[2,0],[1]]","17","0","","","","","","5","","","","","","","","",""
"","","","","","single-stim-button","246","1140001","0.0-2.0-62.3-1.3","6294de1b341cd20e308d1a4a","F1","batch6","","997","tol_toboard","","","","tol_peg_1","997","997","0","[[2,1,0],[3,0],[0]]","4","[[3,0,0],[2,0],[1]]","17","0","","","","","","5","","","","","","","","",""
"","","","","","single-stim-button","247","1140823","0.0-2.0-62.4-0.4","6294de1b341cd20e308d1a4a","F1","batch6","","819","tol_tohand","","","","tol_peg_2","819","819","0","[[2,1,0],[0,0],[0]]","5","[[3,0,0],[2,0],[1]]","17","0","","","","","","5","","","","","","","","",""
"","","","","","single-stim-button","248","1141946","0.0-2.0-62.4-1.4","6294de1b341cd20e308d1a4a","F1","batch6","","1120","tol_toboard","","","","tol_peg_3","1120","1120","0","[[2,1,0],[0,0],[3]]","5","[[3,0,0],[2,0],[1]]","17","0","","","","","","5","","","","","","","","",""
"","","","","","single-stim-button","249","1142685","0.0-2.0-62.5-0.5","6294de1b341cd20e308d1a4a","F1","batch6","","734","tol_tohand","","","","tol_peg_1","734","734","0","[[2,0,0],[0,0],[3]]","6","[[3,0,0],[2,0],[1]]","17","0","","","","","","5","","","","","","","","",""
"","","","","","single-stim-button","250","1143817","0.0-2.0-62.5-1.5","6294de1b341cd20e308d1a4a","F1","batch6","","1130","tol_toboard","","","","tol_peg_2","1130","1130","0","[[2,0,0],[1,0],[3]]","6","[[3,0,0],[2,0],[1]]","17","0","","","","","","5","","","","","","","","",""
"","","","","","single-stim-button","251","1144683","0.0-2.0-62.6-0.6","6294de1b341cd20e308d1a4a","F1","batch6","","862","tol_tohand","","","","tol_peg_1","862","862","0","[[0,0,0],[1,0],[3]]","7","[[3,0,0],[2,0],[1]]","17","0","","","","","","5","","","","","","","","",""
"","","","","","single-stim-button","252","1145741","0.0-2.0-62.6-1.6","6294de1b341cd20e308d1a4a","F1","batch6","","1055","tol_toboard","","","","tol_peg_2","1055","1055","0","[[0,0,0],[1,2],[3]]","7","[[3,0,0],[2,0],[1]]","17","0","","","","","","5","","","","","","","","",""
"","","","","","single-stim-button","253","1146494","0.0-2.0-62.7-0.7","6294de1b341cd20e308d1a4a","F1","batch6","","749","tol_tohand","","","","tol_peg_3","749","749","0","[[0,0,0],[1,2],[0]]","8","[[3,0,0],[2,0],[1]]","17","0","","","","","","5","","","","","","","","",""
"","","","","","single-stim-button","254","1148092","0.0-2.0-62.7-1.7","6294de1b341cd20e308d1a4a","F1","batch6","","1595","tol_toboard","","","","tol_peg_1","1595","1595","0","[[3,0,0],[1,2],[0]]","8","[[3,0,0],[2,0],[1]]","17","0","","","","","","5","","","","","","","","",""
"","","","","","single-stim-button","255","1149162","0.0-2.0-62.8-0.8","6294de1b341cd20e308d1a4a","F1","batch6","","1065","tol_tohand","","","","tol_peg_2","1065","1065","0","[[3,0,0],[1,0],[0]]","9","[[3,0,0],[2,0],[1]]","17","0","","","","","","5","","","","","","","","",""
"","","","","","single-stim-button","256","1149999","0.0-2.0-62.8-1.8","6294de1b341cd20e308d1a4a","F1","batch6","","833","tol_toboard","","","","tol_peg_1","833","833","0","[[3,2,0],[1,0],[0]]","9","[[3,0,0],[2,0],[1]]","17","0","","","","","","5","","","","","","","","",""
"","","","","","single-stim-button","257","1150849","0.0-2.0-62.9-0.9","6294de1b341cd20e308d1a4a","F1","batch6","","845","tol_tohand","","","","tol_peg_2","845","845","0","[[3,2,0],[0,0],[0]]","10","[[3,0,0],[2,0],[1]]","17","0","","","","","","5","","","","","","","","",""
"","","","","","single-stim-button","258","1151848","0.0-2.0-62.9-1.9","6294de1b341cd20e308d1a4a","F1","batch6","","996","tol_toboard","","","","tol_peg_3","996","996","0","[[3,2,0],[0,0],[1]]","10","[[3,0,0],[2,0],[1]]","17","0","","","","","","5","","","","","","","","",""
"","","","","","single-stim-button","259","1152616","0.0-2.0-62.10-0.10","6294de1b341cd20e308d1a4a","F1","batch6","","765","tol_tohand","","","","tol_peg_1","765","765","0","[[3,0,0],[0,0],[1]]","11","[[3,0,0],[2,0],[1]]","17","0","","","","","","5","","","","","","","","",""
"","","","","","single-stim-button","260","1153406","0.0-2.0-62.10-1.10","6294de1b341cd20e308d1a4a","F1","batch6","","787","tol_toboard","","","","tol_peg_2","787","787","0","[[3,0,0],[2,0],[1]]","11","[[3,0,0],[2,0],[1]]","17","0","","","","","","5","","","","","","","","",""
"","","","","","poldrack-single-stim","261","1154414","0.0-2.0-63.0","6294de1b341cd20e308d1a4a","F1","batch6","","-1","tol_feedback","","","true","","1000","1000","500","","","","","","-1","none","true","2043","21130","","","","","","","","","",""
"","","","","","html-button-response","262","1155345","0.0-2.0-64.0","6294de1b341cd20e308d1a4a","F1","batch6","","927.5999999996275","tol_trial_num","<div class = centerbox><p class = center-block-text>problem <strong>19</strong> out of 25 problems</p></div>","0","","","","","","","","","","","","","","","","","","","","","","","","",""
"","","","","","single-stim-button","263","1157117","0.0-2.0-65.0-0.0","6294de1b341cd20e308d1a4a","F1","batch6","","1768","tol_tohand","","","","tol_peg_2","1768","1768","0","[[1,2,0],[0,0],[0]]","1","[[0,0,0],[1,2],[3]]","18","0","","","","","","7","","","","","","","","",""
"","","","","","single-stim-button","264","1160589","0.0-2.0-65.0-1.0","6294de1b341cd20e308d1a4a","F1","batch6","","3470","tol_toboard","","","","tol_peg_2","3470","3470","0","[[1,2,0],[3,0],[0]]","1","[[0,0,0],[1,2],[3]]","18","0","","","","","","7","","","","","","","","",""
"","","","","","single-stim-button","265","1161322","0.0-2.0-65.1-0.1","6294de1b341cd20e308d1a4a","F1","batch6","","730","tol_tohand","","","","tol_peg_1","730","730","0","[[1,0,0],[3,0],[0]]","2","[[0,0,0],[1,2],[3]]","18","0","","","","","","7","","","","","","","","",""
"","","","","","single-stim-button","266","1164412","0.0-2.0-65.1-1.1","6294de1b341cd20e308d1a4a","F1","batch6","","3086","tol_toboard","","","","tol_peg_3","3086","3086","0","[[1,0,0],[3,0],[2]]","2","[[0,0,0],[1,2],[3]]","18","0","","","","","","7","","","","","","","","",""
"","","","","","single-stim-button","267","1168258","0.0-2.0-65.2-0.2","6294de1b341cd20e308d1a4a","F1","batch6","","3843","tol_tohand","","","","tol_peg_1","3843","3843","0","[[0,0,0],[3,0],[2]]","3","[[0,0,0],[1,2],[3]]","18","0","","","","","","7","","","","","","","","",""
"","","","","","single-stim-button","268","1168477","0.0-2.0-65.2-1.2","6294de1b341cd20e308d1a4a","F1","batch6","","216","tol_toboard","","","","tol_peg_1","216","216","0","[[1,0,0],[3,0],[2]]","3","[[0,0,0],[1,2],[3]]","18","0","","","","","","7","","","","","","","","",""
"","","","","","single-stim-button","269","1169342","0.0-2.0-65.3-0.3","6294de1b341cd20e308d1a4a","F1","batch6","","862","tol_tohand","","","","tol_peg_1","862","862","0","[[0,0,0],[3,0],[2]]","4","[[0,0,0],[1,2],[3]]","18","0","","","","","","7","","","","","","","","",""
"","","","","","single-stim-button","270","1172826","0.0-2.0-65.3-1.3","6294de1b341cd20e308d1a4a","F1","batch6","","3480","tol_toboard","","","","tol_peg_2","3480","3480","0","[[0,0,0],[3,1],[2]]","4","[[0,0,0],[1,2],[3]]","18","0","","","","","","7","","","","","","","","",""
"","","","","","single-stim-button","271","1175321","0.0-2.0-65.4-0.4","6294de1b341cd20e308d1a4a","F1","batch6","","2492","tol_tohand","","","","tol_peg_3","2492","2492","0","[[0,0,0],[3,1],[0]]","5","[[0,0,0],[1,2],[3]]","18","0","","","","","","7","","","","","","","","",""
"","","","","","single-stim-button","272","1176690","0.0-2.0-65.4-1.4","6294de1b341cd20e308d1a4a","F1","batch6","","1365","tol_toboard","","","","tol_peg_1","1365","1365","0","[[2,0,0],[3,1],[0]]","5","[[0,0,0],[1,2],[3]]","18","0","","","","","","7","","","","","","","","",""
"","","","","","single-stim-button","273","1177843","0.0-2.0-65.5-0.5","6294de1b341cd20e308d1a4a","F1","batch6","","1151","tol_tohand","","","","tol_peg_2","1151","1151","0","[[2,0,0],[3,0],[0]]","6","[[0,0,0],[1,2],[3]]","18","0","","","","","","7","","","","","","","","",""
"","","","","","single-stim-button","274","1178865","0.0-2.0-65.5-1.5","6294de1b341cd20e308d1a4a","F1","batch6","","1019","tol_toboard","","","","tol_peg_1","1019","1019","0","[[2,1,0],[3,0],[0]]","6","[[0,0,0],[1,2],[3]]","18","0","","","","","","7","","","","","","","","",""
"","","","","","single-stim-button","275","1179589","0.0-2.0-65.6-0.6","6294de1b341cd20e308d1a4a","F1","batch6","","720","tol_tohand","","","","tol_peg_2","720","720","0","[[2,1,0],[0,0],[0]]","7","[[0,0,0],[1,2],[3]]","18","0","","","","","","7","","","","","","","","",""
"","","","","","single-stim-button","276","1180335","0.0-2.0-65.6-1.6","6294de1b341cd20e308d1a4a","F1","batch6","","742","tol_toboard","","","","tol_peg_3","742","742","0","[[2,1,0],[0,0],[3]]","7","[[0,0,0],[1,2],[3]]","18","0","","","","","","7","","","","","","","","",""
"","","","","","single-stim-button","277","1181268","0.0-2.0-65.7-0.7","6294de1b341cd20e308d1a4a","F1","batch6","","930","tol_tohand","","","","tol_peg_1","930","930","0","[[2,0,0],[0,0],[3]]","8","[[0,0,0],[1,2],[3]]","18","0","","","","","","7","","","","","","","","",""
"","","","","","single-stim-button","278","1182051","0.0-2.0-65.7-1.7","6294de1b341cd20e308d1a4a","F1","batch6","","780","tol_toboard","","","","tol_peg_2","780","780","0","[[2,0,0],[1,0],[3]]","8","[[0,0,0],[1,2],[3]]","18","0","","","","","","7","","","","","","","","",""
"","","","","","single-stim-button","279","1182790","0.0-2.0-65.8-0.8","6294de1b341cd20e308d1a4a","F1","batch6","","735","tol_tohand","","","","tol_peg_1","735","735","0","[[0,0,0],[1,0],[3]]","9","[[0,0,0],[1,2],[3]]","18","0","","","","","","7","","","","","","","","",""
"","","","","","single-stim-button","280","1184101","0.0-2.0-65.8-1.8","6294de1b341cd20e308d1a4a","F1","batch6","","1308","tol_toboard","","","","tol_peg_2","1308","1308","0","[[0,0,0],[1,2],[3]]","9","[[0,0,0],[1,2],[3]]","18","0","","","","","","7","","","","","","","","",""
"","","","","","poldrack-single-stim","281","1185110","0.0-2.0-66.0","6294de1b341cd20e308d1a4a","F1","batch6","","-1","tol_feedback","","","true","","1000","1000","500","","","","","","-1","none","true","1768","13231","","","","","","","","","",""
"","","","","","html-button-response","282","1186038","0.0-2.0-67.0","6294de1b341cd20e308d1a4a","F1","batch6","","924.1000000014901","tol_trial_num","<div class = centerbox><p class = center-block-text>problem <strong>20</strong> out of 25 problems</p></div>","0","","","","","","","","","","","","","","","","","","","","","","","","",""
"","","","","","single-stim-button","283","1187444","0.0-2.0-68.0-0.0","6294de1b341cd20e308d1a4a","F1","batch6","","1402","tol_tohand","","","","tol_peg_2","1402","1402","0","[[1,2,0],[0,0],[0]]","1","[[2,1,0],[0,0],[3]]","19","0","","","","","","5","","","","","","","","",""
"","","","","","single-stim-button","284","1188318","0.0-2.0-68.0-1.0","6294de1b341cd20e308d1a4a","F1","batch6","","870","tol_toboard","","","","tol_peg_3","870","870","0","[[1,2,0],[0,0],[3]]","1","[[2,1,0],[0,0],[3]]","19","0","","","","","","5","","","","","","","","",""
"","","","","","single-stim-button","285","1192400","0.0-2.0-68.1-0.1","6294de1b341cd20e308d1a4a","F1","batch6","","4079","tol_tohand","","","","tol_peg_3","4079","4079","0","[[1,2,0],[0,0],[0]]","2","[[2,1,0],[0,0],[3]]","19","0","","","","","","5","","","","","","","","",""
"","","","","","single-stim-button","286","1193242","0.0-2.0-68.1-1.1","6294de1b341cd20e308d1a4a","F1","batch6","","839","tol_toboard","","","","tol_peg_2","839","839","0","[[1,2,0],[3,0],[0]]","2","[[2,1,0],[0,0],[3]]","19","0","","","","","","5","","","","","","","","",""
"","","","","","single-stim-button","287","1194550","0.0-2.0-68.2-0.2","6294de1b341cd20e308d1a4a","F1","batch6","","1305","tol_tohand","","","","tol_peg_1","1305","1305","0","[[1,0,0],[3,0],[0]]","3","[[2,1,0],[0,0],[3]]","19","0","","","","","","5","","","","","","","","",""
"","","","","","single-stim-button","288","1195793","0.0-2.0-68.2-1.2","6294de1b341cd20e308d1a4a","F1","batch6","","1240","tol_toboard","","","","tol_peg_3","1240","1240","0","[[1,0,0],[3,0],[2]]","3","[[2,1,0],[0,0],[3]]","19","0","","","","","","5","","","","","","","","",""
"","","","","","single-stim-button","289","1196502","0.0-2.0-68.3-0.3","6294de1b341cd20e308d1a4a","F1","batch6","","706","tol_tohand","","","","tol_peg_1","706","706","0","[[0,0,0],[3,0],[2]]","4","[[2,1,0],[0,0],[3]]","19","0","","","","","","5","","","","","","","","",""
"","","","","","single-stim-button","290","1197434","0.0-2.0-68.3-1.3","6294de1b341cd20e308d1a4a","F1","batch6","","929","tol_toboard","","","","tol_peg_2","929","929","0","[[0,0,0],[3,1],[2]]","4","[[2,1,0],[0,0],[3]]","19","0","","","","","","5","","","","","","","","",""
"","","","","","single-stim-button","291","1198187","0.0-2.0-68.4-0.4","6294de1b341cd20e308d1a4a","F1","batch6","","750","tol_tohand","","","","tol_peg_3","750","750","0","[[0,0,0],[3,1],[0]]","5","[[2,1,0],[0,0],[3]]","19","0","","","","","","5","","","","","","","","",""
"","","","","","single-stim-button","292","1198993","0.0-2.0-68.4-1.4","6294de1b341cd20e308d1a4a","F1","batch6","","803","tol_toboard","","","","tol_peg_1","803","803","0","[[2,0,0],[3,1],[0]]","5","[[2,1,0],[0,0],[3]]","19","0","","","","","","5","","","","","","","","",""
"","","","","","single-stim-button","293","1199755","0.0-2.0-68.5-0.5","6294de1b341cd20e308d1a4a","F1","batch6","","760","tol_tohand","","","","tol_peg_2","760","760","0","[[2,0,0],[3,0],[0]]","6","[[2,1,0],[0,0],[3]]","19","0","","","","","","5","","","","","","","","",""
"","","","","","single-stim-button","294","1200716","0.0-2.0-68.5-1.5","6294de1b341cd20e308d1a4a","F1","batch6","","957","tol_toboard","","","","tol_peg_1","957","957","0","[[2,1,0],[3,0],[0]]","6","[[2,1,0],[0,0],[3]]","19","0","","","","","","5","","","","","","","","",""
"","","","","","single-stim-button","295","1201571","0.0-2.0-68.6-0.6","6294de1b341cd20e308d1a4a","F1","batch6","","852","tol_tohand","","","","tol_peg_2","852","852","0","[[2,1,0],[0,0],[0]]","7","[[2,1,0],[0,0],[3]]","19","0","","","","","","5","","","","","","","","",""
"","","","","","single-stim-button","296","1202601","0.0-2.0-68.6-1.6","6294de1b341cd20e308d1a4a","F1","batch6","","1027","tol_toboard","","","","tol_peg_3","1027","1027","0","[[2,1,0],[0,0],[3]]","7","[[2,1,0],[0,0],[3]]","19","0","","","","","","5","","","","","","","","",""
"","","","","","poldrack-single-stim","297","1203606","0.0-2.0-69.0","6294de1b341cd20e308d1a4a","F1","batch6","","-1","tol_feedback","","","true","","1000","1000","500","","","","","","-1","none","true","1402","9854","","","","","","","","","",""
"","","","","","html-button-response","298","1204358","0.0-2.0-70.0","6294de1b341cd20e308d1a4a","F1","batch6","","749","tol_trial_num","<div class = centerbox><p class = center-block-text>problem <strong>21</strong> out of 25 problems</p></div>","0","","","","","","","","","","","","","","","","","","","","","","","","",""
"","","","","","single-stim-button","299","1207008","0.0-2.0-71.0-0.0","6294de1b341cd20e308d1a4a","F1","batch6","","2646","tol_tohand","","","","tol_peg_1","2646","2646","0","[[1,0,0],[3,0],[0]]","1","[[3,2,0],[0,0],[1]]","20","0","","","","","","6","","","","","","","","",""
"","","","","","single-stim-button","300","1207917","0.0-2.0-71.0-1.0","6294de1b341cd20e308d1a4a","F1","batch6","","906","tol_toboard","","","","tol_peg_2","906","906","0","[[1,0,0],[3,2],[0]]","1","[[3,2,0],[0,0],[1]]","20","0","","","","","","6","","","","","","","","",""
"","","","","","single-stim-button","301","1224903","0.0-2.0-71.1-0.1","6294de1b341cd20e308d1a4a","F1","batch6","","16982","tol_tohand","","","","tol_peg_2","16982","16982","0","[[1,0,0],[3,0],[0]]","2","[[3,2,0],[0,0],[1]]","20","0","","","","","","6","","","","","","","","",""
"","","","","","single-stim-button","302","1225874","0.0-2.0-71.1-1.1","6294de1b341cd20e308d1a4a","F1","batch6","","968","tol_toboard","","","","tol_peg_1","968","968","0","[[1,2,0],[3,0],[0]]","2","[[3,2,0],[0,0],[1]]","20","0","","","","","","6","","","","","","","","",""
"","","","","","single-stim-button","303","1227036","0.0-2.0-71.2-0.2","6294de1b341cd20e308d1a4a","F1","batch6","","1158","tol_tohand","","","","tol_peg_2","1158","1158","0","[[1,2,0],[0,0],[0]]","3","[[3,2,0],[0,0],[1]]","20","0","","","","","","6","","","","","","","","",""
"","","","","","single-stim-button","304","1228070","0.0-2.0-71.2-1.2","6294de1b341cd20e308d1a4a","F1","batch6","","1030","tol_toboard","","","","tol_peg_3","1030","1030","0","[[1,2,0],[0,0],[3]]","3","[[3,2,0],[0,0],[1]]","20","0","","","","","","6","","","","","","","","",""
"","","","","","single-stim-button","305","1228817","0.0-2.0-71.3-0.3","6294de1b341cd20e308d1a4a","F1","batch6","","744","tol_tohand","","","","tol_peg_1","744","744","0","[[1,0,0],[0,0],[3]]","4","[[3,2,0],[0,0],[1]]","20","0","","","","","","6","","","","","","","","",""
"","","","","","single-stim-button","306","1229618","0.0-2.0-71.3-1.3","6294de1b341cd20e308d1a4a","F1","batch6","","798","tol_toboard","","","","tol_peg_2","798","798","0","[[1,0,0],[2,0],[3]]","4","[[3,2,0],[0,0],[1]]","20","0","","","","","","6","","","","","","","","",""
"","","","","","single-stim-button","307","1230268","0.0-2.0-71.4-0.4","6294de1b341cd20e308d1a4a","F1","batch6","","647","tol_tohand","","","","tol_peg_1","647","647","0","[[0,0,0],[2,0],[3]]","5","[[3,2,0],[0,0],[1]]","20","0","","","","","","6","","","","","","","","",""
"","","","","","single-stim-button","308","1231274","0.0-2.0-71.4-1.4","6294de1b341cd20e308d1a4a","F1","batch6","","1003","tol_toboard","","","","tol_peg_2","1003","1003","0","[[0,0,0],[2,1],[3]]","5","[[3,2,0],[0,0],[1]]","20","0","","","","","","6","","","","","","","","",""
"","","","","","single-stim-button","309","1232058","0.0-2.0-71.5-0.5","6294de1b341cd20e308d1a4a","F1","batch6","","780","tol_tohand","","","","tol_peg_3","780","780","0","[[0,0,0],[2,1],[0]]","6","[[3,2,0],[0,0],[1]]","20","0","","","","","","6","","","","","","","","",""
"","","","","","single-stim-button","310","1232930","0.0-2.0-71.5-1.5","6294de1b341cd20e308d1a4a","F1","batch6","","869","tol_toboard","","","","tol_peg_1","869","869","0","[[3,0,0],[2,1],[0]]","6","[[3,2,0],[0,0],[1]]","20","0","","","","","","6","","","","","","","","",""
"","","","","","single-stim-button","311","1233592","0.0-2.0-71.6-0.6","6294de1b341cd20e308d1a4a","F1","batch6","","659","tol_tohand","","","","tol_peg_2","659","659","0","[[3,0,0],[2,0],[0]]","7","[[3,2,0],[0,0],[1]]","20","0","","","","","","6","","","","","","","","",""
"","","","","","single-stim-button","312","1234498","0.0-2.0-71.6-1.6","6294de1b341cd20e308d1a4a","F1","batch6","","903","tol_toboard","","","","tol_peg_3","903","903","0","[[3,0,0],[2,0],[1]]","7","[[3,2,0],[0,0],[1]]","20","0","","","","","","6","","","","","","","","",""
"","","","","","single-stim-button","313","1235258","0.0-2.0-71.7-0.7","6294de1b341cd20e308d1a4a","F1","batch6","","757","tol_tohand","","","","tol_peg_2","757","757","0","[[3,0,0],[0,0],[1]]","8","[[3,2,0],[0,0],[1]]","20","0","","","","","","6","","","","","","","","",""
"","","","","","single-stim-button","314","1236146","0.0-2.0-71.7-1.7","6294de1b341cd20e308d1a4a","F1","batch6","","885","tol_toboard","","","","tol_peg_1","885","885","0","[[3,2,0],[0,0],[1]]","8","[[3,2,0],[0,0],[1]]","20","0","","","","","","6","","","","","","","","",""
"","","","","","poldrack-single-stim","315","1237158","0.0-2.0-72.0","6294de1b341cd20e308d1a4a","F1","batch6","","-1","tol_feedback","","","true","","1000","1000","500","","","","","","-1","none","true","2646","24373","","","","","","","","","",""
"","","","","","html-button-response","316","1238079","0.0-2.0-73.0","6294de1b341cd20e308d1a4a","F1","batch6","","917.3000000007451","tol_trial_num","<div class = centerbox><p class = center-block-text>problem <strong>22</strong> out of 25 problems</p></div>","0","","","","","","","","","","","","","","","","","","","","","","","","",""
"","","","","","single-stim-button","317","1243724","0.0-2.0-74.0-0.0","6294de1b341cd20e308d1a4a","F1","batch6","","5640","tol_tohand","","","","tol_peg_1","5640","5640","0","[[0,0,0],[2,3],[0]]","1","[[0,0,0],[1,2],[3]]","21","0","","","","","","6","","","","","","","","",""
"","","","","","single-stim-button","318","1244538","0.0-2.0-74.0-1.0","6294de1b341cd20e308d1a4a","F1","batch6","","812","tol_toboard","","","","tol_peg_3","812","812","0","[[0,0,0],[2,3],[1]]","1","[[0,0,0],[1,2],[3]]","21","0","","","","","","6","","","","","","","","",""
"","","","","","single-stim-button","319","1245353","0.0-2.0-74.1-0.1","6294de1b341cd20e308d1a4a","F1","batch6","","811","tol_tohand","","","","tol_peg_2","811","811","0","[[0,0,0],[2,0],[1]]","2","[[0,0,0],[1,2],[3]]","21","0","","","","","","6","","","","","","","","",""
"","","","","","single-stim-button","320","1246232","0.0-2.0-74.1-1.1","6294de1b341cd20e308d1a4a","F1","batch6","","877","tol_toboard","","","","tol_peg_1","877","877","0","[[3,0,0],[2,0],[1]]","2","[[0,0,0],[1,2],[3]]","21","0","","","","","","6","","","","","","","","",""
"","","","","","single-stim-button","321","1247162","0.0-2.0-74.2-0.2","6294de1b341cd20e308d1a4a","F1","batch6","","926","tol_tohand","","","","tol_peg_2","926","926","0","[[3,0,0],[0,0],[1]]","3","[[0,0,0],[1,2],[3]]","21","0","","","","","","6","","","","","","","","",""
"","","","","","single-stim-button","322","1247921","0.0-2.0-74.2-1.2","6294de1b341cd20e308d1a4a","F1","batch6","","756","tol_toboard","","","","tol_peg_1","756","756","0","[[3,2,0],[0,0],[1]]","3","[[0,0,0],[1,2],[3]]","21","0","","","","","","6","","","","","","","","",""
"","","","","","single-stim-button","323","1248931","0.0-2.0-74.3-0.3","6294de1b341cd20e308d1a4a","F1","batch6","","1006","tol_tohand","","","","tol_peg_3","1006","1006","0","[[3,2,0],[0,0],[0]]","4","[[0,0,0],[1,2],[3]]","21","0","","","","","","6","","","","","","","","",""
"","","","","","single-stim-button","324","1250326","0.0-2.0-74.3-1.3","6294de1b341cd20e308d1a4a","F1","batch6","","1392","tol_toboard","","","","tol_peg_2","1392","1392","0","[[3,2,0],[1,0],[0]]","4","[[0,0,0],[1,2],[3]]","21","0","","","","","","6","","","","","","","","",""
"","","","","","single-stim-button","325","1251120","0.0-2.0-74.4-0.4","6294de1b341cd20e308d1a4a","F1","batch6","","789","tol_tohand","","","","tol_peg_1","789","789","0","[[3,0,0],[1,0],[0]]","5","[[0,0,0],[1,2],[3]]","21","0","","","","","","6","","","","","","","","",""
"","","","","","single-stim-button","326","1252094","0.0-2.0-74.4-1.4","6294de1b341cd20e308d1a4a","F1","batch6","","971","tol_toboard","","","","tol_peg_2","971","971","0","[[3,0,0],[1,2],[0]]","5","[[0,0,0],[1,2],[3]]","21","0","","","","","","6","","","","","","","","",""
"","","","","","single-stim-button","327","1253026","0.0-2.0-74.5-0.5","6294de1b341cd20e308d1a4a","F1","batch6","","928","tol_tohand","","","","tol_peg_1","928","928","0","[[0,0,0],[1,2],[0]]","6","[[0,0,0],[1,2],[3]]","21","0","","","","","","6","","","","","","","","",""
"","","","","","single-stim-button","328","1254194","0.0-2.0-74.5-1.5","6294de1b341cd20e308d1a4a","F1","batch6","","1165","tol_toboard","","","","tol_peg_3","1165","1165","0","[[0,0,0],[1,2],[3]]","6","[[0,0,0],[1,2],[3]]","21","0","","","","","","6","","","","","","","","",""
"","","","","","poldrack-single-stim","329","1255206","0.0-2.0-75.0","6294de1b341cd20e308d1a4a","F1","batch6","","-1","tol_feedback","","","true","","1000","1000","500","","","","","","-1","none","true","5640","10100","","","","","","","","","",""
"","","","","","html-button-response","330","1256072","0.0-2.0-76.0","6294de1b341cd20e308d1a4a","F1","batch6","","862.8000000007451","tol_trial_num","<div class = centerbox><p class = center-block-text>problem <strong>23</strong> out of 25 problems</p></div>","0","","","","","","","","","","","","","","","","","","","","","","","","",""
"","","","","","single-stim-button","331","1258466","0.0-2.0-77.0-0.0","6294de1b341cd20e308d1a4a","F1","batch6","","2389","tol_tohand","","","","tol_peg_1","2389","2389","0","[[1,0,0],[3,0],[0]]","1","[[1,3,2],[0,0],[0]]","22","0","","","","","","3","","","","","","","","",""
"","","","","","single-stim-button","332","1259676","0.0-2.0-77.0-1.0","6294de1b341cd20e308d1a4a","F1","batch6","","1207","tol_toboard","","","","tol_peg_3","1207","1207","0","[[1,0,0],[3,0],[2]]","1","[[1,3,2],[0,0],[0]]","22","0","","","","","","3","","","","","","","","",""
"","","","","","single-stim-button","333","1260364","0.0-2.0-77.1-0.1","6294de1b341cd20e308d1a4a","F1","batch6","","686","tol_tohand","","","","tol_peg_2","686","686","0","[[1,0,0],[0,0],[2]]","2","[[1,3,2],[0,0],[0]]","22","0","","","","","","3","","","","","","","","",""
"","","","","","single-stim-button","334","1261297","0.0-2.0-77.1-1.1","6294de1b341cd20e308d1a4a","F1","batch6","","930","tol_toboard","","","","tol_peg_1","930","930","0","[[1,3,0],[0,0],[2]]","2","[[1,3,2],[0,0],[0]]","22","0","","","","","","3","","","","","","","","",""
"","","","","","single-stim-button","335","1262154","0.0-2.0-77.2-0.2","6294de1b341cd20e308d1a4a","F1","batch6","","854","tol_tohand","","","","tol_peg_3","854","854","0","[[1,3,0],[0,0],[0]]","3","[[1,3,2],[0,0],[0]]","22","0","","","","","","3","","","","","","","","",""
"","","","","","single-stim-button","336","1263307","0.0-2.0-77.2-1.2","6294de1b341cd20e308d1a4a","F1","batch6","","1150","tol_toboard","","","","tol_peg_1","1150","1150","0","[[1,3,2],[0,0],[0]]","3","[[1,3,2],[0,0],[0]]","22","0","","","","","","3","","","","","","","","",""
"","","","","","poldrack-single-stim","337","1264319","0.0-2.0-78.0","6294de1b341cd20e308d1a4a","F1","batch6","","-1","tol_feedback","","","true","","1000","1000","500","","","","","","-1","none","true","2389","3929","","","","","","","","","",""
"","","","","","html-button-response","338","1265550","0.0-2.0-79.0","6294de1b341cd20e308d1a4a","F1","batch6","","1228","tol_trial_num","<div class = centerbox><p class = center-block-text>problem <strong>24</strong> out of 25 problems</p></div>","0","","","","","","","","","","","","","","","","","","","","","","","","",""
"","","","","","single-stim-button","339","1269406","0.0-2.0-80.0-0.0","6294de1b341cd20e308d1a4a","F1","batch6","","3853","tol_tohand","","","","tol_peg_3","3853","3853","0","[[0,0,0],[2,3],[0]]","1","[[2,0,0],[3,0],[1]]","23","0","","","","","","7","","","","","","","","",""
"","","","","","single-stim-button","340","1270317","0.0-2.0-80.0-1.0","6294de1b341cd20e308d1a4a","F1","batch6","","907","tol_toboard","","","","tol_peg_1","907","907","0","[[1,0,0],[2,3],[0]]","1","[[2,0,0],[3,0],[1]]","23","0","","","","","","7","","","","","","","","",""
"","","","","","single-stim-button","341","1271055","0.0-2.0-80.1-0.1","6294de1b341cd20e308d1a4a","F1","batch6","","734","tol_tohand","","","","tol_peg_2","734","734","0","[[1,0,0],[2,0],[0]]","2","[[2,0,0],[3,0],[1]]","23","0","","","","","","7","","","","","","","","",""
"","","","","","single-stim-button","342","1272196","0.0-2.0-80.1-1.1","6294de1b341cd20e308d1a4a","F1","batch6","","1137","tol_toboard","","","","tol_peg_3","1137","1137","0","[[1,0,0],[2,0],[3]]","2","[[2,0,0],[3,0],[1]]","23","0","","","","","","7","","","","","","","","",""
"","","","","","single-stim-button","343","1280531","0.0-2.0-80.2-0.2","6294de1b341cd20e308d1a4a","F1","batch6","","8332","tol_tohand","","","","tol_peg_2","8332","8332","0","[[1,0,0],[0,0],[3]]","3","[[2,0,0],[3,0],[1]]","23","0","","","","","","7","","","","","","","","",""
"","","","","","single-stim-button","344","1281264","0.0-2.0-80.2-1.2","6294de1b341cd20e308d1a4a","F1","batch6","","730","tol_toboard","","","","tol_peg_1","730","730","0","[[1,2,0],[0,0],[3]]","3","[[2,0,0],[3,0],[1]]","23","0","","","","","","7","","","","","","","","",""
"","","","","","single-stim-button","345","1282010","0.0-2.0-80.3-0.3","6294de1b341cd20e308d1a4a","F1","batch6","","743","tol_tohand","","","","tol_peg_3","743","743","0","[[1,2,0],[0,0],[0]]","4","[[2,0,0],[3,0],[1]]","23","0","","","","","","7","","","","","","","","",""
"","","","","","single-stim-button","346","1282963","0.0-2.0-80.3-1.3","6294de1b341cd20e308d1a4a","F1","batch6","","951","tol_toboard","","","","tol_peg_2","951","951","0","[[1,2,0],[3,0],[0]]","4","[[2,0,0],[3,0],[1]]","23","0","","","","","","7","","","","","","","","",""
"","","","","","single-stim-button","347","1283776","0.0-2.0-80.4-0.4","6294de1b341cd20e308d1a4a","F1","batch6","","809","tol_tohand","","","","tol_peg_1","809","809","0","[[1,0,0],[3,0],[0]]","5","[[2,0,0],[3,0],[1]]","23","0","","","","","","7","","","","","","","","",""
"","","","","","single-stim-button","348","1284724","0.0-2.0-80.4-1.4","6294de1b341cd20e308d1a4a","F1","batch6","","945","tol_toboard","","","","tol_peg_2","945","945","0","[[1,0,0],[3,2],[0]]","5","[[2,0,0],[3,0],[1]]","23","0","","","","","","7","","","","","","","","",""
"","","","","","single-stim-button","349","1286159","0.0-2.0-80.5-0.5","6294de1b341cd20e308d1a4a","F1","batch6","","1430","tol_tohand","","","","tol_peg_1","1430","1430","0","[[0,0,0],[3,2],[0]]","6","[[2,0,0],[3,0],[1]]","23","0","","","","","","7","","","","","","","","",""
"","","","","","single-stim-button","350","1287135","0.0-2.0-80.5-1.5","6294de1b341cd20e308d1a4a","F1","batch6","","974","tol_toboard","","","","tol_peg_3","974","974","0","[[0,0,0],[3,2],[1]]","6","[[2,0,0],[3,0],[1]]","23","0","","","","","","7","","","","","","","","",""
"","","","","","single-stim-button","351","1287910","0.0-2.0-80.6-0.6","6294de1b341cd20e308d1a4a","F1","batch6","","772","tol_tohand","","","","tol_peg_2","772","772","0","[[0,0,0],[3,0],[1]]","7","[[2,0,0],[3,0],[1]]","23","0","","","","","","7","","","","","","","","",""
"","","","","","single-stim-button","352","1288762","0.0-2.0-80.6-1.6","6294de1b341cd20e308d1a4a","F1","batch6","","849","tol_toboard","","","","tol_peg_1","849","849","0","[[2,0,0],[3,0],[1]]","7","[[2,0,0],[3,0],[1]]","23","0","","","","","","7","","","","","","","","",""
"","","","","","poldrack-single-stim","353","1289774","0.0-2.0-81.0","6294de1b341cd20e308d1a4a","F1","batch6","","-1","tol_feedback","","","true","","1000","1000","500","","","","","","-1","none","true","3853","16673","","","","","","","","","",""
"","","","","","html-button-response","354","1290814","0.0-2.0-82.0","6294de1b341cd20e308d1a4a","F1","batch6","","1036.6000000014901","tol_trial_num","<div class = centerbox><p class = center-block-text>problem <strong>25</strong> out of 25 problems</p></div>","0","","","","","","","","","","","","","","","","","","","","","","","","",""
