"success","timeout","failed_images","failed_audio","failed_video","trial_type","trial_index","time_elapsed","internal_node_id","subject_id","study_id","session_id","view_history","rt","task","stimulus","response","correct","mouse_click","stim_duration","block_duration","timing_post_trial","current_position","tol_num_moves_made","tol_target","tol_problem_id","tol_rt","key_press","possible_responses","tol_correct","preplanning","tol_rt_per_trial","tol_min_moves","item","answer","spm_correct","spm_rt","fiar_detect_rt","fiar_detect_correct","total_correct_fiar_detect","post_trial_gap","choices"
"true","false","[]","[]","[]","preload","0","5159","0.0-0.0","629feb5b41542f049572e04c","D2","batch4","","","","","","","","","","","","","","","","","","","","","","","","","","","","","",""
"true","","","","","fullscreen","1","12325","0.0-1.0-0.0","629feb5b41542f049572e04c","D2","batch4","","","","","","","","","","","","","","","","","","","","","","","","","","","","","",""
"true","","","","","fullscreen","2","15695","0.0-2.0-0.0","629feb5b41542f049572e04c","D2","batch4","","","","","","","","","","","","","","","","","","","","","","","","","","","","","",""
"","","","","","instructions","3","97657","0.0-2.0-1.0-0.0-0.0","629feb5b41542f049572e04c","D2","batch4","[{""page_index"":0,""viewing_time"":12172.300000000745},{""page_index"":1,""viewing_time"":5165},{""page_index"":2,""viewing_time"":7395.89999999851},{""page_index"":3,""viewing_time"":11641.60000000149},{""page_index"":4,""viewing_time"":9619.39999999851},{""page_index"":5,""viewing_time"":32919.5},{""page_index"":6,""viewing_time"":3043.199999999255}]","81958.30000000075","tol-instructions","","","","","","","","","","","","","","","","","","","","","","","","","","",""
"","","","","","html-button-response","4","99519","0.0-2.0-1.0-1.0-0.0","629feb5b41542f049572e04c","D2","batch4","","1850.9000000022352","tol_enter_quiz","<p class=block-text> Let's answer a few questions <br>","0","","","","","","","","","","","","","","","","","","","","","","","","",""
"","","","","","html-button-response","5","105747","0.0-2.0-1.0-1.0-1.0","629feb5b41542f049572e04c","D2","batch4","","6218.5","tol_quiz","<p class = block-text>True or False: You can only move the ball on top of a peg. <br></p>","0","true","","","","","","","","","","","","","","","","","","","","","","","",""
"","","","","","html-button-response","6","107542","0.0-2.0-1.0-1.0-2.0","629feb5b41542f049572e04c","D2","batch4","","1788.199999999255","tol_quiz_feedback","<p class = block-text>Correct! You can only move the ball on top of a peg.</p>","0","","","","","","","","","","","","","","","","","","","","","","","","",""
"","","","","","html-button-response","7","110783","0.0-2.0-1.0-1.0-3.0","629feb5b41542f049572e04c","D2","batch4","","3232.599999997765","tol_quiz","<p class = block-text>True or False: You should try to match your board with the target board with fewest moves possible. <br></p>","0","true","","","","","","","","","","","","","","","","","","","","","","","",""
"","","","","","html-button-response","8","112078","0.0-2.0-1.0-1.0-4.0","629feb5b41542f049572e04c","D2","batch4","","1290.5999999977648","tol_quiz_feedback","<p class = block-text>Correct! </p>","0","","","","","","","","","","","","","","","","","","","","","","","","",""
"","","","","","html-button-response","9","113507","0.0-2.0-2.0","629feb5b41542f049572e04c","D2","batch4","","1420.800000000745","","<p class=block-text> Now that you've understood the game, let's practice a few easier examples before we start!<br> <br>","0","","","","","","","","","","","","","","","","","","","","","","","","",""
"","","","","","single-stim-button","10","116956","0.0-2.0-3.0-0.0","629feb5b41542f049572e04c","D2","batch4","","3439","tol_practice","","","","tol_peg_2","3439","3439","0","[[1,2,0],[0,0],[0]]","1","[[1,2,0],[0,0],[3]]","practice","3439","","","","","","","","","","","","","","",""
"","","","","","single-stim-button","11","121134","0.0-2.0-3.0-1.0","629feb5b41542f049572e04c","D2","batch4","","4171","tol_practice","","","","tol_peg_3","4171","4171","0","[[1,2,0],[0,0],[3]]","1","[[1,2,0],[0,0],[3]]","practice","4171","","","","","","","","","","","","","","",""
"","","","","","poldrack-single-stim","12","122140","0.0-2.0-4.0","629feb5b41542f049572e04c","D2","batch4","","-1","tol_feedback","","","true","","1000","1000","500","","","","","","-1","none","true","","0","","","","","","","","","",""
"","","","","","single-stim-button","13","127473","0.0-2.0-5.0-0.0","629feb5b41542f049572e04c","D2","batch4","","5323","tol_practice","","","","tol_peg_1","5323","5323","0","[[1,0,0],[3,0],[0]]","2","[[0,0,0],[3,1],[2]]","practice","5323","","","","","","","","","","","","","","",""
"","","","","","single-stim-button","14","128977","0.0-2.0-5.0-1.0","629feb5b41542f049572e04c","D2","batch4","","1499","tol_practice","","","","tol_peg_3","1499","1499","0","[[1,0,0],[3,0],[2]]","2","[[0,0,0],[3,1],[2]]","practice","1499","","","","","","","","","","","","","","",""
"","","","","","single-stim-button","15","130862","0.0-2.0-5.1-0.1","629feb5b41542f049572e04c","D2","batch4","","1880","tol_practice","","","","tol_peg_1","1880","1880","0","[[0,0,0],[3,0],[2]]","3","[[0,0,0],[3,1],[2]]","practice","1880","","","","","","","","","","","","","","",""
"","","","","","single-stim-button","16","132029","0.0-2.0-5.1-1.1","629feb5b41542f049572e04c","D2","batch4","","1162","tol_practice","","","","tol_peg_2","1162","1162","0","[[0,0,0],[3,1],[2]]","3","[[0,0,0],[3,1],[2]]","practice","1162","","","","","","","","","","","","","","",""
"","","","","","poldrack-single-stim","17","133035","0.0-2.0-6.0","629feb5b41542f049572e04c","D2","batch4","","-1","tol_feedback","","","true","","1000","1000","500","","","","","","-1","none","true","","0","","","","","","","","","",""
"","","","","","single-stim-button","18","168723","0.0-2.0-7.0-0.0","629feb5b41542f049572e04c","D2","batch4","","35684","tol_practice","","","","tol_peg_2","35684","35684","0","[[1,2,0],[0,0],[0]]","4","[[1,0,0],[2,0],[3]]","practice","35684","","","","","","","","","","","","","","",""
"","","","","","single-stim-button","19","170809","0.0-2.0-7.0-1.0","629feb5b41542f049572e04c","D2","batch4","","2080","tol_practice","","","","tol_peg_3","2080","2080","0","[[1,2,0],[0,0],[3]]","4","[[1,0,0],[2,0],[3]]","practice","2080","","","","","","","","","","","","","","",""
"","","","","","single-stim-button","20","172812","0.0-2.0-7.1-0.1","629feb5b41542f049572e04c","D2","batch4","","1995","tol_practice","","","","tol_peg_1","1995","1995","0","[[1,0,0],[0,0],[3]]","5","[[1,0,0],[2,0],[3]]","practice","1995","","","","","","","","","","","","","","",""
"","","","","","single-stim-button","21","174037","0.0-2.0-7.1-1.1","629feb5b41542f049572e04c","D2","batch4","","1222","tol_practice","","","","tol_peg_2","1222","1222","0","[[1,0,0],[2,0],[3]]","5","[[1,0,0],[2,0],[3]]","practice","1222","","","","","","","","","","","","","","",""
"","","","","","poldrack-single-stim","22","175043","0.0-2.0-8.0","629feb5b41542f049572e04c","D2","batch4","","-1","tol_feedback","","","true","","1000","1000","500","","","","","","-1","none","true","","0","","","","","","","","","",""
"","","","","","html-button-response","23","176607","0.0-2.0-9.0","629feb5b41542f049572e04c","D2","batch4","","1560.199999999255","tol_instruction","<div class = centerbox><p class = center-block-text>Great job! You are done with practice trials<br>You are about to start official trials.<br> <br> Problem <strong>1</strong> out of 25 problems</p></div>","0","","","","","","","","","","","","","","","","","","","","","","","","",""
"","","","","","single-stim-button","24","181003","0.0-2.0-10.0-0.0","629feb5b41542f049572e04c","D2","batch4","","3389","tol_tohand","","","","tol_peg_2","3389","3389","0","[[1,2,0],[0,0],[0]]","1","[[1,3,0],[2,0],[0]]","0","0","","","","","","3","","","","","","","","",""
"","","","","","single-stim-button","25","182263","0.0-2.0-10.0-1.0","629feb5b41542f049572e04c","D2","batch4","","1250","tol_toboard","","","","tol_peg_3","1250","1250","0","[[1,2,0],[0,0],[3]]","1","[[1,3,0],[2,0],[0]]","0","0","","","","","","3","","","","","","","","",""
"","","","","","single-stim-button","26","185717","0.0-2.0-10.1-0.1","629feb5b41542f049572e04c","D2","batch4","","3448","tol_tohand","","","","tol_peg_1","3448","3448","0","[[1,0,0],[0,0],[3]]","2","[[1,3,0],[2,0],[0]]","0","0","","","","","","3","","","","","","","","",""
"","","","","","single-stim-button","27","188079","0.0-2.0-10.1-1.1","629feb5b41542f049572e04c","D2","batch4","","2353","tol_toboard","","","","tol_peg_2","2353","2353","0","[[1,0,0],[2,0],[3]]","2","[[1,3,0],[2,0],[0]]","0","0","","","","","","3","","","","","","","","",""
"","","","","","single-stim-button","28","189006","0.0-2.0-10.2-0.2","629feb5b41542f049572e04c","D2","batch4","","921","tol_tohand","","","","tol_peg_3","921","921","0","[[1,0,0],[2,0],[0]]","3","[[1,3,0],[2,0],[0]]","0","0","","","","","","3","","","","","","","","",""
"","","","","","single-stim-button","29","190274","0.0-2.0-10.2-1.2","629feb5b41542f049572e04c","D2","batch4","","1258","tol_toboard","","","","tol_peg_1","1258","1258","0","[[1,3,0],[2,0],[0]]","3","[[1,3,0],[2,0],[0]]","0","0","","","","","","3","","","","","","","","",""
"","","","","","poldrack-single-stim","30","191281","0.0-2.0-11.0","629feb5b41542f049572e04c","D2","batch4","","-1","tol_feedback","","","true","","1000","1000","500","","","","","","-1","none","true","3389","7758","","","","","","","","","",""
"","","","","","html-button-response","31","197505","0.0-2.0-12.0","629feb5b41542f049572e04c","D2","batch4","","6214.699999999255","tol_trial_num","<div class = centerbox><p class = center-block-text>problem <strong>2</strong> out of 25 problems</p></div>","0","","","","","","","","","","","","","","","","","","","","","","","","",""
"","","","","","single-stim-button","32","207707","0.0-2.0-13.0-0.0","629feb5b41542f049572e04c","D2","batch4","","10188","tol_tohand","","","","tol_peg_1","10188","10188","0","[[1,0,0],[3,0],[0]]","1","[[2,1,3],[0,0],[0]]","1","0","","","","","","5","","","","","","","","",""
"","","","","","single-stim-button","33","212947","0.0-2.0-13.0-1.0","629feb5b41542f049572e04c","D2","batch4","","5235","tol_toboard","","","","tol_peg_2","5235","5235","0","[[1,0,0],[3,2],[0]]","1","[[2,1,3],[0,0],[0]]","1","0","","","","","","5","","","","","","","","",""
"","","","","","single-stim-button","34","214441","0.0-2.0-13.1-0.1","629feb5b41542f049572e04c","D2","batch4","","1490","tol_tohand","","","","tol_peg_1","1490","1490","0","[[0,0,0],[3,2],[0]]","2","[[2,1,3],[0,0],[0]]","1","0","","","","","","5","","","","","","","","",""
"","","","","","single-stim-button","35","216665","0.0-2.0-13.1-1.1","629feb5b41542f049572e04c","D2","batch4","","2214","tol_toboard","","","","tol_peg_3","2214","2214","0","[[0,0,0],[3,2],[1]]","2","[[2,1,3],[0,0],[0]]","1","0","","","","","","5","","","","","","","","",""
"","","","","","single-stim-button","36","217740","0.0-2.0-13.2-0.2","629feb5b41542f049572e04c","D2","batch4","","1070","tol_tohand","","","","tol_peg_2","1070","1070","0","[[0,0,0],[3,0],[1]]","3","[[2,1,3],[0,0],[0]]","1","0","","","","","","5","","","","","","","","",""
"","","","","","single-stim-button","37","218665","0.0-2.0-13.2-1.2","629feb5b41542f049572e04c","D2","batch4","","916","tol_toboard","","","","tol_peg_1","916","916","0","[[2,0,0],[3,0],[1]]","3","[[2,1,3],[0,0],[0]]","1","0","","","","","","5","","","","","","","","",""
"","","","","","single-stim-button","38","219966","0.0-2.0-13.3-0.3","629feb5b41542f049572e04c","D2","batch4","","1298","tol_tohand","","","","tol_peg_3","1298","1298","0","[[2,0,0],[3,0],[0]]","4","[[2,1,3],[0,0],[0]]","1","0","","","","","","5","","","","","","","","",""
"","","","","","single-stim-button","39","221601","0.0-2.0-13.3-1.3","629feb5b41542f049572e04c","D2","batch4","","1630","tol_toboard","","","","tol_peg_1","1630","1630","0","[[2,1,0],[3,0],[0]]","4","[[2,1,3],[0,0],[0]]","1","0","","","","","","5","","","","","","","","",""
"","","","","","single-stim-button","40","222640","0.0-2.0-13.4-0.4","629feb5b41542f049572e04c","D2","batch4","","1031","tol_tohand","","","","tol_peg_2","1031","1031","0","[[2,1,0],[0,0],[0]]","5","[[2,1,3],[0,0],[0]]","1","0","","","","","","5","","","","","","","","",""
"","","","","","single-stim-button","41","223815","0.0-2.0-13.4-1.4","629feb5b41542f049572e04c","D2","batch4","","1169","tol_toboard","","","","tol_peg_1","1169","1169","0","[[2,1,3],[0,0],[0]]","5","[[2,1,3],[0,0],[0]]","1","0","","","","","","5","","","","","","","","",""
"","","","","","poldrack-single-stim","42","224825","0.0-2.0-14.0","629feb5b41542f049572e04c","D2","batch4","","-1","tol_feedback","","","true","","1000","1000","500","","","","","","-1","none","true","10188","15077","","","","","","","","","",""
"","","","","","html-button-response","43","226325","0.0-2.0-15.0","629feb5b41542f049572e04c","D2","batch4","","1491.699999999255","tol_trial_num","<div class = centerbox><p class = center-block-text>problem <strong>3</strong> out of 25 problems</p></div>","0","","","","","","","","","","","","","","","","","","","","","","","","",""
"","","","","","single-stim-button","44","232045","0.0-2.0-16.0-0.0","629feb5b41542f049572e04c","D2","batch4","","5715","tol_tohand","","","","tol_peg_1","5715","5715","0","[[2,0,0],[0,0],[1]]","1","[[1,2,0],[3,0],[0]]","2","0","","","","","","4","","","","","","","","",""
"","","","","","single-stim-button","45","233189","0.0-2.0-16.0-1.0","629feb5b41542f049572e04c","D2","batch4","","1136","tol_toboard","","","","tol_peg_2","1136","1136","0","[[2,0,0],[3,0],[1]]","1","[[1,2,0],[3,0],[0]]","2","0","","","","","","4","","","","","","","","",""
"","","","","","single-stim-button","46","234749","0.0-2.0-16.1-0.1","629feb5b41542f049572e04c","D2","batch4","","1555","tol_tohand","","","","tol_peg_1","1555","1555","0","[[0,0,0],[3,0],[1]]","2","[[1,2,0],[3,0],[0]]","2","0","","","","","","4","","","","","","","","",""
"","","","","","single-stim-button","47","236581","0.0-2.0-16.1-1.1","629feb5b41542f049572e04c","D2","batch4","","1828","tol_toboard","","","","tol_peg_2","1828","1828","0","[[0,0,0],[3,2],[1]]","2","[[1,2,0],[3,0],[0]]","2","0","","","","","","4","","","","","","","","",""
"","","","","","single-stim-button","48","237313","0.0-2.0-16.2-0.2","629feb5b41542f049572e04c","D2","batch4","","725","tol_tohand","","","","tol_peg_3","725","725","0","[[0,0,0],[3,2],[0]]","3","[[1,2,0],[3,0],[0]]","2","0","","","","","","4","","","","","","","","",""
"","","","","","single-stim-button","49","238406","0.0-2.0-16.2-1.2","629feb5b41542f049572e04c","D2","batch4","","1090","tol_toboard","","","","tol_peg_1","1090","1090","0","[[1,0,0],[3,2],[0]]","3","[[1,2,0],[3,0],[0]]","2","0","","","","","","4","","","","","","","","",""
"","","","","","single-stim-button","50","239489","0.0-2.0-16.3-0.3","629feb5b41542f049572e04c","D2","batch4","","1076","tol_tohand","","","","tol_peg_2","1076","1076","0","[[1,0,0],[3,0],[0]]","4","[[1,2,0],[3,0],[0]]","2","0","","","","","","4","","","","","","","","",""
"","","","","","single-stim-button","51","240569","0.0-2.0-16.3-1.3","629feb5b41542f049572e04c","D2","batch4","","1071","tol_toboard","","","","tol_peg_1","1071","1071","0","[[1,2,0],[3,0],[0]]","4","[[1,2,0],[3,0],[0]]","2","0","","","","","","4","","","","","","","","",""
"","","","","","poldrack-single-stim","52","241579","0.0-2.0-17.0","629feb5b41542f049572e04c","D2","batch4","","-1","tol_feedback","","","true","","1000","1000","500","","","","","","-1","none","true","5715","9071","","","","","","","","","",""
"","","","","","html-button-response","53","242787","0.0-2.0-18.0","629feb5b41542f049572e04c","D2","batch4","","1198.5","tol_trial_num","<div class = centerbox><p class = center-block-text>problem <strong>4</strong> out of 25 problems</p></div>","0","","","","","","","","","","","","","","","","","","","","","","","","",""
"","","","","","single-stim-button","54","247341","0.0-2.0-19.0-0.0","629feb5b41542f049572e04c","D2","batch4","","4548","tol_tohand","","","","tol_peg_2","4548","4548","0","[[3,0,0],[2,0],[0]]","1","[[3,0,0],[1,0],[2]]","3","0","","","","","","3","","","","","","","","",""
"","","","","","single-stim-button","55","248670","0.0-2.0-19.0-1.0","629feb5b41542f049572e04c","D2","batch4","","1319","tol_toboard","","","","tol_peg_1","1319","1319","0","[[3,1,0],[2,0],[0]]","1","[[3,0,0],[1,0],[2]]","3","0","","","","","","3","","","","","","","","",""
"","","","","","single-stim-button","56","249855","0.0-2.0-19.1-0.1","629feb5b41542f049572e04c","D2","batch4","","1177","tol_tohand","","","","tol_peg_2","1177","1177","0","[[3,1,0],[0,0],[0]]","2","[[3,0,0],[1,0],[2]]","3","0","","","","","","3","","","","","","","","",""
"","","","","","single-stim-button","57","250895","0.0-2.0-19.1-1.1","629feb5b41542f049572e04c","D2","batch4","","1036","tol_toboard","","","","tol_peg_3","1036","1036","0","[[3,1,0],[0,0],[2]]","2","[[3,0,0],[1,0],[2]]","3","0","","","","","","3","","","","","","","","",""
"","","","","","single-stim-button","58","251906","0.0-2.0-19.2-0.2","629feb5b41542f049572e04c","D2","batch4","","1005","tol_tohand","","","","tol_peg_1","1005","1005","0","[[3,0,0],[0,0],[2]]","3","[[3,0,0],[1,0],[2]]","3","0","","","","","","3","","","","","","","","",""
"","","","","","single-stim-button","59","253023","0.0-2.0-19.2-1.2","629feb5b41542f049572e04c","D2","batch4","","1110","tol_toboard","","","","tol_peg_2","1110","1110","0","[[3,0,0],[1,0],[2]]","3","[[3,0,0],[1,0],[2]]","3","0","","","","","","3","","","","","","","","",""
"","","","","","poldrack-single-stim","60","254028","0.0-2.0-20.0","629feb5b41542f049572e04c","D2","batch4","","-1","tol_feedback","","","true","","1000","1000","500","","","","","","-1","none","true","4548","6730","","","","","","","","","",""
"","","","","","html-button-response","61","255553","0.0-2.0-21.0","629feb5b41542f049572e04c","D2","batch4","","1518.9000000022352","tol_trial_num","<div class = centerbox><p class = center-block-text>problem <strong>5</strong> out of 25 problems</p></div>","0","","","","","","","","","","","","","","","","","","","","","","","","",""
"","","","","","single-stim-button","62","287818","0.0-2.0-22.0-0.0","629feb5b41542f049572e04c","D2","batch4","","32260","tol_tohand","","","","tol_peg_3","32260","32260","0","[[1,0,0],[2,0],[0]]","1","[[0,0,0],[1,2],[3]]","4","0","","","","","","7","","","","","","","","",""
"","","","","","single-stim-button","63","298880","0.0-2.0-22.0-1.0","629feb5b41542f049572e04c","D2","batch4","","11056","tol_toboard","","","","tol_peg_1","11056","11056","0","[[1,3,0],[2,0],[0]]","1","[[0,0,0],[1,2],[3]]","4","0","","","","","","7","","","","","","","","",""
"","","","","","single-stim-button","64","303053","0.0-2.0-22.1-0.1","629feb5b41542f049572e04c","D2","batch4","","4164","tol_tohand","","","","tol_peg_2","4164","4164","0","[[1,3,0],[0,0],[0]]","2","[[0,0,0],[1,2],[3]]","4","0","","","","","","7","","","","","","","","",""
"","","","","","single-stim-button","65","304805","0.0-2.0-22.1-1.1","629feb5b41542f049572e04c","D2","batch4","","1745","tol_toboard","","","","tol_peg_3","1745","1745","0","[[1,3,0],[0,0],[2]]","2","[[0,0,0],[1,2],[3]]","4","0","","","","","","7","","","","","","","","",""
"","","","","","single-stim-button","66","314790","0.0-2.0-22.2-0.2","629feb5b41542f049572e04c","D2","batch4","","9977","tol_tohand","","","","tol_peg_1","9977","9977","0","[[1,0,0],[0,0],[2]]","3","[[0,0,0],[1,2],[3]]","4","0","","","","","","7","","","","","","","","",""
"","","","","","single-stim-button","67","315739","0.0-2.0-22.2-1.2","629feb5b41542f049572e04c","D2","batch4","","939","tol_toboard","","","","tol_peg_2","939","939","0","[[1,0,0],[3,0],[2]]","3","[[0,0,0],[1,2],[3]]","4","0","","","","","","7","","","","","","","","",""
"","","","","","single-stim-button","68","321987","0.0-2.0-22.3-0.3","629feb5b41542f049572e04c","D2","batch4","","6240","tol_tohand","","","","tol_peg_1","6240","6240","0","[[0,0,0],[3,0],[2]]","4","[[0,0,0],[1,2],[3]]","4","0","","","","","","7","","","","","","","","",""
"","","","","","single-stim-button","69","323057","0.0-2.0-22.3-1.3","629feb5b41542f049572e04c","D2","batch4","","1059","tol_toboard","","","","tol_peg_2","1059","1059","0","[[0,0,0],[3,1],[2]]","4","[[0,0,0],[1,2],[3]]","4","0","","","","","","7","","","","","","","","",""
"","","","","","single-stim-button","70","324084","0.0-2.0-22.4-0.4","629feb5b41542f049572e04c","D2","batch4","","1020","tol_tohand","","","","tol_peg_3","1020","1020","0","[[0,0,0],[3,1],[0]]","5","[[0,0,0],[1,2],[3]]","4","0","","","","","","7","","","","","","","","",""
"","","","","","single-stim-button","71","326030","0.0-2.0-22.4-1.4","629feb5b41542f049572e04c","D2","batch4","","1940","tol_toboard","","","","tol_peg_1","1940","1940","0","[[2,0,0],[3,1],[0]]","5","[[0,0,0],[1,2],[3]]","4","0","","","","","","7","","","","","","","","",""
"","","","","","single-stim-button","72","328937","0.0-2.0-22.5-0.5","629feb5b41542f049572e04c","D2","batch4","","2903","tol_tohand","","","","tol_peg_2","2903","2903","0","[[2,0,0],[3,0],[0]]","6","[[0,0,0],[1,2],[3]]","4","0","","","","","","7","","","","","","","","",""
"","","","","","single-stim-button","73","329652","0.0-2.0-22.5-1.5","629feb5b41542f049572e04c","D2","batch4","","709","tol_toboard","","","","tol_peg_1","709","709","0","[[2,1,0],[3,0],[0]]","6","[[0,0,0],[1,2],[3]]","4","0","","","","","","7","","","","","","","","",""
"","","","","","single-stim-button","74","330996","0.0-2.0-22.6-0.6","629feb5b41542f049572e04c","D2","batch4","","1335","tol_tohand","","","","tol_peg_2","1335","1335","0","[[2,1,0],[0,0],[0]]","7","[[0,0,0],[1,2],[3]]","4","0","","","","","","7","","","","","","","","",""
"","","","","","single-stim-button","75","332235","0.0-2.0-22.6-1.6","629feb5b41542f049572e04c","D2","batch4","","1231","tol_toboard","","","","tol_peg_3","1231","1231","0","[[2,1,0],[0,0],[3]]","7","[[0,0,0],[1,2],[3]]","4","0","","","","","","7","","","","","","","","",""
"","","","","","single-stim-button","76","333998","0.0-2.0-22.7-0.7","629feb5b41542f049572e04c","D2","batch4","","1757","tol_tohand","","","","tol_peg_1","1757","1757","0","[[2,0,0],[0,0],[3]]","8","[[0,0,0],[1,2],[3]]","4","0","","","","","","7","","","","","","","","",""
"","","","","","single-stim-button","77","335475","0.0-2.0-22.7-1.7","629feb5b41542f049572e04c","D2","batch4","","1470","tol_toboard","","","","tol_peg_2","1470","1470","0","[[2,0,0],[1,0],[3]]","8","[[0,0,0],[1,2],[3]]","4","0","","","","","","7","","","","","","","","",""
"","","","","","single-stim-button","78","336202","0.0-2.0-22.8-0.8","629feb5b41542f049572e04c","D2","batch4","","721","tol_tohand","","","","tol_peg_1","721","721","0","[[0,0,0],[1,0],[3]]","9","[[0,0,0],[1,2],[3]]","4","0","","","","","","7","","","","","","","","",""
"","","","","","single-stim-button","79","337793","0.0-2.0-22.8-1.8","629feb5b41542f049572e04c","D2","batch4","","1582","tol_toboard","","","","tol_peg_2","1582","1582","0","[[0,0,0],[1,2],[3]]","9","[[0,0,0],[1,2],[3]]","4","0","","","","","","7","","","","","","","","",""
"","","","","","poldrack-single-stim","80","338801","0.0-2.0-23.0","629feb5b41542f049572e04c","D2","batch4","","-1","tol_feedback","","","true","","1000","1000","500","","","","","","-1","none","true","32260","60377","","","","","","","","","",""
"","","","","","html-button-response","81","340257","0.0-2.0-24.0","629feb5b41542f049572e04c","D2","batch4","","1446.9000000022352","tol_trial_num","<div class = centerbox><p class = center-block-text>problem <strong>6</strong> out of 25 problems</p></div>","0","","","","","","","","","","","","","","","","","","","","","","","","",""
"","","","","","single-stim-button","82","355740","0.0-2.0-25.0-0.0","629feb5b41542f049572e04c","D2","batch4","","15475","tol_tohand","","","","tol_peg_3","15475","15475","0","[[0,0,0],[1,2],[0]]","1","[[1,0,0],[2,3],[0]]","5","0","","","","","","6","","","","","","","","",""
"","","","","","single-stim-button","83","357338","0.0-2.0-25.0-1.0","629feb5b41542f049572e04c","D2","batch4","","1592","tol_toboard","","","","tol_peg_1","1592","1592","0","[[3,0,0],[1,2],[0]]","1","[[1,0,0],[2,3],[0]]","5","0","","","","","","6","","","","","","","","",""
"","","","","","single-stim-button","84","358849","0.0-2.0-25.1-0.1","629feb5b41542f049572e04c","D2","batch4","","1505","tol_tohand","","","","tol_peg_2","1505","1505","0","[[3,0,0],[1,0],[0]]","2","[[1,0,0],[2,3],[0]]","5","0","","","","","","6","","","","","","","","",""
"","","","","","single-stim-button","85","359950","0.0-2.0-25.1-1.1","629feb5b41542f049572e04c","D2","batch4","","1097","tol_toboard","","","","tol_peg_3","1097","1097","0","[[3,0,0],[1,0],[2]]","2","[[1,0,0],[2,3],[0]]","5","0","","","","","","6","","","","","","","","",""
"","","","","","single-stim-button","86","360816","0.0-2.0-25.2-0.2","629feb5b41542f049572e04c","D2","batch4","","859","tol_tohand","","","","tol_peg_3","859","859","0","[[3,0,0],[1,0],[0]]","3","[[1,0,0],[2,3],[0]]","5","0","","","","","","6","","","","","","","","",""
"","","","","","single-stim-button","87","361953","0.0-2.0-25.2-1.2","629feb5b41542f049572e04c","D2","batch4","","1132","tol_toboard","","","","tol_peg_3","1132","1132","0","[[3,0,0],[1,0],[2]]","3","[[1,0,0],[2,3],[0]]","5","0","","","","","","6","","","","","","","","",""
"","","","","","single-stim-button","88","363155","0.0-2.0-25.3-0.3","629feb5b41542f049572e04c","D2","batch4","","1192","tol_tohand","","","","tol_peg_2","1192","1192","0","[[3,0,0],[0,0],[2]]","4","[[1,0,0],[2,3],[0]]","5","0","","","","","","6","","","","","","","","",""
"","","","","","single-stim-button","89","364889","0.0-2.0-25.3-1.3","629feb5b41542f049572e04c","D2","batch4","","1731","tol_toboard","","","","tol_peg_1","1731","1731","0","[[3,1,0],[0,0],[2]]","4","[[1,0,0],[2,3],[0]]","5","0","","","","","","6","","","","","","","","",""
"","","","","","single-stim-button","90","366041","0.0-2.0-25.4-0.4","629feb5b41542f049572e04c","D2","batch4","","1145","tol_tohand","","","","tol_peg_3","1145","1145","0","[[3,1,0],[0,0],[0]]","5","[[1,0,0],[2,3],[0]]","5","0","","","","","","6","","","","","","","","",""
"","","","","","single-stim-button","91","367311","0.0-2.0-25.4-1.4","629feb5b41542f049572e04c","D2","batch4","","1266","tol_toboard","","","","tol_peg_2","1266","1266","0","[[3,1,0],[2,0],[0]]","5","[[1,0,0],[2,3],[0]]","5","0","","","","","","6","","","","","","","","",""
"","","","","","single-stim-button","92","368417","0.0-2.0-25.5-0.5","629feb5b41542f049572e04c","D2","batch4","","1102","tol_tohand","","","","tol_peg_1","1102","1102","0","[[3,0,0],[2,0],[0]]","6","[[1,0,0],[2,3],[0]]","5","0","","","","","","6","","","","","","","","",""
"","","","","","single-stim-button","93","370146","0.0-2.0-25.5-1.5","629feb5b41542f049572e04c","D2","batch4","","1724","tol_toboard","","","","tol_peg_3","1724","1724","0","[[3,0,0],[2,0],[1]]","6","[[1,0,0],[2,3],[0]]","5","0","","","","","","6","","","","","","","","",""
"","","","","","single-stim-button","94","371607","0.0-2.0-25.6-0.6","629feb5b41542f049572e04c","D2","batch4","","1455","tol_tohand","","","","tol_peg_1","1455","1455","0","[[0,0,0],[2,0],[1]]","7","[[1,0,0],[2,3],[0]]","5","0","","","","","","6","","","","","","","","",""
"","","","","","single-stim-button","95","372502","0.0-2.0-25.6-1.6","629feb5b41542f049572e04c","D2","batch4","","890","tol_toboard","","","","tol_peg_2","890","890","0","[[0,0,0],[2,3],[1]]","7","[[1,0,0],[2,3],[0]]","5","0","","","","","","6","","","","","","","","",""
"","","","","","single-stim-button","96","373303","0.0-2.0-25.7-0.7","629feb5b41542f049572e04c","D2","batch4","","794","tol_tohand","","","","tol_peg_3","794","794","0","[[0,0,0],[2,3],[0]]","8","[[1,0,0],[2,3],[0]]","5","0","","","","","","6","","","","","","","","",""
"","","","","","single-stim-button","97","375113","0.0-2.0-25.7-1.7","629feb5b41542f049572e04c","D2","batch4","","1803","tol_toboard","","","","tol_peg_1","1803","1803","0","[[1,0,0],[2,3],[0]]","8","[[1,0,0],[2,3],[0]]","5","0","","","","","","6","","","","","","","","",""
"","","","","","poldrack-single-stim","98","376120","0.0-2.0-26.0","629feb5b41542f049572e04c","D2","batch4","","-1","tol_feedback","","","true","","1000","1000","500","","","","","","-1","none","true","15475","23527","","","","","","","","","",""
"","","","","","html-button-response","99","377874","0.0-2.0-27.0","629feb5b41542f049572e04c","D2","batch4","","1744.5999999977648","tol_trial_num","<div class = centerbox><p class = center-block-text>problem <strong>7</strong> out of 25 problems</p></div>","0","","","","","","","","","","","","","","","","","","","","","","","","",""
"","","","","","single-stim-button","100","402860","0.0-2.0-28.0-0.0","629feb5b41542f049572e04c","D2","batch4","","24973","tol_tohand","","","","tol_peg_3","24973","24973","0","[[2,1,0],[0,0],[0]]","1","[[1,2,0],[3,0],[0]]","6","0","","","","","","5","","","","","","","","",""
"","","","","","single-stim-button","101","404290","0.0-2.0-28.0-1.0","629feb5b41542f049572e04c","D2","batch4","","1422","tol_toboard","","","","tol_peg_2","1422","1422","0","[[2,1,0],[3,0],[0]]","1","[[1,2,0],[3,0],[0]]","6","0","","","","","","5","","","","","","","","",""
"","","","","","single-stim-button","102","405344","0.0-2.0-28.1-0.1","629feb5b41542f049572e04c","D2","batch4","","1044","tol_tohand","","","","tol_peg_1","1044","1044","0","[[2,0,0],[3,0],[0]]","2","[[1,2,0],[3,0],[0]]","6","0","","","","","","5","","","","","","","","",""
"","","","","","single-stim-button","103","406784","0.0-2.0-28.1-1.1","629feb5b41542f049572e04c","D2","batch4","","1431","tol_toboard","","","","tol_peg_3","1431","1431","0","[[2,0,0],[3,0],[1]]","2","[[1,2,0],[3,0],[0]]","6","0","","","","","","5","","","","","","","","",""
"","","","","","single-stim-button","104","408157","0.0-2.0-28.2-0.2","629feb5b41542f049572e04c","D2","batch4","","1369","tol_tohand","","","","tol_peg_1","1369","1369","0","[[0,0,0],[3,0],[1]]","3","[[1,2,0],[3,0],[0]]","6","0","","","","","","5","","","","","","","","",""
"","","","","","single-stim-button","105","415444","0.0-2.0-28.2-1.2","629feb5b41542f049572e04c","D2","batch4","","7277","tol_toboard","","","","tol_peg_2","7277","7277","0","[[0,0,0],[3,2],[1]]","3","[[1,2,0],[3,0],[0]]","6","0","","","","","","5","","","","","","","","",""
"","","","","","single-stim-button","106","416727","0.0-2.0-28.3-0.3","629feb5b41542f049572e04c","D2","batch4","","1278","tol_tohand","","","","tol_peg_3","1278","1278","0","[[0,0,0],[3,2],[0]]","4","[[1,2,0],[3,0],[0]]","6","0","","","","","","5","","","","","","","","",""
"","","","","","single-stim-button","107","418384","0.0-2.0-28.3-1.3","629feb5b41542f049572e04c","D2","batch4","","1653","tol_toboard","","","","tol_peg_1","1653","1653","0","[[1,0,0],[3,2],[0]]","4","[[1,2,0],[3,0],[0]]","6","0","","","","","","5","","","","","","","","",""
"","","","","","single-stim-button","108","419207","0.0-2.0-28.4-0.4","629feb5b41542f049572e04c","D2","batch4","","817","tol_tohand","","","","tol_peg_2","817","817","0","[[1,0,0],[3,0],[0]]","5","[[1,2,0],[3,0],[0]]","6","0","","","","","","5","","","","","","","","",""
"","","","","","single-stim-button","109","420402","0.0-2.0-28.4-1.4","629feb5b41542f049572e04c","D2","batch4","","1188","tol_toboard","","","","tol_peg_1","1188","1188","0","[[1,2,0],[3,0],[0]]","5","[[1,2,0],[3,0],[0]]","6","0","","","","","","5","","","","","","","","",""
"","","","","","poldrack-single-stim","110","421409","0.0-2.0-29.0","629feb5b41542f049572e04c","D2","batch4","","-1","tol_feedback","","","true","","1000","1000","500","","","","","","-1","none","true","24973","29481","","","","","","","","","",""
"","","","","","html-button-response","111","423434","0.0-2.0-30.0","629feb5b41542f049572e04c","D2","batch4","","2020.5999999977648","tol_trial_num","<div class = centerbox><p class = center-block-text>problem <strong>8</strong> out of 25 problems</p></div>","0","","","","","","","","","","","","","","","","","","","","","","","","",""
"","","","","","single-stim-button","112","428723","0.0-2.0-31.0-0.0","629feb5b41542f049572e04c","D2","batch4","","5282","tol_tohand","","","","tol_peg_2","5282","5282","0","[[0,0,0],[2,0],[1]]","1","[[1,2,0],[3,0],[0]]","7","0","","","","","","4","","","","","","","","",""
"","","","","","single-stim-button","113","436394","0.0-2.0-31.0-1.0","629feb5b41542f049572e04c","D2","batch4","","7665","tol_toboard","","","","tol_peg_2","7665","7665","0","[[0,0,0],[2,3],[1]]","1","[[1,2,0],[3,0],[0]]","7","0","","","","","","4","","","","","","","","",""
"","","","","","single-stim-button","114","437521","0.0-2.0-31.1-0.1","629feb5b41542f049572e04c","D2","batch4","","1121","tol_tohand","","","","tol_peg_3","1121","1121","0","[[0,0,0],[2,3],[0]]","2","[[1,2,0],[3,0],[0]]","7","0","","","","","","4","","","","","","","","",""
"","","","","","single-stim-button","115","439373","0.0-2.0-31.1-1.1","629feb5b41542f049572e04c","D2","batch4","","1848","tol_toboard","","","","tol_peg_1","1848","1848","0","[[1,0,0],[2,3],[0]]","2","[[1,2,0],[3,0],[0]]","7","0","","","","","","4","","","","","","","","",""
"","","","","","single-stim-button","116","440565","0.0-2.0-31.2-0.2","629feb5b41542f049572e04c","D2","batch4","","1188","tol_tohand","","","","tol_peg_2","1188","1188","0","[[1,0,0],[2,0],[0]]","3","[[1,2,0],[3,0],[0]]","7","0","","","","","","4","","","","","","","","",""
"","","","","","single-stim-button","117","442223","0.0-2.0-31.2-1.2","629feb5b41542f049572e04c","D2","batch4","","1647","tol_toboard","","","","tol_peg_3","1647","1647","0","[[1,0,0],[2,0],[3]]","3","[[1,2,0],[3,0],[0]]","7","0","","","","","","4","","","","","","","","",""
"","","","","","single-stim-button","118","443515","0.0-2.0-31.3-0.3","629feb5b41542f049572e04c","D2","batch4","","1287","tol_tohand","","","","tol_peg_2","1287","1287","0","[[1,0,0],[0,0],[3]]","4","[[1,2,0],[3,0],[0]]","7","0","","","","","","4","","","","","","","","",""
"","","","","","single-stim-button","119","444921","0.0-2.0-31.3-1.3","629feb5b41542f049572e04c","D2","batch4","","1401","tol_toboard","","","","tol_peg_1","1401","1401","0","[[1,2,0],[0,0],[3]]","4","[[1,2,0],[3,0],[0]]","7","0","","","","","","4","","","","","","","","",""
"","","","","","single-stim-button","120","446285","0.0-2.0-31.4-0.4","629feb5b41542f049572e04c","D2","batch4","","1357","tol_tohand","","","","tol_peg_3","1357","1357","0","[[1,2,0],[0,0],[0]]","5","[[1,2,0],[3,0],[0]]","7","0","","","","","","4","","","","","","","","",""
"","","","","","single-stim-button","121","447688","0.0-2.0-31.4-1.4","629feb5b41542f049572e04c","D2","batch4","","1397","tol_toboard","","","","tol_peg_2","1397","1397","0","[[1,2,0],[3,0],[0]]","5","[[1,2,0],[3,0],[0]]","7","0","","","","","","4","","","","","","","","",""
"","","","","","poldrack-single-stim","122","448699","0.0-2.0-32.0","629feb5b41542f049572e04c","D2","batch4","","-1","tol_feedback","","","true","","1000","1000","500","","","","","","-1","none","true","5282","10235","","","","","","","","","",""
"","","","","","html-button-response","123","452147","0.0-2.0-33.0","629feb5b41542f049572e04c","D2","batch4","","3438.400000002235","tol_trial_num","<div class = centerbox><p class = center-block-text>problem <strong>9</strong> out of 25 problems</p></div>","0","","","","","","","","","","","","","","","","","","","","","","","","",""
"","","","","","single-stim-button","124","472675","0.0-2.0-34.0-0.0","629feb5b41542f049572e04c","D2","batch4","","20520","tol_tohand","","","","tol_peg_1","20520","20520","0","[[3,0,0],[0,0],[1]]","1","[[2,1,0],[3,0],[0]]","8","0","","","","","","6","","","","","","","","",""
"","","","","","single-stim-button","125","475308","0.0-2.0-34.0-1.0","629feb5b41542f049572e04c","D2","batch4","","2626","tol_toboard","","","","tol_peg_2","2626","2626","0","[[3,0,0],[2,0],[1]]","1","[[2,1,0],[3,0],[0]]","8","0","","","","","","6","","","","","","","","",""
"","","","","","single-stim-button","126","481752","0.0-2.0-34.1-0.1","629feb5b41542f049572e04c","D2","batch4","","6435","tol_tohand","","","","tol_peg_1","6435","6435","0","[[0,0,0],[2,0],[1]]","2","[[2,1,0],[3,0],[0]]","8","0","","","","","","6","","","","","","","","",""
"","","","","","single-stim-button","127","499988","0.0-2.0-34.1-1.1","629feb5b41542f049572e04c","D2","batch4","","18226","tol_toboard","","","","tol_peg_2","18226","18226","0","[[0,0,0],[2,3],[1]]","2","[[2,1,0],[3,0],[0]]","8","0","","","","","","6","","","","","","","","",""
"","","","","","single-stim-button","128","501997","0.0-2.0-34.2-0.2","629feb5b41542f049572e04c","D2","batch4","","2002","tol_tohand","","","","tol_peg_3","2002","2002","0","[[0,0,0],[2,3],[0]]","3","[[2,1,0],[3,0],[0]]","8","0","","","","","","6","","","","","","","","",""
"","","","","","single-stim-button","129","503515","0.0-2.0-34.2-1.2","629feb5b41542f049572e04c","D2","batch4","","1513","tol_toboard","","","","tol_peg_1","1513","1513","0","[[1,0,0],[2,3],[0]]","3","[[2,1,0],[3,0],[0]]","8","0","","","","","","6","","","","","","","","",""
"","","","","","single-stim-button","130","505924","0.0-2.0-34.3-0.3","629feb5b41542f049572e04c","D2","batch4","","2401","tol_tohand","","","","tol_peg_2","2401","2401","0","[[1,0,0],[2,0],[0]]","4","[[2,1,0],[3,0],[0]]","8","0","","","","","","6","","","","","","","","",""
"","","","","","single-stim-button","131","508304","0.0-2.0-34.3-1.3","629feb5b41542f049572e04c","D2","batch4","","2372","tol_toboard","","","","tol_peg_3","2372","2372","0","[[1,0,0],[2,0],[3]]","4","[[2,1,0],[3,0],[0]]","8","0","","","","","","6","","","","","","","","",""
"","","","","","single-stim-button","132","512994","0.0-2.0-34.4-0.4","629feb5b41542f049572e04c","D2","batch4","","4683","tol_tohand","","","","tol_peg_1","4683","4683","0","[[0,0,0],[2,0],[3]]","5","[[2,1,0],[3,0],[0]]","8","0","","","","","","6","","","","","","","","",""
"","","","","","single-stim-button","133","515668","0.0-2.0-34.4-1.4","629feb5b41542f049572e04c","D2","batch4","","2662","tol_toboard","","","","tol_peg_2","2662","2662","0","[[0,0,0],[2,1],[3]]","5","[[2,1,0],[3,0],[0]]","8","0","","","","","","6","","","","","","","","",""
"","","","","","single-stim-button","134","517188","0.0-2.0-34.5-0.5","629feb5b41542f049572e04c","D2","batch4","","1507","tol_tohand","","","","tol_peg_3","1507","1507","0","[[0,0,0],[2,1],[0]]","6","[[2,1,0],[3,0],[0]]","8","0","","","","","","6","","","","","","","","",""
"","","","","","single-stim-button","135","518894","0.0-2.0-34.5-1.5","629feb5b41542f049572e04c","D2","batch4","","1704","tol_toboard","","","","tol_peg_1","1704","1704","0","[[3,0,0],[2,1],[0]]","6","[[2,1,0],[3,0],[0]]","8","0","","","","","","6","","","","","","","","",""
"","","","","","single-stim-button","136","522200","0.0-2.0-34.6-0.6","629feb5b41542f049572e04c","D2","batch4","","3299","tol_tohand","","","","tol_peg_2","3299","3299","0","[[3,0,0],[2,0],[0]]","7","[[2,1,0],[3,0],[0]]","8","0","","","","","","6","","","","","","","","",""
"","","","","","single-stim-button","137","525147","0.0-2.0-34.6-1.6","629feb5b41542f049572e04c","D2","batch4","","2943","tol_toboard","","","","tol_peg_3","2943","2943","0","[[3,0,0],[2,0],[1]]","7","[[2,1,0],[3,0],[0]]","8","0","","","","","","6","","","","","","","","",""
"","","","","","single-stim-button","138","527364","0.0-2.0-34.7-0.7","629feb5b41542f049572e04c","D2","batch4","","2206","tol_tohand","","","","tol_peg_2","2206","2206","0","[[3,0,0],[0,0],[1]]","8","[[2,1,0],[3,0],[0]]","8","0","","","","","","6","","","","","","","","",""
"","","","","","single-stim-button","139","529084","0.0-2.0-34.7-1.7","629feb5b41542f049572e04c","D2","batch4","","1716","tol_toboard","","","","tol_peg_1","1716","1716","0","[[3,2,0],[0,0],[1]]","8","[[2,1,0],[3,0],[0]]","8","0","","","","","","6","","","","","","","","",""
"","","","","","single-stim-button","140","535533","0.0-2.0-34.8-0.8","629feb5b41542f049572e04c","D2","batch4","","6444","tol_tohand","","","","tol_peg_3","6444","6444","0","[[3,2,0],[0,0],[0]]","9","[[2,1,0],[3,0],[0]]","8","0","","","","","","6","","","","","","","","",""
"","","","","","single-stim-button","141","535752","0.0-2.0-34.8-1.8","629feb5b41542f049572e04c","D2","batch4","","215","tol_toboard","","","","tol_peg_3","215","215","0","[[3,2,0],[0,0],[1]]","9","[[2,1,0],[3,0],[0]]","8","0","","","","","","6","","","","","","","","",""
"","","","","","single-stim-button","142","535907","0.0-2.0-34.9-0.9","629feb5b41542f049572e04c","D2","batch4","","153","tol_tohand","","","","tol_peg_3","153","153","0","[[3,2,0],[0,0],[0]]","10","[[2,1,0],[3,0],[0]]","8","0","","","","","","6","","","","","","","","",""
"","","","","","single-stim-button","143","539404","0.0-2.0-34.9-1.9","629feb5b41542f049572e04c","D2","batch4","","3493","tol_toboard","","","","tol_peg_2","3493","3493","0","[[3,2,0],[1,0],[0]]","10","[[2,1,0],[3,0],[0]]","8","0","","","","","","6","","","","","","","","",""
"","","","","","single-stim-button","144","542303","0.0-2.0-34.10-0.10","629feb5b41542f049572e04c","D2","batch4","","2891","tol_tohand","","","","tol_peg_1","2891","2891","0","[[3,0,0],[1,0],[0]]","11","[[2,1,0],[3,0],[0]]","8","0","","","","","","6","","","","","","","","",""
"","","","","","single-stim-button","145","543736","0.0-2.0-34.10-1.10","629feb5b41542f049572e04c","D2","batch4","","1427","tol_toboard","","","","tol_peg_2","1427","1427","0","[[3,0,0],[1,2],[0]]","11","[[2,1,0],[3,0],[0]]","8","0","","","","","","6","","","","","","","","",""
"","","","","","single-stim-button","146","545044","0.0-2.0-34.11-0.11","629feb5b41542f049572e04c","D2","batch4","","1300","tol_tohand","","","","tol_peg_1","1300","1300","0","[[0,0,0],[1,2],[0]]","12","[[2,1,0],[3,0],[0]]","8","0","","","","","","6","","","","","","","","",""
"","","","","","single-stim-button","147","546816","0.0-2.0-34.11-1.11","629feb5b41542f049572e04c","D2","batch4","","1767","tol_toboard","","","","tol_peg_3","1767","1767","0","[[0,0,0],[1,2],[3]]","12","[[2,1,0],[3,0],[0]]","8","0","","","","","","6","","","","","","","","",""
"","","","","","single-stim-button","148","552617","0.0-2.0-34.12-0.12","629feb5b41542f049572e04c","D2","batch4","","5793","tol_tohand","","","","tol_peg_2","5793","5793","0","[[0,0,0],[1,0],[3]]","13","[[2,1,0],[3,0],[0]]","8","0","","","","","","6","","","","","","","","",""
"","","","","","single-stim-button","149","554332","0.0-2.0-34.12-1.12","629feb5b41542f049572e04c","D2","batch4","","1707","tol_toboard","","","","tol_peg_1","1707","1707","0","[[2,0,0],[1,0],[3]]","13","[[2,1,0],[3,0],[0]]","8","0","","","","","","6","","","","","","","","",""
"","","","","","single-stim-button","150","555424","0.0-2.0-34.13-0.13","629feb5b41542f049572e04c","D2","batch4","","1089","tol_tohand","","","","tol_peg_2","1089","1089","0","[[2,0,0],[0,0],[3]]","14","[[2,1,0],[3,0],[0]]","8","0","","","","","","6","","","","","","","","",""
"","","","","","single-stim-button","151","557445","0.0-2.0-34.13-1.13","629feb5b41542f049572e04c","D2","batch4","","2017","tol_toboard","","","","tol_peg_1","2017","2017","0","[[2,1,0],[0,0],[3]]","14","[[2,1,0],[3,0],[0]]","8","0","","","","","","6","","","","","","","","",""
"","","","","","single-stim-button","152","558492","0.0-2.0-34.14-0.14","629feb5b41542f049572e04c","D2","batch4","","1041","tol_tohand","","","","tol_peg_3","1041","1041","0","[[2,1,0],[0,0],[0]]","15","[[2,1,0],[3,0],[0]]","8","0","","","","","","6","","","","","","","","",""
"","","","","","single-stim-button","153","560076","0.0-2.0-34.14-1.14","629feb5b41542f049572e04c","D2","batch4","","1575","tol_toboard","","","","tol_peg_2","1575","1575","0","[[2,1,0],[3,0],[0]]","15","[[2,1,0],[3,0],[0]]","8","0","","","","","","6","","","","","","","","",""
"","","","","","poldrack-single-stim","154","561083","0.0-2.0-35.0","629feb5b41542f049572e04c","D2","batch4","","-1","tol_feedback","","","true","","1000","1000","500","","","","","","-1","none","true","20520","61764","","","","","","","","","",""
"","","","","","html-button-response","155","563942","0.0-2.0-36.0","629feb5b41542f049572e04c","D2","batch4","","2853","tol_trial_num","<div class = centerbox><p class = center-block-text>problem <strong>10</strong> out of 25 problems</p></div>","0","","","","","","","","","","","","","","","","","","","","","","","","",""
"","","","","","single-stim-button","156","572774","0.0-2.0-37.0-0.0","629feb5b41542f049572e04c","D2","batch4","","8829","tol_tohand","","","","tol_peg_2","8829","8829","0","[[3,0,0],[0,0],[2]]","1","[[3,0,0],[2,1],[0]]","9","0","","","","","","3","","","","","","","","",""
"","","","","","single-stim-button","157","573694","0.0-2.0-37.0-1.0","629feb5b41542f049572e04c","D2","batch4","","915","tol_toboard","","","","tol_peg_1","915","915","0","[[3,1,0],[0,0],[2]]","1","[[3,0,0],[2,1],[0]]","9","0","","","","","","3","","","","","","","","",""
"","","","","","single-stim-button","158","575180","0.0-2.0-37.1-0.1","629feb5b41542f049572e04c","D2","batch4","","1477","tol_tohand","","","","tol_peg_3","1477","1477","0","[[3,1,0],[0,0],[0]]","2","[[3,0,0],[2,1],[0]]","9","0","","","","","","3","","","","","","","","",""
"","","","","","single-stim-button","159","576596","0.0-2.0-37.1-1.1","629feb5b41542f049572e04c","D2","batch4","","1409","tol_toboard","","","","tol_peg_2","1409","1409","0","[[3,1,0],[2,0],[0]]","2","[[3,0,0],[2,1],[0]]","9","0","","","","","","3","","","","","","","","",""
"","","","","","single-stim-button","160","578256","0.0-2.0-37.2-0.2","629feb5b41542f049572e04c","D2","batch4","","1651","tol_tohand","","","","tol_peg_1","1651","1651","0","[[3,0,0],[2,0],[0]]","3","[[3,0,0],[2,1],[0]]","9","0","","","","","","3","","","","","","","","",""
"","","","","","single-stim-button","161","579711","0.0-2.0-37.2-1.2","629feb5b41542f049572e04c","D2","batch4","","1449","tol_toboard","","","","tol_peg_2","1449","1449","0","[[3,0,0],[2,1],[0]]","3","[[3,0,0],[2,1],[0]]","9","0","","","","","","3","","","","","","","","",""
"","","","","","poldrack-single-stim","162","580717","0.0-2.0-38.0","629feb5b41542f049572e04c","D2","batch4","","-1","tol_feedback","","","true","","1000","1000","500","","","","","","-1","none","true","8829","11957","","","","","","","","","",""
"","","","","","html-button-response","163","581721","0.0-2.0-39.0","629feb5b41542f049572e04c","D2","batch4","","998.2000000029802","tol_trial_num","<div class = centerbox><p class = center-block-text>problem <strong>11</strong> out of 25 problems</p></div>","0","","","","","","","","","","","","","","","","","","","","","","","","",""
"","","","","","single-stim-button","164","646281","0.0-2.0-40.0-0.0","629feb5b41542f049572e04c","D2","batch4","","64553","tol_tohand","","","","tol_peg_2","64553","64553","0","[[1,2,0],[0,0],[0]]","1","[[2,0,0],[1,3],[0]]","10","0","","","","","","6","","","","","","","","",""
"","","","","","single-stim-button","165","652974","0.0-2.0-40.0-1.0","629feb5b41542f049572e04c","D2","batch4","","6684","tol_toboard","","","","tol_peg_3","6684","6684","0","[[1,2,0],[0,0],[3]]","1","[[2,0,0],[1,3],[0]]","10","0","","","","","","6","","","","","","","","",""
"","","","","","single-stim-button","166","656023","0.0-2.0-40.1-0.1","629feb5b41542f049572e04c","D2","batch4","","3043","tol_tohand","","","","tol_peg_1","3043","3043","0","[[1,0,0],[0,0],[3]]","2","[[2,0,0],[1,3],[0]]","10","0","","","","","","6","","","","","","","","",""
"","","","","","single-stim-button","167","657641","0.0-2.0-40.1-1.1","629feb5b41542f049572e04c","D2","batch4","","1609","tol_toboard","","","","tol_peg_2","1609","1609","0","[[1,0,0],[2,0],[3]]","2","[[2,0,0],[1,3],[0]]","10","0","","","","","","6","","","","","","","","",""
"","","","","","single-stim-button","168","666449","0.0-2.0-40.2-0.2","629feb5b41542f049572e04c","D2","batch4","","8799","tol_tohand","","","","tol_peg_1","8799","8799","0","[[0,0,0],[2,0],[3]]","3","[[2,0,0],[1,3],[0]]","10","0","","","","","","6","","","","","","","","",""
"","","","","","single-stim-button","169","667737","0.0-2.0-40.2-1.2","629feb5b41542f049572e04c","D2","batch4","","1280","tol_toboard","","","","tol_peg_2","1280","1280","0","[[0,0,0],[2,1],[3]]","3","[[2,0,0],[1,3],[0]]","10","0","","","","","","6","","","","","","","","",""
"","","","","","single-stim-button","170","669362","0.0-2.0-40.3-0.3","629feb5b41542f049572e04c","D2","batch4","","1620","tol_tohand","","","","tol_peg_3","1620","1620","0","[[0,0,0],[2,1],[0]]","4","[[2,0,0],[1,3],[0]]","10","0","","","","","","6","","","","","","","","",""
"","","","","","single-stim-button","171","677021","0.0-2.0-40.3-1.3","629feb5b41542f049572e04c","D2","batch4","","7651","tol_toboard","","","","tol_peg_1","7651","7651","0","[[3,0,0],[2,1],[0]]","4","[[2,0,0],[1,3],[0]]","10","0","","","","","","6","","","","","","","","",""
"","","","","","single-stim-button","172","678541","0.0-2.0-40.4-0.4","629feb5b41542f049572e04c","D2","batch4","","1511","tol_tohand","","","","tol_peg_2","1511","1511","0","[[3,0,0],[2,0],[0]]","5","[[2,0,0],[1,3],[0]]","10","0","","","","","","6","","","","","","","","",""
"","","","","","single-stim-button","173","679679","0.0-2.0-40.4-1.4","629feb5b41542f049572e04c","D2","batch4","","1133","tol_toboard","","","","tol_peg_3","1133","1133","0","[[3,0,0],[2,0],[1]]","5","[[2,0,0],[1,3],[0]]","10","0","","","","","","6","","","","","","","","",""
"","","","","","single-stim-button","174","684838","0.0-2.0-40.5-0.5","629feb5b41542f049572e04c","D2","batch4","","5153","tol_tohand","","","","tol_peg_1","5153","5153","0","[[0,0,0],[2,0],[1]]","6","[[2,0,0],[1,3],[0]]","10","0","","","","","","6","","","","","","","","",""
"","","","","","single-stim-button","175","686311","0.0-2.0-40.5-1.5","629feb5b41542f049572e04c","D2","batch4","","1467","tol_toboard","","","","tol_peg_2","1467","1467","0","[[0,0,0],[2,3],[1]]","6","[[2,0,0],[1,3],[0]]","10","0","","","","","","6","","","","","","","","",""
"","","","","","single-stim-button","176","687967","0.0-2.0-40.6-0.6","629feb5b41542f049572e04c","D2","batch4","","1652","tol_tohand","","","","tol_peg_3","1652","1652","0","[[0,0,0],[2,3],[0]]","7","[[2,0,0],[1,3],[0]]","10","0","","","","","","6","","","","","","","","",""
"","","","","","single-stim-button","177","691871","0.0-2.0-40.6-1.6","629feb5b41542f049572e04c","D2","batch4","","3897","tol_toboard","","","","tol_peg_1","3897","3897","0","[[1,0,0],[2,3],[0]]","7","[[2,0,0],[1,3],[0]]","10","0","","","","","","6","","","","","","","","",""
"","","","","","single-stim-button","178","693111","0.0-2.0-40.7-0.7","629feb5b41542f049572e04c","D2","batch4","","1233","tol_tohand","","","","tol_peg_2","1233","1233","0","[[1,0,0],[2,0],[0]]","8","[[2,0,0],[1,3],[0]]","10","0","","","","","","6","","","","","","","","",""
"","","","","","single-stim-button","179","694302","0.0-2.0-40.7-1.7","629feb5b41542f049572e04c","D2","batch4","","1188","tol_toboard","","","","tol_peg_3","1188","1188","0","[[1,0,0],[2,0],[3]]","8","[[2,0,0],[1,3],[0]]","10","0","","","","","","6","","","","","","","","",""
"","","","","","single-stim-button","180","696154","0.0-2.0-40.8-0.8","629feb5b41542f049572e04c","D2","batch4","","1841","tol_tohand","","","","tol_peg_2","1841","1841","0","[[1,0,0],[0,0],[3]]","9","[[2,0,0],[1,3],[0]]","10","0","","","","","","6","","","","","","","","",""
"","","","","","single-stim-button","181","700258","0.0-2.0-40.8-1.8","629feb5b41542f049572e04c","D2","batch4","","4094","tol_toboard","","","","tol_peg_2","4094","4094","0","[[1,0,0],[2,0],[3]]","9","[[2,0,0],[1,3],[0]]","10","0","","","","","","6","","","","","","","","",""
"","","","","","single-stim-button","182","708469","0.0-2.0-40.9-0.9","629feb5b41542f049572e04c","D2","batch4","","8205","tol_tohand","","","","tol_peg_2","8205","8205","0","[[1,0,0],[0,0],[3]]","10","[[2,0,0],[1,3],[0]]","10","0","","","","","","6","","","","","","","","",""
"","","","","","single-stim-button","183","710202","0.0-2.0-40.9-1.9","629feb5b41542f049572e04c","D2","batch4","","1723","tol_toboard","","","","tol_peg_1","1723","1723","0","[[1,2,0],[0,0],[3]]","10","[[2,0,0],[1,3],[0]]","10","0","","","","","","6","","","","","","","","",""
"","","","","","single-stim-button","184","713932","0.0-2.0-40.10-0.10","629feb5b41542f049572e04c","D2","batch4","","3725","tol_tohand","","","","tol_peg_3","3725","3725","0","[[1,2,0],[0,0],[0]]","11","[[2,0,0],[1,3],[0]]","10","0","","","","","","6","","","","","","","","",""
"","","","","","single-stim-button","185","715511","0.0-2.0-40.10-1.10","629feb5b41542f049572e04c","D2","batch4","","1573","tol_toboard","","","","tol_peg_2","1573","1573","0","[[1,2,0],[3,0],[0]]","11","[[2,0,0],[1,3],[0]]","10","0","","","","","","6","","","","","","","","",""
"","","","","","single-stim-button","186","718359","0.0-2.0-40.11-0.11","629feb5b41542f049572e04c","D2","batch4","","2838","tol_tohand","","","","tol_peg_1","2838","2838","0","[[1,0,0],[3,0],[0]]","12","[[2,0,0],[1,3],[0]]","10","0","","","","","","6","","","","","","","","",""
"","","","","","single-stim-button","187","719710","0.0-2.0-40.11-1.11","629feb5b41542f049572e04c","D2","batch4","","1345","tol_toboard","","","","tol_peg_3","1345","1345","0","[[1,0,0],[3,0],[2]]","12","[[2,0,0],[1,3],[0]]","10","0","","","","","","6","","","","","","","","",""
"","","","","","single-stim-button","188","720701","0.0-2.0-40.12-0.12","629feb5b41542f049572e04c","D2","batch4","","985","tol_tohand","","","","tol_peg_1","985","985","0","[[0,0,0],[3,0],[2]]","13","[[2,0,0],[1,3],[0]]","10","0","","","","","","6","","","","","","","","",""
"","","","","","single-stim-button","189","722231","0.0-2.0-40.12-1.12","629feb5b41542f049572e04c","D2","batch4","","1523","tol_toboard","","","","tol_peg_2","1523","1523","0","[[0,0,0],[3,1],[2]]","13","[[2,0,0],[1,3],[0]]","10","0","","","","","","6","","","","","","","","",""
"","","","","","single-stim-button","190","723256","0.0-2.0-40.13-0.13","629feb5b41542f049572e04c","D2","batch4","","1020","tol_tohand","","","","tol_peg_3","1020","1020","0","[[0,0,0],[3,1],[0]]","14","[[2,0,0],[1,3],[0]]","10","0","","","","","","6","","","","","","","","",""
"","","","","","single-stim-button","191","726131","0.0-2.0-40.13-1.13","629feb5b41542f049572e04c","D2","batch4","","2867","tol_toboard","","","","tol_peg_1","2867","2867","0","[[2,0,0],[3,1],[0]]","14","[[2,0,0],[1,3],[0]]","10","0","","","","","","6","","","","","","","","",""
"","","","","","single-stim-button","192","727202","0.0-2.0-40.14-0.14","629feb5b41542f049572e04c","D2","batch4","","1065","tol_tohand","","","","tol_peg_2","1065","1065","0","[[2,0,0],[3,0],[0]]","15","[[2,0,0],[1,3],[0]]","10","0","","","","","","6","","","","","","","","",""
"","","","","","single-stim-button","193","729226","0.0-2.0-40.14-1.14","629feb5b41542f049572e04c","D2","batch4","","2015","tol_toboard","","","","tol_peg_1","2015","2015","0","[[2,1,0],[3,0],[0]]","15","[[2,0,0],[1,3],[0]]","10","0","","","","","","6","","","","","","","","",""
"","","","","","single-stim-button","194","730399","0.0-2.0-40.15-0.15","629feb5b41542f049572e04c","D2","batch4","","1167","tol_tohand","","","","tol_peg_2","1167","1167","0","[[2,1,0],[0,0],[0]]","16","[[2,0,0],[1,3],[0]]","10","0","","","","","","6","","","","","","","","",""
"","","","","","single-stim-button","195","732180","0.0-2.0-40.15-1.15","629feb5b41542f049572e04c","D2","batch4","","1775","tol_toboard","","","","tol_peg_3","1775","1775","0","[[2,1,0],[0,0],[3]]","16","[[2,0,0],[1,3],[0]]","10","0","","","","","","6","","","","","","","","",""
"","","","","","single-stim-button","196","734081","0.0-2.0-40.16-0.16","629feb5b41542f049572e04c","D2","batch4","","1892","tol_tohand","","","","tol_peg_1","1892","1892","0","[[2,0,0],[0,0],[3]]","17","[[2,0,0],[1,3],[0]]","10","0","","","","","","6","","","","","","","","",""
"","","","","","single-stim-button","197","735516","0.0-2.0-40.16-1.16","629feb5b41542f049572e04c","D2","batch4","","1431","tol_toboard","","","","tol_peg_2","1431","1431","0","[[2,0,0],[1,0],[3]]","17","[[2,0,0],[1,3],[0]]","10","0","","","","","","6","","","","","","","","",""
"","","","","","single-stim-button","198","736994","0.0-2.0-40.17-0.17","629feb5b41542f049572e04c","D2","batch4","","1471","tol_tohand","","","","tol_peg_3","1471","1471","0","[[2,0,0],[1,0],[0]]","18","[[2,0,0],[1,3],[0]]","10","0","","","","","","6","","","","","","","","",""
"","","","","","single-stim-button","199","738645","0.0-2.0-40.17-1.17","629feb5b41542f049572e04c","D2","batch4","","1645","tol_toboard","","","","tol_peg_2","1645","1645","0","[[2,0,0],[1,3],[0]]","18","[[2,0,0],[1,3],[0]]","10","0","","","","","","6","","","","","","","","",""
"","","","","","poldrack-single-stim","200","739654","0.0-2.0-41.0","629feb5b41542f049572e04c","D2","batch4","","-1","tol_feedback","","","true","","1000","1000","500","","","","","","-1","none","true","64553","111773","","","","","","","","","",""
"","","","","","html-button-response","201","741598","0.0-2.0-42.0","629feb5b41542f049572e04c","D2","batch4","","1933.300000000745","tol_trial_num","<div class = centerbox><p class = center-block-text>problem <strong>12</strong> out of 25 problems</p></div>","0","","","","","","","","","","","","","","","","","","","","","","","","",""
"","","","","","single-stim-button","202","747747","0.0-2.0-43.0-0.0","629feb5b41542f049572e04c","D2","batch4","","6137","tol_tohand","","","","tol_peg_1","6137","6137","0","[[1,0,0],[3,0],[0]]","1","[[2,3,0],[0,0],[1]]","11","0","","","","","","4","","","","","","","","",""
"","","","","","single-stim-button","203","748834","0.0-2.0-43.0-1.0","629feb5b41542f049572e04c","D2","batch4","","1083","tol_toboard","","","","tol_peg_2","1083","1083","0","[[1,0,0],[3,2],[0]]","1","[[2,3,0],[0,0],[1]]","11","0","","","","","","4","","","","","","","","",""
"","","","","","single-stim-button","204","749788","0.0-2.0-43.1-0.1","629feb5b41542f049572e04c","D2","batch4","","952","tol_tohand","","","","tol_peg_1","952","952","0","[[0,0,0],[3,2],[0]]","2","[[2,3,0],[0,0],[1]]","11","0","","","","","","4","","","","","","","","",""
"","","","","","single-stim-button","205","751537","0.0-2.0-43.1-1.1","629feb5b41542f049572e04c","D2","batch4","","1743","tol_toboard","","","","tol_peg_3","1743","1743","0","[[0,0,0],[3,2],[1]]","2","[[2,3,0],[0,0],[1]]","11","0","","","","","","4","","","","","","","","",""
"","","","","","single-stim-button","206","758922","0.0-2.0-43.2-0.2","629feb5b41542f049572e04c","D2","batch4","","7377","tol_tohand","","","","tol_peg_2","7377","7377","0","[[0,0,0],[3,0],[1]]","3","[[2,3,0],[0,0],[1]]","11","0","","","","","","4","","","","","","","","",""
"","","","","","single-stim-button","207","760407","0.0-2.0-43.2-1.2","629feb5b41542f049572e04c","D2","batch4","","1479","tol_toboard","","","","tol_peg_1","1479","1479","0","[[2,0,0],[3,0],[1]]","3","[[2,3,0],[0,0],[1]]","11","0","","","","","","4","","","","","","","","",""
"","","","","","single-stim-button","208","761515","0.0-2.0-43.3-0.3","629feb5b41542f049572e04c","D2","batch4","","1102","tol_tohand","","","","tol_peg_2","1102","1102","0","[[2,0,0],[0,0],[1]]","4","[[2,3,0],[0,0],[1]]","11","0","","","","","","4","","","","","","","","",""
"","","","","","single-stim-button","209","764273","0.0-2.0-43.3-1.3","629feb5b41542f049572e04c","D2","batch4","","2752","tol_toboard","","","","tol_peg_1","2752","2752","0","[[2,3,0],[0,0],[1]]","4","[[2,3,0],[0,0],[1]]","11","0","","","","","","4","","","","","","","","",""
"","","","","","poldrack-single-stim","210","765282","0.0-2.0-44.0","629feb5b41542f049572e04c","D2","batch4","","-1","tol_feedback","","","true","","1000","1000","500","","","","","","-1","none","true","6137","15568","","","","","","","","","",""
"","","","","","html-button-response","211","766555","0.0-2.0-45.0","629feb5b41542f049572e04c","D2","batch4","","1264","tol_trial_num","<div class = centerbox><p class = center-block-text>problem <strong>13</strong> out of 25 problems</p></div>","0","","","","","","","","","","","","","","","","","","","","","","","","",""
"","","","","","single-stim-button","212","770410","0.0-2.0-46.0-0.0","629feb5b41542f049572e04c","D2","batch4","","3849","tol_tohand","","","","tol_peg_2","3849","3849","0","[[1,2,0],[0,0],[0]]","1","[[0,0,0],[2,3],[1]]","12","0","","","","","","4","","","","","","","","",""
"","","","","","single-stim-button","213","772102","0.0-2.0-46.0-1.0","629feb5b41542f049572e04c","D2","batch4","","1683","tol_toboard","","","","tol_peg_3","1683","1683","0","[[1,2,0],[0,0],[3]]","1","[[0,0,0],[2,3],[1]]","12","0","","","","","","4","","","","","","","","",""
"","","","","","single-stim-button","214","772892","0.0-2.0-46.1-0.1","629feb5b41542f049572e04c","D2","batch4","","786","tol_tohand","","","","tol_peg_1","786","786","0","[[1,0,0],[0,0],[3]]","2","[[0,0,0],[2,3],[1]]","12","0","","","","","","4","","","","","","","","",""
"","","","","","single-stim-button","215","773854","0.0-2.0-46.1-1.1","629feb5b41542f049572e04c","D2","batch4","","957","tol_toboard","","","","tol_peg_2","957","957","0","[[1,0,0],[2,0],[3]]","2","[[0,0,0],[2,3],[1]]","12","0","","","","","","4","","","","","","","","",""
"","","","","","single-stim-button","216","774880","0.0-2.0-46.2-0.2","629feb5b41542f049572e04c","D2","batch4","","1020","tol_tohand","","","","tol_peg_3","1020","1020","0","[[1,0,0],[2,0],[0]]","3","[[0,0,0],[2,3],[1]]","12","0","","","","","","4","","","","","","","","",""
"","","","","","single-stim-button","217","776589","0.0-2.0-46.2-1.2","629feb5b41542f049572e04c","D2","batch4","","1700","tol_toboard","","","","tol_peg_2","1700","1700","0","[[1,0,0],[2,3],[0]]","3","[[0,0,0],[2,3],[1]]","12","0","","","","","","4","","","","","","","","",""
"","","","","","single-stim-button","218","778033","0.0-2.0-46.3-0.3","629feb5b41542f049572e04c","D2","batch4","","1438","tol_tohand","","","","tol_peg_1","1438","1438","0","[[0,0,0],[2,3],[0]]","4","[[0,0,0],[2,3],[1]]","12","0","","","","","","4","","","","","","","","",""
"","","","","","single-stim-button","219","779304","0.0-2.0-46.3-1.3","629feb5b41542f049572e04c","D2","batch4","","1268","tol_toboard","","","","tol_peg_3","1268","1268","0","[[0,0,0],[2,3],[1]]","4","[[0,0,0],[2,3],[1]]","12","0","","","","","","4","","","","","","","","",""
"","","","","","poldrack-single-stim","220","780314","0.0-2.0-47.0","629feb5b41542f049572e04c","D2","batch4","","-1","tol_feedback","","","true","","1000","1000","500","","","","","","-1","none","true","3849","7093","","","","","","","","","",""
"","","","","","html-button-response","221","783192","0.0-2.0-48.0","629feb5b41542f049572e04c","D2","batch4","","2868","attention_check","<p class = block-text>How many balls are in your board<br></p>","1","true","","","","","","","","","","","","","","","","","","","","","","","",""
"","","","","","html-button-response","222","784779","0.0-2.0-49.0","629feb5b41542f049572e04c","D2","batch4","","1579.5","tol_trial_num","<div class = centerbox><p class = center-block-text>problem <strong>14</strong> out of 25 problems</p></div>","0","","","","","","","","","","","","","","","","","","","","","","","","",""
"","","","","","single-stim-button","223","790436","0.0-2.0-50.0-0.0","629feb5b41542f049572e04c","D2","batch4","","5647","tol_tohand","","","","tol_peg_1","5647","5647","0","[[2,0,0],[3,0],[0]]","1","[[1,2,0],[3,0],[0]]","13","0","","","","","","4","","","","","","","","",""
"","","","","","single-stim-button","224","791593","0.0-2.0-50.0-1.0","629feb5b41542f049572e04c","D2","batch4","","1151","tol_toboard","","","","tol_peg_3","1151","1151","0","[[2,0,0],[3,0],[1]]","1","[[1,2,0],[3,0],[0]]","13","0","","","","","","4","","","","","","","","",""
"","","","","","single-stim-button","225","793391","0.0-2.0-50.1-0.1","629feb5b41542f049572e04c","D2","batch4","","1794","tol_tohand","","","","tol_peg_1","1794","1794","0","[[0,0,0],[3,0],[1]]","2","[[1,2,0],[3,0],[0]]","13","0","","","","","","4","","","","","","","","",""
"","","","","","single-stim-button","226","795228","0.0-2.0-50.1-1.1","629feb5b41542f049572e04c","D2","batch4","","1832","tol_toboard","","","","tol_peg_2","1832","1832","0","[[0,0,0],[3,2],[1]]","2","[[1,2,0],[3,0],[0]]","13","0","","","","","","4","","","","","","","","",""
"","","","","","single-stim-button","227","796828","0.0-2.0-50.2-0.2","629feb5b41542f049572e04c","D2","batch4","","1594","tol_tohand","","","","tol_peg_3","1594","1594","0","[[0,0,0],[3,2],[0]]","3","[[1,2,0],[3,0],[0]]","13","0","","","","","","4","","","","","","","","",""
"","","","","","single-stim-button","228","798095","0.0-2.0-50.2-1.2","629feb5b41542f049572e04c","D2","batch4","","1259","tol_toboard","","","","tol_peg_1","1259","1259","0","[[1,0,0],[3,2],[0]]","3","[[1,2,0],[3,0],[0]]","13","0","","","","","","4","","","","","","","","",""
"","","","","","single-stim-button","229","800133","0.0-2.0-50.3-0.3","629feb5b41542f049572e04c","D2","batch4","","2029","tol_tohand","","","","tol_peg_2","2029","2029","0","[[1,0,0],[3,0],[0]]","4","[[1,2,0],[3,0],[0]]","13","0","","","","","","4","","","","","","","","",""
"","","","","","single-stim-button","230","801345","0.0-2.0-50.3-1.3","629feb5b41542f049572e04c","D2","batch4","","1205","tol_toboard","","","","tol_peg_1","1205","1205","0","[[1,2,0],[3,0],[0]]","4","[[1,2,0],[3,0],[0]]","13","0","","","","","","4","","","","","","","","",""
"","","","","","poldrack-single-stim","231","802350","0.0-2.0-51.0","629feb5b41542f049572e04c","D2","batch4","","-1","tol_feedback","","","true","","1000","1000","500","","","","","","-1","none","true","5647","11064","","","","","","","","","",""
"","","","","","html-button-response","232","803880","0.0-2.0-52.0","629feb5b41542f049572e04c","D2","batch4","","1525.800000000745","tol_trial_num","<div class = centerbox><p class = center-block-text>problem <strong>15</strong> out of 25 problems</p></div>","0","","","","","","","","","","","","","","","","","","","","","","","","",""
"","","","","","single-stim-button","233","809423","0.0-2.0-53.0-0.0","629feb5b41542f049572e04c","D2","batch4","","5534","tol_tohand","","","","tol_peg_1","5534","5534","0","[[1,0,0],[3,0],[0]]","1","[[2,0,0],[3,0],[1]]","14","0","","","","","","3","","","","","","","","",""
"","","","","","single-stim-button","234","811443","0.0-2.0-53.0-1.0","629feb5b41542f049572e04c","D2","batch4","","2012","tol_toboard","","","","tol_peg_2","2012","2012","0","[[1,0,0],[3,2],[0]]","1","[[2,0,0],[3,0],[1]]","14","0","","","","","","3","","","","","","","","",""
"","","","","","single-stim-button","235","812303","0.0-2.0-53.1-0.1","629feb5b41542f049572e04c","D2","batch4","","856","tol_tohand","","","","tol_peg_1","856","856","0","[[0,0,0],[3,2],[0]]","2","[[2,0,0],[3,0],[1]]","14","0","","","","","","3","","","","","","","","",""
"","","","","","single-stim-button","236","813989","0.0-2.0-53.1-1.1","629feb5b41542f049572e04c","D2","batch4","","1681","tol_toboard","","","","tol_peg_3","1681","1681","0","[[0,0,0],[3,2],[1]]","2","[[2,0,0],[3,0],[1]]","14","0","","","","","","3","","","","","","","","",""
"","","","","","single-stim-button","237","814892","0.0-2.0-53.2-0.2","629feb5b41542f049572e04c","D2","batch4","","898","tol_tohand","","","","tol_peg_2","898","898","0","[[0,0,0],[3,0],[1]]","3","[[2,0,0],[3,0],[1]]","14","0","","","","","","3","","","","","","","","",""
"","","","","","single-stim-button","238","815865","0.0-2.0-53.2-1.2","629feb5b41542f049572e04c","D2","batch4","","965","tol_toboard","","","","tol_peg_1","965","965","0","[[2,0,0],[3,0],[1]]","3","[[2,0,0],[3,0],[1]]","14","0","","","","","","3","","","","","","","","",""
"","","","","","poldrack-single-stim","239","816873","0.0-2.0-54.0","629feb5b41542f049572e04c","D2","batch4","","-1","tol_feedback","","","true","","1000","1000","500","","","","","","-1","none","true","5534","7288","","","","","","","","","",""
"","","","","","html-button-response","240","818084","0.0-2.0-55.0","629feb5b41542f049572e04c","D2","batch4","","1203","tol_trial_num","<div class = centerbox><p class = center-block-text>problem <strong>16</strong> out of 25 problems</p></div>","0","","","","","","","","","","","","","","","","","","","","","","","","",""
"","","","","","single-stim-button","241","830467","0.0-2.0-56.0-0.0","629feb5b41542f049572e04c","D2","batch4","","12374","tol_tohand","","","","tol_peg_3","12374","12374","0","[[0,0,0],[2,3],[0]]","1","[[2,3,0],[1,0],[0]]","15","0","","","","","","7","","","","","","","","",""
"","","","","","single-stim-button","242","832844","0.0-2.0-56.0-1.0","629feb5b41542f049572e04c","D2","batch4","","2366","tol_toboard","","","","tol_peg_1","2366","2366","0","[[1,0,0],[2,3],[0]]","1","[[2,3,0],[1,0],[0]]","15","0","","","","","","7","","","","","","","","",""
"","","","","","single-stim-button","243","834792","0.0-2.0-56.1-0.1","629feb5b41542f049572e04c","D2","batch4","","1941","tol_tohand","","","","tol_peg_2","1941","1941","0","[[1,0,0],[2,0],[0]]","2","[[2,3,0],[1,0],[0]]","15","0","","","","","","7","","","","","","","","",""
"","","","","","single-stim-button","244","836338","0.0-2.0-56.1-1.1","629feb5b41542f049572e04c","D2","batch4","","1541","tol_toboard","","","","tol_peg_3","1541","1541","0","[[1,0,0],[2,0],[3]]","2","[[2,3,0],[1,0],[0]]","15","0","","","","","","7","","","","","","","","",""
"","","","","","single-stim-button","245","852904","0.0-2.0-56.2-0.2","629feb5b41542f049572e04c","D2","batch4","","16560","tol_tohand","","","","tol_peg_1","16560","16560","0","[[0,0,0],[2,0],[3]]","3","[[2,3,0],[1,0],[0]]","15","0","","","","","","7","","","","","","","","",""
"","","","","","single-stim-button","246","855350","0.0-2.0-56.2-1.2","629feb5b41542f049572e04c","D2","batch4","","2436","tol_toboard","","","","tol_peg_2","2436","2436","0","[[0,0,0],[2,1],[3]]","3","[[2,3,0],[1,0],[0]]","15","0","","","","","","7","","","","","","","","",""
"","","","","","single-stim-button","247","857159","0.0-2.0-56.3-0.3","629feb5b41542f049572e04c","D2","batch4","","1802","tol_tohand","","","","tol_peg_3","1802","1802","0","[[0,0,0],[2,1],[0]]","4","[[2,3,0],[1,0],[0]]","15","0","","","","","","7","","","","","","","","",""
"","","","","","single-stim-button","248","858941","0.0-2.0-56.3-1.3","629feb5b41542f049572e04c","D2","batch4","","1778","tol_toboard","","","","tol_peg_1","1778","1778","0","[[3,0,0],[2,1],[0]]","4","[[2,3,0],[1,0],[0]]","15","0","","","","","","7","","","","","","","","",""
"","","","","","single-stim-button","249","859987","0.0-2.0-56.4-0.4","629feb5b41542f049572e04c","D2","batch4","","1039","tol_tohand","","","","tol_peg_2","1039","1039","0","[[3,0,0],[2,0],[0]]","5","[[2,3,0],[1,0],[0]]","15","0","","","","","","7","","","","","","","","",""
"","","","","","single-stim-button","250","862494","0.0-2.0-56.4-1.4","629feb5b41542f049572e04c","D2","batch4","","2499","tol_toboard","","","","tol_peg_3","2499","2499","0","[[3,0,0],[2,0],[1]]","5","[[2,3,0],[1,0],[0]]","15","0","","","","","","7","","","","","","","","",""
"","","","","","single-stim-button","251","864215","0.0-2.0-56.5-0.5","629feb5b41542f049572e04c","D2","batch4","","1716","tol_tohand","","","","tol_peg_2","1716","1716","0","[[3,0,0],[0,0],[1]]","6","[[2,3,0],[1,0],[0]]","15","0","","","","","","7","","","","","","","","",""
"","","","","","single-stim-button","252","865702","0.0-2.0-56.5-1.5","629feb5b41542f049572e04c","D2","batch4","","1480","tol_toboard","","","","tol_peg_1","1480","1480","0","[[3,2,0],[0,0],[1]]","6","[[2,3,0],[1,0],[0]]","15","0","","","","","","7","","","","","","","","",""
"","","","","","single-stim-button","253","867391","0.0-2.0-56.6-0.6","629feb5b41542f049572e04c","D2","batch4","","1678","tol_tohand","","","","tol_peg_3","1678","1678","0","[[3,2,0],[0,0],[0]]","7","[[2,3,0],[1,0],[0]]","15","0","","","","","","7","","","","","","","","",""
"","","","","","single-stim-button","254","868346","0.0-2.0-56.6-1.6","629feb5b41542f049572e04c","D2","batch4","","950","tol_toboard","","","","tol_peg_2","950","950","0","[[3,2,0],[1,0],[0]]","7","[[2,3,0],[1,0],[0]]","15","0","","","","","","7","","","","","","","","",""
"","","","","","single-stim-button","255","869896","0.0-2.0-56.7-0.7","629feb5b41542f049572e04c","D2","batch4","","1542","tol_tohand","","","","tol_peg_1","1542","1542","0","[[3,0,0],[1,0],[0]]","8","[[2,3,0],[1,0],[0]]","15","0","","","","","","7","","","","","","","","",""
"","","","","","single-stim-button","256","871955","0.0-2.0-56.7-1.7","629feb5b41542f049572e04c","D2","batch4","","2055","tol_toboard","","","","tol_peg_2","2055","2055","0","[[3,0,0],[1,2],[0]]","8","[[2,3,0],[1,0],[0]]","15","0","","","","","","7","","","","","","","","",""
"","","","","","single-stim-button","257","873986","0.0-2.0-56.8-0.8","629feb5b41542f049572e04c","D2","batch4","","2026","tol_tohand","","","","tol_peg_1","2026","2026","0","[[0,0,0],[1,2],[0]]","9","[[2,3,0],[1,0],[0]]","15","0","","","","","","7","","","","","","","","",""
"","","","","","single-stim-button","258","876148","0.0-2.0-56.8-1.8","629feb5b41542f049572e04c","D2","batch4","","2160","tol_toboard","","","","tol_peg_3","2160","2160","0","[[0,0,0],[1,2],[3]]","9","[[2,3,0],[1,0],[0]]","15","0","","","","","","7","","","","","","","","",""
"","","","","","single-stim-button","259","876694","0.0-2.0-56.9-0.9","629feb5b41542f049572e04c","D2","batch4","","544","tol_tohand","","","","tol_peg_2","544","544","0","[[0,0,0],[1,0],[3]]","10","[[2,3,0],[1,0],[0]]","15","0","","","","","","7","","","","","","","","",""
"","","","","","single-stim-button","260","877142","0.0-2.0-56.9-1.9","629feb5b41542f049572e04c","D2","batch4","","445","tol_toboard","","","","tol_peg_1","445","445","0","[[2,0,0],[1,0],[3]]","10","[[2,3,0],[1,0],[0]]","15","0","","","","","","7","","","","","","","","",""
"","","","","","single-stim-button","261","877861","0.0-2.0-56.10-0.10","629feb5b41542f049572e04c","D2","batch4","","714","tol_tohand","","","","tol_peg_3","714","714","0","[[2,0,0],[1,0],[0]]","11","[[2,3,0],[1,0],[0]]","15","0","","","","","","7","","","","","","","","",""
"","","","","","single-stim-button","262","878364","0.0-2.0-56.10-1.10","629feb5b41542f049572e04c","D2","batch4","","500","tol_toboard","","","","tol_peg_1","500","500","0","[[2,3,0],[1,0],[0]]","11","[[2,3,0],[1,0],[0]]","15","0","","","","","","7","","","","","","","","",""
"","","","","","poldrack-single-stim","263","879373","0.0-2.0-57.0","629feb5b41542f049572e04c","D2","batch4","","-1","tol_feedback","","","true","","1000","1000","500","","","","","","-1","none","true","12374","41936","","","","","","","","","",""
"","","","","","html-button-response","264","880322","0.0-2.0-58.0","629feb5b41542f049572e04c","D2","batch4","","944.1000000014901","tol_trial_num","<div class = centerbox><p class = center-block-text>problem <strong>17</strong> out of 25 problems</p></div>","0","","","","","","","","","","","","","","","","","","","","","","","","",""
"","","","","","single-stim-button","265","883022","0.0-2.0-59.0-0.0","629feb5b41542f049572e04c","D2","batch4","","2696","tol_tohand","","","","tol_peg_2","2696","2696","0","[[1,2,0],[0,0],[0]]","1","[[3,1,0],[2,0],[0]]","16","0","","","","","","5","","","","","","","","",""
"","","","","","single-stim-button","266","883624","0.0-2.0-59.0-1.0","629feb5b41542f049572e04c","D2","batch4","","600","tol_toboard","","","","tol_peg_3","600","600","0","[[1,2,0],[0,0],[3]]","1","[[3,1,0],[2,0],[0]]","16","0","","","","","","5","","","","","","","","",""
"","","","","","single-stim-button","267","884060","0.0-2.0-59.1-0.1","629feb5b41542f049572e04c","D2","batch4","","434","tol_tohand","","","","tol_peg_1","434","434","0","[[1,0,0],[0,0],[3]]","2","[[3,1,0],[2,0],[0]]","16","0","","","","","","5","","","","","","","","",""
"","","","","","single-stim-button","268","884466","0.0-2.0-59.1-1.1","629feb5b41542f049572e04c","D2","batch4","","404","tol_toboard","","","","tol_peg_2","404","404","0","[[1,0,0],[2,0],[3]]","2","[[3,1,0],[2,0],[0]]","16","0","","","","","","5","","","","","","","","",""
"","","","","","single-stim-button","269","885884","0.0-2.0-59.2-0.2","629feb5b41542f049572e04c","D2","batch4","","1417","tol_tohand","","","","tol_peg_1","1417","1417","0","[[0,0,0],[2,0],[3]]","3","[[3,1,0],[2,0],[0]]","16","0","","","","","","5","","","","","","","","",""
"","","","","","single-stim-button","270","886235","0.0-2.0-59.2-1.2","629feb5b41542f049572e04c","D2","batch4","","349","tol_toboard","","","","tol_peg_2","349","349","0","[[0,0,0],[2,1],[3]]","3","[[3,1,0],[2,0],[0]]","16","0","","","","","","5","","","","","","","","",""
"","","","","","single-stim-button","271","887398","0.0-2.0-59.3-0.3","629feb5b41542f049572e04c","D2","batch4","","1161","tol_tohand","","","","tol_peg_3","1161","1161","0","[[0,0,0],[2,1],[0]]","4","[[3,1,0],[2,0],[0]]","16","0","","","","","","5","","","","","","","","",""
"","","","","","single-stim-button","272","887779","0.0-2.0-59.3-1.3","629feb5b41542f049572e04c","D2","batch4","","380","tol_toboard","","","","tol_peg_1","380","380","0","[[3,0,0],[2,1],[0]]","4","[[3,1,0],[2,0],[0]]","16","0","","","","","","5","","","","","","","","",""
"","","","","","single-stim-button","273","888152","0.0-2.0-59.4-0.4","629feb5b41542f049572e04c","D2","batch4","","370","tol_tohand","","","","tol_peg_2","370","370","0","[[3,0,0],[2,0],[0]]","5","[[3,1,0],[2,0],[0]]","16","0","","","","","","5","","","","","","","","",""
"","","","","","single-stim-button","274","888447","0.0-2.0-59.4-1.4","629feb5b41542f049572e04c","D2","batch4","","293","tol_toboard","","","","tol_peg_1","293","293","0","[[3,1,0],[2,0],[0]]","5","[[3,1,0],[2,0],[0]]","16","0","","","","","","5","","","","","","","","",""
"","","","","","poldrack-single-stim","275","889452","0.0-2.0-60.0","629feb5b41542f049572e04c","D2","batch4","","-1","tol_feedback","","","true","","1000","1000","500","","","","","","-1","none","true","2696","6078","","","","","","","","","",""
"","","","","","html-button-response","276","890254","0.0-2.0-61.0","629feb5b41542f049572e04c","D2","batch4","","795.1000000014901","tol_trial_num","<div class = centerbox><p class = center-block-text>problem <strong>18</strong> out of 25 problems</p></div>","0","","","","","","","","","","","","","","","","","","","","","","","","",""
"","","","","","single-stim-button","277","895680","0.0-2.0-62.0-0.0","629feb5b41542f049572e04c","D2","batch4","","5422","tol_tohand","","","","tol_peg_2","5422","5422","0","[[1,2,0],[0,0],[0]]","1","[[3,0,0],[2,0],[1]]","17","0","","","","","","5","","","","","","","","",""
"","","","","","single-stim-button","278","896038","0.0-2.0-62.0-1.0","629feb5b41542f049572e04c","D2","batch4","","352","tol_toboard","","","","tol_peg_3","352","352","0","[[1,2,0],[0,0],[3]]","1","[[3,0,0],[2,0],[1]]","17","0","","","","","","5","","","","","","","","",""
"","","","","","single-stim-button","279","896412","0.0-2.0-62.1-0.1","629feb5b41542f049572e04c","D2","batch4","","371","tol_tohand","","","","tol_peg_1","371","371","0","[[1,0,0],[0,0],[3]]","2","[[3,0,0],[2,0],[1]]","17","0","","","","","","5","","","","","","","","",""
"","","","","","single-stim-button","280","896830","0.0-2.0-62.1-1.1","629feb5b41542f049572e04c","D2","batch4","","416","tol_toboard","","","","tol_peg_2","416","416","0","[[1,0,0],[2,0],[3]]","2","[[3,0,0],[2,0],[1]]","17","0","","","","","","5","","","","","","","","",""
"","","","","","single-stim-button","281","898279","0.0-2.0-62.2-0.2","629feb5b41542f049572e04c","D2","batch4","","1446","tol_tohand","","","","tol_peg_1","1446","1446","0","[[0,0,0],[2,0],[3]]","3","[[3,0,0],[2,0],[1]]","17","0","","","","","","5","","","","","","","","",""
"","","","","","single-stim-button","282","898660","0.0-2.0-62.2-1.2","629feb5b41542f049572e04c","D2","batch4","","379","tol_toboard","","","","tol_peg_2","379","379","0","[[0,0,0],[2,1],[3]]","3","[[3,0,0],[2,0],[1]]","17","0","","","","","","5","","","","","","","","",""
"","","","","","single-stim-button","283","899984","0.0-2.0-62.3-0.3","629feb5b41542f049572e04c","D2","batch4","","1322","tol_tohand","","","","tol_peg_3","1322","1322","0","[[0,0,0],[2,1],[0]]","4","[[3,0,0],[2,0],[1]]","17","0","","","","","","5","","","","","","","","",""
"","","","","","single-stim-button","284","900368","0.0-2.0-62.3-1.3","629feb5b41542f049572e04c","D2","batch4","","381","tol_toboard","","","","tol_peg_1","381","381","0","[[3,0,0],[2,1],[0]]","4","[[3,0,0],[2,0],[1]]","17","0","","","","","","5","","","","","","","","",""
"","","","","","single-stim-button","285","900709","0.0-2.0-62.4-0.4","629feb5b41542f049572e04c","D2","batch4","","339","tol_tohand","","","","tol_peg_2","339","339","0","[[3,0,0],[2,0],[0]]","5","[[3,0,0],[2,0],[1]]","17","0","","","","","","5","","","","","","","","",""
"","","","","","single-stim-button","286","900960","0.0-2.0-62.4-1.4","629feb5b41542f049572e04c","D2","batch4","","249","tol_toboard","","","","tol_peg_3","249","249","0","[[3,0,0],[2,0],[1]]","5","[[3,0,0],[2,0],[1]]","17","0","","","","","","5","","","","","","","","",""
"","","","","","poldrack-single-stim","287","901967","0.0-2.0-63.0","629feb5b41542f049572e04c","D2","batch4","","-1","tol_feedback","","","true","","1000","1000","500","","","","","","-1","none","true","5422","8900","","","","","","","","","",""
"","","","","","html-button-response","288","903810","0.0-2.0-64.0","629feb5b41542f049572e04c","D2","batch4","","1838.199999999255","tol_trial_num","<div class = centerbox><p class = center-block-text>problem <strong>19</strong> out of 25 problems</p></div>","0","","","","","","","","","","","","","","","","","","","","","","","","",""
"","","","","","single-stim-button","289","905500","0.0-2.0-65.0-0.0","629feb5b41542f049572e04c","D2","batch4","","1686","tol_tohand","","","","tol_peg_2","1686","1686","0","[[1,2,0],[0,0],[0]]","1","[[0,0,0],[1,2],[3]]","18","0","","","","","","7","","","","","","","","",""
"","","","","","single-stim-button","290","906587","0.0-2.0-65.0-1.0","629feb5b41542f049572e04c","D2","batch4","","1083","tol_toboard","","","","tol_peg_3","1083","1083","0","[[1,2,0],[0,0],[3]]","1","[[0,0,0],[1,2],[3]]","18","0","","","","","","7","","","","","","","","",""
"","","","","","single-stim-button","291","913096","0.0-2.0-65.1-0.1","629feb5b41542f049572e04c","D2","batch4","","6506","tol_tohand","","","","tol_peg_1","6506","6506","0","[[1,0,0],[0,0],[3]]","2","[[0,0,0],[1,2],[3]]","18","0","","","","","","7","","","","","","","","",""
"","","","","","single-stim-button","292","913513","0.0-2.0-65.1-1.1","629feb5b41542f049572e04c","D2","batch4","","414","tol_toboard","","","","tol_peg_2","414","414","0","[[1,0,0],[2,0],[3]]","2","[[0,0,0],[1,2],[3]]","18","0","","","","","","7","","","","","","","","",""
"","","","","","single-stim-button","293","914534","0.0-2.0-65.2-0.2","629feb5b41542f049572e04c","D2","batch4","","1019","tol_tohand","","","","tol_peg_1","1019","1019","0","[[0,0,0],[2,0],[3]]","3","[[0,0,0],[1,2],[3]]","18","0","","","","","","7","","","","","","","","",""
"","","","","","single-stim-button","294","924336","0.0-2.0-65.2-1.2","629feb5b41542f049572e04c","D2","batch4","","9800","tol_toboard","","","","tol_peg_2","9800","9800","0","[[0,0,0],[2,1],[3]]","3","[[0,0,0],[1,2],[3]]","18","0","","","","","","7","","","","","","","","",""
"","","","","","single-stim-button","295","928126","0.0-2.0-65.3-0.3","629feb5b41542f049572e04c","D2","batch4","","3787","tol_tohand","","","","tol_peg_3","3787","3787","0","[[0,0,0],[2,1],[0]]","4","[[0,0,0],[1,2],[3]]","18","0","","","","","","7","","","","","","","","",""
"","","","","","single-stim-button","296","928723","0.0-2.0-65.3-1.3","629feb5b41542f049572e04c","D2","batch4","","595","tol_toboard","","","","tol_peg_1","595","595","0","[[3,0,0],[2,1],[0]]","4","[[0,0,0],[1,2],[3]]","18","0","","","","","","7","","","","","","","","",""
"","","","","","single-stim-button","297","929164","0.0-2.0-65.4-0.4","629feb5b41542f049572e04c","D2","batch4","","438","tol_tohand","","","","tol_peg_2","438","438","0","[[3,0,0],[2,0],[0]]","5","[[0,0,0],[1,2],[3]]","18","0","","","","","","7","","","","","","","","",""
"","","","","","single-stim-button","298","929641","0.0-2.0-65.4-1.4","629feb5b41542f049572e04c","D2","batch4","","473","tol_toboard","","","","tol_peg_3","473","473","0","[[3,0,0],[2,0],[1]]","5","[[0,0,0],[1,2],[3]]","18","0","","","","","","7","","","","","","","","",""
"","","","","","single-stim-button","299","936750","0.0-2.0-65.5-0.5","629feb5b41542f049572e04c","D2","batch4","","7107","tol_tohand","","","","tol_peg_2","7107","7107","0","[[3,0,0],[0,0],[1]]","6","[[0,0,0],[1,2],[3]]","18","0","","","","","","7","","","","","","","","",""
"","","","","","single-stim-button","300","937817","0.0-2.0-65.5-1.5","629feb5b41542f049572e04c","D2","batch4","","1063","tol_toboard","","","","tol_peg_1","1063","1063","0","[[3,2,0],[0,0],[1]]","6","[[0,0,0],[1,2],[3]]","18","0","","","","","","7","","","","","","","","",""
"","","","","","single-stim-button","301","938168","0.0-2.0-65.6-0.6","629feb5b41542f049572e04c","D2","batch4","","347","tol_tohand","","","","tol_peg_3","347","347","0","[[3,2,0],[0,0],[0]]","7","[[0,0,0],[1,2],[3]]","18","0","","","","","","7","","","","","","","","",""
"","","","","","single-stim-button","302","938550","0.0-2.0-65.6-1.6","629feb5b41542f049572e04c","D2","batch4","","379","tol_toboard","","","","tol_peg_2","379","379","0","[[3,2,0],[1,0],[0]]","7","[[0,0,0],[1,2],[3]]","18","0","","","","","","7","","","","","","","","",""
"","","","","","single-stim-button","303","938928","0.0-2.0-65.7-0.7","629feb5b41542f049572e04c","D2","batch4","","376","tol_tohand","","","","tol_peg_1","376","376","0","[[3,0,0],[1,0],[0]]","8","[[0,0,0],[1,2],[3]]","18","0","","","","","","7","","","","","","","","",""
"","","","","","single-stim-button","304","939362","0.0-2.0-65.7-1.7","629feb5b41542f049572e04c","D2","batch4","","430","tol_toboard","","","","tol_peg_2","430","430","0","[[3,0,0],[1,2],[0]]","8","[[0,0,0],[1,2],[3]]","18","0","","","","","","7","","","","","","","","",""
"","","","","","single-stim-button","305","939708","0.0-2.0-65.8-0.8","629feb5b41542f049572e04c","D2","batch4","","343","tol_tohand","","","","tol_peg_1","343","343","0","[[0,0,0],[1,2],[0]]","9","[[0,0,0],[1,2],[3]]","18","0","","","","","","7","","","","","","","","",""
"","","","","","single-stim-button","306","941016","0.0-2.0-65.8-1.8","629feb5b41542f049572e04c","D2","batch4","","1304","tol_toboard","","","","tol_peg_3","1304","1304","0","[[0,0,0],[1,2],[3]]","9","[[0,0,0],[1,2],[3]]","18","0","","","","","","7","","","","","","","","",""
"","","","","","poldrack-single-stim","307","942023","0.0-2.0-66.0","629feb5b41542f049572e04c","D2","batch4","","-1","tol_feedback","","","true","","1000","1000","500","","","","","","-1","none","true","1686","21609","","","","","","","","","",""
"","","","","","html-button-response","308","943181","0.0-2.0-67.0","629feb5b41542f049572e04c","D2","batch4","","1152.3999999985099","tol_trial_num","<div class = centerbox><p class = center-block-text>problem <strong>20</strong> out of 25 problems</p></div>","0","","","","","","","","","","","","","","","","","","","","","","","","",""
"","","","","","single-stim-button","309","950789","0.0-2.0-68.0-0.0","629feb5b41542f049572e04c","D2","batch4","","7605","tol_tohand","","","","tol_peg_2","7605","7605","0","[[1,2,0],[0,0],[0]]","1","[[2,1,0],[0,0],[3]]","19","0","","","","","","5","","","","","","","","",""
"","","","","","single-stim-button","310","951092","0.0-2.0-68.0-1.0","629feb5b41542f049572e04c","D2","batch4","","301","tol_toboard","","","","tol_peg_3","301","301","0","[[1,2,0],[0,0],[3]]","1","[[2,1,0],[0,0],[3]]","19","0","","","","","","5","","","","","","","","",""
"","","","","","single-stim-button","311","953315","0.0-2.0-68.1-0.1","629feb5b41542f049572e04c","D2","batch4","","2215","tol_tohand","","","","tol_peg_1","2215","2215","0","[[1,0,0],[0,0],[3]]","2","[[2,1,0],[0,0],[3]]","19","0","","","","","","5","","","","","","","","",""
"","","","","","single-stim-button","312","955158","0.0-2.0-68.1-1.1","629feb5b41542f049572e04c","D2","batch4","","1842","tol_toboard","","","","tol_peg_2","1842","1842","0","[[1,0,0],[2,0],[3]]","2","[[2,1,0],[0,0],[3]]","19","0","","","","","","5","","","","","","","","",""
"","","","","","single-stim-button","313","955716","0.0-2.0-68.2-0.2","629feb5b41542f049572e04c","D2","batch4","","552","tol_tohand","","","","tol_peg_1","552","552","0","[[0,0,0],[2,0],[3]]","3","[[2,1,0],[0,0],[3]]","19","0","","","","","","5","","","","","","","","",""
"","","","","","single-stim-button","314","959850","0.0-2.0-68.2-1.2","629feb5b41542f049572e04c","D2","batch4","","4131","tol_toboard","","","","tol_peg_2","4131","4131","0","[[0,0,0],[2,1],[3]]","3","[[2,1,0],[0,0],[3]]","19","0","","","","","","5","","","","","","","","",""
"","","","","","single-stim-button","315","961579","0.0-2.0-68.3-0.3","629feb5b41542f049572e04c","D2","batch4","","1727","tol_tohand","","","","tol_peg_3","1727","1727","0","[[0,0,0],[2,1],[0]]","4","[[2,1,0],[0,0],[3]]","19","0","","","","","","5","","","","","","","","",""
"","","","","","single-stim-button","316","963279","0.0-2.0-68.3-1.3","629feb5b41542f049572e04c","D2","batch4","","1698","tol_toboard","","","","tol_peg_1","1698","1698","0","[[3,0,0],[2,1],[0]]","4","[[2,1,0],[0,0],[3]]","19","0","","","","","","5","","","","","","","","",""
"","","","","","single-stim-button","317","965799","0.0-2.0-68.4-0.4","629feb5b41542f049572e04c","D2","batch4","","2517","tol_tohand","","","","tol_peg_2","2517","2517","0","[[3,0,0],[2,0],[0]]","5","[[2,1,0],[0,0],[3]]","19","0","","","","","","5","","","","","","","","",""
"","","","","","single-stim-button","318","966339","0.0-2.0-68.4-1.4","629feb5b41542f049572e04c","D2","batch4","","538","tol_toboard","","","","tol_peg_3","538","538","0","[[3,0,0],[2,0],[1]]","5","[[2,1,0],[0,0],[3]]","19","0","","","","","","5","","","","","","","","",""
"","","","","","single-stim-button","319","970381","0.0-2.0-68.5-0.5","629feb5b41542f049572e04c","D2","batch4","","4038","tol_tohand","","","","tol_peg_1","4038","4038","0","[[0,0,0],[2,0],[1]]","6","[[2,1,0],[0,0],[3]]","19","0","","","","","","5","","","","","","","","",""
"","","","","","single-stim-button","320","971164","0.0-2.0-68.5-1.5","629feb5b41542f049572e04c","D2","batch4","","782","tol_toboard","","","","tol_peg_2","782","782","0","[[0,0,0],[2,3],[1]]","6","[[2,1,0],[0,0],[3]]","19","0","","","","","","5","","","","","","","","",""
"","","","","","single-stim-button","321","975407","0.0-2.0-68.6-0.6","629feb5b41542f049572e04c","D2","batch4","","4240","tol_tohand","","","","tol_peg_2","4240","4240","0","[[0,0,0],[2,0],[1]]","7","[[2,1,0],[0,0],[3]]","19","0","","","","","","5","","","","","","","","",""
"","","","","","single-stim-button","322","977255","0.0-2.0-68.6-1.6","629feb5b41542f049572e04c","D2","batch4","","1846","tol_toboard","","","","tol_peg_1","1846","1846","0","[[3,0,0],[2,0],[1]]","7","[[2,1,0],[0,0],[3]]","19","0","","","","","","5","","","","","","","","",""
"","","","","","single-stim-button","323","980432","0.0-2.0-68.7-0.7","629feb5b41542f049572e04c","D2","batch4","","3174","tol_tohand","","","","tol_peg_3","3174","3174","0","[[3,0,0],[2,0],[0]]","8","[[2,1,0],[0,0],[3]]","19","0","","","","","","5","","","","","","","","",""
"","","","","","single-stim-button","324","980941","0.0-2.0-68.7-1.7","629feb5b41542f049572e04c","D2","batch4","","507","tol_toboard","","","","tol_peg_2","507","507","0","[[3,0,0],[2,1],[0]]","8","[[2,1,0],[0,0],[3]]","19","0","","","","","","5","","","","","","","","",""
"","","","","","single-stim-button","325","981463","0.0-2.0-68.8-0.8","629feb5b41542f049572e04c","D2","batch4","","519","tol_tohand","","","","tol_peg_1","519","519","0","[[0,0,0],[2,1],[0]]","9","[[2,1,0],[0,0],[3]]","19","0","","","","","","5","","","","","","","","",""
"","","","","","single-stim-button","326","981938","0.0-2.0-68.8-1.8","629feb5b41542f049572e04c","D2","batch4","","472","tol_toboard","","","","tol_peg_3","472","472","0","[[0,0,0],[2,1],[3]]","9","[[2,1,0],[0,0],[3]]","19","0","","","","","","5","","","","","","","","",""
"","","","","","single-stim-button","327","983658","0.0-2.0-68.9-0.9","629feb5b41542f049572e04c","D2","batch4","","1718","tol_tohand","","","","tol_peg_2","1718","1718","0","[[0,0,0],[2,0],[3]]","10","[[2,1,0],[0,0],[3]]","19","0","","","","","","5","","","","","","","","",""
"","","","","","single-stim-button","328","986100","0.0-2.0-68.9-1.9","629feb5b41542f049572e04c","D2","batch4","","2440","tol_toboard","","","","tol_peg_1","2440","2440","0","[[1,0,0],[2,0],[3]]","10","[[2,1,0],[0,0],[3]]","19","0","","","","","","5","","","","","","","","",""
"","","","","","single-stim-button","329","986985","0.0-2.0-68.10-0.10","629feb5b41542f049572e04c","D2","batch4","","882","tol_tohand","","","","tol_peg_2","882","882","0","[[1,0,0],[0,0],[3]]","11","[[2,1,0],[0,0],[3]]","19","0","","","","","","5","","","","","","","","",""
"","","","","","single-stim-button","330","987506","0.0-2.0-68.10-1.10","629feb5b41542f049572e04c","D2","batch4","","518","tol_toboard","","","","tol_peg_1","518","518","0","[[1,2,0],[0,0],[3]]","11","[[2,1,0],[0,0],[3]]","19","0","","","","","","5","","","","","","","","",""
"","","","","","single-stim-button","331","988165","0.0-2.0-68.11-0.11","629feb5b41542f049572e04c","D2","batch4","","657","tol_tohand","","","","tol_peg_3","657","657","0","[[1,2,0],[0,0],[0]]","12","[[2,1,0],[0,0],[3]]","19","0","","","","","","5","","","","","","","","",""
"","","","","","single-stim-button","332","988848","0.0-2.0-68.11-1.11","629feb5b41542f049572e04c","D2","batch4","","680","tol_toboard","","","","tol_peg_2","680","680","0","[[1,2,0],[3,0],[0]]","12","[[2,1,0],[0,0],[3]]","19","0","","","","","","5","","","","","","","","",""
"","","","","","single-stim-button","333","989494","0.0-2.0-68.12-0.12","629feb5b41542f049572e04c","D2","batch4","","643","tol_tohand","","","","tol_peg_1","643","643","0","[[1,0,0],[3,0],[0]]","13","[[2,1,0],[0,0],[3]]","19","0","","","","","","5","","","","","","","","",""
"","","","","","single-stim-button","334","990019","0.0-2.0-68.12-1.12","629feb5b41542f049572e04c","D2","batch4","","522","tol_toboard","","","","tol_peg_3","522","522","0","[[1,0,0],[3,0],[2]]","13","[[2,1,0],[0,0],[3]]","19","0","","","","","","5","","","","","","","","",""
"","","","","","single-stim-button","335","990482","0.0-2.0-68.13-0.13","629feb5b41542f049572e04c","D2","batch4","","461","tol_tohand","","","","tol_peg_1","461","461","0","[[0,0,0],[3,0],[2]]","14","[[2,1,0],[0,0],[3]]","19","0","","","","","","5","","","","","","","","",""
"","","","","","single-stim-button","336","990853","0.0-2.0-68.13-1.13","629feb5b41542f049572e04c","D2","batch4","","369","tol_toboard","","","","tol_peg_2","369","369","0","[[0,0,0],[3,1],[2]]","14","[[2,1,0],[0,0],[3]]","19","0","","","","","","5","","","","","","","","",""
"","","","","","single-stim-button","337","991186","0.0-2.0-68.14-0.14","629feb5b41542f049572e04c","D2","batch4","","331","tol_tohand","","","","tol_peg_3","331","331","0","[[0,0,0],[3,1],[0]]","15","[[2,1,0],[0,0],[3]]","19","0","","","","","","5","","","","","","","","",""
"","","","","","single-stim-button","338","992237","0.0-2.0-68.14-1.14","629feb5b41542f049572e04c","D2","batch4","","1047","tol_toboard","","","","tol_peg_1","1047","1047","0","[[2,0,0],[3,1],[0]]","15","[[2,1,0],[0,0],[3]]","19","0","","","","","","5","","","","","","","","",""
"","","","","","single-stim-button","339","993581","0.0-2.0-68.15-0.15","629feb5b41542f049572e04c","D2","batch4","","1343","tol_tohand","","","","tol_peg_2","1343","1343","0","[[2,0,0],[3,0],[0]]","16","[[2,1,0],[0,0],[3]]","19","0","","","","","","5","","","","","","","","",""
"","","","","","single-stim-button","340","994342","0.0-2.0-68.15-1.15","629feb5b41542f049572e04c","D2","batch4","","759","tol_toboard","","","","tol_peg_1","759","759","0","[[2,1,0],[3,0],[0]]","16","[[2,1,0],[0,0],[3]]","19","0","","","","","","5","","","","","","","","",""
"","","","","","single-stim-button","341","994633","0.0-2.0-68.16-0.16","629feb5b41542f049572e04c","D2","batch4","","288","tol_tohand","","","","tol_peg_2","288","288","0","[[2,1,0],[0,0],[0]]","17","[[2,1,0],[0,0],[3]]","19","0","","","","","","5","","","","","","","","",""
"","","","","","single-stim-button","342","995750","0.0-2.0-68.16-1.16","629feb5b41542f049572e04c","D2","batch4","","1115","tol_toboard","","","","tol_peg_3","1115","1115","0","[[2,1,0],[0,0],[3]]","17","[[2,1,0],[0,0],[3]]","19","0","","","","","","5","","","","","","","","",""
"","","","","","poldrack-single-stim","343","996757","0.0-2.0-69.0","629feb5b41542f049572e04c","D2","batch4","","-1","tol_feedback","","","true","","1000","1000","500","","","","","","-1","none","true","7605","32910","","","","","","","","","",""
"","","","","","html-button-response","344","997620","0.0-2.0-70.0","629feb5b41542f049572e04c","D2","batch4","","856.5","tol_trial_num","<div class = centerbox><p class = center-block-text>problem <strong>21</strong> out of 25 problems</p></div>","0","","","","","","","","","","","","","","","","","","","","","","","","",""
"","","","","","single-stim-button","345","1012875","0.0-2.0-71.0-0.0","629feb5b41542f049572e04c","D2","batch4","","15251","tol_tohand","","","","tol_peg_1","15251","15251","0","[[1,0,0],[3,0],[0]]","1","[[3,2,0],[0,0],[1]]","20","0","","","","","","6","","","","","","","","",""
"","","","","","single-stim-button","346","1017503","0.0-2.0-71.0-1.0","629feb5b41542f049572e04c","D2","batch4","","4626","tol_toboard","","","","tol_peg_1","4626","4626","0","[[1,2,0],[3,0],[0]]","1","[[3,2,0],[0,0],[1]]","20","0","","","","","","6","","","","","","","","",""
"","","","","","single-stim-button","347","1018052","0.0-2.0-71.1-0.1","629feb5b41542f049572e04c","D2","batch4","","546","tol_tohand","","","","tol_peg_2","546","546","0","[[1,2,0],[0,0],[0]]","2","[[3,2,0],[0,0],[1]]","20","0","","","","","","6","","","","","","","","",""
"","","","","","single-stim-button","348","1018429","0.0-2.0-71.1-1.1","629feb5b41542f049572e04c","D2","batch4","","375","tol_toboard","","","","tol_peg_3","375","375","0","[[1,2,0],[0,0],[3]]","2","[[3,2,0],[0,0],[1]]","20","0","","","","","","6","","","","","","","","",""
"","","","","","single-stim-button","349","1018875","0.0-2.0-71.2-0.2","629feb5b41542f049572e04c","D2","batch4","","443","tol_tohand","","","","tol_peg_1","443","443","0","[[1,0,0],[0,0],[3]]","3","[[3,2,0],[0,0],[1]]","20","0","","","","","","6","","","","","","","","",""
"","","","","","single-stim-button","350","1019218","0.0-2.0-71.2-1.2","629feb5b41542f049572e04c","D2","batch4","","341","tol_toboard","","","","tol_peg_2","341","341","0","[[1,0,0],[2,0],[3]]","3","[[3,2,0],[0,0],[1]]","20","0","","","","","","6","","","","","","","","",""
"","","","","","single-stim-button","351","1019600","0.0-2.0-71.3-0.3","629feb5b41542f049572e04c","D2","batch4","","380","tol_tohand","","","","tol_peg_1","380","380","0","[[0,0,0],[2,0],[3]]","4","[[3,2,0],[0,0],[1]]","20","0","","","","","","6","","","","","","","","",""
"","","","","","single-stim-button","352","1019982","0.0-2.0-71.3-1.3","629feb5b41542f049572e04c","D2","batch4","","380","tol_toboard","","","","tol_peg_2","380","380","0","[[0,0,0],[2,1],[3]]","4","[[3,2,0],[0,0],[1]]","20","0","","","","","","6","","","","","","","","",""
"","","","","","single-stim-button","353","1022148","0.0-2.0-71.4-0.4","629feb5b41542f049572e04c","D2","batch4","","2164","tol_tohand","","","","tol_peg_3","2164","2164","0","[[0,0,0],[2,1],[0]]","5","[[3,2,0],[0,0],[1]]","20","0","","","","","","6","","","","","","","","",""
"","","","","","single-stim-button","354","1023376","0.0-2.0-71.4-1.4","629feb5b41542f049572e04c","D2","batch4","","1226","tol_toboard","","","","tol_peg_1","1226","1226","0","[[3,0,0],[2,1],[0]]","5","[[3,2,0],[0,0],[1]]","20","0","","","","","","6","","","","","","","","",""
