"success","timeout","failed_images","failed_audio","failed_video","trial_type","trial_index","time_elapsed","internal_node_id","subject_id","study_id","session_id","view_history","rt","task","stimulus","response","correct","mouse_click","stim_duration","block_duration","timing_post_trial","current_position","tol_num_moves_made","tol_target","tol_problem_id","tol_rt","key_press","possible_responses","tol_correct","preplanning","tol_rt_per_trial","tol_min_moves","item","answer","spm_correct","spm_rt","fiar_detect_rt","fiar_detect_correct","total_correct_fiar_detect","post_trial_gap","choices"
"true","false","[]","[]","[]","preload","0","8575","0.0-0.0","62a2832342dd3f99e7cd6822","C3","batch3","","","","","","","","","","","","","","","","","","","","","","","","","","","","","",""
"true","","","","","fullscreen","1","30743","0.0-1.0-0.0","62a2832342dd3f99e7cd6822","C3","batch3","","","","","","","","","","","","","","","","","","","","","","","","","","","","","",""
"true","","","","","fullscreen","2","35013","0.0-2.0-0.0","62a2832342dd3f99e7cd6822","C3","batch3","","","","","","","","","","","","","","","","","","","","","","","","","","","","","",""
"","","","","","instructions","3","117341","0.0-2.0-1.0-0.0-0.0","62a2832342dd3f99e7cd6822","C3","batch3","[{""page_index"":0,""viewing_time"":8739.900000095367},{""page_index"":1,""viewing_time"":3948.5999999046326},{""page_index"":2,""viewing_time"":5310.100000023842},{""page_index"":3,""viewing_time"":9034.100000023842},{""page_index"":4,""viewing_time"":8291.5},{""page_index"":5,""viewing_time"":40152.200000047684},{""page_index"":6,""viewing_time"":6851.299999952316}]","82328","tol-instructions","","","","","","","","","","","","","","","","","","","","","","","","","","",""
"","","","","","html-button-response","4","118354","0.0-2.0-1.0-1.0-0.0","62a2832342dd3f99e7cd6822","C3","batch3","","1011.6000000238419","tol_enter_quiz","<p class=block-text> Let's answer a few questions <br>","0","","","","","","","","","","","","","","","","","","","","","","","","",""
"","","","","","html-button-response","5","128626","0.0-2.0-1.0-1.0-1.0","62a2832342dd3f99e7cd6822","C3","batch3","","10259.299999952316","tol_quiz","<p class = block-text>True or False: You can only move the ball on top of a peg. <br></p>","0","true","","","","","","","","","","","","","","","","","","","","","","","",""
"","","","","","html-button-response","6","129987","0.0-2.0-1.0-1.0-2.0","62a2832342dd3f99e7cd6822","C3","batch3","","1348.7000000476837","tol_quiz_feedback","<p class = block-text>Correct! You can only move the ball on top of a peg.</p>","0","","","","","","","","","","","","","","","","","","","","","","","","",""
"","","","","","html-button-response","7","137603","0.0-2.0-1.0-1.0-3.0","62a2832342dd3f99e7cd6822","C3","batch3","","7615.5","tol_quiz","<p class = block-text>True or False: You should try to match your board with the target board with fewest moves possible. <br></p>","0","true","","","","","","","","","","","","","","","","","","","","","","","",""
"","","","","","html-button-response","8","138323","0.0-2.0-1.0-1.0-4.0","62a2832342dd3f99e7cd6822","C3","batch3","","718.6999999284744","tol_quiz_feedback","<p class = block-text>Correct! </p>","0","","","","","","","","","","","","","","","","","","","","","","","","",""
"","","","","","html-button-response","9","143791","0.0-2.0-2.0","62a2832342dd3f99e7cd6822","C3","batch3","","5466.299999952316","","<p class=block-text> Now that you've understood the game, let's practice a few easier examples before we start!<br> <br>","0","","","","","","","","","","","","","","","","","","","","","","","","",""
"","","","","","single-stim-button","10","149193","0.0-2.0-3.0-0.0","62a2832342dd3f99e7cd6822","C3","batch3","","5400","tol_practice","","","","tol_peg_2","5400","5400","0","[[1,2,0],[0,0],[0]]","1","[[1,2,0],[0,0],[3]]","practice","5400","","","","","","","","","","","","","","",""
"","","","","","single-stim-button","11","150631","0.0-2.0-3.0-1.0","62a2832342dd3f99e7cd6822","C3","batch3","","1437","tol_practice","","","","tol_peg_3","1437","1437","0","[[1,2,0],[0,0],[3]]","1","[[1,2,0],[0,0],[3]]","practice","1437","","","","","","","","","","","","","","",""
"","","","","","poldrack-single-stim","12","151638","0.0-2.0-4.0","62a2832342dd3f99e7cd6822","C3","batch3","","-1","tol_feedback","","","true","","1000","1000","500","","","","","","-1","none","true","","0","","","","","","","","","",""
"","","","","","single-stim-button","13","154895","0.0-2.0-5.0-0.0","62a2832342dd3f99e7cd6822","C3","batch3","","3256","tol_practice","","","","tol_peg_1","3256","3256","0","[[1,0,0],[3,0],[0]]","2","[[0,0,0],[3,1],[2]]","practice","3256","","","","","","","","","","","","","","",""
"","","","","","single-stim-button","14","155941","0.0-2.0-5.0-1.0","62a2832342dd3f99e7cd6822","C3","batch3","","1045","tol_practice","","","","tol_peg_3","1045","1045","0","[[1,0,0],[3,0],[2]]","2","[[0,0,0],[3,1],[2]]","practice","1045","","","","","","","","","","","","","","",""
"","","","","","single-stim-button","15","156999","0.0-2.0-5.1-0.1","62a2832342dd3f99e7cd6822","C3","batch3","","1056","tol_practice","","","","tol_peg_1","1056","1056","0","[[0,0,0],[3,0],[2]]","3","[[0,0,0],[3,1],[2]]","practice","1056","","","","","","","","","","","","","","",""
"","","","","","single-stim-button","16","157708","0.0-2.0-5.1-1.1","62a2832342dd3f99e7cd6822","C3","batch3","","708","tol_practice","","","","tol_peg_2","708","708","0","[[0,0,0],[3,1],[2]]","3","[[0,0,0],[3,1],[2]]","practice","708","","","","","","","","","","","","","","",""
"","","","","","poldrack-single-stim","17","158710","0.0-2.0-6.0","62a2832342dd3f99e7cd6822","C3","batch3","","-1","tol_feedback","","","true","","1000","1000","500","","","","","","-1","none","true","","0","","","","","","","","","",""
"","","","","","single-stim-button","18","170263","0.0-2.0-7.0-0.0","62a2832342dd3f99e7cd6822","C3","batch3","","11552","tol_practice","","","","tol_peg_2","11552","11552","0","[[1,2,0],[0,0],[0]]","4","[[1,0,0],[2,0],[3]]","practice","11552","","","","","","","","","","","","","","",""
"","","","","","single-stim-button","19","170926","0.0-2.0-7.0-1.0","62a2832342dd3f99e7cd6822","C3","batch3","","663","tol_practice","","","","tol_peg_3","663","663","0","[[1,2,0],[0,0],[3]]","4","[[1,0,0],[2,0],[3]]","practice","663","","","","","","","","","","","","","","",""
"","","","","","single-stim-button","20","172085","0.0-2.0-7.1-0.1","62a2832342dd3f99e7cd6822","C3","batch3","","1158","tol_practice","","","","tol_peg_1","1158","1158","0","[[1,0,0],[0,0],[3]]","5","[[1,0,0],[2,0],[3]]","practice","1158","","","","","","","","","","","","","","",""
"","","","","","single-stim-button","21","172895","0.0-2.0-7.1-1.1","62a2832342dd3f99e7cd6822","C3","batch3","","809","tol_practice","","","","tol_peg_2","809","809","0","[[1,0,0],[2,0],[3]]","5","[[1,0,0],[2,0],[3]]","practice","809","","","","","","","","","","","","","","",""
"","","","","","poldrack-single-stim","22","173904","0.0-2.0-8.0","62a2832342dd3f99e7cd6822","C3","batch3","","-1","tol_feedback","","","true","","1000","1000","500","","","","","","-1","none","true","","0","","","","","","","","","",""
"","","","","","html-button-response","23","180489","0.0-2.0-9.0","62a2832342dd3f99e7cd6822","C3","batch3","","6584.899999976158","tol_instruction","<div class = centerbox><p class = center-block-text>Great job! You are done with practice trials<br>You are about to start official trials.<br> <br> Problem <strong>1</strong> out of 25 problems</p></div>","0","","","","","","","","","","","","","","","","","","","","","","","","",""
"","","","","","single-stim-button","24","193922","0.0-2.0-10.0-0.0","62a2832342dd3f99e7cd6822","C3","batch3","","12430","tol_tohand","","","","tol_peg_1","12430","12430","0","[[1,0,0],[3,0],[0]]","1","[[1,3,0],[2,0],[0]]","0","0","","","","","","3","","","","","","","","",""
"","","","","","single-stim-button","25","205397","0.0-2.0-10.0-1.0","62a2832342dd3f99e7cd6822","C3","batch3","","11474","tol_toboard","","","","tol_peg_3","11474","11474","0","[[1,0,0],[3,0],[2]]","1","[[1,3,0],[2,0],[0]]","0","0","","","","","","3","","","","","","","","",""
"","","","","","single-stim-button","26","206534","0.0-2.0-10.1-0.1","62a2832342dd3f99e7cd6822","C3","batch3","","1135","tol_tohand","","","","tol_peg_2","1135","1135","0","[[1,0,0],[0,0],[2]]","2","[[1,3,0],[2,0],[0]]","0","0","","","","","","3","","","","","","","","",""
"","","","","","single-stim-button","27","207411","0.0-2.0-10.1-1.1","62a2832342dd3f99e7cd6822","C3","batch3","","877","tol_toboard","","","","tol_peg_1","877","877","0","[[1,3,0],[0,0],[2]]","2","[[1,3,0],[2,0],[0]]","0","0","","","","","","3","","","","","","","","",""
"","","","","","single-stim-button","28","208367","0.0-2.0-10.2-0.2","62a2832342dd3f99e7cd6822","C3","batch3","","955","tol_tohand","","","","tol_peg_3","955","955","0","[[1,3,0],[0,0],[0]]","3","[[1,3,0],[2,0],[0]]","0","0","","","","","","3","","","","","","","","",""
"","","","","","single-stim-button","29","209222","0.0-2.0-10.2-1.2","62a2832342dd3f99e7cd6822","C3","batch3","","854","tol_toboard","","","","tol_peg_2","854","854","0","[[1,3,0],[2,0],[0]]","3","[[1,3,0],[2,0],[0]]","0","0","","","","","","3","","","","","","","","",""
"","","","","","poldrack-single-stim","30","210231","0.0-2.0-11.0","62a2832342dd3f99e7cd6822","C3","batch3","","-1","tol_feedback","","","true","","1000","1000","500","","","","","","-1","none","true","12430","14520","","","","","","","","","",""
"","","","","","html-button-response","31","213104","0.0-2.0-12.0","62a2832342dd3f99e7cd6822","C3","batch3","","2872.100000023842","tol_trial_num","<div class = centerbox><p class = center-block-text>problem <strong>2</strong> out of 25 problems</p></div>","0","","","","","","","","","","","","","","","","","","","","","","","","",""
"","","","","","single-stim-button","32","223488","0.0-2.0-13.0-0.0","62a2832342dd3f99e7cd6822","C3","batch3","","10384","tol_tohand","","","","tol_peg_1","10384","10384","0","[[1,0,0],[3,0],[0]]","1","[[2,1,3],[0,0],[0]]","1","0","","","","","","5","","","","","","","","",""
"","","","","","single-stim-button","33","226526","0.0-2.0-13.0-1.0","62a2832342dd3f99e7cd6822","C3","batch3","","3037","tol_toboard","","","","tol_peg_3","3037","3037","0","[[1,0,0],[3,0],[2]]","1","[[2,1,3],[0,0],[0]]","1","0","","","","","","5","","","","","","","","",""
"","","","","","single-stim-button","34","227382","0.0-2.0-13.1-0.1","62a2832342dd3f99e7cd6822","C3","batch3","","855","tol_tohand","","","","tol_peg_1","855","855","0","[[0,0,0],[3,0],[2]]","2","[[2,1,3],[0,0],[0]]","1","0","","","","","","5","","","","","","","","",""
"","","","","","single-stim-button","35","229068","0.0-2.0-13.1-1.1","62a2832342dd3f99e7cd6822","C3","batch3","","1686","tol_toboard","","","","tol_peg_1","1686","1686","0","[[1,0,0],[3,0],[2]]","2","[[2,1,3],[0,0],[0]]","1","0","","","","","","5","","","","","","","","",""
"","","","","","single-stim-button","36","230159","0.0-2.0-13.2-0.2","62a2832342dd3f99e7cd6822","C3","batch3","","1091","tol_tohand","","","","tol_peg_1","1091","1091","0","[[0,0,0],[3,0],[2]]","3","[[2,1,3],[0,0],[0]]","1","0","","","","","","5","","","","","","","","",""
"","","","","","single-stim-button","37","233028","0.0-2.0-13.2-1.2","62a2832342dd3f99e7cd6822","C3","batch3","","2869","tol_toboard","","","","tol_peg_2","2869","2869","0","[[0,0,0],[3,1],[2]]","3","[[2,1,3],[0,0],[0]]","1","0","","","","","","5","","","","","","","","",""
"","","","","","single-stim-button","38","233771","0.0-2.0-13.3-0.3","62a2832342dd3f99e7cd6822","C3","batch3","","742","tol_tohand","","","","tol_peg_3","742","742","0","[[0,0,0],[3,1],[0]]","4","[[2,1,3],[0,0],[0]]","1","0","","","","","","5","","","","","","","","",""
"","","","","","single-stim-button","39","235627","0.0-2.0-13.3-1.3","62a2832342dd3f99e7cd6822","C3","batch3","","1856","tol_toboard","","","","tol_peg_1","1856","1856","0","[[2,0,0],[3,1],[0]]","4","[[2,1,3],[0,0],[0]]","1","0","","","","","","5","","","","","","","","",""
"","","","","","single-stim-button","40","237292","0.0-2.0-13.4-0.4","62a2832342dd3f99e7cd6822","C3","batch3","","1665","tol_tohand","","","","tol_peg_2","1665","1665","0","[[2,0,0],[3,0],[0]]","5","[[2,1,3],[0,0],[0]]","1","0","","","","","","5","","","","","","","","",""
"","","","","","single-stim-button","41","238946","0.0-2.0-13.4-1.4","62a2832342dd3f99e7cd6822","C3","batch3","","1654","tol_toboard","","","","tol_peg_1","1654","1654","0","[[2,1,0],[3,0],[0]]","5","[[2,1,3],[0,0],[0]]","1","0","","","","","","5","","","","","","","","",""
"","","","","","single-stim-button","42","240161","0.0-2.0-13.5-0.5","62a2832342dd3f99e7cd6822","C3","batch3","","1215","tol_tohand","","","","tol_peg_2","1215","1215","0","[[2,1,0],[0,0],[0]]","6","[[2,1,3],[0,0],[0]]","1","0","","","","","","5","","","","","","","","",""
"","","","","","single-stim-button","43","241016","0.0-2.0-13.5-1.5","62a2832342dd3f99e7cd6822","C3","batch3","","855","tol_toboard","","","","tol_peg_1","855","855","0","[[2,1,3],[0,0],[0]]","6","[[2,1,3],[0,0],[0]]","1","0","","","","","","5","","","","","","","","",""
"","","","","","poldrack-single-stim","44","242021","0.0-2.0-14.0","62a2832342dd3f99e7cd6822","C3","batch3","","-1","tol_feedback","","","true","","1000","1000","500","","","","","","-1","none","true","10384","15952","","","","","","","","","",""
"","","","","","html-button-response","45","243165","0.0-2.0-15.0","62a2832342dd3f99e7cd6822","C3","batch3","","1142.2999999523163","tol_trial_num","<div class = centerbox><p class = center-block-text>problem <strong>3</strong> out of 25 problems</p></div>","0","","","","","","","","","","","","","","","","","","","","","","","","",""
"","","","","","single-stim-button","46","246787","0.0-2.0-16.0-0.0","62a2832342dd3f99e7cd6822","C3","batch3","","3622","tol_tohand","","","","tol_peg_1","3622","3622","0","[[2,0,0],[0,0],[1]]","1","[[1,2,0],[3,0],[0]]","2","0","","","","","","4","","","","","","","","",""
"","","","","","single-stim-button","47","248374","0.0-2.0-16.0-1.0","62a2832342dd3f99e7cd6822","C3","batch3","","1585","tol_toboard","","","","tol_peg_2","1585","1585","0","[[2,0,0],[3,0],[1]]","1","[[1,2,0],[3,0],[0]]","2","0","","","","","","4","","","","","","","","",""
"","","","","","single-stim-button","48","249622","0.0-2.0-16.1-0.1","62a2832342dd3f99e7cd6822","C3","batch3","","1248","tol_tohand","","","","tol_peg_1","1248","1248","0","[[0,0,0],[3,0],[1]]","2","[[1,2,0],[3,0],[0]]","2","0","","","","","","4","","","","","","","","",""
"","","","","","single-stim-button","49","251209","0.0-2.0-16.1-1.1","62a2832342dd3f99e7cd6822","C3","batch3","","1585","tol_toboard","","","","tol_peg_2","1585","1585","0","[[0,0,0],[3,2],[1]]","2","[[1,2,0],[3,0],[0]]","2","0","","","","","","4","","","","","","","","",""
"","","","","","single-stim-button","50","252063","0.0-2.0-16.2-0.2","62a2832342dd3f99e7cd6822","C3","batch3","","854","tol_tohand","","","","tol_peg_3","854","854","0","[[0,0,0],[3,2],[0]]","3","[[1,2,0],[3,0],[0]]","2","0","","","","","","4","","","","","","","","",""
"","","","","","single-stim-button","51","253200","0.0-2.0-16.2-1.2","62a2832342dd3f99e7cd6822","C3","batch3","","1136","tol_toboard","","","","tol_peg_1","1136","1136","0","[[1,0,0],[3,2],[0]]","3","[[1,2,0],[3,0],[0]]","2","0","","","","","","4","","","","","","","","",""
"","","","","","single-stim-button","52","254257","0.0-2.0-16.3-0.3","62a2832342dd3f99e7cd6822","C3","batch3","","1057","tol_tohand","","","","tol_peg_2","1057","1057","0","[[1,0,0],[3,0],[0]]","4","[[1,2,0],[3,0],[0]]","2","0","","","","","","4","","","","","","","","",""
"","","","","","single-stim-button","53","255135","0.0-2.0-16.3-1.3","62a2832342dd3f99e7cd6822","C3","batch3","","877","tol_toboard","","","","tol_peg_1","877","877","0","[[1,2,0],[3,0],[0]]","4","[[1,2,0],[3,0],[0]]","2","0","","","","","","4","","","","","","","","",""
"","","","","","poldrack-single-stim","54","256141","0.0-2.0-17.0","62a2832342dd3f99e7cd6822","C3","batch3","","-1","tol_feedback","","","true","","1000","1000","500","","","","","","-1","none","true","3622","6781","","","","","","","","","",""
"","","","","","html-button-response","55","259882","0.0-2.0-18.0","62a2832342dd3f99e7cd6822","C3","batch3","","3740.899999976158","tol_trial_num","<div class = centerbox><p class = center-block-text>problem <strong>4</strong> out of 25 problems</p></div>","0","","","","","","","","","","","","","","","","","","","","","","","","",""
"","","","","","single-stim-button","56","265148","0.0-2.0-19.0-0.0","62a2832342dd3f99e7cd6822","C3","batch3","","5265","tol_tohand","","","","tol_peg_2","5265","5265","0","[[3,0,0],[2,0],[0]]","1","[[3,0,0],[1,0],[2]]","3","0","","","","","","3","","","","","","","","",""
"","","","","","single-stim-button","57","266689","0.0-2.0-19.0-1.0","62a2832342dd3f99e7cd6822","C3","batch3","","1541","tol_toboard","","","","tol_peg_1","1541","1541","0","[[3,1,0],[2,0],[0]]","1","[[3,0,0],[1,0],[2]]","3","0","","","","","","3","","","","","","","","",""
"","","","","","single-stim-button","58","267645","0.0-2.0-19.1-0.1","62a2832342dd3f99e7cd6822","C3","batch3","","956","tol_tohand","","","","tol_peg_2","956","956","0","[[3,1,0],[0,0],[0]]","2","[[3,0,0],[1,0],[2]]","3","0","","","","","","3","","","","","","","","",""
"","","","","","single-stim-button","59","268331","0.0-2.0-19.1-1.1","62a2832342dd3f99e7cd6822","C3","batch3","","685","tol_toboard","","","","tol_peg_3","685","685","0","[[3,1,0],[0,0],[2]]","2","[[3,0,0],[1,0],[2]]","3","0","","","","","","3","","","","","","","","",""
"","","","","","single-stim-button","60","269164","0.0-2.0-19.2-0.2","62a2832342dd3f99e7cd6822","C3","batch3","","832","tol_tohand","","","","tol_peg_1","832","832","0","[[3,0,0],[0,0],[2]]","3","[[3,0,0],[1,0],[2]]","3","0","","","","","","3","","","","","","","","",""
"","","","","","single-stim-button","61","269828","0.0-2.0-19.2-1.2","62a2832342dd3f99e7cd6822","C3","batch3","","663","tol_toboard","","","","tol_peg_2","663","663","0","[[3,0,0],[1,0],[2]]","3","[[3,0,0],[1,0],[2]]","3","0","","","","","","3","","","","","","","","",""
"","","","","","poldrack-single-stim","62","270835","0.0-2.0-20.0","62a2832342dd3f99e7cd6822","C3","batch3","","-1","tol_feedback","","","true","","1000","1000","500","","","","","","-1","none","true","5265","7053","","","","","","","","","",""
"","","","","","html-button-response","63","271819","0.0-2.0-21.0","62a2832342dd3f99e7cd6822","C3","batch3","","982.9000000953674","tol_trial_num","<div class = centerbox><p class = center-block-text>problem <strong>5</strong> out of 25 problems</p></div>","0","","","","","","","","","","","","","","","","","","","","","","","","",""
"","","","","","single-stim-button","64","290517","0.0-2.0-22.0-0.0","62a2832342dd3f99e7cd6822","C3","batch3","","18698","tol_tohand","","","","tol_peg_2","18698","18698","0","[[1,0,0],[0,0],[3]]","1","[[0,0,0],[1,2],[3]]","4","0","","","","","","7","","","","","","","","",""
"","","","","","single-stim-button","65","292025","0.0-2.0-22.0-1.0","62a2832342dd3f99e7cd6822","C3","batch3","","1507","tol_toboard","","","","tol_peg_1","1507","1507","0","[[1,2,0],[0,0],[3]]","1","[[0,0,0],[1,2],[3]]","4","0","","","","","","7","","","","","","","","",""
"","","","","","single-stim-button","66","292981","0.0-2.0-22.1-0.1","62a2832342dd3f99e7cd6822","C3","batch3","","956","tol_tohand","","","","tol_peg_1","956","956","0","[[1,0,0],[0,0],[3]]","2","[[0,0,0],[1,2],[3]]","4","0","","","","","","7","","","","","","","","",""
"","","","","","single-stim-button","67","296165","0.0-2.0-22.1-1.1","62a2832342dd3f99e7cd6822","C3","batch3","","3184","tol_toboard","","","","tol_peg_2","3184","3184","0","[[1,0,0],[2,0],[3]]","2","[[0,0,0],[1,2],[3]]","4","0","","","","","","7","","","","","","","","",""
"","","","","","single-stim-button","68","297256","0.0-2.0-22.2-0.2","62a2832342dd3f99e7cd6822","C3","batch3","","1091","tol_tohand","","","","tol_peg_1","1091","1091","0","[[0,0,0],[2,0],[3]]","3","[[0,0,0],[1,2],[3]]","4","0","","","","","","7","","","","","","","","",""
"","","","","","single-stim-button","69","300586","0.0-2.0-22.2-1.2","62a2832342dd3f99e7cd6822","C3","batch3","","3330","tol_toboard","","","","tol_peg_1","3330","3330","0","[[1,0,0],[2,0],[3]]","3","[[0,0,0],[1,2],[3]]","4","0","","","","","","7","","","","","","","","",""
"","","","","","single-stim-button","70","303972","0.0-2.0-22.3-0.3","62a2832342dd3f99e7cd6822","C3","batch3","","3385","tol_tohand","","","","tol_peg_2","3385","3385","0","[[1,0,0],[0,0],[3]]","4","[[0,0,0],[1,2],[3]]","4","0","","","","","","7","","","","","","","","",""
"","","","","","single-stim-button","71","304636","0.0-2.0-22.3-1.3","62a2832342dd3f99e7cd6822","C3","batch3","","663","tol_toboard","","","","tol_peg_1","663","663","0","[[1,2,0],[0,0],[3]]","4","[[0,0,0],[1,2],[3]]","4","0","","","","","","7","","","","","","","","",""
"","","","","","single-stim-button","72","305502","0.0-2.0-22.4-0.4","62a2832342dd3f99e7cd6822","C3","batch3","","866","tol_tohand","","","","tol_peg_1","866","866","0","[[1,0,0],[0,0],[3]]","5","[[0,0,0],[1,2],[3]]","4","0","","","","","","7","","","","","","","","",""
"","","","","","single-stim-button","73","306313","0.0-2.0-22.4-1.4","62a2832342dd3f99e7cd6822","C3","batch3","","809","tol_toboard","","","","tol_peg_2","809","809","0","[[1,0,0],[2,0],[3]]","5","[[0,0,0],[1,2],[3]]","4","0","","","","","","7","","","","","","","","",""
"","","","","","single-stim-button","74","307066","0.0-2.0-22.5-0.5","62a2832342dd3f99e7cd6822","C3","batch3","","753","tol_tohand","","","","tol_peg_1","753","753","0","[[0,0,0],[2,0],[3]]","6","[[0,0,0],[1,2],[3]]","4","0","","","","","","7","","","","","","","","",""
"","","","","","single-stim-button","75","308135","0.0-2.0-22.5-1.5","62a2832342dd3f99e7cd6822","C3","batch3","","1068","tol_toboard","","","","tol_peg_2","1068","1068","0","[[0,0,0],[2,1],[3]]","6","[[0,0,0],[1,2],[3]]","4","0","","","","","","7","","","","","","","","",""
"","","","","","single-stim-button","76","310272","0.0-2.0-22.6-0.6","62a2832342dd3f99e7cd6822","C3","batch3","","2136","tol_tohand","","","","tol_peg_2","2136","2136","0","[[0,0,0],[2,0],[3]]","7","[[0,0,0],[1,2],[3]]","4","0","","","","","","7","","","","","","","","",""
"","","","","","single-stim-button","77","310992","0.0-2.0-22.6-1.6","62a2832342dd3f99e7cd6822","C3","batch3","","719","tol_toboard","","","","tol_peg_2","719","719","0","[[0,0,0],[2,1],[3]]","7","[[0,0,0],[1,2],[3]]","4","0","","","","","","7","","","","","","","","",""
"","","","","","single-stim-button","78","312421","0.0-2.0-22.7-0.7","62a2832342dd3f99e7cd6822","C3","batch3","","1428","tol_tohand","","","","tol_peg_3","1428","1428","0","[[0,0,0],[2,1],[0]]","8","[[0,0,0],[1,2],[3]]","4","0","","","","","","7","","","","","","","","",""
"","","","","","single-stim-button","79","314300","0.0-2.0-22.7-1.7","62a2832342dd3f99e7cd6822","C3","batch3","","1878","tol_toboard","","","","tol_peg_3","1878","1878","0","[[0,0,0],[2,1],[3]]","8","[[0,0,0],[1,2],[3]]","4","0","","","","","","7","","","","","","","","",""
"","","","","","single-stim-button","80","315223","0.0-2.0-22.8-0.8","62a2832342dd3f99e7cd6822","C3","batch3","","922","tol_tohand","","","","tol_peg_3","922","922","0","[[0,0,0],[2,1],[0]]","9","[[0,0,0],[1,2],[3]]","4","0","","","","","","7","","","","","","","","",""
"","","","","","single-stim-button","81","316156","0.0-2.0-22.8-1.8","62a2832342dd3f99e7cd6822","C3","batch3","","933","tol_toboard","","","","tol_peg_1","933","933","0","[[3,0,0],[2,1],[0]]","9","[[0,0,0],[1,2],[3]]","4","0","","","","","","7","","","","","","","","",""
"","","","","","single-stim-button","82","316876","0.0-2.0-22.9-0.9","62a2832342dd3f99e7cd6822","C3","batch3","","719","tol_tohand","","","","tol_peg_2","719","719","0","[[3,0,0],[2,0],[0]]","10","[[0,0,0],[1,2],[3]]","4","0","","","","","","7","","","","","","","","",""
"","","","","","single-stim-button","83","318238","0.0-2.0-22.9-1.9","62a2832342dd3f99e7cd6822","C3","batch3","","1361","tol_toboard","","","","tol_peg_3","1361","1361","0","[[3,0,0],[2,0],[1]]","10","[[0,0,0],[1,2],[3]]","4","0","","","","","","7","","","","","","","","",""
"","","","","","single-stim-button","84","321017","0.0-2.0-22.10-0.10","62a2832342dd3f99e7cd6822","C3","batch3","","2779","tol_tohand","","","","tol_peg_1","2779","2779","0","[[0,0,0],[2,0],[1]]","11","[[0,0,0],[1,2],[3]]","4","0","","","","","","7","","","","","","","","",""
"","","","","","single-stim-button","85","321838","0.0-2.0-22.10-1.10","62a2832342dd3f99e7cd6822","C3","batch3","","820","tol_toboard","","","","tol_peg_2","820","820","0","[[0,0,0],[2,3],[1]]","11","[[0,0,0],[1,2],[3]]","4","0","","","","","","7","","","","","","","","",""
"","","","","","single-stim-button","86","327216","0.0-2.0-22.11-0.11","62a2832342dd3f99e7cd6822","C3","batch3","","5378","tol_tohand","","","","tol_peg_2","5378","5378","0","[[0,0,0],[2,0],[1]]","12","[[0,0,0],[1,2],[3]]","4","0","","","","","","7","","","","","","","","",""
"","","","","","single-stim-button","87","330153","0.0-2.0-22.11-1.11","62a2832342dd3f99e7cd6822","C3","batch3","","2937","tol_toboard","","","","tol_peg_1","2937","2937","0","[[3,0,0],[2,0],[1]]","12","[[0,0,0],[1,2],[3]]","4","0","","","","","","7","","","","","","","","",""
"","","","","","single-stim-button","88","330602","0.0-2.0-22.12-0.12","62a2832342dd3f99e7cd6822","C3","batch3","","448","tol_tohand","","","","tol_peg_2","448","448","0","[[3,0,0],[0,0],[1]]","13","[[0,0,0],[1,2],[3]]","4","0","","","","","","7","","","","","","","","",""
"","","","","","single-stim-button","89","331367","0.0-2.0-22.12-1.12","62a2832342dd3f99e7cd6822","C3","batch3","","765","tol_toboard","","","","tol_peg_1","765","765","0","[[3,2,0],[0,0],[1]]","13","[[0,0,0],[1,2],[3]]","4","0","","","","","","7","","","","","","","","",""
"","","","","","single-stim-button","90","332233","0.0-2.0-22.13-0.13","62a2832342dd3f99e7cd6822","C3","batch3","","866","tol_tohand","","","","tol_peg_3","866","866","0","[[3,2,0],[0,0],[0]]","14","[[0,0,0],[1,2],[3]]","4","0","","","","","","7","","","","","","","","",""
"","","","","","single-stim-button","91","333392","0.0-2.0-22.13-1.13","62a2832342dd3f99e7cd6822","C3","batch3","","1159","tol_toboard","","","","tol_peg_2","1159","1159","0","[[3,2,0],[1,0],[0]]","14","[[0,0,0],[1,2],[3]]","4","0","","","","","","7","","","","","","","","",""
"","","","","","single-stim-button","92","334067","0.0-2.0-22.14-0.14","62a2832342dd3f99e7cd6822","C3","batch3","","675","tol_tohand","","","","tol_peg_1","675","675","0","[[3,0,0],[1,0],[0]]","15","[[0,0,0],[1,2],[3]]","4","0","","","","","","7","","","","","","","","",""
"","","","","","single-stim-button","93","334945","0.0-2.0-22.14-1.14","62a2832342dd3f99e7cd6822","C3","batch3","","877","tol_toboard","","","","tol_peg_2","877","877","0","[[3,0,0],[1,2],[0]]","15","[[0,0,0],[1,2],[3]]","4","0","","","","","","7","","","","","","","","",""
"","","","","","single-stim-button","94","335530","0.0-2.0-22.15-0.15","62a2832342dd3f99e7cd6822","C3","batch3","","584","tol_tohand","","","","tol_peg_1","584","584","0","[[0,0,0],[1,2],[0]]","16","[[0,0,0],[1,2],[3]]","4","0","","","","","","7","","","","","","","","",""
"","","","","","single-stim-button","95","336272","0.0-2.0-22.15-1.15","62a2832342dd3f99e7cd6822","C3","batch3","","742","tol_toboard","","","","tol_peg_3","742","742","0","[[0,0,0],[1,2],[3]]","16","[[0,0,0],[1,2],[3]]","4","0","","","","","","7","","","","","","","","",""
"","","","","","poldrack-single-stim","96","337277","0.0-2.0-23.0","62a2832342dd3f99e7cd6822","C3","batch3","","-1","tol_feedback","","","true","","1000","1000","500","","","","","","-1","none","true","18698","41684","","","","","","","","","",""
"","","","","","html-button-response","97","338173","0.0-2.0-24.0","62a2832342dd3f99e7cd6822","C3","batch3","","895.2999999523163","tol_trial_num","<div class = centerbox><p class = center-block-text>problem <strong>6</strong> out of 25 problems</p></div>","0","","","","","","","","","","","","","","","","","","","","","","","","",""
"","","","","","single-stim-button","98","352326","0.0-2.0-25.0-0.0","62a2832342dd3f99e7cd6822","C3","batch3","","14153","tol_tohand","","","","tol_peg_3","14153","14153","0","[[0,0,0],[1,2],[0]]","1","[[1,0,0],[2,3],[0]]","5","0","","","","","","6","","","","","","","","",""
"","","","","","single-stim-button","99","353395","0.0-2.0-25.0-1.0","62a2832342dd3f99e7cd6822","C3","batch3","","1068","tol_toboard","","","","tol_peg_1","1068","1068","0","[[3,0,0],[1,2],[0]]","1","[[1,0,0],[2,3],[0]]","5","0","","","","","","6","","","","","","","","",""
"","","","","","single-stim-button","100","354036","0.0-2.0-25.1-0.1","62a2832342dd3f99e7cd6822","C3","batch3","","641","tol_tohand","","","","tol_peg_2","641","641","0","[[3,0,0],[1,0],[0]]","2","[[1,0,0],[2,3],[0]]","5","0","","","","","","6","","","","","","","","",""
"","","","","","single-stim-button","101","356860","0.0-2.0-25.1-1.1","62a2832342dd3f99e7cd6822","C3","batch3","","2823","tol_toboard","","","","tol_peg_3","2823","2823","0","[[3,0,0],[1,0],[2]]","2","[[1,0,0],[2,3],[0]]","5","0","","","","","","6","","","","","","","","",""
"","","","","","single-stim-button","102","357558","0.0-2.0-25.2-0.2","62a2832342dd3f99e7cd6822","C3","batch3","","696","tol_tohand","","","","tol_peg_2","696","696","0","[[3,0,0],[0,0],[2]]","3","[[1,0,0],[2,3],[0]]","5","0","","","","","","6","","","","","","","","",""
"","","","","","single-stim-button","103","358829","0.0-2.0-25.2-1.2","62a2832342dd3f99e7cd6822","C3","batch3","","1271","tol_toboard","","","","tol_peg_1","1271","1271","0","[[3,1,0],[0,0],[2]]","3","[[1,0,0],[2,3],[0]]","5","0","","","","","","6","","","","","","","","",""
"","","","","","single-stim-button","104","359481","0.0-2.0-25.3-0.3","62a2832342dd3f99e7cd6822","C3","batch3","","652","tol_tohand","","","","tol_peg_3","652","652","0","[[3,1,0],[0,0],[0]]","4","[[1,0,0],[2,3],[0]]","5","0","","","","","","6","","","","","","","","",""
"","","","","","single-stim-button","105","360449","0.0-2.0-25.3-1.3","62a2832342dd3f99e7cd6822","C3","batch3","","967","tol_toboard","","","","tol_peg_2","967","967","0","[[3,1,0],[2,0],[0]]","4","[[1,0,0],[2,3],[0]]","5","0","","","","","","6","","","","","","","","",""
"","","","","","single-stim-button","106","361956","0.0-2.0-25.4-0.4","62a2832342dd3f99e7cd6822","C3","batch3","","1506","tol_tohand","","","","tol_peg_1","1506","1506","0","[[3,0,0],[2,0],[0]]","5","[[1,0,0],[2,3],[0]]","5","0","","","","","","6","","","","","","","","",""
"","","","","","single-stim-button","107","363171","0.0-2.0-25.4-1.4","62a2832342dd3f99e7cd6822","C3","batch3","","1214","tol_toboard","","","","tol_peg_3","1214","1214","0","[[3,0,0],[2,0],[1]]","5","[[1,0,0],[2,3],[0]]","5","0","","","","","","6","","","","","","","","",""
"","","","","","single-stim-button","108","363768","0.0-2.0-25.5-0.5","62a2832342dd3f99e7cd6822","C3","batch3","","595","tol_tohand","","","","tol_peg_1","595","595","0","[[0,0,0],[2,0],[1]]","6","[[1,0,0],[2,3],[0]]","5","0","","","","","","6","","","","","","","","",""
"","","","","","single-stim-button","109","364477","0.0-2.0-25.5-1.5","62a2832342dd3f99e7cd6822","C3","batch3","","708","tol_toboard","","","","tol_peg_2","708","708","0","[[0,0,0],[2,3],[1]]","6","[[1,0,0],[2,3],[0]]","5","0","","","","","","6","","","","","","","","",""
"","","","","","single-stim-button","110","365005","0.0-2.0-25.6-0.6","62a2832342dd3f99e7cd6822","C3","batch3","","528","tol_tohand","","","","tol_peg_3","528","528","0","[[0,0,0],[2,3],[0]]","7","[[1,0,0],[2,3],[0]]","5","0","","","","","","6","","","","","","","","",""
"","","","","","single-stim-button","111","365693","0.0-2.0-25.6-1.6","62a2832342dd3f99e7cd6822","C3","batch3","","686","tol_toboard","","","","tol_peg_1","686","686","0","[[1,0,0],[2,3],[0]]","7","[[1,0,0],[2,3],[0]]","5","0","","","","","","6","","","","","","","","",""
"","","","","","poldrack-single-stim","112","366704","0.0-2.0-26.0","62a2832342dd3f99e7cd6822","C3","batch3","","-1","tol_feedback","","","true","","1000","1000","500","","","","","","-1","none","true","14153","18771","","","","","","","","","",""
"","","","","","html-button-response","113","367536","0.0-2.0-27.0","62a2832342dd3f99e7cd6822","C3","batch3","","831.6000000238419","tol_trial_num","<div class = centerbox><p class = center-block-text>problem <strong>7</strong> out of 25 problems</p></div>","0","","","","","","","","","","","","","","","","","","","","","","","","",""
"","","","","","single-stim-button","114","376649","0.0-2.0-28.0-0.0","62a2832342dd3f99e7cd6822","C3","batch3","","9112","tol_tohand","","","","tol_peg_3","9112","9112","0","[[2,1,0],[0,0],[0]]","1","[[1,2,0],[3,0],[0]]","6","0","","","","","","5","","","","","","","","",""
"","","","","","single-stim-button","115","377527","0.0-2.0-28.0-1.0","62a2832342dd3f99e7cd6822","C3","batch3","","877","tol_toboard","","","","tol_peg_2","877","877","0","[[2,1,0],[3,0],[0]]","1","[[1,2,0],[3,0],[0]]","6","0","","","","","","5","","","","","","","","",""
"","","","","","single-stim-button","116","378798","0.0-2.0-28.1-0.1","62a2832342dd3f99e7cd6822","C3","batch3","","1271","tol_tohand","","","","tol_peg_1","1271","1271","0","[[2,0,0],[3,0],[0]]","2","[[1,2,0],[3,0],[0]]","6","0","","","","","","5","","","","","","","","",""
"","","","","","single-stim-button","117","379811","0.0-2.0-28.1-1.1","62a2832342dd3f99e7cd6822","C3","batch3","","1012","tol_toboard","","","","tol_peg_3","1012","1012","0","[[2,0,0],[3,0],[1]]","2","[[1,2,0],[3,0],[0]]","6","0","","","","","","5","","","","","","","","",""
"","","","","","single-stim-button","118","380722","0.0-2.0-28.2-0.2","62a2832342dd3f99e7cd6822","C3","batch3","","910","tol_tohand","","","","tol_peg_1","910","910","0","[[0,0,0],[3,0],[1]]","3","[[1,2,0],[3,0],[0]]","6","0","","","","","","5","","","","","","","","",""
"","","","","","single-stim-button","119","381633","0.0-2.0-28.2-1.2","62a2832342dd3f99e7cd6822","C3","batch3","","911","tol_toboard","","","","tol_peg_2","911","911","0","[[0,0,0],[3,2],[1]]","3","[[1,2,0],[3,0],[0]]","6","0","","","","","","5","","","","","","","","",""
"","","","","","single-stim-button","120","382162","0.0-2.0-28.3-0.3","62a2832342dd3f99e7cd6822","C3","batch3","","528","tol_tohand","","","","tol_peg_3","528","528","0","[[0,0,0],[3,2],[0]]","4","[[1,2,0],[3,0],[0]]","6","0","","","","","","5","","","","","","","","",""
"","","","","","single-stim-button","121","382962","0.0-2.0-28.3-1.3","62a2832342dd3f99e7cd6822","C3","batch3","","800","tol_toboard","","","","tol_peg_1","800","800","0","[[1,0,0],[3,2],[0]]","4","[[1,2,0],[3,0],[0]]","6","0","","","","","","5","","","","","","","","",""
"","","","","","single-stim-button","122","383411","0.0-2.0-28.4-0.4","62a2832342dd3f99e7cd6822","C3","batch3","","449","tol_tohand","","","","tol_peg_2","449","449","0","[[1,0,0],[3,0],[0]]","5","[[1,2,0],[3,0],[0]]","6","0","","","","","","5","","","","","","","","",""
"","","","","","single-stim-button","123","384153","0.0-2.0-28.4-1.4","62a2832342dd3f99e7cd6822","C3","batch3","","742","tol_toboard","","","","tol_peg_1","742","742","0","[[1,2,0],[3,0],[0]]","5","[[1,2,0],[3,0],[0]]","6","0","","","","","","5","","","","","","","","",""
"","","","","","poldrack-single-stim","124","385160","0.0-2.0-29.0","62a2832342dd3f99e7cd6822","C3","batch3","","-1","tol_feedback","","","true","","1000","1000","500","","","","","","-1","none","true","9112","12270","","","","","","","","","",""
"","","","","","html-button-response","125","386122","0.0-2.0-30.0","62a2832342dd3f99e7cd6822","C3","batch3","","960.8999999761581","tol_trial_num","<div class = centerbox><p class = center-block-text>problem <strong>8</strong> out of 25 problems</p></div>","0","","","","","","","","","","","","","","","","","","","","","","","","",""
"","","","","","single-stim-button","126","392973","0.0-2.0-31.0-0.0","62a2832342dd3f99e7cd6822","C3","batch3","","6851","tol_tohand","","","","tol_peg_3","6851","6851","0","[[0,0,0],[2,3],[0]]","1","[[1,2,0],[3,0],[0]]","7","0","","","","","","4","","","","","","","","",""
"","","","","","single-stim-button","127","394065","0.0-2.0-31.0-1.0","62a2832342dd3f99e7cd6822","C3","batch3","","1091","tol_toboard","","","","tol_peg_1","1091","1091","0","[[1,0,0],[2,3],[0]]","1","[[1,2,0],[3,0],[0]]","7","0","","","","","","4","","","","","","","","",""
"","","","","","single-stim-button","128","396090","0.0-2.0-31.1-0.1","62a2832342dd3f99e7cd6822","C3","batch3","","2024","tol_tohand","","","","tol_peg_2","2024","2024","0","[[1,0,0],[2,0],[0]]","2","[[1,2,0],[3,0],[0]]","7","0","","","","","","4","","","","","","","","",""
"","","","","","single-stim-button","129","397372","0.0-2.0-31.1-1.1","62a2832342dd3f99e7cd6822","C3","batch3","","1282","tol_toboard","","","","tol_peg_3","1282","1282","0","[[1,0,0],[2,0],[3]]","2","[[1,2,0],[3,0],[0]]","7","0","","","","","","4","","","","","","","","",""
"","","","","","single-stim-button","130","397946","0.0-2.0-31.2-0.2","62a2832342dd3f99e7cd6822","C3","batch3","","573","tol_tohand","","","","tol_peg_2","573","573","0","[[1,0,0],[0,0],[3]]","3","[[1,2,0],[3,0],[0]]","7","0","","","","","","4","","","","","","","","",""
"","","","","","single-stim-button","131","398655","0.0-2.0-31.2-1.2","62a2832342dd3f99e7cd6822","C3","batch3","","709","tol_toboard","","","","tol_peg_1","709","709","0","[[1,2,0],[0,0],[3]]","3","[[1,2,0],[3,0],[0]]","7","0","","","","","","4","","","","","","","","",""
"","","","","","single-stim-button","132","399296","0.0-2.0-31.3-0.3","62a2832342dd3f99e7cd6822","C3","batch3","","641","tol_tohand","","","","tol_peg_3","641","641","0","[[1,2,0],[0,0],[0]]","4","[[1,2,0],[3,0],[0]]","7","0","","","","","","4","","","","","","","","",""
"","","","","","single-stim-button","133","399950","0.0-2.0-31.3-1.3","62a2832342dd3f99e7cd6822","C3","batch3","","653","tol_toboard","","","","tol_peg_2","653","653","0","[[1,2,0],[3,0],[0]]","4","[[1,2,0],[3,0],[0]]","7","0","","","","","","4","","","","","","","","",""
"","","","","","poldrack-single-stim","134","400956","0.0-2.0-32.0","62a2832342dd3f99e7cd6822","C3","batch3","","-1","tol_feedback","","","true","","1000","1000","500","","","","","","-1","none","true","6851","10089","","","","","","","","","",""
"","","","","","html-button-response","135","401771","0.0-2.0-33.0","62a2832342dd3f99e7cd6822","C3","batch3","","814.2999999523163","tol_trial_num","<div class = centerbox><p class = center-block-text>problem <strong>9</strong> out of 25 problems</p></div>","0","","","","","","","","","","","","","","","","","","","","","","","","",""
"","","","","","single-stim-button","136","413742","0.0-2.0-34.0-0.0","62a2832342dd3f99e7cd6822","C3","batch3","","11970","tol_tohand","","","","tol_peg_3","11970","11970","0","[[3,2,0],[0,0],[0]]","1","[[2,1,0],[3,0],[0]]","8","0","","","","","","6","","","","","","","","",""
"","","","","","single-stim-button","137","414597","0.0-2.0-34.0-1.0","62a2832342dd3f99e7cd6822","C3","batch3","","854","tol_toboard","","","","tol_peg_2","854","854","0","[[3,2,0],[1,0],[0]]","1","[[2,1,0],[3,0],[0]]","8","0","","","","","","6","","","","","","","","",""
"","","","","","single-stim-button","138","415406","0.0-2.0-34.1-0.1","62a2832342dd3f99e7cd6822","C3","batch3","","809","tol_tohand","","","","tol_peg_1","809","809","0","[[3,0,0],[1,0],[0]]","2","[[2,1,0],[3,0],[0]]","8","0","","","","","","6","","","","","","","","",""
"","","","","","single-stim-button","139","418186","0.0-2.0-34.1-1.1","62a2832342dd3f99e7cd6822","C3","batch3","","2778","tol_toboard","","","","tol_peg_3","2778","2778","0","[[3,0,0],[1,0],[2]]","2","[[2,1,0],[3,0],[0]]","8","0","","","","","","6","","","","","","","","",""
"","","","","","single-stim-button","140","419018","0.0-2.0-34.2-0.2","62a2832342dd3f99e7cd6822","C3","batch3","","832","tol_tohand","","","","tol_peg_1","832","832","0","[[0,0,0],[1,0],[2]]","3","[[2,1,0],[3,0],[0]]","8","0","","","","","","6","","","","","","","","",""
"","","","","","single-stim-button","141","419569","0.0-2.0-34.2-1.2","62a2832342dd3f99e7cd6822","C3","batch3","","551","tol_toboard","","","","tol_peg_2","551","551","0","[[0,0,0],[1,3],[2]]","3","[[2,1,0],[3,0],[0]]","8","0","","","","","","6","","","","","","","","",""
"","","","","","single-stim-button","142","420199","0.0-2.0-34.3-0.3","62a2832342dd3f99e7cd6822","C3","batch3","","629","tol_tohand","","","","tol_peg_3","629","629","0","[[0,0,0],[1,3],[0]]","4","[[2,1,0],[3,0],[0]]","8","0","","","","","","6","","","","","","","","",""
"","","","","","single-stim-button","143","421009","0.0-2.0-34.3-1.3","62a2832342dd3f99e7cd6822","C3","batch3","","809","tol_toboard","","","","tol_peg_1","809","809","0","[[2,0,0],[1,3],[0]]","4","[[2,1,0],[3,0],[0]]","8","0","","","","","","6","","","","","","","","",""
"","","","","","single-stim-button","144","421842","0.0-2.0-34.4-0.4","62a2832342dd3f99e7cd6822","C3","batch3","","831","tol_tohand","","","","tol_peg_2","831","831","0","[[2,0,0],[1,0],[0]]","5","[[2,1,0],[3,0],[0]]","8","0","","","","","","6","","","","","","","","",""
"","","","","","single-stim-button","145","423722","0.0-2.0-34.4-1.4","62a2832342dd3f99e7cd6822","C3","batch3","","1880","tol_toboard","","","","tol_peg_3","1880","1880","0","[[2,0,0],[1,0],[3]]","5","[[2,1,0],[3,0],[0]]","8","0","","","","","","6","","","","","","","","",""
"","","","","","single-stim-button","146","424103","0.0-2.0-34.5-0.5","62a2832342dd3f99e7cd6822","C3","batch3","","381","tol_tohand","","","","tol_peg_2","381","381","0","[[2,0,0],[0,0],[3]]","6","[[2,1,0],[3,0],[0]]","8","0","","","","","","6","","","","","","","","",""
"","","","","","single-stim-button","147","424744","0.0-2.0-34.5-1.5","62a2832342dd3f99e7cd6822","C3","batch3","","641","tol_toboard","","","","tol_peg_1","641","641","0","[[2,1,0],[0,0],[3]]","6","[[2,1,0],[3,0],[0]]","8","0","","","","","","6","","","","","","","","",""
"","","","","","single-stim-button","148","425442","0.0-2.0-34.6-0.6","62a2832342dd3f99e7cd6822","C3","batch3","","698","tol_tohand","","","","tol_peg_3","698","698","0","[[2,1,0],[0,0],[0]]","7","[[2,1,0],[3,0],[0]]","8","0","","","","","","6","","","","","","","","",""
"","","","","","single-stim-button","149","426139","0.0-2.0-34.6-1.6","62a2832342dd3f99e7cd6822","C3","batch3","","697","tol_toboard","","","","tol_peg_2","697","697","0","[[2,1,0],[3,0],[0]]","7","[[2,1,0],[3,0],[0]]","8","0","","","","","","6","","","","","","","","",""
"","","","","","poldrack-single-stim","150","427140","0.0-2.0-35.0","62a2832342dd3f99e7cd6822","C3","batch3","","-1","tol_feedback","","","true","","1000","1000","500","","","","","","-1","none","true","11970","16150","","","","","","","","","",""
"","","","","","html-button-response","151","428063","0.0-2.0-36.0","62a2832342dd3f99e7cd6822","C3","batch3","","921.8999999761581","tol_trial_num","<div class = centerbox><p class = center-block-text>problem <strong>10</strong> out of 25 problems</p></div>","0","","","","","","","","","","","","","","","","","","","","","","","","",""
"","","","","","single-stim-button","152","435781","0.0-2.0-37.0-0.0","62a2832342dd3f99e7cd6822","C3","batch3","","7718","tol_tohand","","","","tol_peg_2","7718","7718","0","[[3,0,0],[0,0],[2]]","1","[[3,0,0],[2,1],[0]]","9","0","","","","","","3","","","","","","","","",""
"","","","","","single-stim-button","153","436467","0.0-2.0-37.0-1.0","62a2832342dd3f99e7cd6822","C3","batch3","","685","tol_toboard","","","","tol_peg_1","685","685","0","[[3,1,0],[0,0],[2]]","1","[[3,0,0],[2,1],[0]]","9","0","","","","","","3","","","","","","","","",""
"","","","","","single-stim-button","154","437142","0.0-2.0-37.1-0.1","62a2832342dd3f99e7cd6822","C3","batch3","","675","tol_tohand","","","","tol_peg_3","675","675","0","[[3,1,0],[0,0],[0]]","2","[[3,0,0],[2,1],[0]]","9","0","","","","","","3","","","","","","","","",""
"","","","","","single-stim-button","155","437704","0.0-2.0-37.1-1.1","62a2832342dd3f99e7cd6822","C3","batch3","","562","tol_toboard","","","","tol_peg_2","562","562","0","[[3,1,0],[2,0],[0]]","2","[[3,0,0],[2,1],[0]]","9","0","","","","","","3","","","","","","","","",""
"","","","","","single-stim-button","156","438380","0.0-2.0-37.2-0.2","62a2832342dd3f99e7cd6822","C3","batch3","","674","tol_tohand","","","","tol_peg_1","674","674","0","[[3,0,0],[2,0],[0]]","3","[[3,0,0],[2,1],[0]]","9","0","","","","","","3","","","","","","","","",""
"","","","","","single-stim-button","157","439111","0.0-2.0-37.2-1.2","62a2832342dd3f99e7cd6822","C3","batch3","","731","tol_toboard","","","","tol_peg_2","731","731","0","[[3,0,0],[2,1],[0]]","3","[[3,0,0],[2,1],[0]]","9","0","","","","","","3","","","","","","","","",""
"","","","","","poldrack-single-stim","158","440116","0.0-2.0-38.0","62a2832342dd3f99e7cd6822","C3","batch3","","-1","tol_feedback","","","true","","1000","1000","500","","","","","","-1","none","true","7718","9067","","","","","","","","","",""
"","","","","","html-button-response","159","440888","0.0-2.0-39.0","62a2832342dd3f99e7cd6822","C3","batch3","","771.5999999046326","tol_trial_num","<div class = centerbox><p class = center-block-text>problem <strong>11</strong> out of 25 problems</p></div>","0","","","","","","","","","","","","","","","","","","","","","","","","",""
"","","","","","single-stim-button","160","448145","0.0-2.0-40.0-0.0","62a2832342dd3f99e7cd6822","C3","batch3","","7256","tol_tohand","","","","tol_peg_1","7256","7256","0","[[1,0,0],[3,0],[0]]","1","[[2,0,0],[1,3],[0]]","10","0","","","","","","6","","","","","","","","",""
"","","","","","single-stim-button","161","448786","0.0-2.0-40.0-1.0","62a2832342dd3f99e7cd6822","C3","batch3","","641","tol_toboard","","","","tol_peg_2","641","641","0","[[1,0,0],[3,2],[0]]","1","[[2,0,0],[1,3],[0]]","10","0","","","","","","6","","","","","","","","",""
"","","","","","single-stim-button","162","449517","0.0-2.0-40.1-0.1","62a2832342dd3f99e7cd6822","C3","batch3","","730","tol_tohand","","","","tol_peg_1","730","730","0","[[0,0,0],[3,2],[0]]","2","[[2,0,0],[1,3],[0]]","10","0","","","","","","6","","","","","","","","",""
"","","","","","single-stim-button","163","450789","0.0-2.0-40.1-1.1","62a2832342dd3f99e7cd6822","C3","batch3","","1271","tol_toboard","","","","tol_peg_3","1271","1271","0","[[0,0,0],[3,2],[1]]","2","[[2,0,0],[1,3],[0]]","10","0","","","","","","6","","","","","","","","",""
"","","","","","single-stim-button","164","451261","0.0-2.0-40.2-0.2","62a2832342dd3f99e7cd6822","C3","batch3","","472","tol_tohand","","","","tol_peg_2","472","472","0","[[0,0,0],[3,0],[1]]","3","[[2,0,0],[1,3],[0]]","10","0","","","","","","6","","","","","","","","",""
"","","","","","single-stim-button","165","452038","0.0-2.0-40.2-1.2","62a2832342dd3f99e7cd6822","C3","batch3","","775","tol_toboard","","","","tol_peg_1","775","775","0","[[2,0,0],[3,0],[1]]","3","[[2,0,0],[1,3],[0]]","10","0","","","","","","6","","","","","","","","",""
"","","","","","single-stim-button","166","452814","0.0-2.0-40.3-0.3","62a2832342dd3f99e7cd6822","C3","batch3","","776","tol_tohand","","","","tol_peg_2","776","776","0","[[2,0,0],[0,0],[1]]","4","[[2,0,0],[1,3],[0]]","10","0","","","","","","6","","","","","","","","",""
"","","","","","single-stim-button","167","453624","0.0-2.0-40.3-1.3","62a2832342dd3f99e7cd6822","C3","batch3","","810","tol_toboard","","","","tol_peg_1","810","810","0","[[2,3,0],[0,0],[1]]","4","[[2,0,0],[1,3],[0]]","10","0","","","","","","6","","","","","","","","",""
"","","","","","single-stim-button","168","454220","0.0-2.0-40.4-0.4","62a2832342dd3f99e7cd6822","C3","batch3","","596","tol_tohand","","","","tol_peg_3","596","596","0","[[2,3,0],[0,0],[0]]","5","[[2,0,0],[1,3],[0]]","10","0","","","","","","6","","","","","","","","",""
"","","","","","single-stim-button","169","454951","0.0-2.0-40.4-1.4","62a2832342dd3f99e7cd6822","C3","batch3","","731","tol_toboard","","","","tol_peg_2","731","731","0","[[2,3,0],[1,0],[0]]","5","[[2,0,0],[1,3],[0]]","10","0","","","","","","6","","","","","","","","",""
"","","","","","single-stim-button","170","455390","0.0-2.0-40.5-0.5","62a2832342dd3f99e7cd6822","C3","batch3","","438","tol_tohand","","","","tol_peg_1","438","438","0","[[2,0,0],[1,0],[0]]","6","[[2,0,0],[1,3],[0]]","10","0","","","","","","6","","","","","","","","",""
"","","","","","single-stim-button","171","455851","0.0-2.0-40.5-1.5","62a2832342dd3f99e7cd6822","C3","batch3","","460","tol_toboard","","","","tol_peg_2","460","460","0","[[2,0,0],[1,3],[0]]","6","[[2,0,0],[1,3],[0]]","10","0","","","","","","6","","","","","","","","",""
"","","","","","poldrack-single-stim","172","456863","0.0-2.0-41.0","62a2832342dd3f99e7cd6822","C3","batch3","","-1","tol_feedback","","","true","","1000","1000","500","","","","","","-1","none","true","7256","10268","","","","","","","","","",""
"","","","","","html-button-response","173","457809","0.0-2.0-42.0","62a2832342dd3f99e7cd6822","C3","batch3","","945","tol_trial_num","<div class = centerbox><p class = center-block-text>problem <strong>12</strong> out of 25 problems</p></div>","0","","","","","","","","","","","","","","","","","","","","","","","","",""
"","","","","","single-stim-button","174","460329","0.0-2.0-43.0-0.0","62a2832342dd3f99e7cd6822","C3","batch3","","2520","tol_tohand","","","","tol_peg_1","2520","2520","0","[[1,0,0],[3,0],[0]]","1","[[2,3,0],[0,0],[1]]","11","0","","","","","","4","","","","","","","","",""
"","","","","","single-stim-button","175","461094","0.0-2.0-43.0-1.0","62a2832342dd3f99e7cd6822","C3","batch3","","765","tol_toboard","","","","tol_peg_2","765","765","0","[[1,0,0],[3,2],[0]]","1","[[2,3,0],[0,0],[1]]","11","0","","","","","","4","","","","","","","","",""
"","","","","","single-stim-button","176","461634","0.0-2.0-43.1-0.1","62a2832342dd3f99e7cd6822","C3","batch3","","540","tol_tohand","","","","tol_peg_1","540","540","0","[[0,0,0],[3,2],[0]]","2","[[2,3,0],[0,0],[1]]","11","0","","","","","","4","","","","","","","","",""
"","","","","","single-stim-button","177","462635","0.0-2.0-43.1-1.1","62a2832342dd3f99e7cd6822","C3","batch3","","1000","tol_toboard","","","","tol_peg_3","1000","1000","0","[[0,0,0],[3,2],[1]]","2","[[2,3,0],[0,0],[1]]","11","0","","","","","","4","","","","","","","","",""
"","","","","","single-stim-button","178","463423","0.0-2.0-43.2-0.2","62a2832342dd3f99e7cd6822","C3","batch3","","787","tol_tohand","","","","tol_peg_2","787","787","0","[[0,0,0],[3,0],[1]]","3","[[2,3,0],[0,0],[1]]","11","0","","","","","","4","","","","","","","","",""
"","","","","","single-stim-button","179","464098","0.0-2.0-43.2-1.2","62a2832342dd3f99e7cd6822","C3","batch3","","673","tol_toboard","","","","tol_peg_1","673","673","0","[[2,0,0],[3,0],[1]]","3","[[2,3,0],[0,0],[1]]","11","0","","","","","","4","","","","","","","","",""
"","","","","","single-stim-button","180","464548","0.0-2.0-43.3-0.3","62a2832342dd3f99e7cd6822","C3","batch3","","450","tol_tohand","","","","tol_peg_2","450","450","0","[[2,0,0],[0,0],[1]]","4","[[2,3,0],[0,0],[1]]","11","0","","","","","","4","","","","","","","","",""
"","","","","","single-stim-button","181","465144","0.0-2.0-43.3-1.3","62a2832342dd3f99e7cd6822","C3","batch3","","596","tol_toboard","","","","tol_peg_1","596","596","0","[[2,3,0],[0,0],[1]]","4","[[2,3,0],[0,0],[1]]","11","0","","","","","","4","","","","","","","","",""
"","","","","","poldrack-single-stim","182","466152","0.0-2.0-44.0","62a2832342dd3f99e7cd6822","C3","batch3","","-1","tol_feedback","","","true","","1000","1000","500","","","","","","-1","none","true","2520","4297","","","","","","","","","",""
"","","","","","html-button-response","183","467484","0.0-2.0-45.0","62a2832342dd3f99e7cd6822","C3","batch3","","1331.7999999523163","tol_trial_num","<div class = centerbox><p class = center-block-text>problem <strong>13</strong> out of 25 problems</p></div>","0","","","","","","","","","","","","","","","","","","","","","","","","",""
"","","","","","single-stim-button","184","469791","0.0-2.0-46.0-0.0","62a2832342dd3f99e7cd6822","C3","batch3","","2305","tol_tohand","","","","tol_peg_1","2305","2305","0","[[1,0,0],[3,0],[0]]","1","[[0,0,0],[2,3],[1]]","12","0","","","","","","4","","","","","","","","",""
"","","","","","single-stim-button","185","472029","0.0-2.0-46.0-1.0","62a2832342dd3f99e7cd6822","C3","batch3","","2238","tol_toboard","","","","tol_peg_2","2238","2238","0","[[1,0,0],[3,2],[0]]","1","[[0,0,0],[2,3],[1]]","12","0","","","","","","4","","","","","","","","",""
"","","","","","single-stim-button","186","472535","0.0-2.0-46.1-0.1","62a2832342dd3f99e7cd6822","C3","batch3","","505","tol_tohand","","","","tol_peg_1","505","505","0","[[0,0,0],[3,2],[0]]","2","[[0,0,0],[2,3],[1]]","12","0","","","","","","4","","","","","","","","",""
"","","","","","single-stim-button","187","473368","0.0-2.0-46.1-1.1","62a2832342dd3f99e7cd6822","C3","batch3","","832","tol_toboard","","","","tol_peg_3","832","832","0","[[0,0,0],[3,2],[1]]","2","[[0,0,0],[2,3],[1]]","12","0","","","","","","4","","","","","","","","",""
"","","","","","single-stim-button","188","481345","0.0-2.0-46.2-0.2","62a2832342dd3f99e7cd6822","C3","batch3","","7976","tol_tohand","","","","tol_peg_3","7976","7976","0","[[0,0,0],[3,2],[0]]","3","[[0,0,0],[2,3],[1]]","12","0","","","","","","4","","","","","","","","",""
"","","","","","single-stim-button","189","482649","0.0-2.0-46.2-1.2","62a2832342dd3f99e7cd6822","C3","batch3","","1304","tol_toboard","","","","tol_peg_1","1304","1304","0","[[1,0,0],[3,2],[0]]","3","[[0,0,0],[2,3],[1]]","12","0","","","","","","4","","","","","","","","",""
"","","","","","single-stim-button","190","484888","0.0-2.0-46.3-0.3","62a2832342dd3f99e7cd6822","C3","batch3","","2238","tol_tohand","","","","tol_peg_2","2238","2238","0","[[1,0,0],[3,0],[0]]","4","[[0,0,0],[2,3],[1]]","12","0","","","","","","4","","","","","","","","",""
"","","","","","single-stim-button","191","485642","0.0-2.0-46.3-1.3","62a2832342dd3f99e7cd6822","C3","batch3","","753","tol_toboard","","","","tol_peg_3","753","753","0","[[1,0,0],[3,0],[2]]","4","[[0,0,0],[2,3],[1]]","12","0","","","","","","4","","","","","","","","",""
"","","","","","single-stim-button","192","486047","0.0-2.0-46.4-0.4","62a2832342dd3f99e7cd6822","C3","batch3","","404","tol_tohand","","","","tol_peg_2","404","404","0","[[1,0,0],[0,0],[2]]","5","[[0,0,0],[2,3],[1]]","12","0","","","","","","4","","","","","","","","",""
"","","","","","single-stim-button","193","486655","0.0-2.0-46.4-1.4","62a2832342dd3f99e7cd6822","C3","batch3","","607","tol_toboard","","","","tol_peg_1","607","607","0","[[1,3,0],[0,0],[2]]","5","[[0,0,0],[2,3],[1]]","12","0","","","","","","4","","","","","","","","",""
"","","","","","single-stim-button","194","487274","0.0-2.0-46.5-0.5","62a2832342dd3f99e7cd6822","C3","batch3","","618","tol_tohand","","","","tol_peg_3","618","618","0","[[1,3,0],[0,0],[0]]","6","[[0,0,0],[2,3],[1]]","12","0","","","","","","4","","","","","","","","",""
"","","","","","single-stim-button","195","487813","0.0-2.0-46.5-1.5","62a2832342dd3f99e7cd6822","C3","batch3","","539","tol_toboard","","","","tol_peg_2","539","539","0","[[1,3,0],[2,0],[0]]","6","[[0,0,0],[2,3],[1]]","12","0","","","","","","4","","","","","","","","",""
"","","","","","single-stim-button","196","488657","0.0-2.0-46.6-0.6","62a2832342dd3f99e7cd6822","C3","batch3","","843","tol_tohand","","","","tol_peg_1","843","843","0","[[1,0,0],[2,0],[0]]","7","[[0,0,0],[2,3],[1]]","12","0","","","","","","4","","","","","","","","",""
"","","","","","single-stim-button","197","489152","0.0-2.0-46.6-1.6","62a2832342dd3f99e7cd6822","C3","batch3","","495","tol_toboard","","","","tol_peg_2","495","495","0","[[1,0,0],[2,3],[0]]","7","[[0,0,0],[2,3],[1]]","12","0","","","","","","4","","","","","","","","",""
"","","","","","single-stim-button","198","489715","0.0-2.0-46.7-0.7","62a2832342dd3f99e7cd6822","C3","batch3","","562","tol_tohand","","","","tol_peg_1","562","562","0","[[0,0,0],[2,3],[0]]","8","[[0,0,0],[2,3],[1]]","12","0","","","","","","4","","","","","","","","",""
"","","","","","single-stim-button","199","490333","0.0-2.0-46.7-1.7","62a2832342dd3f99e7cd6822","C3","batch3","","618","tol_toboard","","","","tol_peg_3","618","618","0","[[0,0,0],[2,3],[1]]","8","[[0,0,0],[2,3],[1]]","12","0","","","","","","4","","","","","","","","",""
"","","","","","poldrack-single-stim","200","491334","0.0-2.0-47.0","62a2832342dd3f99e7cd6822","C3","batch3","","-1","tol_feedback","","","true","","1000","1000","500","","","","","","-1","none","true","2305","15451","","","","","","","","","",""
"","","","","","html-button-response","201","495261","0.0-2.0-48.0","62a2832342dd3f99e7cd6822","C3","batch3","","3926.2000000476837","attention_check","<p class = block-text>How many balls are in your board<br></p>","1","true","","","","","","","","","","","","","","","","","","","","","","","",""
"","","","","","html-button-response","202","496195","0.0-2.0-49.0","62a2832342dd3f99e7cd6822","C3","batch3","","932.4000000953674","tol_trial_num","<div class = centerbox><p class = center-block-text>problem <strong>14</strong> out of 25 problems</p></div>","0","","","","","","","","","","","","","","","","","","","","","","","","",""
"","","","","","single-stim-button","203","500031","0.0-2.0-50.0-0.0","62a2832342dd3f99e7cd6822","C3","batch3","","3836","tol_tohand","","","","tol_peg_1","3836","3836","0","[[2,0,0],[3,0],[0]]","1","[[1,2,0],[3,0],[0]]","13","0","","","","","","4","","","","","","","","",""
"","","","","","single-stim-button","204","500571","0.0-2.0-50.0-1.0","62a2832342dd3f99e7cd6822","C3","batch3","","539","tol_toboard","","","","tol_peg_2","539","539","0","[[2,0,0],[3,1],[0]]","1","[[1,2,0],[3,0],[0]]","13","0","","","","","","4","","","","","","","","",""
"","","","","","single-stim-button","205","501078","0.0-2.0-50.1-0.1","62a2832342dd3f99e7cd6822","C3","batch3","","505","tol_tohand","","","","tol_peg_1","505","505","0","[[0,0,0],[3,1],[0]]","2","[[1,2,0],[3,0],[0]]","13","0","","","","","","4","","","","","","","","",""
"","","","","","single-stim-button","206","501820","0.0-2.0-50.1-1.1","62a2832342dd3f99e7cd6822","C3","batch3","","742","tol_toboard","","","","tol_peg_3","742","742","0","[[0,0,0],[3,1],[2]]","2","[[1,2,0],[3,0],[0]]","13","0","","","","","","4","","","","","","","","",""
"","","","","","single-stim-button","207","502191","0.0-2.0-50.2-0.2","62a2832342dd3f99e7cd6822","C3","batch3","","371","tol_tohand","","","","tol_peg_2","371","371","0","[[0,0,0],[3,0],[2]]","3","[[1,2,0],[3,0],[0]]","13","0","","","","","","4","","","","","","","","",""
"","","","","","single-stim-button","208","503125","0.0-2.0-50.2-1.2","62a2832342dd3f99e7cd6822","C3","batch3","","933","tol_toboard","","","","tol_peg_1","933","933","0","[[1,0,0],[3,0],[2]]","3","[[1,2,0],[3,0],[0]]","13","0","","","","","","4","","","","","","","","",""
"","","","","","single-stim-button","209","503620","0.0-2.0-50.3-0.3","62a2832342dd3f99e7cd6822","C3","batch3","","495","tol_tohand","","","","tol_peg_3","495","495","0","[[1,0,0],[3,0],[0]]","4","[[1,2,0],[3,0],[0]]","13","0","","","","","","4","","","","","","","","",""
"","","","","","single-stim-button","210","504329","0.0-2.0-50.3-1.3","62a2832342dd3f99e7cd6822","C3","batch3","","708","tol_toboard","","","","tol_peg_1","708","708","0","[[1,2,0],[3,0],[0]]","4","[[1,2,0],[3,0],[0]]","13","0","","","","","","4","","","","","","","","",""
"","","","","","poldrack-single-stim","211","505336","0.0-2.0-51.0","62a2832342dd3f99e7cd6822","C3","batch3","","-1","tol_feedback","","","true","","1000","1000","500","","","","","","-1","none","true","3836","5207","","","","","","","","","",""
"","","","","","html-button-response","212","506061","0.0-2.0-52.0","62a2832342dd3f99e7cd6822","C3","batch3","","724.3000000715256","tol_trial_num","<div class = centerbox><p class = center-block-text>problem <strong>15</strong> out of 25 problems</p></div>","0","","","","","","","","","","","","","","","","","","","","","","","","",""
"","","","","","single-stim-button","213","515253","0.0-2.0-53.0-0.0","62a2832342dd3f99e7cd6822","C3","batch3","","9191","tol_tohand","","","","tol_peg_1","9191","9191","0","[[1,0,0],[3,0],[0]]","1","[[2,0,0],[3,0],[1]]","14","0","","","","","","3","","","","","","","","",""
"","","","","","single-stim-button","214","515737","0.0-2.0-53.0-1.0","62a2832342dd3f99e7cd6822","C3","batch3","","483","tol_toboard","","","","tol_peg_2","483","483","0","[[1,0,0],[3,2],[0]]","1","[[2,0,0],[3,0],[1]]","14","0","","","","","","3","","","","","","","","",""
"","","","","","single-stim-button","215","516412","0.0-2.0-53.1-0.1","62a2832342dd3f99e7cd6822","C3","batch3","","675","tol_tohand","","","","tol_peg_1","675","675","0","[[0,0,0],[3,2],[0]]","2","[[2,0,0],[3,0],[1]]","14","0","","","","","","3","","","","","","","","",""
"","","","","","single-stim-button","216","516985","0.0-2.0-53.1-1.1","62a2832342dd3f99e7cd6822","C3","batch3","","573","tol_toboard","","","","tol_peg_3","573","573","0","[[0,0,0],[3,2],[1]]","2","[[2,0,0],[3,0],[1]]","14","0","","","","","","3","","","","","","","","",""
"","","","","","single-stim-button","217","517447","0.0-2.0-53.2-0.2","62a2832342dd3f99e7cd6822","C3","batch3","","460","tol_tohand","","","","tol_peg_2","460","460","0","[[0,0,0],[3,0],[1]]","3","[[2,0,0],[3,0],[1]]","14","0","","","","","","3","","","","","","","","",""
"","","","","","single-stim-button","218","518054","0.0-2.0-53.2-1.2","62a2832342dd3f99e7cd6822","C3","batch3","","607","tol_toboard","","","","tol_peg_1","607","607","0","[[2,0,0],[3,0],[1]]","3","[[2,0,0],[3,0],[1]]","14","0","","","","","","3","","","","","","","","",""
"","","","","","poldrack-single-stim","219","519064","0.0-2.0-54.0","62a2832342dd3f99e7cd6822","C3","batch3","","-1","tol_feedback","","","true","","1000","1000","500","","","","","","-1","none","true","9191","10326","","","","","","","","","",""
"","","","","","html-button-response","220","519854","0.0-2.0-55.0","62a2832342dd3f99e7cd6822","C3","batch3","","789.7999999523163","tol_trial_num","<div class = centerbox><p class = center-block-text>problem <strong>16</strong> out of 25 problems</p></div>","0","","","","","","","","","","","","","","","","","","","","","","","","",""
"","","","","","single-stim-button","221","528697","0.0-2.0-56.0-0.0","62a2832342dd3f99e7cd6822","C3","batch3","","8842","tol_tohand","","","","tol_peg_2","8842","8842","0","[[0,0,0],[2,0],[1]]","1","[[2,3,0],[1,0],[0]]","15","0","","","","","","7","","","","","","","","",""
"","","","","","single-stim-button","222","528900","0.0-2.0-56.0-1.0","62a2832342dd3f99e7cd6822","C3","batch3","","201","tol_toboard","","","","tol_peg_2","201","201","0","[[0,0,0],[2,3],[1]]","1","[[2,3,0],[1,0],[0]]","15","0","","","","","","7","","","","","","","","",""
"","","","","","single-stim-button","223","529710","0.0-2.0-56.1-0.1","62a2832342dd3f99e7cd6822","C3","batch3","","809","tol_tohand","","","","tol_peg_2","809","809","0","[[0,0,0],[2,0],[1]]","2","[[2,3,0],[1,0],[0]]","15","0","","","","","","7","","","","","","","","",""
"","","","","","single-stim-button","224","530295","0.0-2.0-56.1-1.1","62a2832342dd3f99e7cd6822","C3","batch3","","584","tol_toboard","","","","tol_peg_1","584","584","0","[[3,0,0],[2,0],[1]]","2","[[2,3,0],[1,0],[0]]","15","0","","","","","","7","","","","","","","","",""
"","","","","","single-stim-button","225","530733","0.0-2.0-56.2-0.2","62a2832342dd3f99e7cd6822","C3","batch3","","438","tol_tohand","","","","tol_peg_2","438","438","0","[[3,0,0],[0,0],[1]]","3","[[2,3,0],[1,0],[0]]","15","0","","","","","","7","","","","","","","","",""
"","","","","","single-stim-button","226","531464","0.0-2.0-56.2-1.2","62a2832342dd3f99e7cd6822","C3","batch3","","730","tol_toboard","","","","tol_peg_1","730","730","0","[[3,2,0],[0,0],[1]]","3","[[2,3,0],[1,0],[0]]","15","0","","","","","","7","","","","","","","","",""
"","","","","","single-stim-button","227","532027","0.0-2.0-56.3-0.3","62a2832342dd3f99e7cd6822","C3","batch3","","562","tol_tohand","","","","tol_peg_3","562","562","0","[[3,2,0],[0,0],[0]]","4","[[2,3,0],[1,0],[0]]","15","0","","","","","","7","","","","","","","","",""
"","","","","","single-stim-button","228","532646","0.0-2.0-56.3-1.3","62a2832342dd3f99e7cd6822","C3","batch3","","618","tol_toboard","","","","tol_peg_2","618","618","0","[[3,2,0],[1,0],[0]]","4","[[2,3,0],[1,0],[0]]","15","0","","","","","","7","","","","","","","","",""
"","","","","","single-stim-button","229","534029","0.0-2.0-56.4-0.4","62a2832342dd3f99e7cd6822","C3","batch3","","1383","tol_tohand","","","","tol_peg_1","1383","1383","0","[[3,0,0],[1,0],[0]]","5","[[2,3,0],[1,0],[0]]","15","0","","","","","","7","","","","","","","","",""
"","","","","","single-stim-button","230","534558","0.0-2.0-56.4-1.4","62a2832342dd3f99e7cd6822","C3","batch3","","528","tol_toboard","","","","tol_peg_2","528","528","0","[[3,0,0],[1,2],[0]]","5","[[2,3,0],[1,0],[0]]","15","0","","","","","","7","","","","","","","","",""
"","","","","","single-stim-button","231","535065","0.0-2.0-56.5-0.5","62a2832342dd3f99e7cd6822","C3","batch3","","505","tol_tohand","","","","tol_peg_1","505","505","0","[[0,0,0],[1,2],[0]]","6","[[2,3,0],[1,0],[0]]","15","0","","","","","","7","","","","","","","","",""
"","","","","","single-stim-button","232","535931","0.0-2.0-56.5-1.5","62a2832342dd3f99e7cd6822","C3","batch3","","866","tol_toboard","","","","tol_peg_3","866","866","0","[[0,0,0],[1,2],[3]]","6","[[2,3,0],[1,0],[0]]","15","0","","","","","","7","","","","","","","","",""
"","","","","","single-stim-button","233","536662","0.0-2.0-56.6-0.6","62a2832342dd3f99e7cd6822","C3","batch3","","731","tol_tohand","","","","tol_peg_2","731","731","0","[[0,0,0],[1,0],[3]]","7","[[2,3,0],[1,0],[0]]","15","0","","","","","","7","","","","","","","","",""
"","","","","","single-stim-button","234","537281","0.0-2.0-56.6-1.6","62a2832342dd3f99e7cd6822","C3","batch3","","619","tol_toboard","","","","tol_peg_1","619","619","0","[[2,0,0],[1,0],[3]]","7","[[2,3,0],[1,0],[0]]","15","0","","","","","","7","","","","","","","","",""
"","","","","","single-stim-button","235","537956","0.0-2.0-56.7-0.7","62a2832342dd3f99e7cd6822","C3","batch3","","675","tol_tohand","","","","tol_peg_3","675","675","0","[[2,0,0],[1,0],[0]]","8","[[2,3,0],[1,0],[0]]","15","0","","","","","","7","","","","","","","","",""
"","","","","","single-stim-button","236","538665","0.0-2.0-56.7-1.7","62a2832342dd3f99e7cd6822","C3","batch3","","708","tol_toboard","","","","tol_peg_1","708","708","0","[[2,3,0],[1,0],[0]]","8","[[2,3,0],[1,0],[0]]","15","0","","","","","","7","","","","","","","","",""
"","","","","","poldrack-single-stim","237","539672","0.0-2.0-57.0","62a2832342dd3f99e7cd6822","C3","batch3","","-1","tol_feedback","","","true","","1000","1000","500","","","","","","-1","none","true","8842","13945","","","","","","","","","",""
"","","","","","html-button-response","238","540453","0.0-2.0-58.0","62a2832342dd3f99e7cd6822","C3","batch3","","780.4000000953674","tol_trial_num","<div class = centerbox><p class = center-block-text>problem <strong>17</strong> out of 25 problems</p></div>","0","","","","","","","","","","","","","","","","","","","","","","","","",""
"","","","","","single-stim-button","239","553189","0.0-2.0-59.0-0.0","62a2832342dd3f99e7cd6822","C3","batch3","","12735","tol_tohand","","","","tol_peg_2","12735","12735","0","[[1,2,0],[0,0],[0]]","1","[[3,1,0],[2,0],[0]]","16","0","","","","","","5","","","","","","","","",""
"","","","","","single-stim-button","240","553875","0.0-2.0-59.0-1.0","62a2832342dd3f99e7cd6822","C3","batch3","","685","tol_toboard","","","","tol_peg_3","685","685","0","[[1,2,0],[0,0],[3]]","1","[[3,1,0],[2,0],[0]]","16","0","","","","","","5","","","","","","","","",""
"","","","","","single-stim-button","241","554573","0.0-2.0-59.1-0.1","62a2832342dd3f99e7cd6822","C3","batch3","","697","tol_tohand","","","","tol_peg_1","697","697","0","[[1,0,0],[0,0],[3]]","2","[[3,1,0],[2,0],[0]]","16","0","","","","","","5","","","","","","","","",""
"","","","","","single-stim-button","242","555630","0.0-2.0-59.1-1.1","62a2832342dd3f99e7cd6822","C3","batch3","","1057","tol_toboard","","","","tol_peg_2","1057","1057","0","[[1,0,0],[2,0],[3]]","2","[[3,1,0],[2,0],[0]]","16","0","","","","","","5","","","","","","","","",""
"","","","","","single-stim-button","243","556688","0.0-2.0-59.2-0.2","62a2832342dd3f99e7cd6822","C3","batch3","","1058","tol_tohand","","","","tol_peg_1","1058","1058","0","[[0,0,0],[2,0],[3]]","3","[[3,1,0],[2,0],[0]]","16","0","","","","","","5","","","","","","","","",""
"","","","","","single-stim-button","244","557352","0.0-2.0-59.2-1.2","62a2832342dd3f99e7cd6822","C3","batch3","","663","tol_toboard","","","","tol_peg_2","663","663","0","[[0,0,0],[2,1],[3]]","3","[[3,1,0],[2,0],[0]]","16","0","","","","","","5","","","","","","","","",""
"","","","","","single-stim-button","245","557858","0.0-2.0-59.3-0.3","62a2832342dd3f99e7cd6822","C3","batch3","","506","tol_tohand","","","","tol_peg_3","506","506","0","[[0,0,0],[2,1],[0]]","4","[[3,1,0],[2,0],[0]]","16","0","","","","","","5","","","","","","","","",""
"","","","","","single-stim-button","246","558578","0.0-2.0-59.3-1.3","62a2832342dd3f99e7cd6822","C3","batch3","","720","tol_toboard","","","","tol_peg_1","720","720","0","[[3,0,0],[2,1],[0]]","4","[[3,1,0],[2,0],[0]]","16","0","","","","","","5","","","","","","","","",""
"","","","","","single-stim-button","247","558994","0.0-2.0-59.4-0.4","62a2832342dd3f99e7cd6822","C3","batch3","","416","tol_tohand","","","","tol_peg_2","416","416","0","[[3,0,0],[2,0],[0]]","5","[[3,1,0],[2,0],[0]]","16","0","","","","","","5","","","","","","","","",""
"","","","","","single-stim-button","248","559444","0.0-2.0-59.4-1.4","62a2832342dd3f99e7cd6822","C3","batch3","","450","tol_toboard","","","","tol_peg_1","450","450","0","[[3,1,0],[2,0],[0]]","5","[[3,1,0],[2,0],[0]]","16","0","","","","","","5","","","","","","","","",""
"","","","","","poldrack-single-stim","249","560446","0.0-2.0-60.0","62a2832342dd3f99e7cd6822","C3","batch3","","-1","tol_feedback","","","true","","1000","1000","500","","","","","","-1","none","true","12735","15412","","","","","","","","","",""
"","","","","","html-button-response","250","561131","0.0-2.0-61.0","62a2832342dd3f99e7cd6822","C3","batch3","","684.3999999761581","tol_trial_num","<div class = centerbox><p class = center-block-text>problem <strong>18</strong> out of 25 problems</p></div>","0","","","","","","","","","","","","","","","","","","","","","","","","",""
"","","","","","single-stim-button","251","565767","0.0-2.0-62.0-0.0","62a2832342dd3f99e7cd6822","C3","batch3","","4634","tol_tohand","","","","tol_peg_1","4634","4634","0","[[1,0,0],[3,0],[0]]","1","[[3,0,0],[2,0],[1]]","17","0","","","","","","5","","","","","","","","",""
"","","","","","single-stim-button","252","566521","0.0-2.0-62.0-1.0","62a2832342dd3f99e7cd6822","C3","batch3","","753","tol_toboard","","","","tol_peg_2","753","753","0","[[1,0,0],[3,2],[0]]","1","[[3,0,0],[2,0],[1]]","17","0","","","","","","5","","","","","","","","",""
"","","","","","single-stim-button","253","566971","0.0-2.0-62.1-0.1","62a2832342dd3f99e7cd6822","C3","batch3","","449","tol_tohand","","","","tol_peg_1","449","449","0","[[0,0,0],[3,2],[0]]","2","[[3,0,0],[2,0],[1]]","17","0","","","","","","5","","","","","","","","",""
"","","","","","single-stim-button","254","567544","0.0-2.0-62.1-1.1","62a2832342dd3f99e7cd6822","C3","batch3","","573","tol_toboard","","","","tol_peg_3","573","573","0","[[0,0,0],[3,2],[1]]","2","[[3,0,0],[2,0],[1]]","17","0","","","","","","5","","","","","","","","",""
"","","","","","single-stim-button","255","570593","0.0-2.0-62.2-0.2","62a2832342dd3f99e7cd6822","C3","batch3","","3048","tol_tohand","","","","tol_peg_3","3048","3048","0","[[0,0,0],[3,2],[0]]","3","[[3,0,0],[2,0],[1]]","17","0","","","","","","5","","","","","","","","",""
"","","","","","single-stim-button","256","571336","0.0-2.0-62.2-1.2","62a2832342dd3f99e7cd6822","C3","batch3","","742","tol_toboard","","","","tol_peg_1","742","742","0","[[1,0,0],[3,2],[0]]","3","[[3,0,0],[2,0],[1]]","17","0","","","","","","5","","","","","","","","",""
"","","","","","single-stim-button","257","571887","0.0-2.0-62.3-0.3","62a2832342dd3f99e7cd6822","C3","batch3","","551","tol_tohand","","","","tol_peg_2","551","551","0","[[1,0,0],[3,0],[0]]","4","[[3,0,0],[2,0],[1]]","17","0","","","","","","5","","","","","","","","",""
"","","","","","single-stim-button","258","582811","0.0-2.0-62.3-1.3","62a2832342dd3f99e7cd6822","C3","batch3","","10924","tol_toboard","","","","tol_peg_3","10924","10924","0","[[1,0,0],[3,0],[2]]","4","[[3,0,0],[2,0],[1]]","17","0","","","","","","5","","","","","","","","",""
"","","","","","single-stim-button","259","592655","0.0-2.0-62.4-0.4","62a2832342dd3f99e7cd6822","C3","batch3","","9843","tol_tohand","","","","tol_peg_1","9843","9843","0","[[0,0,0],[3,0],[2]]","5","[[3,0,0],[2,0],[1]]","17","0","","","","","","5","","","","","","","","",""
"","","","","","single-stim-button","260","593600","0.0-2.0-62.4-1.4","62a2832342dd3f99e7cd6822","C3","batch3","","945","tol_toboard","","","","tol_peg_2","945","945","0","[[0,0,0],[3,1],[2]]","5","[[3,0,0],[2,0],[1]]","17","0","","","","","","5","","","","","","","","",""
"","","","","","single-stim-button","261","594027","0.0-2.0-62.5-0.5","62a2832342dd3f99e7cd6822","C3","batch3","","427","tol_tohand","","","","tol_peg_3","427","427","0","[[0,0,0],[3,1],[0]]","6","[[3,0,0],[2,0],[1]]","17","0","","","","","","5","","","","","","","","",""
"","","","","","single-stim-button","262","595006","0.0-2.0-62.5-1.5","62a2832342dd3f99e7cd6822","C3","batch3","","978","tol_toboard","","","","tol_peg_1","978","978","0","[[2,0,0],[3,1],[0]]","6","[[3,0,0],[2,0],[1]]","17","0","","","","","","5","","","","","","","","",""
"","","","","","single-stim-button","263","595625","0.0-2.0-62.6-0.6","62a2832342dd3f99e7cd6822","C3","batch3","","618","tol_tohand","","","","tol_peg_2","618","618","0","[[2,0,0],[3,0],[0]]","7","[[3,0,0],[2,0],[1]]","17","0","","","","","","5","","","","","","","","",""
"","","","","","single-stim-button","264","596165","0.0-2.0-62.6-1.6","62a2832342dd3f99e7cd6822","C3","batch3","","540","tol_toboard","","","","tol_peg_3","540","540","0","[[2,0,0],[3,0],[1]]","7","[[3,0,0],[2,0],[1]]","17","0","","","","","","5","","","","","","","","",""
"","","","","","single-stim-button","265","602938","0.0-2.0-62.7-0.7","62a2832342dd3f99e7cd6822","C3","batch3","","6773","tol_tohand","","","","tol_peg_3","6773","6773","0","[[2,0,0],[3,0],[0]]","8","[[3,0,0],[2,0],[1]]","17","0","","","","","","5","","","","","","","","",""
"","","","","","single-stim-button","266","604445","0.0-2.0-62.7-1.7","62a2832342dd3f99e7cd6822","C3","batch3","","1507","tol_toboard","","","","tol_peg_2","1507","1507","0","[[2,0,0],[3,1],[0]]","8","[[3,0,0],[2,0],[1]]","17","0","","","","","","5","","","","","","","","",""
"","","","","","single-stim-button","267","604940","0.0-2.0-62.8-0.8","62a2832342dd3f99e7cd6822","C3","batch3","","494","tol_tohand","","","","tol_peg_1","494","494","0","[[0,0,0],[3,1],[0]]","9","[[3,0,0],[2,0],[1]]","17","0","","","","","","5","","","","","","","","",""
"","","","","","single-stim-button","268","605626","0.0-2.0-62.8-1.8","62a2832342dd3f99e7cd6822","C3","batch3","","685","tol_toboard","","","","tol_peg_3","685","685","0","[[0,0,0],[3,1],[2]]","9","[[3,0,0],[2,0],[1]]","17","0","","","","","","5","","","","","","","","",""
"","","","","","single-stim-button","269","606145","0.0-2.0-62.9-0.9","62a2832342dd3f99e7cd6822","C3","batch3","","518","tol_tohand","","","","tol_peg_2","518","518","0","[[0,0,0],[3,0],[2]]","10","[[3,0,0],[2,0],[1]]","17","0","","","","","","5","","","","","","","","",""
"","","","","","single-stim-button","270","606729","0.0-2.0-62.9-1.9","62a2832342dd3f99e7cd6822","C3","batch3","","583","tol_toboard","","","","tol_peg_1","583","583","0","[[1,0,0],[3,0],[2]]","10","[[3,0,0],[2,0],[1]]","17","0","","","","","","5","","","","","","","","",""
"","","","","","single-stim-button","271","609013","0.0-2.0-62.10-0.10","62a2832342dd3f99e7cd6822","C3","batch3","","2284","tol_tohand","","","","tol_peg_1","2284","2284","0","[[0,0,0],[3,0],[2]]","11","[[3,0,0],[2,0],[1]]","17","0","","","","","","5","","","","","","","","",""
"","","","","","single-stim-button","272","613164","0.0-2.0-62.10-1.10","62a2832342dd3f99e7cd6822","C3","batch3","","4151","tol_toboard","","","","tol_peg_1","4151","4151","0","[[1,0,0],[3,0],[2]]","11","[[3,0,0],[2,0],[1]]","17","0","","","","","","5","","","","","","","","",""
"","","","","","single-stim-button","273","614662","0.0-2.0-62.11-0.11","62a2832342dd3f99e7cd6822","C3","batch3","","1496","tol_tohand","","","","tol_peg_3","1496","1496","0","[[1,0,0],[3,0],[0]]","12","[[3,0,0],[2,0],[1]]","17","0","","","","","","5","","","","","","","","",""
"","","","","","single-stim-button","274","615313","0.0-2.0-62.11-1.11","62a2832342dd3f99e7cd6822","C3","batch3","","651","tol_toboard","","","","tol_peg_1","651","651","0","[[1,2,0],[3,0],[0]]","12","[[3,0,0],[2,0],[1]]","17","0","","","","","","5","","","","","","","","",""
"","","","","","single-stim-button","275","617529","0.0-2.0-62.12-0.12","62a2832342dd3f99e7cd6822","C3","batch3","","2215","tol_tohand","","","","tol_peg_2","2215","2215","0","[[1,2,0],[0,0],[0]]","13","[[3,0,0],[2,0],[1]]","17","0","","","","","","5","","","","","","","","",""
"","","","","","single-stim-button","276","617968","0.0-2.0-62.12-1.12","62a2832342dd3f99e7cd6822","C3","batch3","","438","tol_toboard","","","","tol_peg_1","438","438","0","[[1,2,3],[0,0],[0]]","13","[[3,0,0],[2,0],[1]]","17","0","","","","","","5","","","","","","","","",""
"","","","","","single-stim-button","277","619217","0.0-2.0-62.13-0.13","62a2832342dd3f99e7cd6822","C3","batch3","","1248","tol_tohand","","","","tol_peg_1","1248","1248","0","[[1,2,0],[0,0],[0]]","14","[[3,0,0],[2,0],[1]]","17","0","","","","","","5","","","","","","","","",""
"","","","","","single-stim-button","278","620409","0.0-2.0-62.13-1.13","62a2832342dd3f99e7cd6822","C3","batch3","","1192","tol_toboard","","","","tol_peg_2","1192","1192","0","[[1,2,0],[3,0],[0]]","14","[[3,0,0],[2,0],[1]]","17","0","","","","","","5","","","","","","","","",""
"","","","","","single-stim-button","279","621838","0.0-2.0-62.14-0.14","62a2832342dd3f99e7cd6822","C3","batch3","","1428","tol_tohand","","","","tol_peg_1","1428","1428","0","[[1,0,0],[3,0],[0]]","15","[[3,0,0],[2,0],[1]]","17","0","","","","","","5","","","","","","","","",""
"","","","","","single-stim-button","280","622378","0.0-2.0-62.14-1.14","62a2832342dd3f99e7cd6822","C3","batch3","","540","tol_toboard","","","","tol_peg_2","540","540","0","[[1,0,0],[3,2],[0]]","15","[[3,0,0],[2,0],[1]]","17","0","","","","","","5","","","","","","","","",""
"","","","","","single-stim-button","281","622974","0.0-2.0-62.15-0.15","62a2832342dd3f99e7cd6822","C3","batch3","","595","tol_tohand","","","","tol_peg_1","595","595","0","[[0,0,0],[3,2],[0]]","16","[[3,0,0],[2,0],[1]]","17","0","","","","","","5","","","","","","","","",""
"","","","","","single-stim-button","282","625158","0.0-2.0-62.15-1.15","62a2832342dd3f99e7cd6822","C3","batch3","","2183","tol_toboard","","","","tol_peg_1","2183","2183","0","[[1,0,0],[3,2],[0]]","16","[[3,0,0],[2,0],[1]]","17","0","","","","","","5","","","","","","","","",""
"","","","","","single-stim-button","283","657535","0.0-2.0-62.16-0.16","62a2832342dd3f99e7cd6822","C3","batch3","","32376","tol_tohand","","","","tol_peg_2","32376","32376","0","[[1,0,0],[3,0],[0]]","17","[[3,0,0],[2,0],[1]]","17","0","","","","","","5","","","","","","","","",""
"","","","","","single-stim-button","284","658199","0.0-2.0-62.16-1.16","62a2832342dd3f99e7cd6822","C3","batch3","","663","tol_toboard","","","","tol_peg_2","663","663","0","[[1,0,0],[3,2],[0]]","17","[[3,0,0],[2,0],[1]]","17","0","","","","","","5","","","","","","","","",""
"","","","","","single-stim-button","285","658818","0.0-2.0-62.17-0.17","62a2832342dd3f99e7cd6822","C3","batch3","","618","tol_tohand","","","","tol_peg_2","618","618","0","[[1,0,0],[3,0],[0]]","18","[[3,0,0],[2,0],[1]]","17","0","","","","","","5","","","","","","","","",""
"","","","","","single-stim-button","286","659684","0.0-2.0-62.17-1.17","62a2832342dd3f99e7cd6822","C3","batch3","","865","tol_toboard","","","","tol_peg_1","865","865","0","[[1,2,0],[3,0],[0]]","18","[[3,0,0],[2,0],[1]]","17","0","","","","","","5","","","","","","","","",""
"","","","","","single-stim-button","287","662272","0.0-2.0-62.18-0.18","62a2832342dd3f99e7cd6822","C3","batch3","","2587","tol_tohand","","","","tol_peg_2","2587","2587","0","[[1,2,0],[0,0],[0]]","19","[[3,0,0],[2,0],[1]]","17","0","","","","","","5","","","","","","","","",""
"","","","","","single-stim-button","288","663048","0.0-2.0-62.18-1.18","62a2832342dd3f99e7cd6822","C3","batch3","","776","tol_toboard","","","","tol_peg_3","776","776","0","[[1,2,0],[0,0],[3]]","19","[[3,0,0],[2,0],[1]]","17","0","","","","","","5","","","","","","","","",""
"","","","","","single-stim-button","289","663802","0.0-2.0-62.19-0.19","62a2832342dd3f99e7cd6822","C3","batch3","","753","tol_tohand","","","","tol_peg_1","753","753","0","[[1,0,0],[0,0],[3]]","20","[[3,0,0],[2,0],[1]]","17","0","","","","","","5","","","","","","","","",""
"","","","","","single-stim-button","290","664645","0.0-2.0-62.19-1.19","62a2832342dd3f99e7cd6822","C3","batch3","","843","tol_toboard","","","","tol_peg_2","843","843","0","[[1,0,0],[2,0],[3]]","20","[[3,0,0],[2,0],[1]]","17","0","","","","","","5","","","","","","","","",""
"","","","","","single-stim-button","291","667188","0.0-2.0-62.20-0.20","62a2832342dd3f99e7cd6822","C3","batch3","","2542","tol_tohand","","","","tol_peg_1","2542","2542","0","[[0,0,0],[2,0],[3]]","21","[[3,0,0],[2,0],[1]]","17","0","","","","","","5","","","","","","","","",""
"","","","","","single-stim-button","292","667694","0.0-2.0-62.20-1.20","62a2832342dd3f99e7cd6822","C3","batch3","","505","tol_toboard","","","","tol_peg_2","505","505","0","[[0,0,0],[2,1],[3]]","21","[[3,0,0],[2,0],[1]]","17","0","","","","","","5","","","","","","","","",""
"","","","","","single-stim-button","293","668156","0.0-2.0-62.21-0.21","62a2832342dd3f99e7cd6822","C3","batch3","","460","tol_tohand","","","","tol_peg_3","460","460","0","[[0,0,0],[2,1],[0]]","22","[[3,0,0],[2,0],[1]]","17","0","","","","","","5","","","","","","","","",""
"","","","","","single-stim-button","294","668752","0.0-2.0-62.21-1.21","62a2832342dd3f99e7cd6822","C3","batch3","","596","tol_toboard","","","","tol_peg_1","596","596","0","[[3,0,0],[2,1],[0]]","22","[[3,0,0],[2,0],[1]]","17","0","","","","","","5","","","","","","","","",""
"","","","","","single-stim-button","295","669180","0.0-2.0-62.22-0.22","62a2832342dd3f99e7cd6822","C3","batch3","","427","tol_tohand","","","","tol_peg_2","427","427","0","[[3,0,0],[2,0],[0]]","23","[[3,0,0],[2,0],[1]]","17","0","","","","","","5","","","","","","","","",""
"","","","","","single-stim-button","296","669663","0.0-2.0-62.22-1.22","62a2832342dd3f99e7cd6822","C3","batch3","","483","tol_toboard","","","","tol_peg_3","483","483","0","[[3,0,0],[2,0],[1]]","23","[[3,0,0],[2,0],[1]]","17","0","","","","","","5","","","","","","","","",""
"","","","","","poldrack-single-stim","297","670671","0.0-2.0-63.0","62a2832342dd3f99e7cd6822","C3","batch3","","-1","tol_feedback","","","true","","1000","1000","500","","","","","","-1","none","true","4634","76384","","","","","","","","","",""
"","","","","","html-button-response","298","671508","0.0-2.0-64.0","62a2832342dd3f99e7cd6822","C3","batch3","","836.3999999761581","tol_trial_num","<div class = centerbox><p class = center-block-text>problem <strong>19</strong> out of 25 problems</p></div>","0","","","","","","","","","","","","","","","","","","","","","","","","",""
"","","","","","single-stim-button","299","690735","0.0-2.0-65.0-0.0","62a2832342dd3f99e7cd6822","C3","batch3","","19227","tol_tohand","","","","tol_peg_1","19227","19227","0","[[1,0,0],[3,0],[0]]","1","[[0,0,0],[1,2],[3]]","18","0","","","","","","7","","","","","","","","",""
"","","","","","single-stim-button","300","693480","0.0-2.0-65.0-1.0","62a2832342dd3f99e7cd6822","C3","batch3","","2744","tol_toboard","","","","tol_peg_2","2744","2744","0","[[1,0,0],[3,2],[0]]","1","[[0,0,0],[1,2],[3]]","18","0","","","","","","7","","","","","","","","",""
"","","","","","single-stim-button","301","693997","0.0-2.0-65.1-0.1","62a2832342dd3f99e7cd6822","C3","batch3","","517","tol_tohand","","","","tol_peg_1","517","517","0","[[0,0,0],[3,2],[0]]","2","[[0,0,0],[1,2],[3]]","18","0","","","","","","7","","","","","","","","",""
"","","","","","single-stim-button","302","694707","0.0-2.0-65.1-1.1","62a2832342dd3f99e7cd6822","C3","batch3","","709","tol_toboard","","","","tol_peg_3","709","709","0","[[0,0,0],[3,2],[1]]","2","[[0,0,0],[1,2],[3]]","18","0","","","","","","7","","","","","","","","",""
"","","","","","single-stim-button","303","698565","0.0-2.0-65.2-0.2","62a2832342dd3f99e7cd6822","C3","batch3","","3857","tol_tohand","","","","tol_peg_2","3857","3857","0","[[0,0,0],[3,0],[1]]","3","[[0,0,0],[1,2],[3]]","18","0","","","","","","7","","","","","","","","",""
"","","","","","single-stim-button","304","699342","0.0-2.0-65.2-1.2","62a2832342dd3f99e7cd6822","C3","batch3","","776","tol_toboard","","","","tol_peg_1","776","776","0","[[2,0,0],[3,0],[1]]","3","[[0,0,0],[1,2],[3]]","18","0","","","","","","7","","","","","","","","",""
"","","","","","single-stim-button","305","700106","0.0-2.0-65.3-0.3","62a2832342dd3f99e7cd6822","C3","batch3","","764","tol_tohand","","","","tol_peg_2","764","764","0","[[2,0,0],[0,0],[1]]","4","[[0,0,0],[1,2],[3]]","18","0","","","","","","7","","","","","","","","",""
"","","","","","single-stim-button","306","700759","0.0-2.0-65.3-1.3","62a2832342dd3f99e7cd6822","C3","batch3","","652","tol_toboard","","","","tol_peg_1","652","652","0","[[2,3,0],[0,0],[1]]","4","[[0,0,0],[1,2],[3]]","18","0","","","","","","7","","","","","","","","",""
"","","","","","single-stim-button","307","701501","0.0-2.0-65.4-0.4","62a2832342dd3f99e7cd6822","C3","batch3","","741","tol_tohand","","","","tol_peg_3","741","741","0","[[2,3,0],[0,0],[0]]","5","[[0,0,0],[1,2],[3]]","18","0","","","","","","7","","","","","","","","",""
"","","","","","single-stim-button","308","702199","0.0-2.0-65.4-1.4","62a2832342dd3f99e7cd6822","C3","batch3","","697","tol_toboard","","","","tol_peg_2","697","697","0","[[2,3,0],[1,0],[0]]","5","[[0,0,0],[1,2],[3]]","18","0","","","","","","7","","","","","","","","",""
"","","","","","single-stim-button","309","702975","0.0-2.0-65.5-0.5","62a2832342dd3f99e7cd6822","C3","batch3","","775","tol_tohand","","","","tol_peg_1","775","775","0","[[2,0,0],[1,0],[0]]","6","[[0,0,0],[1,2],[3]]","18","0","","","","","","7","","","","","","","","",""
"","","","","","single-stim-button","310","703740","0.0-2.0-65.5-1.5","62a2832342dd3f99e7cd6822","C3","batch3","","764","tol_toboard","","","","tol_peg_3","764","764","0","[[2,0,0],[1,0],[3]]","6","[[0,0,0],[1,2],[3]]","18","0","","","","","","7","","","","","","","","",""
"","","","","","single-stim-button","311","704248","0.0-2.0-65.6-0.6","62a2832342dd3f99e7cd6822","C3","batch3","","507","tol_tohand","","","","tol_peg_1","507","507","0","[[0,0,0],[1,0],[3]]","7","[[0,0,0],[1,2],[3]]","18","0","","","","","","7","","","","","","","","",""
"","","","","","single-stim-button","312","704854","0.0-2.0-65.6-1.6","62a2832342dd3f99e7cd6822","C3","batch3","","606","tol_toboard","","","","tol_peg_2","606","606","0","[[0,0,0],[1,2],[3]]","7","[[0,0,0],[1,2],[3]]","18","0","","","","","","7","","","","","","","","",""
"","","","","","poldrack-single-stim","313","705855","0.0-2.0-66.0","62a2832342dd3f99e7cd6822","C3","batch3","","-1","tol_feedback","","","true","","1000","1000","500","","","","","","-1","none","true","19227","26388","","","","","","","","","",""
"","","","","","html-button-response","314","706755","0.0-2.0-67.0","62a2832342dd3f99e7cd6822","C3","batch3","","899.6999999284744","tol_trial_num","<div class = centerbox><p class = center-block-text>problem <strong>20</strong> out of 25 problems</p></div>","0","","","","","","","","","","","","","","","","","","","","","","","","",""
"","","","","","single-stim-button","315","709861","0.0-2.0-68.0-0.0","62a2832342dd3f99e7cd6822","C3","batch3","","3104","tol_tohand","","","","tol_peg_2","3104","3104","0","[[1,2,0],[0,0],[0]]","1","[[2,1,0],[0,0],[3]]","19","0","","","","","","5","","","","","","","","",""
"","","","","","single-stim-button","316","710423","0.0-2.0-68.0-1.0","62a2832342dd3f99e7cd6822","C3","batch3","","562","tol_toboard","","","","tol_peg_3","562","562","0","[[1,2,0],[0,0],[3]]","1","[[2,1,0],[0,0],[3]]","19","0","","","","","","5","","","","","","","","",""
"","","","","","single-stim-button","317","714293","0.0-2.0-68.1-0.1","62a2832342dd3f99e7cd6822","C3","batch3","","3870","tol_tohand","","","","tol_peg_3","3870","3870","0","[[1,2,0],[0,0],[0]]","2","[[2,1,0],[0,0],[3]]","19","0","","","","","","5","","","","","","","","",""
"","","","","","single-stim-button","318","715418","0.0-2.0-68.1-1.1","62a2832342dd3f99e7cd6822","C3","batch3","","1125","tol_toboard","","","","tol_peg_2","1125","1125","0","[[1,2,0],[3,0],[0]]","2","[[2,1,0],[0,0],[3]]","19","0","","","","","","5","","","","","","","","",""
"","","","","","single-stim-button","319","716611","0.0-2.0-68.2-0.2","62a2832342dd3f99e7cd6822","C3","batch3","","1191","tol_tohand","","","","tol_peg_1","1191","1191","0","[[1,0,0],[3,0],[0]]","3","[[2,1,0],[0,0],[3]]","19","0","","","","","","5","","","","","","","","",""
"","","","","","single-stim-button","320","717218","0.0-2.0-68.2-1.2","62a2832342dd3f99e7cd6822","C3","batch3","","607","tol_toboard","","","","tol_peg_2","607","607","0","[[1,0,0],[3,2],[0]]","3","[[2,1,0],[0,0],[3]]","19","0","","","","","","5","","","","","","","","",""
"","","","","","single-stim-button","321","718186","0.0-2.0-68.3-0.3","62a2832342dd3f99e7cd6822","C3","batch3","","966","tol_tohand","","","","tol_peg_1","966","966","0","[[0,0,0],[3,2],[0]]","4","[[2,1,0],[0,0],[3]]","19","0","","","","","","5","","","","","","","","",""
"","","","","","single-stim-button","322","718984","0.0-2.0-68.3-1.3","62a2832342dd3f99e7cd6822","C3","batch3","","798","tol_toboard","","","","tol_peg_3","798","798","0","[[0,0,0],[3,2],[1]]","4","[[2,1,0],[0,0],[3]]","19","0","","","","","","5","","","","","","","","",""
"","","","","","single-stim-button","323","719547","0.0-2.0-68.4-0.4","62a2832342dd3f99e7cd6822","C3","batch3","","562","tol_tohand","","","","tol_peg_2","562","562","0","[[0,0,0],[3,0],[1]]","5","[[2,1,0],[0,0],[3]]","19","0","","","","","","5","","","","","","","","",""
"","","","","","single-stim-button","324","720244","0.0-2.0-68.4-1.4","62a2832342dd3f99e7cd6822","C3","batch3","","697","tol_toboard","","","","tol_peg_1","697","697","0","[[2,0,0],[3,0],[1]]","5","[[2,1,0],[0,0],[3]]","19","0","","","","","","5","","","","","","","","",""
"","","","","","single-stim-button","325","720751","0.0-2.0-68.5-0.5","62a2832342dd3f99e7cd6822","C3","batch3","","506","tol_tohand","","","","tol_peg_3","506","506","0","[[2,0,0],[3,0],[0]]","6","[[2,1,0],[0,0],[3]]","19","0","","","","","","5","","","","","","","","",""
"","","","","","single-stim-button","326","721449","0.0-2.0-68.5-1.5","62a2832342dd3f99e7cd6822","C3","batch3","","697","tol_toboard","","","","tol_peg_1","697","697","0","[[2,1,0],[3,0],[0]]","6","[[2,1,0],[0,0],[3]]","19","0","","","","","","5","","","","","","","","",""
"","","","","","single-stim-button","327","722067","0.0-2.0-68.6-0.6","62a2832342dd3f99e7cd6822","C3","batch3","","618","tol_tohand","","","","tol_peg_2","618","618","0","[[2,1,0],[0,0],[0]]","7","[[2,1,0],[0,0],[3]]","19","0","","","","","","5","","","","","","","","",""
"","","","","","single-stim-button","328","722539","0.0-2.0-68.6-1.6","62a2832342dd3f99e7cd6822","C3","batch3","","471","tol_toboard","","","","tol_peg_3","471","471","0","[[2,1,0],[0,0],[3]]","7","[[2,1,0],[0,0],[3]]","19","0","","","","","","5","","","","","","","","",""
"","","","","","poldrack-single-stim","329","723551","0.0-2.0-69.0","62a2832342dd3f99e7cd6822","C3","batch3","","-1","tol_feedback","","","true","","1000","1000","500","","","","","","-1","none","true","3104","10817","","","","","","","","","",""
"","","","","","html-button-response","330","724722","0.0-2.0-70.0","62a2832342dd3f99e7cd6822","C3","batch3","","1170.2000000476837","tol_trial_num","<div class = centerbox><p class = center-block-text>problem <strong>21</strong> out of 25 problems</p></div>","0","","","","","","","","","","","","","","","","","","","","","","","","",""
"","","","","","single-stim-button","331","734858","0.0-2.0-71.0-0.0","62a2832342dd3f99e7cd6822","C3","batch3","","10136","tol_tohand","","","","tol_peg_1","10136","10136","0","[[1,0,0],[3,0],[0]]","1","[[3,2,0],[0,0],[1]]","20","0","","","","","","6","","","","","","","","",""
"","","","","","single-stim-button","332","736164","0.0-2.0-71.0-1.0","62a2832342dd3f99e7cd6822","C3","batch3","","1304","tol_toboard","","","","tol_peg_1","1304","1304","0","[[1,2,0],[3,0],[0]]","1","[[3,2,0],[0,0],[1]]","20","0","","","","","","6","","","","","","","","",""
"","","","","","single-stim-button","333","740146","0.0-2.0-71.1-0.1","62a2832342dd3f99e7cd6822","C3","batch3","","3982","tol_tohand","","","","tol_peg_1","3982","3982","0","[[1,0,0],[3,0],[0]]","2","[[3,2,0],[0,0],[1]]","20","0","","","","","","6","","","","","","","","",""
"","","","","","single-stim-button","334","743420","0.0-2.0-71.1-1.1","62a2832342dd3f99e7cd6822","C3","batch3","","3273","tol_toboard","","","","tol_peg_3","3273","3273","0","[[1,0,0],[3,0],[2]]","2","[[3,2,0],[0,0],[1]]","20","0","","","","","","6","","","","","","","","",""
"","","","","","single-stim-button","335","746885","0.0-2.0-71.2-0.2","62a2832342dd3f99e7cd6822","C3","batch3","","3464","tol_tohand","","","","tol_peg_2","3464","3464","0","[[1,0,0],[0,0],[2]]","3","[[3,2,0],[0,0],[1]]","20","0","","","","","","6","","","","","","","","",""
"","","","","","single-stim-button","336","747763","0.0-2.0-71.2-1.2","62a2832342dd3f99e7cd6822","C3","batch3","","877","tol_toboard","","","","tol_peg_1","877","877","0","[[1,3,0],[0,0],[2]]","3","[[3,2,0],[0,0],[1]]","20","0","","","","","","6","","","","","","","","",""
"","","","","","single-stim-button","337","749473","0.0-2.0-71.3-0.3","62a2832342dd3f99e7cd6822","C3","batch3","","1710","tol_tohand","","","","tol_peg_3","1710","1710","0","[[1,3,0],[0,0],[0]]","4","[[3,2,0],[0,0],[1]]","20","0","","","","","","6","","","","","","","","",""
"","","","","","single-stim-button","338","750328","0.0-2.0-71.3-1.3","62a2832342dd3f99e7cd6822","C3","batch3","","855","tol_toboard","","","","tol_peg_2","855","855","0","[[1,3,0],[2,0],[0]]","4","[[3,2,0],[0,0],[1]]","20","0","","","","","","6","","","","","","","","",""
"","","","","","single-stim-button","339","753063","0.0-2.0-71.4-0.4","62a2832342dd3f99e7cd6822","C3","batch3","","2735","tol_tohand","","","","tol_peg_1","2735","2735","0","[[1,0,0],[2,0],[0]]","5","[[3,2,0],[0,0],[1]]","20","0","","","","","","6","","","","","","","","",""
"","","","","","single-stim-button","340","753827","0.0-2.0-71.4-1.4","62a2832342dd3f99e7cd6822","C3","batch3","","762","tol_toboard","","","","tol_peg_2","762","762","0","[[1,0,0],[2,3],[0]]","5","[[3,2,0],[0,0],[1]]","20","0","","","","","","6","","","","","","","","",""
"","","","","","single-stim-button","341","754400","0.0-2.0-71.5-0.5","62a2832342dd3f99e7cd6822","C3","batch3","","573","tol_tohand","","","","tol_peg_1","573","573","0","[[0,0,0],[2,3],[0]]","6","[[3,2,0],[0,0],[1]]","20","0","","","","","","6","","","","","","","","",""
"","","","","","single-stim-button","342","755492","0.0-2.0-71.5-1.5","62a2832342dd3f99e7cd6822","C3","batch3","","1090","tol_toboard","","","","tol_peg_3","1090","1090","0","[[0,0,0],[2,3],[1]]","6","[[3,2,0],[0,0],[1]]","20","0","","","","","","6","","","","","","","","",""
"","","","","","single-stim-button","343","755885","0.0-2.0-71.6-0.6","62a2832342dd3f99e7cd6822","C3","batch3","","393","tol_tohand","","","","tol_peg_2","393","393","0","[[0,0,0],[2,0],[1]]","7","[[3,2,0],[0,0],[1]]","20","0","","","","","","6","","","","","","","","",""
"","","","","","single-stim-button","344","756392","0.0-2.0-71.6-1.6","62a2832342dd3f99e7cd6822","C3","batch3","","505","tol_toboard","","","","tol_peg_1","505","505","0","[[3,0,0],[2,0],[1]]","7","[[3,2,0],[0,0],[1]]","20","0","","","","","","6","","","","","","","","",""
"","","","","","single-stim-button","345","756785","0.0-2.0-71.7-0.7","62a2832342dd3f99e7cd6822","C3","batch3","","393","tol_tohand","","","","tol_peg_2","393","393","0","[[3,0,0],[0,0],[1]]","8","[[3,2,0],[0,0],[1]]","20","0","","","","","","6","","","","","","","","",""
"","","","","","single-stim-button","346","757337","0.0-2.0-71.7-1.7","62a2832342dd3f99e7cd6822","C3","batch3","","551","tol_toboard","","","","tol_peg_1","551","551","0","[[3,2,0],[0,0],[1]]","8","[[3,2,0],[0,0],[1]]","20","0","","","","","","6","","","","","","","","",""
"","","","","","poldrack-single-stim","347","758343","0.0-2.0-72.0","62a2832342dd3f99e7cd6822","C3","batch3","","-1","tol_feedback","","","true","","1000","1000","500","","","","","","-1","none","true","10136","23386","","","","","","","","","",""
"","","","","","html-button-response","348","759092","0.0-2.0-73.0","62a2832342dd3f99e7cd6822","C3","batch3","","747.5","tol_trial_num","<div class = centerbox><p class = center-block-text>problem <strong>22</strong> out of 25 problems</p></div>","0","","","","","","","","","","","","","","","","","","","","","","","","",""
"","","","","","single-stim-button","349","766224","0.0-2.0-74.0-0.0","62a2832342dd3f99e7cd6822","C3","batch3","","7132","tol_tohand","","","","tol_peg_2","7132","7132","0","[[1,0,0],[2,0],[0]]","1","[[0,0,0],[1,2],[3]]","21","0","","","","","","6","","","","","","","","",""
"","","","","","single-stim-button","350","768407","0.0-2.0-74.0-1.0","62a2832342dd3f99e7cd6822","C3","batch3","","2182","tol_toboard","","","","tol_peg_3","2182","2182","0","[[1,0,0],[2,0],[3]]","1","[[0,0,0],[1,2],[3]]","21","0","","","","","","6","","","","","","","","",""
"","","","","","single-stim-button","351","769217","0.0-2.0-74.1-0.1","62a2832342dd3f99e7cd6822","C3","batch3","","809","tol_tohand","","","","tol_peg_1","809","809","0","[[0,0,0],[2,0],[3]]","2","[[0,0,0],[1,2],[3]]","21","0","","","","","","6","","","","","","","","",""
"","","","","","single-stim-button","352","770331","0.0-2.0-74.1-1.1","62a2832342dd3f99e7cd6822","C3","batch3","","1113","tol_toboard","","","","tol_peg_2","1113","1113","0","[[0,0,0],[2,1],[3]]","2","[[0,0,0],[1,2],[3]]","21","0","","","","","","6","","","","","","","","",""
"","","","","","single-stim-button","353","770882","0.0-2.0-74.2-0.2","62a2832342dd3f99e7cd6822","C3","batch3","","551","tol_tohand","","","","tol_peg_3","551","551","0","[[0,0,0],[2,1],[0]]","3","[[0,0,0],[1,2],[3]]","21","0","","","","","","6","","","","","","","","",""
"","","","","","single-stim-button","354","772108","0.0-2.0-74.2-1.2","62a2832342dd3f99e7cd6822","C3","batch3","","1225","tol_toboard","","","","tol_peg_1","1225","1225","0","[[3,0,0],[2,1],[0]]","3","[[0,0,0],[1,2],[3]]","21","0","","","","","","6","","","","","","","","",""
"","","","","","single-stim-button","355","773526","0.0-2.0-74.3-0.3","62a2832342dd3f99e7cd6822","C3","batch3","","1417","tol_tohand","","","","tol_peg_2","1417","1417","0","[[3,0,0],[2,0],[0]]","4","[[0,0,0],[1,2],[3]]","21","0","","","","","","6","","","","","","","","",""
