"success","timeout","failed_images","failed_audio","failed_video","trial_type","trial_index","time_elapsed","internal_node_id","subject_id","study_id","session_id","task","rt","stimulus","response","item","answer","correct","spm_correct","spm_rt","view_history","mouse_click","stim_duration","block_duration","timing_post_trial","current_position","tol_num_moves_made","tol_target","tol_problem_id","tol_rt","key_press","possible_responses","tol_correct","preplanning","tol_rt_per_trial","tol_min_moves","fiar_detect_rt","fiar_detect_correct","total_correct_fiar_detect","post_trial_gap","choices"
"true","false","[]","[]","[]","preload","0","798","0.0-0.0","62a8f6b1a7a7e5eb492c0231","A3","batch1","","","","","","","","","","","","","","","","","","","","","","","","","","","","","",""
"true","","","","","fullscreen","1","7238","0.0-1.0-0.0","62a8f6b1a7a7e5eb492c0231","A3","batch1","","","","","","","","","","","","","","","","","","","","","","","","","","","","","",""
"true","","","","","fullscreen","2","9880","0.0-2.0-0.0","62a8f6b1a7a7e5eb492c0231","A3","batch1","spm_fullscreen","","","","","","","","","","","","","","","","","","","","","","","","","","","","",""
"","","","","","html-button-response","3","22614","0.0-2.0-1.0","62a8f6b1a7a7e5eb492c0231","A3","batch1","","12732.40000000596","<p class = block-text><b>Instructions</b> <br>This is a widely used intelligence test in research. <br>In this test, a figure with a missing piece will be presented.<br>Below the figure are alternative pieces to complete the figure, only one of which is correct.<br> Different figures might involve different principles for obtaining the missing piece<br>Your job is to select the most logical piece to complete the figure.</p>","0","","","","","","","","","","","","","","","","","","","","","","","","","",""
"","","","","","html-keyboard-response","4","23414","0.0-2.0-2.0-0.0","62a8f6b1a7a7e5eb492c0231","A3","batch1","spm_show_trial_num","null","<p class=block-text>Trial 1 out of 60</p>","null","","","","","","","","","","","","","","","","","","","","","","","","","",""
"","","","","","image-button-response","5","26927","0.0-2.0-2.0-1.0","62a8f6b1a7a7e5eb492c0231","A3","batch1","spm_respsonse","3508.800000011921","img/question_1_1.jpeg","3","mat_01","4","1","1","3508.800000011921","","","","","","","","","","","","","","","","","","","","",""
"","","","","","html-keyboard-response","6","27994","0.0-2.0-2.0-0.1","62a8f6b1a7a7e5eb492c0231","A3","batch1","spm_show_trial_num","null","<p class=block-text>Trial 2 out of 60</p>","null","","","","","","","","","","","","","","","","","","","","","","","","","",""
"","","","","","image-button-response","7","29726","0.0-2.0-2.0-1.1","62a8f6b1a7a7e5eb492c0231","A3","batch1","spm_respsonse","1729.699999988079","img/question_1_2.jpeg","4","mat_02","5","1","1","1729.699999988079","","","","","","","","","","","","","","","","","","","","",""
"","","","","","html-keyboard-response","8","30792","0.0-2.0-2.0-0.2","62a8f6b1a7a7e5eb492c0231","A3","batch1","spm_show_trial_num","null","<p class=block-text>Trial 3 out of 60</p>","null","","","","","","","","","","","","","","","","","","","","","","","","","",""
"","","","","","image-button-response","9","34377","0.0-2.0-2.0-1.2","62a8f6b1a7a7e5eb492c0231","A3","batch1","spm_respsonse","3583.0999999940395","img/question_1_3.jpeg","0","mat_03","1","1","1","3583.0999999940395","","","","","","","","","","","","","","","","","","","","",""
"","","","","","html-keyboard-response","10","35431","0.0-2.0-2.0-0.3","62a8f6b1a7a7e5eb492c0231","A3","batch1","spm_show_trial_num","null","<p class=block-text>Trial 4 out of 60</p>","null","","","","","","","","","","","","","","","","","","","","","","","","","",""
"","","","","","image-button-response","11","38615","0.0-2.0-2.0-1.3","62a8f6b1a7a7e5eb492c0231","A3","batch1","spm_respsonse","3183.5","img/question_1_4.jpeg","1","mat_04","2","1","1","3183.5","","","","","","","","","","","","","","","","","","","","",""
"","","","","","html-keyboard-response","12","39685","0.0-2.0-2.0-0.4","62a8f6b1a7a7e5eb492c0231","A3","batch1","spm_show_trial_num","null","<p class=block-text>Trial 5 out of 60</p>","null","","","","","","","","","","","","","","","","","","","","","","","","","",""
"","","","","","image-button-response","13","42747","0.0-2.0-2.0-1.4","62a8f6b1a7a7e5eb492c0231","A3","batch1","spm_respsonse","3060","img/question_1_5.jpeg","5","mat_05","6","1","1","3060","","","","","","","","","","","","","","","","","","","","",""
"","","","","","html-keyboard-response","14","43811","0.0-2.0-2.0-0.5","62a8f6b1a7a7e5eb492c0231","A3","batch1","spm_show_trial_num","null","<p class=block-text>Trial 6 out of 60</p>","null","","","","","","","","","","","","","","","","","","","","","","","","","",""
"","","","","","image-button-response","15","48054","0.0-2.0-2.0-1.5","62a8f6b1a7a7e5eb492c0231","A3","batch1","spm_respsonse","4241.899999976158","img/question_1_6.jpeg","2","mat_06","3","1","1","4241.899999976158","","","","","","","","","","","","","","","","","","","","",""
"","","","","","html-keyboard-response","16","49116","0.0-2.0-2.0-0.6","62a8f6b1a7a7e5eb492c0231","A3","batch1","spm_show_trial_num","null","<p class=block-text>Trial 7 out of 60</p>","null","","","","","","","","","","","","","","","","","","","","","","","","","",""
"","","","","","image-button-response","17","52811","0.0-2.0-2.0-1.6","62a8f6b1a7a7e5eb492c0231","A3","batch1","spm_respsonse","3693.7999999821186","img/question_1_7.jpeg","5","mat_07","6","1","1","3693.7999999821186","","","","","","","","","","","","","","","","","","","","",""
"","","","","","html-keyboard-response","18","53872","0.0-2.0-2.0-0.7","62a8f6b1a7a7e5eb492c0231","A3","batch1","spm_show_trial_num","null","<p class=block-text>Trial 8 out of 60</p>","null","","","","","","","","","","","","","","","","","","","","","","","","","",""
"","","","","","image-button-response","19","58370","0.0-2.0-2.0-1.7","62a8f6b1a7a7e5eb492c0231","A3","batch1","spm_respsonse","4496.5999999940395","img/question_1_8.jpeg","1","mat_08","2","1","1","4496.5999999940395","","","","","","","","","","","","","","","","","","","","",""
"","","","","","html-keyboard-response","20","59431","0.0-2.0-2.0-0.8","62a8f6b1a7a7e5eb492c0231","A3","batch1","spm_show_trial_num","null","<p class=block-text>Trial 9 out of 60</p>","null","","","","","","","","","","","","","","","","","","","","","","","","","",""
"","","","","","image-button-response","21","64398","0.0-2.0-2.0-1.8","62a8f6b1a7a7e5eb492c0231","A3","batch1","spm_respsonse","4966.100000023842","img/question_1_9.jpeg","0","mat_09","1","1","1","4966.100000023842","","","","","","","","","","","","","","","","","","","","",""
"","","","","","html-keyboard-response","22","65471","0.0-2.0-2.0-0.9","62a8f6b1a7a7e5eb492c0231","A3","batch1","spm_show_trial_num","null","<p class=block-text>Trial 10 out of 60</p>","null","","","","","","","","","","","","","","","","","","","","","","","","","",""
"","","","","","image-button-response","23","71697","0.0-2.0-2.0-1.9","62a8f6b1a7a7e5eb492c0231","A3","batch1","spm_respsonse","6223.5","img/question_1_10.jpeg","2","mat_10","3","1","1","6223.5","","","","","","","","","","","","","","","","","","","","",""
"","","","","","html-keyboard-response","24","72758","0.0-2.0-2.0-0.10","62a8f6b1a7a7e5eb492c0231","A3","batch1","spm_show_trial_num","null","<p class=block-text>Trial 11 out of 60</p>","null","","","","","","","","","","","","","","","","","","","","","","","","","",""
"","","","","","image-button-response","25","79340","0.0-2.0-2.0-1.10","62a8f6b1a7a7e5eb492c0231","A3","batch1","spm_respsonse","6580.699999988079","img/question_1_11.jpeg","3","mat_11","4","1","1","6580.699999988079","","","","","","","","","","","","","","","","","","","","",""
"","","","","","html-keyboard-response","26","80403","0.0-2.0-2.0-0.11","62a8f6b1a7a7e5eb492c0231","A3","batch1","spm_show_trial_num","null","<p class=block-text>Trial 12 out of 60</p>","null","","","","","","","","","","","","","","","","","","","","","","","","","",""
"","","","","","image-button-response","27","97797","0.0-2.0-2.0-1.11","62a8f6b1a7a7e5eb492c0231","A3","batch1","spm_respsonse","17391.70000001788","img/question_1_12.jpeg","4","mat_12","5","1","1","17391.70000001788","","","","","","","","","","","","","","","","","","","","",""
"","","","","","html-keyboard-response","28","98852","0.0-2.0-2.0-0.12","62a8f6b1a7a7e5eb492c0231","A3","batch1","spm_show_trial_num","null","<p class=block-text>Trial 13 out of 60</p>","null","","","","","","","","","","","","","","","","","","","","","","","","","",""
"","","","","","image-button-response","29","101138","0.0-2.0-2.0-1.12","62a8f6b1a7a7e5eb492c0231","A3","batch1","spm_respsonse","2284.4000000059605","img/question_2_1.jpeg","1","mat_13","2","1","1","2284.4000000059605","","","","","","","","","","","","","","","","","","","","",""
"","","","","","html-keyboard-response","30","102190","0.0-2.0-2.0-0.13","62a8f6b1a7a7e5eb492c0231","A3","batch1","spm_show_trial_num","null","<p class=block-text>Trial 14 out of 60</p>","null","","","","","","","","","","","","","","","","","","","","","","","","","",""
"","","","","","image-button-response","31","105767","0.0-2.0-2.0-1.13","62a8f6b1a7a7e5eb492c0231","A3","batch1","spm_respsonse","3575.5999999940395","img/question_2_2.jpeg","5","mat_14","6","1","1","3575.5999999940395","","","","","","","","","","","","","","","","","","","","",""
"","","","","","html-keyboard-response","32","106828","0.0-2.0-2.0-0.14","62a8f6b1a7a7e5eb492c0231","A3","batch1","spm_show_trial_num","null","<p class=block-text>Trial 15 out of 60</p>","null","","","","","","","","","","","","","","","","","","","","","","","","","",""
"","","","","","image-button-response","33","110294","0.0-2.0-2.0-1.14","62a8f6b1a7a7e5eb492c0231","A3","batch1","spm_respsonse","3463.800000011921","img/question_2_3.jpeg","0","mat_15","1","1","1","3463.800000011921","","","","","","","","","","","","","","","","","","","","",""
"","","","","","html-keyboard-response","34","111360","0.0-2.0-2.0-0.15","62a8f6b1a7a7e5eb492c0231","A3","batch1","spm_show_trial_num","null","<p class=block-text>Trial 16 out of 60</p>","null","","","","","","","","","","","","","","","","","","","","","","","","","",""
"","","","","","image-button-response","35","114149","0.0-2.0-2.0-1.15","62a8f6b1a7a7e5eb492c0231","A3","batch1","spm_respsonse","2787","img/question_2_4.jpeg","1","mat_16","2","1","1","2787","","","","","","","","","","","","","","","","","","","","",""
"","","","","","html-keyboard-response","36","115209","0.0-2.0-2.0-0.16","62a8f6b1a7a7e5eb492c0231","A3","batch1","spm_show_trial_num","null","<p class=block-text>Trial 17 out of 60</p>","null","","","","","","","","","","","","","","","","","","","","","","","","","",""
"","","","","","image-button-response","37","120503","0.0-2.0-2.0-1.16","62a8f6b1a7a7e5eb492c0231","A3","batch1","spm_respsonse","5292.300000011921","img/question_2_5.jpeg","0","mat_17","1","1","1","5292.300000011921","","","","","","","","","","","","","","","","","","","","",""
"","","","","","html-keyboard-response","38","121567","0.0-2.0-2.0-0.17","62a8f6b1a7a7e5eb492c0231","A3","batch1","spm_show_trial_num","null","<p class=block-text>Trial 18 out of 60</p>","null","","","","","","","","","","","","","","","","","","","","","","","","","",""
"","","","","","image-button-response","39","125871","0.0-2.0-2.0-1.17","62a8f6b1a7a7e5eb492c0231","A3","batch1","spm_respsonse","4302.5","img/question_2_6.jpeg","2","mat_18","3","1","1","4302.5","","","","","","","","","","","","","","","","","","","","",""
"","","","","","html-keyboard-response","40","126944","0.0-2.0-2.0-0.18","62a8f6b1a7a7e5eb492c0231","A3","batch1","spm_show_trial_num","null","<p class=block-text>Trial 19 out of 60</p>","null","","","","","","","","","","","","","","","","","","","","","","","","","",""
"","","","","","image-button-response","41","131046","0.0-2.0-2.0-1.18","62a8f6b1a7a7e5eb492c0231","A3","batch1","spm_respsonse","4099.9000000059605","img/question_2_7.jpeg","4","mat_19","5","1","1","4099.9000000059605","","","","","","","","","","","","","","","","","","","","",""
"","","","","","html-keyboard-response","42","132107","0.0-2.0-2.0-0.19","62a8f6b1a7a7e5eb492c0231","A3","batch1","spm_show_trial_num","null","<p class=block-text>Trial 20 out of 60</p>","null","","","","","","","","","","","","","","","","","","","","","","","","","",""
"","","","","","image-button-response","43","136786","0.0-2.0-2.0-1.19","62a8f6b1a7a7e5eb492c0231","A3","batch1","spm_respsonse","4678.4000000059605","img/question_2_8.jpeg","5","mat_20","6","1","1","4678.4000000059605","","","","","","","","","","","","","","","","","","","","",""
"","","","","","html-keyboard-response","44","137852","0.0-2.0-2.0-0.20","62a8f6b1a7a7e5eb492c0231","A3","batch1","spm_show_trial_num","null","<p class=block-text>Trial 21 out of 60</p>","null","","","","","","","","","","","","","","","","","","","","","","","","","",""
"","","","","","image-button-response","45","142471","0.0-2.0-2.0-1.20","62a8f6b1a7a7e5eb492c0231","A3","batch1","spm_respsonse","4616.9000000059605","img/question_2_9.jpeg","3","mat_21","4","1","1","4616.9000000059605","","","","","","","","","","","","","","","","","","","","",""
"","","","","","html-keyboard-response","46","143538","0.0-2.0-2.0-0.21","62a8f6b1a7a7e5eb492c0231","A3","batch1","spm_show_trial_num","null","<p class=block-text>Trial 22 out of 60</p>","null","","","","","","","","","","","","","","","","","","","","","","","","","",""
"","","","","","image-button-response","47","147715","0.0-2.0-2.0-1.21","62a8f6b1a7a7e5eb492c0231","A3","batch1","spm_respsonse","4175.5999999940395","img/question_2_10.jpeg","2","mat_22","3","1","1","4175.5999999940395","","","","","","","","","","","","","","","","","","","","",""
"","","","","","html-keyboard-response","48","148779","0.0-2.0-2.0-0.22","62a8f6b1a7a7e5eb492c0231","A3","batch1","spm_show_trial_num","null","<p class=block-text>Trial 23 out of 60</p>","null","","","","","","","","","","","","","","","","","","","","","","","","","",""
"","","","","","image-button-response","49","155395","0.0-2.0-2.0-1.22","62a8f6b1a7a7e5eb492c0231","A3","batch1","spm_respsonse","6614.699999988079","img/question_2_11.jpeg","3","mat_23","4","1","1","6614.699999988079","","","","","","","","","","","","","","","","","","","","",""
"","","","","","html-keyboard-response","50","156464","0.0-2.0-2.0-0.23","62a8f6b1a7a7e5eb492c0231","A3","batch1","spm_show_trial_num","null","<p class=block-text>Trial 24 out of 60</p>","null","","","","","","","","","","","","","","","","","","","","","","","","","",""
"","","","","","image-button-response","51","175235","0.0-2.0-2.0-1.23","62a8f6b1a7a7e5eb492c0231","A3","batch1","spm_respsonse","18768.40000000596","img/question_2_12.jpeg","4","mat_24","5","1","1","18768.40000000596","","","","","","","","","","","","","","","","","","","","",""
"","","","","","html-button-response","52","176799","0.0-2.0-3.0","62a8f6b1a7a7e5eb492c0231","A3","batch1","attention_check","1300.9000000059605","<p class = block-text>Attention check: Please choose 1<br></p>","0","","","true","","","","","","","","","","","","","","","","","","","","","","",""
"","","","","","html-keyboard-response","53","177616","0.0-2.0-4.0-0.0","62a8f6b1a7a7e5eb492c0231","A3","batch1","spm_show_trial_num","null","<p class=block-text>Trial 25 out of 60</p>","null","","","","","","","","","","","","","","","","","","","","","","","","","",""
"","","","","","image-button-response","54","181285","0.0-2.0-4.0-1.0","62a8f6b1a7a7e5eb492c0231","A3","batch1","spm_respsonse","3667","img/question_3_1.jpeg","7","mat_25","8","1","1","3667","","","","","","","","","","","","","","","","","","","","",""
"","","","","","html-keyboard-response","55","182344","0.0-2.0-4.0-0.1","62a8f6b1a7a7e5eb492c0231","A3","batch1","spm_show_trial_num","null","<p class=block-text>Trial 26 out of 60</p>","null","","","","","","","","","","","","","","","","","","","","","","","","","",""
"","","","","","image-button-response","56","186507","0.0-2.0-4.0-1.1","62a8f6b1a7a7e5eb492c0231","A3","batch1","spm_respsonse","4160","img/question_3_2.jpeg","1","mat_26","2","1","1","4160","","","","","","","","","","","","","","","","","","","","",""
"","","","","","html-keyboard-response","57","187565","0.0-2.0-4.0-0.2","62a8f6b1a7a7e5eb492c0231","A3","batch1","spm_show_trial_num","null","<p class=block-text>Trial 27 out of 60</p>","null","","","","","","","","","","","","","","","","","","","","","","","","","",""
"","","","","","image-button-response","58","192874","0.0-2.0-4.0-1.2","62a8f6b1a7a7e5eb492c0231","A3","batch1","spm_respsonse","5308.200000017881","img/question_3_3.jpeg","2","mat_27","3","1","1","5308.200000017881","","","","","","","","","","","","","","","","","","","","",""
"","","","","","html-keyboard-response","59","193929","0.0-2.0-4.0-0.3","62a8f6b1a7a7e5eb492c0231","A3","batch1","spm_show_trial_num","null","<p class=block-text>Trial 28 out of 60</p>","null","","","","","","","","","","","","","","","","","","","","","","","","","",""
"","","","","","image-button-response","60","198521","0.0-2.0-4.0-1.3","62a8f6b1a7a7e5eb492c0231","A3","batch1","spm_respsonse","4590.0999999940395","img/question_3_4.jpeg","7","mat_28","8","1","1","4590.0999999940395","","","","","","","","","","","","","","","","","","","","",""
"","","","","","html-keyboard-response","61","199580","0.0-2.0-4.0-0.4","62a8f6b1a7a7e5eb492c0231","A3","batch1","spm_show_trial_num","null","<p class=block-text>Trial 29 out of 60</p>","null","","","","","","","","","","","","","","","","","","","","","","","","","",""
"","","","","","image-button-response","62","203211","0.0-2.0-4.0-1.4","62a8f6b1a7a7e5eb492c0231","A3","batch1","spm_respsonse","3630","img/question_3_5.jpeg","6","mat_29","7","1","1","3630","","","","","","","","","","","","","","","","","","","","",""
"","","","","","html-keyboard-response","63","204268","0.0-2.0-4.0-0.5","62a8f6b1a7a7e5eb492c0231","A3","batch1","spm_show_trial_num","null","<p class=block-text>Trial 30 out of 60</p>","null","","","","","","","","","","","","","","","","","","","","","","","","","",""
"","","","","","image-button-response","64","207523","0.0-2.0-4.0-1.5","62a8f6b1a7a7e5eb492c0231","A3","batch1","spm_respsonse","3252.5999999940395","img/question_3_6.jpeg","3","mat_30","4","1","1","3252.5999999940395","","","","","","","","","","","","","","","","","","","","",""
"","","","","","html-keyboard-response","65","208593","0.0-2.0-4.0-0.6","62a8f6b1a7a7e5eb492c0231","A3","batch1","spm_show_trial_num","null","<p class=block-text>Trial 31 out of 60</p>","null","","","","","","","","","","","","","","","","","","","","","","","","","",""
"","","","","","image-button-response","66","214163","0.0-2.0-4.0-1.6","62a8f6b1a7a7e5eb492c0231","A3","batch1","spm_respsonse","5568.0999999940395","img/question_3_7.jpeg","4","mat_31","5","1","1","5568.0999999940395","","","","","","","","","","","","","","","","","","","","",""
"","","","","","html-keyboard-response","67","215217","0.0-2.0-4.0-0.7","62a8f6b1a7a7e5eb492c0231","A3","batch1","spm_show_trial_num","null","<p class=block-text>Trial 32 out of 60</p>","null","","","","","","","","","","","","","","","","","","","","","","","","","",""
"","","","","","image-button-response","68","226876","0.0-2.0-4.0-1.7","62a8f6b1a7a7e5eb492c0231","A3","batch1","spm_respsonse","11657.40000000596","img/question_3_8.jpeg","6","mat_32","1","0","0","11657.40000000596","","","","","","","","","","","","","","","","","","","","",""
"","","","","","html-keyboard-response","69","227934","0.0-2.0-4.0-0.8","62a8f6b1a7a7e5eb492c0231","A3","batch1","spm_show_trial_num","null","<p class=block-text>Trial 33 out of 60</p>","null","","","","","","","","","","","","","","","","","","","","","","","","","",""
"","","","","","image-button-response","70","234173","0.0-2.0-4.0-1.8","62a8f6b1a7a7e5eb492c0231","A3","batch1","spm_respsonse","6237","img/question_3_9.jpeg","6","mat_33","7","1","1","6237","","","","","","","","","","","","","","","","","","","","",""
"","","","","","html-keyboard-response","71","235226","0.0-2.0-4.0-0.9","62a8f6b1a7a7e5eb492c0231","A3","batch1","spm_show_trial_num","null","<p class=block-text>Trial 34 out of 60</p>","null","","","","","","","","","","","","","","","","","","","","","","","","","",""
"","","","","","image-button-response","72","254728","0.0-2.0-4.0-1.9","62a8f6b1a7a7e5eb492c0231","A3","batch1","spm_respsonse","19500.20000001788","img/question_3_10.jpeg","3","mat_34","6","0","0","19500.20000001788","","","","","","","","","","","","","","","","","","","","",""
"","","","","","html-keyboard-response","73","255794","0.0-2.0-4.0-0.10","62a8f6b1a7a7e5eb492c0231","A3","batch1","spm_show_trial_num","null","<p class=block-text>Trial 35 out of 60</p>","null","","","","","","","","","","","","","","","","","","","","","","","","","",""
"","","","","","image-button-response","74","268532","0.0-2.0-4.0-1.10","62a8f6b1a7a7e5eb492c0231","A3","batch1","spm_respsonse","12737.09999999404","img/question_3_11.jpeg","0","mat_35","1","1","1","12737.09999999404","","","","","","","","","","","","","","","","","","","","",""
"","","","","","html-keyboard-response","75","269590","0.0-2.0-4.0-0.11","62a8f6b1a7a7e5eb492c0231","A3","batch1","spm_show_trial_num","null","<p class=block-text>Trial 36 out of 60</p>","null","","","","","","","","","","","","","","","","","","","","","","","","","",""
"","","","","","image-button-response","76","284923","0.0-2.0-4.0-1.11","62a8f6b1a7a7e5eb492c0231","A3","batch1","spm_respsonse","15331.5","img/question_3_12.jpeg","4","mat_36","2","0","0","15331.5","","","","","","","","","","","","","","","","","","","","",""
"","","","","","html-keyboard-response","77","285985","0.0-2.0-4.0-0.12","62a8f6b1a7a7e5eb492c0231","A3","batch1","spm_show_trial_num","null","<p class=block-text>Trial 37 out of 60</p>","null","","","","","","","","","","","","","","","","","","","","","","","","","",""
"","","","","","image-button-response","78","288659","0.0-2.0-4.0-1.12","62a8f6b1a7a7e5eb492c0231","A3","batch1","spm_respsonse","2671.5","img/question_4_1.jpeg","2","mat_37","3","1","1","2671.5","","","","","","","","","","","","","","","","","","","","",""
"","","","","","html-keyboard-response","79","289726","0.0-2.0-4.0-0.13","62a8f6b1a7a7e5eb492c0231","A3","batch1","spm_show_trial_num","null","<p class=block-text>Trial 38 out of 60</p>","null","","","","","","","","","","","","","","","","","","","","","","","","","",""
"","","","","","image-button-response","80","296180","0.0-2.0-4.0-1.13","62a8f6b1a7a7e5eb492c0231","A3","batch1","spm_respsonse","6451.800000011921","img/question_4_2.jpeg","3","mat_38","4","1","1","6451.800000011921","","","","","","","","","","","","","","","","","","","","",""
"","","","","","html-keyboard-response","81","297243","0.0-2.0-4.0-0.14","62a8f6b1a7a7e5eb492c0231","A3","batch1","spm_show_trial_num","null","<p class=block-text>Trial 39 out of 60</p>","null","","","","","","","","","","","","","","","","","","","","","","","","","",""
"","","","","","image-button-response","82","301071","0.0-2.0-4.0-1.14","62a8f6b1a7a7e5eb492c0231","A3","batch1","spm_respsonse","3825.5","img/question_4_3.jpeg","2","mat_39","3","1","1","3825.5","","","","","","","","","","","","","","","","","","","","",""
"","","","","","html-keyboard-response","83","302138","0.0-2.0-4.0-0.15","62a8f6b1a7a7e5eb492c0231","A3","batch1","spm_show_trial_num","null","<p class=block-text>Trial 40 out of 60</p>","null","","","","","","","","","","","","","","","","","","","","","","","","","",""
"","","","","","image-button-response","84","306850","0.0-2.0-4.0-1.15","62a8f6b1a7a7e5eb492c0231","A3","batch1","spm_respsonse","4709.699999988079","img/question_4_4.jpeg","6","mat_40","7","1","1","4709.699999988079","","","","","","","","","","","","","","","","","","","","",""
"","","","","","html-keyboard-response","85","307921","0.0-2.0-4.0-0.16","62a8f6b1a7a7e5eb492c0231","A3","batch1","spm_show_trial_num","null","<p class=block-text>Trial 41 out of 60</p>","null","","","","","","","","","","","","","","","","","","","","","","","","","",""
"","","","","","image-button-response","86","313420","0.0-2.0-4.0-1.16","62a8f6b1a7a7e5eb492c0231","A3","batch1","spm_respsonse","5498.0999999940395","img/question_4_5.jpeg","7","mat_41","8","1","1","5498.0999999940395","","","","","","","","","","","","","","","","","","","","",""
"","","","","","html-keyboard-response","87","314472","0.0-2.0-4.0-0.17","62a8f6b1a7a7e5eb492c0231","A3","batch1","spm_show_trial_num","null","<p class=block-text>Trial 42 out of 60</p>","null","","","","","","","","","","","","","","","","","","","","","","","","","",""
"","","","","","image-button-response","88","320593","0.0-2.0-4.0-1.17","62a8f6b1a7a7e5eb492c0231","A3","batch1","spm_respsonse","6119.5","img/question_4_6.jpeg","5","mat_42","6","1","1","6119.5","","","","","","","","","","","","","","","","","","","","",""
"","","","","","html-keyboard-response","89","321655","0.0-2.0-4.0-0.18","62a8f6b1a7a7e5eb492c0231","A3","batch1","spm_show_trial_num","null","<p class=block-text>Trial 43 out of 60</p>","null","","","","","","","","","","","","","","","","","","","","","","","","","",""
"","","","","","image-button-response","90","331115","0.0-2.0-4.0-1.18","62a8f6b1a7a7e5eb492c0231","A3","batch1","spm_respsonse","9458.40000000596","img/question_4_7.jpeg","4","mat_43","5","1","1","9458.40000000596","","","","","","","","","","","","","","","","","","","","",""
"","","","","","html-keyboard-response","91","332174","0.0-2.0-4.0-0.19","62a8f6b1a7a7e5eb492c0231","A3","batch1","spm_show_trial_num","null","<p class=block-text>Trial 44 out of 60</p>","null","","","","","","","","","","","","","","","","","","","","","","","","","",""
"","","","","","image-button-response","92","343148","0.0-2.0-4.0-1.19","62a8f6b1a7a7e5eb492c0231","A3","batch1","spm_respsonse","10971.699999988079","img/question_4_8.jpeg","3","mat_44","4","1","1","10971.699999988079","","","","","","","","","","","","","","","","","","","","",""
"","","","","","html-keyboard-response","93","344215","0.0-2.0-4.0-0.20","62a8f6b1a7a7e5eb492c0231","A3","batch1","spm_show_trial_num","null","<p class=block-text>Trial 45 out of 60</p>","null","","","","","","","","","","","","","","","","","","","","","","","","","",""
"","","","","","image-button-response","94","356078","0.0-2.0-4.0-1.20","62a8f6b1a7a7e5eb492c0231","A3","batch1","spm_respsonse","11861.90000000596","img/question_4_9.jpeg","0","mat_45","1","1","1","11861.90000000596","","","","","","","","","","","","","","","","","","","","",""
"","","","","","html-keyboard-response","95","357130","0.0-2.0-4.0-0.21","62a8f6b1a7a7e5eb492c0231","A3","batch1","spm_show_trial_num","null","<p class=block-text>Trial 46 out of 60</p>","null","","","","","","","","","","","","","","","","","","","","","","","","","",""
"","","","","","image-button-response","96","364134","0.0-2.0-4.0-1.21","62a8f6b1a7a7e5eb492c0231","A3","batch1","spm_respsonse","7002.699999988079","img/question_4_10.jpeg","1","mat_46","2","1","1","7002.699999988079","","","","","","","","","","","","","","","","","","","","",""
"","","","","","html-keyboard-response","97","365190","0.0-2.0-4.0-0.22","62a8f6b1a7a7e5eb492c0231","A3","batch1","spm_show_trial_num","null","<p class=block-text>Trial 47 out of 60</p>","null","","","","","","","","","","","","","","","","","","","","","","","","","",""
"","","","","","image-button-response","98","373560","0.0-2.0-4.0-1.22","62a8f6b1a7a7e5eb492c0231","A3","batch1","spm_respsonse","8369.700000017881","img/question_4_11.jpeg","4","mat_47","5","1","1","8369.700000017881","","","","","","","","","","","","","","","","","","","","",""
"","","","","","html-keyboard-response","99","374617","0.0-2.0-4.0-0.23","62a8f6b1a7a7e5eb492c0231","A3","batch1","spm_show_trial_num","null","<p class=block-text>Trial 48 out of 60</p>","null","","","","","","","","","","","","","","","","","","","","","","","","","",""
"","","","","","image-button-response","100","382767","0.0-2.0-4.0-1.23","62a8f6b1a7a7e5eb492c0231","A3","batch1","spm_respsonse","8147.899999976158","img/question_4_12.jpeg","4","mat_48","6","0","0","8147.899999976158","","","","","","","","","","","","","","","","","","","","",""
"","","","","","html-keyboard-response","101","383819","0.0-2.0-4.0-0.24","62a8f6b1a7a7e5eb492c0231","A3","batch1","spm_show_trial_num","null","<p class=block-text>Trial 49 out of 60</p>","null","","","","","","","","","","","","","","","","","","","","","","","","","",""
"","","","","","image-button-response","102","395963","0.0-2.0-4.0-1.24","62a8f6b1a7a7e5eb492c0231","A3","batch1","spm_respsonse","12143.40000000596","img/question_5_1.jpeg","6","mat_49","7","1","1","12143.40000000596","","","","","","","","","","","","","","","","","","","","",""
"","","","","","html-keyboard-response","103","397032","0.0-2.0-4.0-0.25","62a8f6b1a7a7e5eb492c0231","A3","batch1","spm_show_trial_num","null","<p class=block-text>Trial 50 out of 60</p>","null","","","","","","","","","","","","","","","","","","","","","","","","","",""
"","","","","","image-button-response","104","405872","0.0-2.0-4.0-1.25","62a8f6b1a7a7e5eb492c0231","A3","batch1","spm_respsonse","8838.699999988079","img/question_5_2.jpeg","3","mat_50","6","0","0","8838.699999988079","","","","","","","","","","","","","","","","","","","","",""
"","","","","","html-keyboard-response","105","406924","0.0-2.0-4.0-0.26","62a8f6b1a7a7e5eb492c0231","A3","batch1","spm_show_trial_num","null","<p class=block-text>Trial 51 out of 60</p>","null","","","","","","","","","","","","","","","","","","","","","","","","","",""
"","","","","","image-button-response","106","417664","0.0-2.0-4.0-1.26","62a8f6b1a7a7e5eb492c0231","A3","batch1","spm_respsonse","10739.59999999404","img/question_5_3.jpeg","7","mat_51","8","1","1","10739.59999999404","","","","","","","","","","","","","","","","","","","","",""
"","","","","","html-keyboard-response","107","418716","0.0-2.0-4.0-0.27","62a8f6b1a7a7e5eb492c0231","A3","batch1","spm_show_trial_num","null","<p class=block-text>Trial 52 out of 60</p>","null","","","","","","","","","","","","","","","","","","","","","","","","","",""
"","","","","","image-button-response","108","428258","0.0-2.0-4.0-1.27","62a8f6b1a7a7e5eb492c0231","A3","batch1","spm_respsonse","9540.899999976158","img/question_5_4.jpeg","1","mat_52","2","1","1","9540.899999976158","","","","","","","","","","","","","","","","","","","","",""
"","","","","","html-keyboard-response","109","429317","0.0-2.0-4.0-0.28","62a8f6b1a7a7e5eb492c0231","A3","batch1","spm_show_trial_num","null","<p class=block-text>Trial 53 out of 60</p>","null","","","","","","","","","","","","","","","","","","","","","","","","","",""
"","","","","","image-button-response","110","449149","0.0-2.0-4.0-1.28","62a8f6b1a7a7e5eb492c0231","A3","batch1","spm_respsonse","19830.30000001192","img/question_5_5.jpeg","0","mat_53","1","1","1","19830.30000001192","","","","","","","","","","","","","","","","","","","","",""
"","","","","","html-keyboard-response","111","450204","0.0-2.0-4.0-0.29","62a8f6b1a7a7e5eb492c0231","A3","batch1","spm_show_trial_num","null","<p class=block-text>Trial 54 out of 60</p>","null","","","","","","","","","","","","","","","","","","","","","","","","","",""
"","","","","","image-button-response","112","463430","0.0-2.0-4.0-1.29","62a8f6b1a7a7e5eb492c0231","A3","batch1","spm_respsonse","13225.5","img/question_5_6.jpeg","4","mat_54","5","1","1","13225.5","","","","","","","","","","","","","","","","","","","","",""
"","","","","","html-keyboard-response","113","464481","0.0-2.0-4.0-0.30","62a8f6b1a7a7e5eb492c0231","A3","batch1","spm_show_trial_num","null","<p class=block-text>Trial 55 out of 60</p>","null","","","","","","","","","","","","","","","","","","","","","","","","","",""
"","","","","","image-button-response","114","487673","0.0-2.0-4.0-1.30","62a8f6b1a7a7e5eb492c0231","A3","batch1","spm_respsonse","23190.5","img/question_5_7.jpeg","4","mat_55","1","0","0","23190.5","","","","","","","","","","","","","","","","","","","","",""
"","","","","","html-keyboard-response","115","488739","0.0-2.0-4.0-0.31","62a8f6b1a7a7e5eb492c0231","A3","batch1","spm_show_trial_num","null","<p class=block-text>Trial 56 out of 60</p>","null","","","","","","","","","","","","","","","","","","","","","","","","","",""
"","","","","","image-button-response","116","496204","0.0-2.0-4.0-1.31","62a8f6b1a7a7e5eb492c0231","A3","batch1","spm_respsonse","7463.800000011921","img/question_5_8.jpeg","3","mat_56","6","0","0","7463.800000011921","","","","","","","","","","","","","","","","","","","","",""
"","","","","","html-keyboard-response","117","497264","0.0-2.0-4.0-0.32","62a8f6b1a7a7e5eb492c0231","A3","batch1","spm_show_trial_num","null","<p class=block-text>Trial 57 out of 60</p>","null","","","","","","","","","","","","","","","","","","","","","","","","","",""
"","","","","","image-button-response","118","509996","0.0-2.0-4.0-1.32","62a8f6b1a7a7e5eb492c0231","A3","batch1","spm_respsonse","12730.90000000596","img/question_5_9.jpeg","7","mat_57","3","0","0","12730.90000000596","","","","","","","","","","","","","","","","","","","","",""
"","","","","","html-keyboard-response","119","511048","0.0-2.0-4.0-0.33","62a8f6b1a7a7e5eb492c0231","A3","batch1","spm_show_trial_num","null","<p class=block-text>Trial 58 out of 60</p>","null","","","","","","","","","","","","","","","","","","","","","","","","","",""
"","","","","","image-button-response","120","518434","0.0-2.0-4.0-1.33","62a8f6b1a7a7e5eb492c0231","A3","batch1","spm_respsonse","7385.700000017881","img/question_5_10.jpeg","5","mat_58","2","0","0","7385.700000017881","","","","","","","","","","","","","","","","","","","","",""
"","","","","","html-keyboard-response","121","519497","0.0-2.0-4.0-0.34","62a8f6b1a7a7e5eb492c0231","A3","batch1","spm_show_trial_num","null","<p class=block-text>Trial 59 out of 60</p>","null","","","","","","","","","","","","","","","","","","","","","","","","","",""
"","","","","","image-button-response","122","529611","0.0-2.0-4.0-1.34","62a8f6b1a7a7e5eb492c0231","A3","batch1","spm_respsonse","10112.90000000596","img/question_5_11.jpeg","0","mat_59","4","0","0","10112.90000000596","","","","","","","","","","","","","","","","","","","","",""
"","","","","","html-keyboard-response","123","530672","0.0-2.0-4.0-0.35","62a8f6b1a7a7e5eb492c0231","A3","batch1","spm_show_trial_num","null","<p class=block-text>Trial 60 out of 60</p>","null","","","","","","","","","","","","","","","","","","","","","","","","","",""
"","","","","","image-button-response","124","534798","0.0-2.0-4.0-1.35","62a8f6b1a7a7e5eb492c0231","A3","batch1","spm_respsonse","4125.5999999940395","img/question_5_12.jpeg","5","mat_60","5","0","0","4125.5999999940395","","","","","","","","","","","","","","","","","","","","",""
"","","","","","html-button-response","125","536807","0.0-2.0-5.0","62a8f6b1a7a7e5eb492c0231","A3","batch1","spm_goodbye","1756.3999999761581","<p class= block-text>This concludes the Standard Progressive Matrix game. Thank you for your responses!<br> When you are ready, click the button continue</p>","0","","","","","","","","","","","","","","","","","","","","","","","","","",""
"true","","","","","fullscreen","126","539438","0.0-3.0-0.0","62a8f6b1a7a7e5eb492c0231","A3","batch1","","","","","","","","","","","","","","","","","","","","","","","","","","","","","",""
"","","","","","instructions","127","576694","0.0-3.0-1.0-0.0-0.0","62a8f6b1a7a7e5eb492c0231","A3","batch1","tol-instructions","37255","","","","","","","","[{""page_index"":0,""viewing_time"":7495.799999982119},{""page_index"":1,""viewing_time"":1849.0999999940395},{""page_index"":2,""viewing_time"":1715},{""page_index"":3,""viewing_time"":3590.9000000059605},{""page_index"":4,""viewing_time"":12960.09999999404},{""page_index"":5,""viewing_time"":7875.100000023842},{""page_index"":6,""viewing_time"":1768.8999999761581}]","","","","","","","","","","","","","","","","","","","",""
"","","","","","html-button-response","128","577634","0.0-3.0-1.0-1.0-0.0","62a8f6b1a7a7e5eb492c0231","A3","batch1","tol_enter_quiz","939.5","<p class=block-text> Let's answer a few questions <br>","0","","","","","","","","","","","","","","","","","","","","","","","","","",""
"","","","","","html-button-response","129","580090","0.0-3.0-1.0-1.0-1.0","62a8f6b1a7a7e5eb492c0231","A3","batch1","tol_quiz","2455.2999999821186","<p class = block-text>True or False: You can only move the ball on top of a peg. <br></p>","1","","","false","","","","","","","","","","","","","","","","","","","","","","",""
"","","","","","html-button-response","130","582332","0.0-3.0-1.0-1.0-2.0","62a8f6b1a7a7e5eb492c0231","A3","batch1","tol_quiz_feedback","2241","<p class = block-text>Incorrect. Remember, you can only move the ball on top of a peg.</p>","0","","","","","","","","","","","","","","","","","","","","","","","","","",""
"","","","","","html-button-response","131","584558","0.0-3.0-1.0-1.0-3.0","62a8f6b1a7a7e5eb492c0231","A3","batch1","tol_quiz","2225.100000023842","<p class = block-text>True or False: You should try to match your board with the target board with fewest moves possible. <br></p>","0","","","true","","","","","","","","","","","","","","","","","","","","","","",""
"","","","","","html-button-response","132","585157","0.0-3.0-1.0-1.0-4.0","62a8f6b1a7a7e5eb492c0231","A3","batch1","tol_quiz_feedback","598.4000000059605","<p class = block-text>Correct! </p>","0","","","","","","","","","","","","","","","","","","","","","","","","","",""
"","","","","","html-button-response","133","587000","0.0-3.0-1.0-2.0-0.0","62a8f6b1a7a7e5eb492c0231","A3","batch1","","1842.300000011921","<p class = block-text>You made too many incorrect choices.</p><p class = block-text>You will now repeat the instructions and quiz</p>","0","","","","","","","","","","","","","","","","","","","","","","","","","",""
"","","","","","instructions","134","592134","0.0-3.0-1.1-0.1-0.1","62a8f6b1a7a7e5eb492c0231","A3","batch1","tol-instructions","5134.200000017881","","","","","","","","[{""page_index"":0,""viewing_time"":1477.0999999940395},{""page_index"":1,""viewing_time"":517.6000000238419},{""page_index"":2,""viewing_time"":405.39999997615814},{""page_index"":3,""viewing_time"":843.1000000238419},{""page_index"":4,""viewing_time"":472.89999997615814},{""page_index"":5,""viewing_time"":491.10000002384186},{""page_index"":6,""viewing_time"":926.8999999761581}]","","","","","","","","","","","","","","","","","","","",""
"","","","","","html-button-response","135","592765","0.0-3.0-1.1-1.1-0.1","62a8f6b1a7a7e5eb492c0231","A3","batch1","tol_enter_quiz","629.6000000238419","<p class=block-text> Let's answer a few questions <br>","0","","","","","","","","","","","","","","","","","","","","","","","","","",""
"","","","","","html-button-response","136","593964","0.0-3.0-1.1-1.1-1.1","62a8f6b1a7a7e5eb492c0231","A3","batch1","tol_quiz","1198.4000000059605","<p class = block-text>True or False: You can only move the ball on top of a peg. <br></p>","0","","","true","","","","","","","","","","","","","","","","","","","","","","",""
"","","","","","html-button-response","137","594526","0.0-3.0-1.1-1.1-2.1","62a8f6b1a7a7e5eb492c0231","A3","batch1","tol_quiz_feedback","562.2999999821186","<p class = block-text>Correct! You can only move the ball on top of a peg.</p>","0","","","","","","","","","","","","","","","","","","","","","","","","","",""
"","","","","","html-button-response","138","595575","0.0-3.0-1.1-1.1-3.1","62a8f6b1a7a7e5eb492c0231","A3","batch1","tol_quiz","1048","<p class = block-text>True or False: You should try to match your board with the target board with fewest moves possible. <br></p>","0","","","true","","","","","","","","","","","","","","","","","","","","","","",""
"","","","","","html-button-response","139","596108","0.0-3.0-1.1-1.1-4.1","62a8f6b1a7a7e5eb492c0231","A3","batch1","tol_quiz_feedback","533","<p class = block-text>Correct! </p>","0","","","","","","","","","","","","","","","","","","","","","","","","","",""
"","","","","","html-button-response","140","597500","0.0-3.0-2.0","62a8f6b1a7a7e5eb492c0231","A3","batch1","","1391.3999999761581","<p class=block-text> Now that you've understood the game, let's practice a few easier examples before we start!<br> <br>","0","","","","","","","","","","","","","","","","","","","","","","","","","",""
"","","","","","single-stim-button","141","601181","0.0-3.0-3.0-0.0","62a8f6b1a7a7e5eb492c0231","A3","batch1","tol_practice","3679","","","","","","","","","tol_peg_2","3679","3679","0","[[1,2,0],[0,0],[0]]","1","[[1,2,0],[0,0],[3]]","practice","3679","","","","","","","","","","",""
"","","","","","single-stim-button","142","602257","0.0-3.0-3.0-1.0","62a8f6b1a7a7e5eb492c0231","A3","batch1","tol_practice","1076","","","","","","","","","tol_peg_3","1076","1076","0","[[1,2,0],[0,0],[3]]","1","[[1,2,0],[0,0],[3]]","practice","1076","","","","","","","","","","",""
"","","","","","poldrack-single-stim","143","603260","0.0-3.0-4.0","62a8f6b1a7a7e5eb492c0231","A3","batch1","tol_feedback","-1","","","","","true","","","","","1000","1000","500","","","","","","-1","none","true","","0","","","","","",""
"","","","","","single-stim-button","144","609067","0.0-3.0-5.0-0.0","62a8f6b1a7a7e5eb492c0231","A3","batch1","tol_practice","5807","","","","","","","","","tol_peg_1","5807","5807","0","[[1,0,0],[3,0],[0]]","2","[[0,0,0],[3,1],[2]]","practice","5807","","","","","","","","","","",""
"","","","","","single-stim-button","145","609983","0.0-3.0-5.0-1.0","62a8f6b1a7a7e5eb492c0231","A3","batch1","tol_practice","916","","","","","","","","","tol_peg_3","916","916","0","[[1,0,0],[3,0],[2]]","2","[[0,0,0],[3,1],[2]]","practice","916","","","","","","","","","","",""
"","","","","","single-stim-button","146","610850","0.0-3.0-5.1-0.1","62a8f6b1a7a7e5eb492c0231","A3","batch1","tol_practice","866","","","","","","","","","tol_peg_1","866","866","0","[[0,0,0],[3,0],[2]]","3","[[0,0,0],[3,1],[2]]","practice","866","","","","","","","","","","",""
"","","","","","single-stim-button","147","611442","0.0-3.0-5.1-1.1","62a8f6b1a7a7e5eb492c0231","A3","batch1","tol_practice","592","","","","","","","","","tol_peg_2","592","592","0","[[0,0,0],[3,1],[2]]","3","[[0,0,0],[3,1],[2]]","practice","592","","","","","","","","","","",""
"","","","","","poldrack-single-stim","148","612442","0.0-3.0-6.0","62a8f6b1a7a7e5eb492c0231","A3","batch1","tol_feedback","-1","","","","","true","","","","","1000","1000","500","","","","","","-1","none","true","","0","","","","","",""
"","","","","","single-stim-button","149","614278","0.0-3.0-7.0-0.0","62a8f6b1a7a7e5eb492c0231","A3","batch1","tol_practice","1834","","","","","","","","","tol_peg_2","1834","1834","0","[[1,2,0],[0,0],[0]]","4","[[1,0,0],[2,0],[3]]","practice","1834","","","","","","","","","","",""
"","","","","","single-stim-button","150","614987","0.0-3.0-7.0-1.0","62a8f6b1a7a7e5eb492c0231","A3","batch1","tol_practice","709","","","","","","","","","tol_peg_3","709","709","0","[[1,2,0],[0,0],[3]]","4","[[1,0,0],[2,0],[3]]","practice","709","","","","","","","","","","",""
"","","","","","single-stim-button","151","615940","0.0-3.0-7.1-0.1","62a8f6b1a7a7e5eb492c0231","A3","batch1","tol_practice","952","","","","","","","","","tol_peg_1","952","952","0","[[1,0,0],[0,0],[3]]","5","[[1,0,0],[2,0],[3]]","practice","952","","","","","","","","","","",""
"","","","","","single-stim-button","152","616626","0.0-3.0-7.1-1.1","62a8f6b1a7a7e5eb492c0231","A3","batch1","tol_practice","686","","","","","","","","","tol_peg_2","686","686","0","[[1,0,0],[2,0],[3]]","5","[[1,0,0],[2,0],[3]]","practice","686","","","","","","","","","","",""
"","","","","","poldrack-single-stim","153","617626","0.0-3.0-8.0","62a8f6b1a7a7e5eb492c0231","A3","batch1","tol_feedback","-1","","","","","true","","","","","1000","1000","500","","","","","","-1","none","true","","0","","","","","",""
"","","","","","html-button-response","154","619826","0.0-3.0-9.0","62a8f6b1a7a7e5eb492c0231","A3","batch1","tol_instruction","2199.2000000178814","<div class = centerbox><p class = center-block-text>Great job! You are done with practice trials<br>You are about to start official trials.<br> <br> Problem <strong>1</strong> out of 25 problems</p></div>","0","","","","","","","","","","","","","","","","","","","","","","","","","",""
"","","","","","single-stim-button","155","623691","0.0-3.0-10.0-0.0","62a8f6b1a7a7e5eb492c0231","A3","batch1","tol_tohand","2864","","","","","","","","","tol_peg_2","2864","2864","0","[[1,2,0],[0,0],[0]]","1","[[1,3,0],[2,0],[0]]","0","0","","","","","","3","","","","",""
"","","","","","single-stim-button","156","626437","0.0-3.0-10.0-1.0","62a8f6b1a7a7e5eb492c0231","A3","batch1","tol_toboard","2746","","","","","","","","","tol_peg_1","2746","2746","0","[[1,2,3],[0,0],[0]]","1","[[1,3,0],[2,0],[0]]","0","0","","","","","","3","","","","",""
"","","","","","single-stim-button","157","628337","0.0-3.0-10.1-0.1","62a8f6b1a7a7e5eb492c0231","A3","batch1","tol_tohand","1899","","","","","","","","","tol_peg_1","1899","1899","0","[[1,2,0],[0,0],[0]]","2","[[1,3,0],[2,0],[0]]","0","0","","","","","","3","","","","",""
"","","","","","single-stim-button","158","630378","0.0-3.0-10.1-1.1","62a8f6b1a7a7e5eb492c0231","A3","batch1","tol_toboard","2041","","","","","","","","","tol_peg_3","2041","2041","0","[[1,2,0],[0,0],[3]]","2","[[1,3,0],[2,0],[0]]","0","0","","","","","","3","","","","",""
"","","","","","single-stim-button","159","631022","0.0-3.0-10.2-0.2","62a8f6b1a7a7e5eb492c0231","A3","batch1","tol_tohand","643","","","","","","","","","tol_peg_1","643","643","0","[[1,0,0],[0,0],[3]]","3","[[1,3,0],[2,0],[0]]","0","0","","","","","","3","","","","",""
"","","","","","single-stim-button","160","631618","0.0-3.0-10.2-1.2","62a8f6b1a7a7e5eb492c0231","A3","batch1","tol_toboard","596","","","","","","","","","tol_peg_2","596","596","0","[[1,0,0],[2,0],[3]]","3","[[1,3,0],[2,0],[0]]","0","0","","","","","","3","","","","",""
"","","","","","single-stim-button","161","632388","0.0-3.0-10.3-0.3","62a8f6b1a7a7e5eb492c0231","A3","batch1","tol_tohand","770","","","","","","","","","tol_peg_3","770","770","0","[[1,0,0],[2,0],[0]]","4","[[1,3,0],[2,0],[0]]","0","0","","","","","","3","","","","",""
"","","","","","single-stim-button","162","633136","0.0-3.0-10.3-1.3","62a8f6b1a7a7e5eb492c0231","A3","batch1","tol_toboard","748","","","","","","","","","tol_peg_1","748","748","0","[[1,3,0],[2,0],[0]]","4","[[1,3,0],[2,0],[0]]","0","0","","","","","","3","","","","",""
"","","","","","poldrack-single-stim","163","634151","0.0-3.0-11.0","62a8f6b1a7a7e5eb492c0231","A3","batch1","tol_feedback","-1","","","","","true","","","","","1000","1000","500","","","","","","-1","none","true","2864","6176","","","","","",""
"","","","","","html-button-response","164","634926","0.0-3.0-12.0","62a8f6b1a7a7e5eb492c0231","A3","batch1","tol_trial_num","774.5999999940395","<div class = centerbox><p class = center-block-text>problem <strong>2</strong> out of 25 problems</p></div>","0","","","","","","","","","","","","","","","","","","","","","","","","","",""
"","","","","","single-stim-button","165","637735","0.0-3.0-13.0-0.0","62a8f6b1a7a7e5eb492c0231","A3","batch1","tol_tohand","2809","","","","","","","","","tol_peg_1","2809","2809","0","[[1,0,0],[3,0],[0]]","1","[[2,1,3],[0,0],[0]]","1","0","","","","","","5","","","","",""
"","","","","","single-stim-button","166","639421","0.0-3.0-13.0-1.0","62a8f6b1a7a7e5eb492c0231","A3","batch1","tol_toboard","1685","","","","","","","","","tol_peg_3","1685","1685","0","[[1,0,0],[3,0],[2]]","1","[[2,1,3],[0,0],[0]]","1","0","","","","","","5","","","","",""
"","","","","","single-stim-button","167","639990","0.0-3.0-13.1-0.1","62a8f6b1a7a7e5eb492c0231","A3","batch1","tol_tohand","568","","","","","","","","","tol_peg_1","568","568","0","[[0,0,0],[3,0],[2]]","2","[[2,1,3],[0,0],[0]]","1","0","","","","","","5","","","","",""
"","","","","","single-stim-button","168","640646","0.0-3.0-13.1-1.1","62a8f6b1a7a7e5eb492c0231","A3","batch1","tol_toboard","656","","","","","","","","","tol_peg_2","656","656","0","[[0,0,0],[3,1],[2]]","2","[[2,1,3],[0,0],[0]]","1","0","","","","","","5","","","","",""
"","","","","","single-stim-button","169","641206","0.0-3.0-13.2-0.2","62a8f6b1a7a7e5eb492c0231","A3","batch1","tol_tohand","560","","","","","","","","","tol_peg_3","560","560","0","[[0,0,0],[3,1],[0]]","3","[[2,1,3],[0,0],[0]]","1","0","","","","","","5","","","","",""
"","","","","","single-stim-button","170","641803","0.0-3.0-13.2-1.2","62a8f6b1a7a7e5eb492c0231","A3","batch1","tol_toboard","597","","","","","","","","","tol_peg_1","597","597","0","[[2,0,0],[3,1],[0]]","3","[[2,1,3],[0,0],[0]]","1","0","","","","","","5","","","","",""
"","","","","","single-stim-button","171","642249","0.0-3.0-13.3-0.3","62a8f6b1a7a7e5eb492c0231","A3","batch1","tol_tohand","445","","","","","","","","","tol_peg_2","445","445","0","[[2,0,0],[3,0],[0]]","4","[[2,1,3],[0,0],[0]]","1","0","","","","","","5","","","","",""
"","","","","","single-stim-button","172","642837","0.0-3.0-13.3-1.3","62a8f6b1a7a7e5eb492c0231","A3","batch1","tol_toboard","588","","","","","","","","","tol_peg_1","588","588","0","[[2,1,0],[3,0],[0]]","4","[[2,1,3],[0,0],[0]]","1","0","","","","","","5","","","","",""
"","","","","","single-stim-button","173","643305","0.0-3.0-13.4-0.4","62a8f6b1a7a7e5eb492c0231","A3","batch1","tol_tohand","468","","","","","","","","","tol_peg_2","468","468","0","[[2,1,0],[0,0],[0]]","5","[[2,1,3],[0,0],[0]]","1","0","","","","","","5","","","","",""
"","","","","","single-stim-button","174","643820","0.0-3.0-13.4-1.4","62a8f6b1a7a7e5eb492c0231","A3","batch1","tol_toboard","515","","","","","","","","","tol_peg_1","515","515","0","[[2,1,3],[0,0],[0]]","5","[[2,1,3],[0,0],[0]]","1","0","","","","","","5","","","","",""
"","","","","","poldrack-single-stim","175","644836","0.0-3.0-14.0","62a8f6b1a7a7e5eb492c0231","A3","batch1","tol_feedback","-1","","","","","true","","","","","1000","1000","500","","","","","","-1","none","true","2809","4850","","","","","",""
"","","","","","html-button-response","176","645721","0.0-3.0-15.0","62a8f6b1a7a7e5eb492c0231","A3","batch1","tol_trial_num","883.7999999821186","<div class = centerbox><p class = center-block-text>problem <strong>3</strong> out of 25 problems</p></div>","0","","","","","","","","","","","","","","","","","","","","","","","","","",""
"","","","","","single-stim-button","177","647817","0.0-3.0-16.0-0.0","62a8f6b1a7a7e5eb492c0231","A3","batch1","tol_tohand","2096","","","","","","","","","tol_peg_1","2096","2096","0","[[2,0,0],[0,0],[1]]","1","[[1,2,0],[3,0],[0]]","2","0","","","","","","4","","","","",""
"","","","","","single-stim-button","178","648587","0.0-3.0-16.0-1.0","62a8f6b1a7a7e5eb492c0231","A3","batch1","tol_toboard","769","","","","","","","","","tol_peg_2","769","769","0","[[2,0,0],[3,0],[1]]","1","[[1,2,0],[3,0],[0]]","2","0","","","","","","4","","","","",""
"","","","","","single-stim-button","179","649243","0.0-3.0-16.1-0.1","62a8f6b1a7a7e5eb492c0231","A3","batch1","tol_tohand","655","","","","","","","","","tol_peg_1","655","655","0","[[0,0,0],[3,0],[1]]","2","[[1,2,0],[3,0],[0]]","2","0","","","","","","4","","","","",""
"","","","","","single-stim-button","180","649762","0.0-3.0-16.1-1.1","62a8f6b1a7a7e5eb492c0231","A3","batch1","tol_toboard","518","","","","","","","","","tol_peg_2","518","518","0","[[0,0,0],[3,2],[1]]","2","[[1,2,0],[3,0],[0]]","2","0","","","","","","4","","","","",""
"","","","","","single-stim-button","181","650189","0.0-3.0-16.2-0.2","62a8f6b1a7a7e5eb492c0231","A3","batch1","tol_tohand","427","","","","","","","","","tol_peg_3","427","427","0","[[0,0,0],[3,2],[0]]","3","[[1,2,0],[3,0],[0]]","2","0","","","","","","4","","","","",""
"","","","","","single-stim-button","182","650927","0.0-3.0-16.2-1.2","62a8f6b1a7a7e5eb492c0231","A3","batch1","tol_toboard","738","","","","","","","","","tol_peg_1","738","738","0","[[1,0,0],[3,2],[0]]","3","[[1,2,0],[3,0],[0]]","2","0","","","","","","4","","","","",""
"","","","","","single-stim-button","183","651348","0.0-3.0-16.3-0.3","62a8f6b1a7a7e5eb492c0231","A3","batch1","tol_tohand","421","","","","","","","","","tol_peg_2","421","421","0","[[1,0,0],[3,0],[0]]","4","[[1,2,0],[3,0],[0]]","2","0","","","","","","4","","","","",""
"","","","","","single-stim-button","184","651783","0.0-3.0-16.3-1.3","62a8f6b1a7a7e5eb492c0231","A3","batch1","tol_toboard","435","","","","","","","","","tol_peg_1","435","435","0","[[1,2,0],[3,0],[0]]","4","[[1,2,0],[3,0],[0]]","2","0","","","","","","4","","","","",""
"","","","","","poldrack-single-stim","185","652785","0.0-3.0-17.0","62a8f6b1a7a7e5eb492c0231","A3","batch1","tol_feedback","-1","","","","","true","","","","","1000","1000","500","","","","","","-1","none","true","2096","3599","","","","","",""
"","","","","","html-button-response","186","653344","0.0-3.0-18.0","62a8f6b1a7a7e5eb492c0231","A3","batch1","tol_trial_num","558.4000000059605","<div class = centerbox><p class = center-block-text>problem <strong>4</strong> out of 25 problems</p></div>","0","","","","","","","","","","","","","","","","","","","","","","","","","",""
"","","","","","single-stim-button","187","656342","0.0-3.0-19.0-0.0","62a8f6b1a7a7e5eb492c0231","A3","batch1","tol_tohand","2998","","","","","","","","","tol_peg_2","2998","2998","0","[[3,0,0],[2,0],[0]]","1","[[3,0,0],[1,0],[2]]","3","0","","","","","","3","","","","",""
"","","","","","single-stim-button","188","656825","0.0-3.0-19.0-1.0","62a8f6b1a7a7e5eb492c0231","A3","batch1","tol_toboard","482","","","","","","","","","tol_peg_1","482","482","0","[[3,1,0],[2,0],[0]]","1","[[3,0,0],[1,0],[2]]","3","0","","","","","","3","","","","",""
"","","","","","single-stim-button","189","657317","0.0-3.0-19.1-0.1","62a8f6b1a7a7e5eb492c0231","A3","batch1","tol_tohand","491","","","","","","","","","tol_peg_2","491","491","0","[[3,1,0],[0,0],[0]]","2","[[3,0,0],[1,0],[2]]","3","0","","","","","","3","","","","",""
"","","","","","single-stim-button","190","657857","0.0-3.0-19.1-1.1","62a8f6b1a7a7e5eb492c0231","A3","batch1","tol_toboard","540","","","","","","","","","tol_peg_3","540","540","0","[[3,1,0],[0,0],[2]]","2","[[3,0,0],[1,0],[2]]","3","0","","","","","","3","","","","",""
"","","","","","single-stim-button","191","658407","0.0-3.0-19.2-0.2","62a8f6b1a7a7e5eb492c0231","A3","batch1","tol_tohand","549","","","","","","","","","tol_peg_1","549","549","0","[[3,0,0],[0,0],[2]]","3","[[3,0,0],[1,0],[2]]","3","0","","","","","","3","","","","",""
"","","","","","single-stim-button","192","658838","0.0-3.0-19.2-1.2","62a8f6b1a7a7e5eb492c0231","A3","batch1","tol_toboard","431","","","","","","","","","tol_peg_2","431","431","0","[[3,0,0],[1,0],[2]]","3","[[3,0,0],[1,0],[2]]","3","0","","","","","","3","","","","",""
"","","","","","poldrack-single-stim","193","659840","0.0-3.0-20.0","62a8f6b1a7a7e5eb492c0231","A3","batch1","tol_feedback","-1","","","","","true","","","","","1000","1000","500","","","","","","-1","none","true","2998","4038","","","","","",""
"","","","","","html-button-response","194","660516","0.0-3.0-21.0","62a8f6b1a7a7e5eb492c0231","A3","batch1","tol_trial_num","675.8999999761581","<div class = centerbox><p class = center-block-text>problem <strong>5</strong> out of 25 problems</p></div>","0","","","","","","","","","","","","","","","","","","","","","","","","","",""
"","","","","","single-stim-button","195","671097","0.0-3.0-22.0-0.0","62a8f6b1a7a7e5eb492c0231","A3","batch1","tol_tohand","10580","","","","","","","","","tol_peg_1","10580","10580","0","[[0,0,0],[2,0],[3]]","1","[[0,0,0],[1,2],[3]]","4","0","","","","","","7","","","","",""
"","","","","","single-stim-button","196","671738","0.0-3.0-22.0-1.0","62a8f6b1a7a7e5eb492c0231","A3","batch1","tol_toboard","641","","","","","","","","","tol_peg_2","641","641","0","[[0,0,0],[2,1],[3]]","1","[[0,0,0],[1,2],[3]]","4","0","","","","","","7","","","","",""
"","","","","","single-stim-button","197","672201","0.0-3.0-22.1-0.1","62a8f6b1a7a7e5eb492c0231","A3","batch1","tol_tohand","462","","","","","","","","","tol_peg_3","462","462","0","[[0,0,0],[2,1],[0]]","2","[[0,0,0],[1,2],[3]]","4","0","","","","","","7","","","","",""
"","","","","","single-stim-button","198","673293","0.0-3.0-22.1-1.1","62a8f6b1a7a7e5eb492c0231","A3","batch1","tol_toboard","1091","","","","","","","","","tol_peg_1","1091","1091","0","[[3,0,0],[2,1],[0]]","2","[[0,0,0],[1,2],[3]]","4","0","","","","","","7","","","","",""
"","","","","","single-stim-button","199","675004","0.0-3.0-22.2-0.2","62a8f6b1a7a7e5eb492c0231","A3","batch1","tol_tohand","1710","","","","","","","","","tol_peg_2","1710","1710","0","[[3,0,0],[2,0],[0]]","3","[[0,0,0],[1,2],[3]]","4","0","","","","","","7","","","","",""
"","","","","","single-stim-button","200","675613","0.0-3.0-22.2-1.2","62a8f6b1a7a7e5eb492c0231","A3","batch1","tol_toboard","609","","","","","","","","","tol_peg_1","609","609","0","[[3,1,0],[2,0],[0]]","3","[[0,0,0],[1,2],[3]]","4","0","","","","","","7","","","","",""
"","","","","","single-stim-button","201","677357","0.0-3.0-22.3-0.3","62a8f6b1a7a7e5eb492c0231","A3","batch1","tol_tohand","1743","","","","","","","","","tol_peg_2","1743","1743","0","[[3,1,0],[0,0],[0]]","4","[[0,0,0],[1,2],[3]]","4","0","","","","","","7","","","","",""
"","","","","","single-stim-button","202","678361","0.0-3.0-22.3-1.3","62a8f6b1a7a7e5eb492c0231","A3","batch1","tol_toboard","1004","","","","","","","","","tol_peg_3","1004","1004","0","[[3,1,0],[0,0],[2]]","4","[[0,0,0],[1,2],[3]]","4","0","","","","","","7","","","","",""
"","","","","","single-stim-button","203","678999","0.0-3.0-22.4-0.4","62a8f6b1a7a7e5eb492c0231","A3","batch1","tol_tohand","637","","","","","","","","","tol_peg_1","637","637","0","[[3,0,0],[0,0],[2]]","5","[[0,0,0],[1,2],[3]]","4","0","","","","","","7","","","","",""
"","","","","","single-stim-button","204","679635","0.0-3.0-22.4-1.4","62a8f6b1a7a7e5eb492c0231","A3","batch1","tol_toboard","636","","","","","","","","","tol_peg_2","636","636","0","[[3,0,0],[1,0],[2]]","5","[[0,0,0],[1,2],[3]]","4","0","","","","","","7","","","","",""
"","","","","","single-stim-button","205","680138","0.0-3.0-22.5-0.5","62a8f6b1a7a7e5eb492c0231","A3","batch1","tol_tohand","503","","","","","","","","","tol_peg_3","503","503","0","[[3,0,0],[1,0],[0]]","6","[[0,0,0],[1,2],[3]]","4","0","","","","","","7","","","","",""
"","","","","","single-stim-button","206","680737","0.0-3.0-22.5-1.5","62a8f6b1a7a7e5eb492c0231","A3","batch1","tol_toboard","599","","","","","","","","","tol_peg_2","599","599","0","[[3,0,0],[1,2],[0]]","6","[[0,0,0],[1,2],[3]]","4","0","","","","","","7","","","","",""
"","","","","","single-stim-button","207","681296","0.0-3.0-22.6-0.6","62a8f6b1a7a7e5eb492c0231","A3","batch1","tol_tohand","559","","","","","","","","","tol_peg_1","559","559","0","[[0,0,0],[1,2],[0]]","7","[[0,0,0],[1,2],[3]]","4","0","","","","","","7","","","","",""
"","","","","","single-stim-button","208","681922","0.0-3.0-22.6-1.6","62a8f6b1a7a7e5eb492c0231","A3","batch1","tol_toboard","626","","","","","","","","","tol_peg_3","626","626","0","[[0,0,0],[1,2],[3]]","7","[[0,0,0],[1,2],[3]]","4","0","","","","","","7","","","","",""
"","","","","","poldrack-single-stim","209","682923","0.0-3.0-23.0","62a8f6b1a7a7e5eb492c0231","A3","batch1","tol_feedback","-1","","","","","true","","","","","1000","1000","500","","","","","","-1","none","true","10580","16194","","","","","",""
"","","","","","html-button-response","210","684115","0.0-3.0-24.0","62a8f6b1a7a7e5eb492c0231","A3","batch1","tol_trial_num","1191","<div class = centerbox><p class = center-block-text>problem <strong>6</strong> out of 25 problems</p></div>","0","","","","","","","","","","","","","","","","","","","","","","","","","",""
"","","","","","single-stim-button","211","687604","0.0-3.0-25.0-0.0","62a8f6b1a7a7e5eb492c0231","A3","batch1","tol_tohand","3489","","","","","","","","","tol_peg_2","3489","3489","0","[[0,0,0],[1,0],[3]]","1","[[1,0,0],[2,3],[0]]","5","0","","","","","","6","","","","",""
"","","","","","single-stim-button","212","688320","0.0-3.0-25.0-1.0","62a8f6b1a7a7e5eb492c0231","A3","batch1","tol_toboard","716","","","","","","","","","tol_peg_1","716","716","0","[[2,0,0],[1,0],[3]]","1","[[1,0,0],[2,3],[0]]","5","0","","","","","","6","","","","",""
"","","","","","single-stim-button","213","689223","0.0-3.0-25.1-0.1","62a8f6b1a7a7e5eb492c0231","A3","batch1","tol_tohand","903","","","","","","","","","tol_peg_2","903","903","0","[[2,0,0],[0,0],[3]]","2","[[1,0,0],[2,3],[0]]","5","0","","","","","","6","","","","",""
"","","","","","single-stim-button","214","692005","0.0-3.0-25.1-1.1","62a8f6b1a7a7e5eb492c0231","A3","batch1","tol_toboard","2781","","","","","","","","","tol_peg_1","2781","2781","0","[[2,1,0],[0,0],[3]]","2","[[1,0,0],[2,3],[0]]","5","0","","","","","","6","","","","",""
"","","","","","single-stim-button","215","692610","0.0-3.0-25.2-0.2","62a8f6b1a7a7e5eb492c0231","A3","batch1","tol_tohand","605","","","","","","","","","tol_peg_3","605","605","0","[[2,1,0],[0,0],[0]]","3","[[1,0,0],[2,3],[0]]","5","0","","","","","","6","","","","",""
"","","","","","single-stim-button","216","693366","0.0-3.0-25.2-1.2","62a8f6b1a7a7e5eb492c0231","A3","batch1","tol_toboard","756","","","","","","","","","tol_peg_2","756","756","0","[[2,1,0],[3,0],[0]]","3","[[1,0,0],[2,3],[0]]","5","0","","","","","","6","","","","",""
"","","","","","single-stim-button","217","693898","0.0-3.0-25.3-0.3","62a8f6b1a7a7e5eb492c0231","A3","batch1","tol_tohand","532","","","","","","","","","tol_peg_1","532","532","0","[[2,0,0],[3,0],[0]]","4","[[1,0,0],[2,3],[0]]","5","0","","","","","","6","","","","",""
"","","","","","single-stim-button","218","694664","0.0-3.0-25.3-1.3","62a8f6b1a7a7e5eb492c0231","A3","batch1","tol_toboard","766","","","","","","","","","tol_peg_3","766","766","0","[[2,0,0],[3,0],[1]]","4","[[1,0,0],[2,3],[0]]","5","0","","","","","","6","","","","",""
"","","","","","single-stim-button","219","695230","0.0-3.0-25.4-0.4","62a8f6b1a7a7e5eb492c0231","A3","batch1","tol_tohand","566","","","","","","","","","tol_peg_2","566","566","0","[[2,0,0],[0,0],[1]]","5","[[1,0,0],[2,3],[0]]","5","0","","","","","","6","","","","",""
"","","","","","single-stim-button","220","698920","0.0-3.0-25.4-1.4","62a8f6b1a7a7e5eb492c0231","A3","batch1","tol_toboard","3690","","","","","","","","","tol_peg_1","3690","3690","0","[[2,3,0],[0,0],[1]]","5","[[1,0,0],[2,3],[0]]","5","0","","","","","","6","","","","",""
"","","","","","single-stim-button","221","699418","0.0-3.0-25.5-0.5","62a8f6b1a7a7e5eb492c0231","A3","batch1","tol_tohand","497","","","","","","","","","tol_peg_3","497","497","0","[[2,3,0],[0,0],[0]]","6","[[1,0,0],[2,3],[0]]","5","0","","","","","","6","","","","",""
"","","","","","single-stim-button","222","700550","0.0-3.0-25.5-1.5","62a8f6b1a7a7e5eb492c0231","A3","batch1","tol_toboard","1132","","","","","","","","","tol_peg_2","1132","1132","0","[[2,3,0],[1,0],[0]]","6","[[1,0,0],[2,3],[0]]","5","0","","","","","","6","","","","",""
"","","","","","single-stim-button","223","701064","0.0-3.0-25.6-0.6","62a8f6b1a7a7e5eb492c0231","A3","batch1","tol_tohand","514","","","","","","","","","tol_peg_1","514","514","0","[[2,0,0],[1,0],[0]]","7","[[1,0,0],[2,3],[0]]","5","0","","","","","","6","","","","",""
"","","","","","single-stim-button","224","701640","0.0-3.0-25.6-1.6","62a8f6b1a7a7e5eb492c0231","A3","batch1","tol_toboard","576","","","","","","","","","tol_peg_2","576","576","0","[[2,0,0],[1,3],[0]]","7","[[1,0,0],[2,3],[0]]","5","0","","","","","","6","","","","",""
"","","","","","single-stim-button","225","704501","0.0-3.0-25.7-0.7","62a8f6b1a7a7e5eb492c0231","A3","batch1","tol_tohand","2861","","","","","","","","","tol_peg_1","2861","2861","0","[[0,0,0],[1,3],[0]]","8","[[1,0,0],[2,3],[0]]","5","0","","","","","","6","","","","",""
"","","","","","single-stim-button","226","709189","0.0-3.0-25.7-1.7","62a8f6b1a7a7e5eb492c0231","A3","batch1","tol_toboard","4688","","","","","","","","","tol_peg_3","4688","4688","0","[[0,0,0],[1,3],[2]]","8","[[1,0,0],[2,3],[0]]","5","0","","","","","","6","","","","",""
"","","","","","single-stim-button","227","709713","0.0-3.0-25.8-0.8","62a8f6b1a7a7e5eb492c0231","A3","batch1","tol_tohand","524","","","","","","","","","tol_peg_2","524","524","0","[[0,0,0],[1,0],[2]]","9","[[1,0,0],[2,3],[0]]","5","0","","","","","","6","","","","",""
"","","","","","single-stim-button","228","710390","0.0-3.0-25.8-1.8","62a8f6b1a7a7e5eb492c0231","A3","batch1","tol_toboard","677","","","","","","","","","tol_peg_1","677","677","0","[[3,0,0],[1,0],[2]]","9","[[1,0,0],[2,3],[0]]","5","0","","","","","","6","","","","",""
"","","","","","single-stim-button","229","710943","0.0-3.0-25.9-0.9","62a8f6b1a7a7e5eb492c0231","A3","batch1","tol_tohand","553","","","","","","","","","tol_peg_2","553","553","0","[[3,0,0],[0,0],[2]]","10","[[1,0,0],[2,3],[0]]","5","0","","","","","","6","","","","",""
"","","","","","single-stim-button","230","711452","0.0-3.0-25.9-1.9","62a8f6b1a7a7e5eb492c0231","A3","batch1","tol_toboard","509","","","","","","","","","tol_peg_1","509","509","0","[[3,1,0],[0,0],[2]]","10","[[1,0,0],[2,3],[0]]","5","0","","","","","","6","","","","",""
"","","","","","single-stim-button","231","711985","0.0-3.0-25.10-0.10","62a8f6b1a7a7e5eb492c0231","A3","batch1","tol_tohand","533","","","","","","","","","tol_peg_3","533","533","0","[[3,1,0],[0,0],[0]]","11","[[1,0,0],[2,3],[0]]","5","0","","","","","","6","","","","",""
"","","","","","single-stim-button","232","712637","0.0-3.0-25.10-1.10","62a8f6b1a7a7e5eb492c0231","A3","batch1","tol_toboard","652","","","","","","","","","tol_peg_2","652","652","0","[[3,1,0],[2,0],[0]]","11","[[1,0,0],[2,3],[0]]","5","0","","","","","","6","","","","",""
"","","","","","single-stim-button","233","713568","0.0-3.0-25.11-0.11","62a8f6b1a7a7e5eb492c0231","A3","batch1","tol_tohand","931","","","","","","","","","tol_peg_1","931","931","0","[[3,0,0],[2,0],[0]]","12","[[1,0,0],[2,3],[0]]","5","0","","","","","","6","","","","",""
"","","","","","single-stim-button","234","714206","0.0-3.0-25.11-1.11","62a8f6b1a7a7e5eb492c0231","A3","batch1","tol_toboard","638","","","","","","","","","tol_peg_3","638","638","0","[[3,0,0],[2,0],[1]]","12","[[1,0,0],[2,3],[0]]","5","0","","","","","","6","","","","",""
"","","","","","single-stim-button","235","714889","0.0-3.0-25.12-0.12","62a8f6b1a7a7e5eb492c0231","A3","batch1","tol_tohand","682","","","","","","","","","tol_peg_1","682","682","0","[[0,0,0],[2,0],[1]]","13","[[1,0,0],[2,3],[0]]","5","0","","","","","","6","","","","",""
"","","","","","single-stim-button","236","715470","0.0-3.0-25.12-1.12","62a8f6b1a7a7e5eb492c0231","A3","batch1","tol_toboard","580","","","","","","","","","tol_peg_2","580","580","0","[[0,0,0],[2,3],[1]]","13","[[1,0,0],[2,3],[0]]","5","0","","","","","","6","","","","",""
"","","","","","single-stim-button","237","716024","0.0-3.0-25.13-0.13","62a8f6b1a7a7e5eb492c0231","A3","batch1","tol_tohand","554","","","","","","","","","tol_peg_3","554","554","0","[[0,0,0],[2,3],[0]]","14","[[1,0,0],[2,3],[0]]","5","0","","","","","","6","","","","",""
"","","","","","single-stim-button","238","716655","0.0-3.0-25.13-1.13","62a8f6b1a7a7e5eb492c0231","A3","batch1","tol_toboard","631","","","","","","","","","tol_peg_1","631","631","0","[[1,0,0],[2,3],[0]]","14","[[1,0,0],[2,3],[0]]","5","0","","","","","","6","","","","",""
"","","","","","poldrack-single-stim","239","717656","0.0-3.0-26.0","62a8f6b1a7a7e5eb492c0231","A3","batch1","tol_feedback","-1","","","","","true","","","","","1000","1000","500","","","","","","-1","none","true","3489","13744","","","","","",""
"","","","","","html-button-response","240","718177","0.0-3.0-27.0","62a8f6b1a7a7e5eb492c0231","A3","batch1","tol_trial_num","520.2999999821186","<div class = centerbox><p class = center-block-text>problem <strong>7</strong> out of 25 problems</p></div>","0","","","","","","","","","","","","","","","","","","","","","","","","","",""
"","","","","","single-stim-button","241","719903","0.0-3.0-28.0-0.0","62a8f6b1a7a7e5eb492c0231","A3","batch1","tol_tohand","1725","","","","","","","","","tol_peg_3","1725","1725","0","[[2,1,0],[0,0],[0]]","1","[[1,2,0],[3,0],[0]]","6","0","","","","","","5","","","","",""
"","","","","","single-stim-button","242","720434","0.0-3.0-28.0-1.0","62a8f6b1a7a7e5eb492c0231","A3","batch1","tol_toboard","530","","","","","","","","","tol_peg_2","530","530","0","[[2,1,0],[3,0],[0]]","1","[[1,2,0],[3,0],[0]]","6","0","","","","","","5","","","","",""
"","","","","","single-stim-button","243","721052","0.0-3.0-28.1-0.1","62a8f6b1a7a7e5eb492c0231","A3","batch1","tol_tohand","617","","","","","","","","","tol_peg_1","617","617","0","[[2,0,0],[3,0],[0]]","2","[[1,2,0],[3,0],[0]]","6","0","","","","","","5","","","","",""
"","","","","","single-stim-button","244","724234","0.0-3.0-28.1-1.1","62a8f6b1a7a7e5eb492c0231","A3","batch1","tol_toboard","3182","","","","","","","","","tol_peg_2","3182","3182","0","[[2,0,0],[3,1],[0]]","2","[[1,2,0],[3,0],[0]]","6","0","","","","","","5","","","","",""
"","","","","","single-stim-button","245","724720","0.0-3.0-28.2-0.2","62a8f6b1a7a7e5eb492c0231","A3","batch1","tol_tohand","485","","","","","","","","","tol_peg_1","485","485","0","[[0,0,0],[3,1],[0]]","3","[[1,2,0],[3,0],[0]]","6","0","","","","","","5","","","","",""
"","","","","","single-stim-button","246","725325","0.0-3.0-28.2-1.2","62a8f6b1a7a7e5eb492c0231","A3","batch1","tol_toboard","605","","","","","","","","","tol_peg_3","605","605","0","[[0,0,0],[3,1],[2]]","3","[[1,2,0],[3,0],[0]]","6","0","","","","","","5","","","","",""
"","","","","","single-stim-button","247","725743","0.0-3.0-28.3-0.3","62a8f6b1a7a7e5eb492c0231","A3","batch1","tol_tohand","417","","","","","","","","","tol_peg_2","417","417","0","[[0,0,0],[3,0],[2]]","4","[[1,2,0],[3,0],[0]]","6","0","","","","","","5","","","","",""
"","","","","","single-stim-button","248","726272","0.0-3.0-28.3-1.3","62a8f6b1a7a7e5eb492c0231","A3","batch1","tol_toboard","529","","","","","","","","","tol_peg_1","529","529","0","[[1,0,0],[3,0],[2]]","4","[[1,2,0],[3,0],[0]]","6","0","","","","","","5","","","","",""
"","","","","","single-stim-button","249","726784","0.0-3.0-28.4-0.4","62a8f6b1a7a7e5eb492c0231","A3","batch1","tol_tohand","512","","","","","","","","","tol_peg_3","512","512","0","[[1,0,0],[3,0],[0]]","5","[[1,2,0],[3,0],[0]]","6","0","","","","","","5","","","","",""
"","","","","","single-stim-button","250","727411","0.0-3.0-28.4-1.4","62a8f6b1a7a7e5eb492c0231","A3","batch1","tol_toboard","627","","","","","","","","","tol_peg_1","627","627","0","[[1,2,0],[3,0],[0]]","5","[[1,2,0],[3,0],[0]]","6","0","","","","","","5","","","","",""
"","","","","","poldrack-single-stim","251","728412","0.0-3.0-29.0","62a8f6b1a7a7e5eb492c0231","A3","batch1","tol_feedback","-1","","","","","true","","","","","1000","1000","500","","","","","","-1","none","true","1725","3756","","","","","",""
"","","","","","html-button-response","252","728847","0.0-3.0-30.0","62a8f6b1a7a7e5eb492c0231","A3","batch1","tol_trial_num","434.69999998807907","<div class = centerbox><p class = center-block-text>problem <strong>8</strong> out of 25 problems</p></div>","0","","","","","","","","","","","","","","","","","","","","","","","","","",""
"","","","","","single-stim-button","253","732498","0.0-3.0-31.0-0.0","62a8f6b1a7a7e5eb492c0231","A3","batch1","tol_tohand","3651","","","","","","","","","tol_peg_2","3651","3651","0","[[0,0,0],[2,0],[1]]","1","[[1,2,0],[3,0],[0]]","7","0","","","","","","4","","","","",""
"","","","","","single-stim-button","254","733662","0.0-3.0-31.0-1.0","62a8f6b1a7a7e5eb492c0231","A3","batch1","tol_toboard","1163","","","","","","","","","tol_peg_1","1163","1163","0","[[3,0,0],[2,0],[1]]","1","[[1,2,0],[3,0],[0]]","7","0","","","","","","4","","","","",""
"","","","","","single-stim-button","255","738584","0.0-3.0-31.1-0.1","62a8f6b1a7a7e5eb492c0231","A3","batch1","tol_tohand","4921","","","","","","","","","tol_peg_3","4921","4921","0","[[3,0,0],[2,0],[0]]","2","[[1,2,0],[3,0],[0]]","7","0","","","","","","4","","","","",""
"","","","","","single-stim-button","256","739253","0.0-3.0-31.1-1.1","62a8f6b1a7a7e5eb492c0231","A3","batch1","tol_toboard","668","","","","","","","","","tol_peg_1","668","668","0","[[3,1,0],[2,0],[0]]","2","[[1,2,0],[3,0],[0]]","7","0","","","","","","4","","","","",""
"","","","","","single-stim-button","257","739896","0.0-3.0-31.2-0.2","62a8f6b1a7a7e5eb492c0231","A3","batch1","tol_tohand","642","","","","","","","","","tol_peg_2","642","642","0","[[3,1,0],[0,0],[0]]","3","[[1,2,0],[3,0],[0]]","7","0","","","","","","4","","","","",""
"","","","","","single-stim-button","258","740638","0.0-3.0-31.2-1.2","62a8f6b1a7a7e5eb492c0231","A3","batch1","tol_toboard","741","","","","","","","","","tol_peg_3","741","741","0","[[3,1,0],[0,0],[2]]","3","[[1,2,0],[3,0],[0]]","7","0","","","","","","4","","","","",""
"","","","","","single-stim-button","259","741172","0.0-3.0-31.3-0.3","62a8f6b1a7a7e5eb492c0231","A3","batch1","tol_tohand","533","","","","","","","","","tol_peg_1","533","533","0","[[3,0,0],[0,0],[2]]","4","[[1,2,0],[3,0],[0]]","7","0","","","","","","4","","","","",""
"","","","","","single-stim-button","260","745664","0.0-3.0-31.3-1.3","62a8f6b1a7a7e5eb492c0231","A3","batch1","tol_toboard","4491","","","","","","","","","tol_peg_2","4491","4491","0","[[3,0,0],[1,0],[2]]","4","[[1,2,0],[3,0],[0]]","7","0","","","","","","4","","","","",""
"","","","","","single-stim-button","261","747895","0.0-3.0-31.4-0.4","62a8f6b1a7a7e5eb492c0231","A3","batch1","tol_tohand","2231","","","","","","","","","tol_peg_2","2231","2231","0","[[3,0,0],[0,0],[2]]","5","[[1,2,0],[3,0],[0]]","7","0","","","","","","4","","","","",""
"","","","","","single-stim-button","262","748637","0.0-3.0-31.4-1.4","62a8f6b1a7a7e5eb492c0231","A3","batch1","tol_toboard","742","","","","","","","","","tol_peg_1","742","742","0","[[3,1,0],[0,0],[2]]","5","[[1,2,0],[3,0],[0]]","7","0","","","","","","4","","","","",""
"","","","","","single-stim-button","263","749383","0.0-3.0-31.5-0.5","62a8f6b1a7a7e5eb492c0231","A3","batch1","tol_tohand","745","","","","","","","","","tol_peg_3","745","745","0","[[3,1,0],[0,0],[0]]","6","[[1,2,0],[3,0],[0]]","7","0","","","","","","4","","","","",""
"","","","","","single-stim-button","264","750355","0.0-3.0-31.5-1.5","62a8f6b1a7a7e5eb492c0231","A3","batch1","tol_toboard","972","","","","","","","","","tol_peg_2","972","972","0","[[3,1,0],[2,0],[0]]","6","[[1,2,0],[3,0],[0]]","7","0","","","","","","4","","","","",""
"","","","","","single-stim-button","265","750889","0.0-3.0-31.6-0.6","62a8f6b1a7a7e5eb492c0231","A3","batch1","tol_tohand","534","","","","","","","","","tol_peg_1","534","534","0","[[3,0,0],[2,0],[0]]","7","[[1,2,0],[3,0],[0]]","7","0","","","","","","4","","","","",""
"","","","","","single-stim-button","266","755236","0.0-3.0-31.6-1.6","62a8f6b1a7a7e5eb492c0231","A3","batch1","tol_toboard","4346","","","","","","","","","tol_peg_2","4346","4346","0","[[3,0,0],[2,1],[0]]","7","[[1,2,0],[3,0],[0]]","7","0","","","","","","4","","","","",""
"","","","","","single-stim-button","267","755731","0.0-3.0-31.7-0.7","62a8f6b1a7a7e5eb492c0231","A3","batch1","tol_tohand","494","","","","","","","","","tol_peg_1","494","494","0","[[0,0,0],[2,1],[0]]","8","[[1,2,0],[3,0],[0]]","7","0","","","","","","4","","","","",""
"","","","","","single-stim-button","268","756384","0.0-3.0-31.7-1.7","62a8f6b1a7a7e5eb492c0231","A3","batch1","tol_toboard","651","","","","","","","","","tol_peg_3","651","651","0","[[0,0,0],[2,1],[3]]","8","[[1,2,0],[3,0],[0]]","7","0","","","","","","4","","","","",""
"","","","","","single-stim-button","269","757067","0.0-3.0-31.8-0.8","62a8f6b1a7a7e5eb492c0231","A3","batch1","tol_tohand","682","","","","","","","","","tol_peg_2","682","682","0","[[0,0,0],[2,0],[3]]","9","[[1,2,0],[3,0],[0]]","7","0","","","","","","4","","","","",""
"","","","","","single-stim-button","270","757789","0.0-3.0-31.8-1.8","62a8f6b1a7a7e5eb492c0231","A3","batch1","tol_toboard","721","","","","","","","","","tol_peg_1","721","721","0","[[1,0,0],[2,0],[3]]","9","[[1,2,0],[3,0],[0]]","7","0","","","","","","4","","","","",""
"","","","","","single-stim-button","271","758237","0.0-3.0-31.9-0.9","62a8f6b1a7a7e5eb492c0231","A3","batch1","tol_tohand","448","","","","","","","","","tol_peg_2","448","448","0","[[1,0,0],[0,0],[3]]","10","[[1,2,0],[3,0],[0]]","7","0","","","","","","4","","","","",""
"","","","","","single-stim-button","272","758712","0.0-3.0-31.9-1.9","62a8f6b1a7a7e5eb492c0231","A3","batch1","tol_toboard","474","","","","","","","","","tol_peg_1","474","474","0","[[1,2,0],[0,0],[3]]","10","[[1,2,0],[3,0],[0]]","7","0","","","","","","4","","","","",""
"","","","","","single-stim-button","273","759287","0.0-3.0-31.10-0.10","62a8f6b1a7a7e5eb492c0231","A3","batch1","tol_tohand","575","","","","","","","","","tol_peg_3","575","575","0","[[1,2,0],[0,0],[0]]","11","[[1,2,0],[3,0],[0]]","7","0","","","","","","4","","","","",""
"","","","","","single-stim-button","274","759935","0.0-3.0-31.10-1.10","62a8f6b1a7a7e5eb492c0231","A3","batch1","tol_toboard","646","","","","","","","","","tol_peg_2","646","646","0","[[1,2,0],[3,0],[0]]","11","[[1,2,0],[3,0],[0]]","7","0","","","","","","4","","","","",""
"","","","","","poldrack-single-stim","275","760936","0.0-3.0-32.0","62a8f6b1a7a7e5eb492c0231","A3","batch1","tol_feedback","-1","","","","","true","","","","","1000","1000","500","","","","","","-1","none","true","3651","15456","","","","","",""
"","","","","","html-button-response","276","761416","0.0-3.0-33.0","62a8f6b1a7a7e5eb492c0231","A3","batch1","tol_trial_num","479","<div class = centerbox><p class = center-block-text>problem <strong>9</strong> out of 25 problems</p></div>","0","","","","","","","","","","","","","","","","","","","","","","","","","",""
"","","","","","single-stim-button","277","766801","0.0-3.0-34.0-0.0","62a8f6b1a7a7e5eb492c0231","A3","batch1","tol_tohand","5385","","","","","","","","","tol_peg_3","5385","5385","0","[[3,2,0],[0,0],[0]]","1","[[2,1,0],[3,0],[0]]","8","0","","","","","","6","","","","",""
"","","","","","single-stim-button","278","767375","0.0-3.0-34.0-1.0","62a8f6b1a7a7e5eb492c0231","A3","batch1","tol_toboard","574","","","","","","","","","tol_peg_2","574","574","0","[[3,2,0],[1,0],[0]]","1","[[2,1,0],[3,0],[0]]","8","0","","","","","","6","","","","",""
"","","","","","single-stim-button","279","768166","0.0-3.0-34.1-0.1","62a8f6b1a7a7e5eb492c0231","A3","batch1","tol_tohand","790","","","","","","","","","tol_peg_1","790","790","0","[[3,0,0],[1,0],[0]]","2","[[2,1,0],[3,0],[0]]","8","0","","","","","","6","","","","",""
"","","","","","single-stim-button","280","768840","0.0-3.0-34.1-1.1","62a8f6b1a7a7e5eb492c0231","A3","batch1","tol_toboard","674","","","","","","","","","tol_peg_3","674","674","0","[[3,0,0],[1,0],[2]]","2","[[2,1,0],[3,0],[0]]","8","0","","","","","","6","","","","",""
"","","","","","single-stim-button","281","774156","0.0-3.0-34.2-0.2","62a8f6b1a7a7e5eb492c0231","A3","batch1","tol_tohand","5316","","","","","","","","","tol_peg_1","5316","5316","0","[[0,0,0],[1,0],[2]]","3","[[2,1,0],[3,0],[0]]","8","0","","","","","","6","","","","",""
"","","","","","single-stim-button","282","774729","0.0-3.0-34.2-1.2","62a8f6b1a7a7e5eb492c0231","A3","batch1","tol_toboard","573","","","","","","","","","tol_peg_2","573","573","0","[[0,0,0],[1,3],[2]]","3","[[2,1,0],[3,0],[0]]","8","0","","","","","","6","","","","",""
"","","","","","single-stim-button","283","775200","0.0-3.0-34.3-0.3","62a8f6b1a7a7e5eb492c0231","A3","batch1","tol_tohand","470","","","","","","","","","tol_peg_3","470","470","0","[[0,0,0],[1,3],[0]]","4","[[2,1,0],[3,0],[0]]","8","0","","","","","","6","","","","",""
"","","","","","single-stim-button","284","776033","0.0-3.0-34.3-1.3","62a8f6b1a7a7e5eb492c0231","A3","batch1","tol_toboard","833","","","","","","","","","tol_peg_1","833","833","0","[[2,0,0],[1,3],[0]]","4","[[2,1,0],[3,0],[0]]","8","0","","","","","","6","","","","",""
"","","","","","single-stim-button","285","776440","0.0-3.0-34.4-0.4","62a8f6b1a7a7e5eb492c0231","A3","batch1","tol_tohand","407","","","","","","","","","tol_peg_2","407","407","0","[[2,0,0],[1,0],[0]]","5","[[2,1,0],[3,0],[0]]","8","0","","","","","","6","","","","",""
"","","","","","single-stim-button","286","777153","0.0-3.0-34.4-1.4","62a8f6b1a7a7e5eb492c0231","A3","batch1","tol_toboard","713","","","","","","","","","tol_peg_3","713","713","0","[[2,0,0],[1,0],[3]]","5","[[2,1,0],[3,0],[0]]","8","0","","","","","","6","","","","",""
"","","","","","single-stim-button","287","777774","0.0-3.0-34.5-0.5","62a8f6b1a7a7e5eb492c0231","A3","batch1","tol_tohand","621","","","","","","","","","tol_peg_2","621","621","0","[[2,0,0],[0,0],[3]]","6","[[2,1,0],[3,0],[0]]","8","0","","","","","","6","","","","",""
"","","","","","single-stim-button","288","778389","0.0-3.0-34.5-1.5","62a8f6b1a7a7e5eb492c0231","A3","batch1","tol_toboard","614","","","","","","","","","tol_peg_1","614","614","0","[[2,1,0],[0,0],[3]]","6","[[2,1,0],[3,0],[0]]","8","0","","","","","","6","","","","",""
"","","","","","single-stim-button","289","778911","0.0-3.0-34.6-0.6","62a8f6b1a7a7e5eb492c0231","A3","batch1","tol_tohand","521","","","","","","","","","tol_peg_3","521","521","0","[[2,1,0],[0,0],[0]]","7","[[2,1,0],[3,0],[0]]","8","0","","","","","","6","","","","",""
"","","","","","single-stim-button","290","779380","0.0-3.0-34.6-1.6","62a8f6b1a7a7e5eb492c0231","A3","batch1","tol_toboard","469","","","","","","","","","tol_peg_2","469","469","0","[[2,1,0],[3,0],[0]]","7","[[2,1,0],[3,0],[0]]","8","0","","","","","","6","","","","",""
"","","","","","poldrack-single-stim","291","780381","0.0-3.0-35.0","62a8f6b1a7a7e5eb492c0231","A3","batch1","tol_feedback","-1","","","","","true","","","","","1000","1000","500","","","","","","-1","none","true","5385","13510","","","","","",""
"","","","","","html-button-response","292","780842","0.0-3.0-36.0","62a8f6b1a7a7e5eb492c0231","A3","batch1","tol_trial_num","459.80000001192093","<div class = centerbox><p class = center-block-text>problem <strong>10</strong> out of 25 problems</p></div>","0","","","","","","","","","","","","","","","","","","","","","","","","","",""
"","","","","","single-stim-button","293","783768","0.0-3.0-37.0-0.0","62a8f6b1a7a7e5eb492c0231","A3","batch1","tol_tohand","2926","","","","","","","","","tol_peg_2","2926","2926","0","[[3,0,0],[0,0],[2]]","1","[[3,0,0],[2,1],[0]]","9","0","","","","","","3","","","","",""
"","","","","","single-stim-button","294","784317","0.0-3.0-37.0-1.0","62a8f6b1a7a7e5eb492c0231","A3","batch1","tol_toboard","548","","","","","","","","","tol_peg_1","548","548","0","[[3,1,0],[0,0],[2]]","1","[[3,0,0],[2,1],[0]]","9","0","","","","","","3","","","","",""
"","","","","","single-stim-button","295","784939","0.0-3.0-37.1-0.1","62a8f6b1a7a7e5eb492c0231","A3","batch1","tol_tohand","622","","","","","","","","","tol_peg_3","622","622","0","[[3,1,0],[0,0],[0]]","2","[[3,0,0],[2,1],[0]]","9","0","","","","","","3","","","","",""
"","","","","","single-stim-button","296","785350","0.0-3.0-37.1-1.1","62a8f6b1a7a7e5eb492c0231","A3","batch1","tol_toboard","409","","","","","","","","","tol_peg_2","409","409","0","[[3,1,0],[2,0],[0]]","2","[[3,0,0],[2,1],[0]]","9","0","","","","","","3","","","","",""
"","","","","","single-stim-button","297","785939","0.0-3.0-37.2-0.2","62a8f6b1a7a7e5eb492c0231","A3","batch1","tol_tohand","589","","","","","","","","","tol_peg_1","589","589","0","[[3,0,0],[2,0],[0]]","3","[[3,0,0],[2,1],[0]]","9","0","","","","","","3","","","","",""
"","","","","","single-stim-button","298","786538","0.0-3.0-37.2-1.2","62a8f6b1a7a7e5eb492c0231","A3","batch1","tol_toboard","598","","","","","","","","","tol_peg_2","598","598","0","[[3,0,0],[2,1],[0]]","3","[[3,0,0],[2,1],[0]]","9","0","","","","","","3","","","","",""
"","","","","","poldrack-single-stim","299","787539","0.0-3.0-38.0","62a8f6b1a7a7e5eb492c0231","A3","batch1","tol_feedback","-1","","","","","true","","","","","1000","1000","500","","","","","","-1","none","true","2926","4137","","","","","",""
"","","","","","html-button-response","300","788414","0.0-3.0-39.0","62a8f6b1a7a7e5eb492c0231","A3","batch1","tol_trial_num","874.3000000119209","<div class = centerbox><p class = center-block-text>problem <strong>11</strong> out of 25 problems</p></div>","0","","","","","","","","","","","","","","","","","","","","","","","","","",""
"","","","","","single-stim-button","301","808245","0.0-3.0-40.0-0.0","62a8f6b1a7a7e5eb492c0231","A3","batch1","tol_tohand","19831","","","","","","","","","tol_peg_1","19831","19831","0","[[1,0,0],[3,0],[0]]","1","[[2,0,0],[1,3],[0]]","10","0","","","","","","6","","","","",""
"","","","","","single-stim-button","302","808860","0.0-3.0-40.0-1.0","62a8f6b1a7a7e5eb492c0231","A3","batch1","tol_toboard","615","","","","","","","","","tol_peg_2","615","615","0","[[1,0,0],[3,2],[0]]","1","[[2,0,0],[1,3],[0]]","10","0","","","","","","6","","","","",""
"","","","","","single-stim-button","303","809398","0.0-3.0-40.1-0.1","62a8f6b1a7a7e5eb492c0231","A3","batch1","tol_tohand","536","","","","","","","","","tol_peg_1","536","536","0","[[0,0,0],[3,2],[0]]","2","[[2,0,0],[1,3],[0]]","10","0","","","","","","6","","","","",""
"","","","","","single-stim-button","304","809983","0.0-3.0-40.1-1.1","62a8f6b1a7a7e5eb492c0231","A3","batch1","tol_toboard","584","","","","","","","","","tol_peg_3","584","584","0","[[0,0,0],[3,2],[1]]","2","[[2,0,0],[1,3],[0]]","10","0","","","","","","6","","","","",""
"","","","","","single-stim-button","305","810413","0.0-3.0-40.2-0.2","62a8f6b1a7a7e5eb492c0231","A3","batch1","tol_tohand","430","","","","","","","","","tol_peg_2","430","430","0","[[0,0,0],[3,0],[1]]","3","[[2,0,0],[1,3],[0]]","10","0","","","","","","6","","","","",""
"","","","","","single-stim-button","306","811129","0.0-3.0-40.2-1.2","62a8f6b1a7a7e5eb492c0231","A3","batch1","tol_toboard","714","","","","","","","","","tol_peg_1","714","714","0","[[2,0,0],[3,0],[1]]","3","[[2,0,0],[1,3],[0]]","10","0","","","","","","6","","","","",""
"","","","","","single-stim-button","307","811858","0.0-3.0-40.3-0.3","62a8f6b1a7a7e5eb492c0231","A3","batch1","tol_tohand","728","","","","","","","","","tol_peg_3","728","728","0","[[2,0,0],[3,0],[0]]","4","[[2,0,0],[1,3],[0]]","10","0","","","","","","6","","","","",""
"","","","","","single-stim-button","308","813053","0.0-3.0-40.3-1.3","62a8f6b1a7a7e5eb492c0231","A3","batch1","tol_toboard","1195","","","","","","","","","tol_peg_1","1195","1195","0","[[2,1,0],[3,0],[0]]","4","[[2,0,0],[1,3],[0]]","10","0","","","","","","6","","","","",""
"","","","","","single-stim-button","309","813475","0.0-3.0-40.4-0.4","62a8f6b1a7a7e5eb492c0231","A3","batch1","tol_tohand","421","","","","","","","","","tol_peg_2","421","421","0","[[2,1,0],[0,0],[0]]","5","[[2,0,0],[1,3],[0]]","10","0","","","","","","6","","","","",""
"","","","","","single-stim-button","310","813871","0.0-3.0-40.4-1.4","62a8f6b1a7a7e5eb492c0231","A3","batch1","tol_toboard","395","","","","","","","","","tol_peg_3","395","395","0","[[2,1,0],[0,0],[3]]","5","[[2,0,0],[1,3],[0]]","10","0","","","","","","6","","","","",""
"","","","","","single-stim-button","311","814298","0.0-3.0-40.5-0.5","62a8f6b1a7a7e5eb492c0231","A3","batch1","tol_tohand","427","","","","","","","","","tol_peg_1","427","427","0","[[2,0,0],[0,0],[3]]","6","[[2,0,0],[1,3],[0]]","10","0","","","","","","6","","","","",""
"","","","","","single-stim-button","312","814699","0.0-3.0-40.5-1.5","62a8f6b1a7a7e5eb492c0231","A3","batch1","tol_toboard","399","","","","","","","","","tol_peg_2","399","399","0","[[2,0,0],[1,0],[3]]","6","[[2,0,0],[1,3],[0]]","10","0","","","","","","6","","","","",""
"","","","","","single-stim-button","313","815110","0.0-3.0-40.6-0.6","62a8f6b1a7a7e5eb492c0231","A3","batch1","tol_tohand","411","","","","","","","","","tol_peg_3","411","411","0","[[2,0,0],[1,0],[0]]","7","[[2,0,0],[1,3],[0]]","10","0","","","","","","6","","","","",""
"","","","","","single-stim-button","314","815540","0.0-3.0-40.6-1.6","62a8f6b1a7a7e5eb492c0231","A3","batch1","tol_toboard","428","","","","","","","","","tol_peg_2","428","428","0","[[2,0,0],[1,3],[0]]","7","[[2,0,0],[1,3],[0]]","10","0","","","","","","6","","","","",""
"","","","","","poldrack-single-stim","315","816540","0.0-3.0-41.0","62a8f6b1a7a7e5eb492c0231","A3","batch1","tol_feedback","-1","","","","","true","","","","","1000","1000","500","","","","","","-1","none","true","19831","22784","","","","","",""
"","","","","","html-button-response","316","816926","0.0-3.0-42.0","62a8f6b1a7a7e5eb492c0231","A3","batch1","tol_trial_num","384.7999999821186","<div class = centerbox><p class = center-block-text>problem <strong>12</strong> out of 25 problems</p></div>","0","","","","","","","","","","","","","","","","","","","","","","","","","",""
"","","","","","single-stim-button","317","818413","0.0-3.0-43.0-0.0","62a8f6b1a7a7e5eb492c0231","A3","batch1","tol_tohand","1487","","","","","","","","","tol_peg_1","1487","1487","0","[[1,0,0],[3,0],[0]]","1","[[2,3,0],[0,0],[1]]","11","0","","","","","","4","","","","",""
"","","","","","single-stim-button","318","819133","0.0-3.0-43.0-1.0","62a8f6b1a7a7e5eb492c0231","A3","batch1","tol_toboard","719","","","","","","","","","tol_peg_3","719","719","0","[[1,0,0],[3,0],[2]]","1","[[2,3,0],[0,0],[1]]","11","0","","","","","","4","","","","",""
"","","","","","single-stim-button","319","824569","0.0-3.0-43.1-0.1","62a8f6b1a7a7e5eb492c0231","A3","batch1","tol_tohand","5435","","","","","","","","","tol_peg_1","5435","5435","0","[[0,0,0],[3,0],[2]]","2","[[2,3,0],[0,0],[1]]","11","0","","","","","","4","","","","",""
"","","","","","single-stim-button","320","825331","0.0-3.0-43.1-1.1","62a8f6b1a7a7e5eb492c0231","A3","batch1","tol_toboard","761","","","","","","","","","tol_peg_2","761","761","0","[[0,0,0],[3,1],[2]]","2","[[2,3,0],[0,0],[1]]","11","0","","","","","","4","","","","",""
"","","","","","single-stim-button","321","825791","0.0-3.0-43.2-0.2","62a8f6b1a7a7e5eb492c0231","A3","batch1","tol_tohand","459","","","","","","","","","tol_peg_3","459","459","0","[[0,0,0],[3,1],[0]]","3","[[2,3,0],[0,0],[1]]","11","0","","","","","","4","","","","",""
"","","","","","single-stim-button","322","826453","0.0-3.0-43.2-1.2","62a8f6b1a7a7e5eb492c0231","A3","batch1","tol_toboard","661","","","","","","","","","tol_peg_1","661","661","0","[[2,0,0],[3,1],[0]]","3","[[2,3,0],[0,0],[1]]","11","0","","","","","","4","","","","",""
"","","","","","single-stim-button","323","830166","0.0-3.0-43.3-0.3","62a8f6b1a7a7e5eb492c0231","A3","batch1","tol_tohand","3712","","","","","","","","","tol_peg_2","3712","3712","0","[[2,0,0],[3,0],[0]]","4","[[2,3,0],[0,0],[1]]","11","0","","","","","","4","","","","",""
"","","","","","single-stim-button","324","830848","0.0-3.0-43.3-1.3","62a8f6b1a7a7e5eb492c0231","A3","batch1","tol_toboard","682","","","","","","","","","tol_peg_3","682","682","0","[[2,0,0],[3,0],[1]]","4","[[2,3,0],[0,0],[1]]","11","0","","","","","","4","","","","",""
"","","","","","single-stim-button","325","831229","0.0-3.0-43.4-0.4","62a8f6b1a7a7e5eb492c0231","A3","batch1","tol_tohand","381","","","","","","","","","tol_peg_2","381","381","0","[[2,0,0],[0,0],[1]]","5","[[2,3,0],[0,0],[1]]","11","0","","","","","","4","","","","",""
"","","","","","single-stim-button","326","831657","0.0-3.0-43.4-1.4","62a8f6b1a7a7e5eb492c0231","A3","batch1","tol_toboard","427","","","","","","","","","tol_peg_1","427","427","0","[[2,3,0],[0,0],[1]]","5","[[2,3,0],[0,0],[1]]","11","0","","","","","","4","","","","",""
"","","","","","poldrack-single-stim","327","832657","0.0-3.0-44.0","62a8f6b1a7a7e5eb492c0231","A3","batch1","tol_feedback","-1","","","","","true","","","","","1000","1000","500","","","","","","-1","none","true","1487","11474","","","","","",""
"","","","","","html-button-response","328","833478","0.0-3.0-45.0","62a8f6b1a7a7e5eb492c0231","A3","batch1","tol_trial_num","819.5999999940395","<div class = centerbox><p class = center-block-text>problem <strong>13</strong> out of 25 problems</p></div>","0","","","","","","","","","","","","","","","","","","","","","","","","","",""
"","","","","","single-stim-button","329","837344","0.0-3.0-46.0-0.0","62a8f6b1a7a7e5eb492c0231","A3","batch1","tol_tohand","3866","","","","","","","","","tol_peg_1","3866","3866","0","[[1,0,0],[3,0],[0]]","1","[[0,0,0],[2,3],[1]]","12","0","","","","","","4","","","","",""
"","","","","","single-stim-button","330","838059","0.0-3.0-46.0-1.0","62a8f6b1a7a7e5eb492c0231","A3","batch1","tol_toboard","715","","","","","","","","","tol_peg_3","715","715","0","[[1,0,0],[3,0],[2]]","1","[[0,0,0],[2,3],[1]]","12","0","","","","","","4","","","","",""
"","","","","","single-stim-button","331","839101","0.0-3.0-46.1-0.1","62a8f6b1a7a7e5eb492c0231","A3","batch1","tol_tohand","1042","","","","","","","","","tol_peg_2","1042","1042","0","[[1,0,0],[0,0],[2]]","2","[[0,0,0],[2,3],[1]]","12","0","","","","","","4","","","","",""
"","","","","","single-stim-button","332","839797","0.0-3.0-46.1-1.1","62a8f6b1a7a7e5eb492c0231","A3","batch1","tol_toboard","696","","","","","","","","","tol_peg_1","696","696","0","[[1,3,0],[0,0],[2]]","2","[[0,0,0],[2,3],[1]]","12","0","","","","","","4","","","","",""
"","","","","","single-stim-button","333","840312","0.0-3.0-46.2-0.2","62a8f6b1a7a7e5eb492c0231","A3","batch1","tol_tohand","514","","","","","","","","","tol_peg_3","514","514","0","[[1,3,0],[0,0],[0]]","3","[[0,0,0],[2,3],[1]]","12","0","","","","","","4","","","","",""
"","","","","","single-stim-button","334","840716","0.0-3.0-46.2-1.2","62a8f6b1a7a7e5eb492c0231","A3","batch1","tol_toboard","403","","","","","","","","","tol_peg_2","403","403","0","[[1,3,0],[2,0],[0]]","3","[[0,0,0],[2,3],[1]]","12","0","","","","","","4","","","","",""
"","","","","","single-stim-button","335","841121","0.0-3.0-46.3-0.3","62a8f6b1a7a7e5eb492c0231","A3","batch1","tol_tohand","404","","","","","","","","","tol_peg_1","404","404","0","[[1,0,0],[2,0],[0]]","4","[[0,0,0],[2,3],[1]]","12","0","","","","","","4","","","","",""
"","","","","","single-stim-button","336","841431","0.0-3.0-46.3-1.3","62a8f6b1a7a7e5eb492c0231","A3","batch1","tol_toboard","310","","","","","","","","","tol_peg_2","310","310","0","[[1,0,0],[2,3],[0]]","4","[[0,0,0],[2,3],[1]]","12","0","","","","","","4","","","","",""
"","","","","","single-stim-button","337","841878","0.0-3.0-46.4-0.4","62a8f6b1a7a7e5eb492c0231","A3","batch1","tol_tohand","446","","","","","","","","","tol_peg_1","446","446","0","[[0,0,0],[2,3],[0]]","5","[[0,0,0],[2,3],[1]]","12","0","","","","","","4","","","","",""
"","","","","","single-stim-button","338","842681","0.0-3.0-46.4-1.4","62a8f6b1a7a7e5eb492c0231","A3","batch1","tol_toboard","802","","","","","","","","","tol_peg_3","802","802","0","[[0,0,0],[2,3],[1]]","5","[[0,0,0],[2,3],[1]]","12","0","","","","","","4","","","","",""
"","","","","","poldrack-single-stim","339","843682","0.0-3.0-47.0","62a8f6b1a7a7e5eb492c0231","A3","batch1","tol_feedback","-1","","","","","true","","","","","1000","1000","500","","","","","","-1","none","true","3866","6272","","","","","",""
"","","","","","html-button-response","340","845671","0.0-3.0-48.0","62a8f6b1a7a7e5eb492c0231","A3","batch1","attention_check","1988.6000000238419","<p class = block-text>How many balls are in your board<br></p>","1","","","true","","","","","","","","","","","","","","","","","","","","","","",""
"","","","","","html-button-response","341","846350","0.0-3.0-49.0","62a8f6b1a7a7e5eb492c0231","A3","batch1","tol_trial_num","678.5999999940395","<div class = centerbox><p class = center-block-text>problem <strong>14</strong> out of 25 problems</p></div>","0","","","","","","","","","","","","","","","","","","","","","","","","","",""
"","","","","","single-stim-button","342","848725","0.0-3.0-50.0-0.0","62a8f6b1a7a7e5eb492c0231","A3","batch1","tol_tohand","2375","","","","","","","","","tol_peg_1","2375","2375","0","[[2,0,0],[3,0],[0]]","1","[[1,2,0],[3,0],[0]]","13","0","","","","","","4","","","","",""
"","","","","","single-stim-button","343","850915","0.0-3.0-50.0-1.0","62a8f6b1a7a7e5eb492c0231","A3","batch1","tol_toboard","2190","","","","","","","","","tol_peg_2","2190","2190","0","[[2,0,0],[3,1],[0]]","1","[[1,2,0],[3,0],[0]]","13","0","","","","","","4","","","","",""
"","","","","","single-stim-button","344","851392","0.0-3.0-50.1-0.1","62a8f6b1a7a7e5eb492c0231","A3","batch1","tol_tohand","477","","","","","","","","","tol_peg_1","477","477","0","[[0,0,0],[3,1],[0]]","2","[[1,2,0],[3,0],[0]]","13","0","","","","","","4","","","","",""
"","","","","","single-stim-button","345","852003","0.0-3.0-50.1-1.1","62a8f6b1a7a7e5eb492c0231","A3","batch1","tol_toboard","611","","","","","","","","","tol_peg_3","611","611","0","[[0,0,0],[3,1],[2]]","2","[[1,2,0],[3,0],[0]]","13","0","","","","","","4","","","","",""
"","","","","","single-stim-button","346","852411","0.0-3.0-50.2-0.2","62a8f6b1a7a7e5eb492c0231","A3","batch1","tol_tohand","408","","","","","","","","","tol_peg_2","408","408","0","[[0,0,0],[3,0],[2]]","3","[[1,2,0],[3,0],[0]]","13","0","","","","","","4","","","","",""
"","","","","","single-stim-button","347","852852","0.0-3.0-50.2-1.2","62a8f6b1a7a7e5eb492c0231","A3","batch1","tol_toboard","441","","","","","","","","","tol_peg_1","441","441","0","[[1,0,0],[3,0],[2]]","3","[[1,2,0],[3,0],[0]]","13","0","","","","","","4","","","","",""
"","","","","","single-stim-button","348","854428","0.0-3.0-50.3-0.3","62a8f6b1a7a7e5eb492c0231","A3","batch1","tol_tohand","1576","","","","","","","","","tol_peg_3","1576","1576","0","[[1,0,0],[3,0],[0]]","4","[[1,2,0],[3,0],[0]]","13","0","","","","","","4","","","","",""
"","","","","","single-stim-button","349","855220","0.0-3.0-50.3-1.3","62a8f6b1a7a7e5eb492c0231","A3","batch1","tol_toboard","792","","","","","","","","","tol_peg_1","792","792","0","[[1,2,0],[3,0],[0]]","4","[[1,2,0],[3,0],[0]]","13","0","","","","","","4","","","","",""
"","","","","","poldrack-single-stim","350","856221","0.0-3.0-51.0","62a8f6b1a7a7e5eb492c0231","A3","batch1","tol_feedback","-1","","","","","true","","","","","1000","1000","500","","","","","","-1","none","true","2375","4836","","","","","",""
"","","","","","html-button-response","351","856735","0.0-3.0-52.0","62a8f6b1a7a7e5eb492c0231","A3","batch1","tol_trial_num","513.0999999940395","<div class = centerbox><p class = center-block-text>problem <strong>15</strong> out of 25 problems</p></div>","0","","","","","","","","","","","","","","","","","","","","","","","","","",""
"","","","","","single-stim-button","352","858556","0.0-3.0-53.0-0.0","62a8f6b1a7a7e5eb492c0231","A3","batch1","tol_tohand","1821","","","","","","","","","tol_peg_1","1821","1821","0","[[1,0,0],[3,0],[0]]","1","[[2,0,0],[3,0],[1]]","14","0","","","","","","3","","","","",""
"","","","","","single-stim-button","353","859001","0.0-3.0-53.0-1.0","62a8f6b1a7a7e5eb492c0231","A3","batch1","tol_toboard","445","","","","","","","","","tol_peg_2","445","445","0","[[1,0,0],[3,2],[0]]","1","[[2,0,0],[3,0],[1]]","14","0","","","","","","3","","","","",""
