"success","timeout","failed_images","failed_audio","failed_video","trial_type","trial_index","time_elapsed","internal_node_id","subject_id","study_id","session_id","task","rt","stimulus","response","item","answer","correct","spm_correct","spm_rt","view_history","fiar_detect_rt","fiar_detect_correct","total_correct_fiar_detect","post_trial_gap","choices","mouse_click","stim_duration","block_duration","timing_post_trial","current_position","tol_num_moves_made","tol_target","tol_problem_id","tol_rt","key_press","possible_responses","tol_correct","preplanning","tol_rt_per_trial","tol_min_moves"
"true","false","[]","[]","[]","preload","0","1071","0.0-0.0","62ae5bba809eb60d54f6abb6","B2","batch2","","","","","","","","","","","","","","","","","","","","","","","","","","","","","",""
"true","","","","","fullscreen","1","11879","0.0-1.0-0.0","62ae5bba809eb60d54f6abb6","B2","batch2","","","","","","","","","","","","","","","","","","","","","","","","","","","","","",""
"true","","","","","fullscreen","2","15866","0.0-2.0-0.0","62ae5bba809eb60d54f6abb6","B2","batch2","spm_fullscreen","","","","","","","","","","","","","","","","","","","","","","","","","","","","",""
"","","","","","html-button-response","3","32099","0.0-2.0-1.0","62ae5bba809eb60d54f6abb6","B2","batch2","","16232.600000023842","<p class = block-text><b>Instructions</b> <br>This is a widely used intelligence test in research. <br>In this test, a figure with a missing piece will be presented.<br>Below the figure are alternative pieces to complete the figure, only one of which is correct.<br> Different figures might involve different principles for obtaining the missing piece<br>Your job is to select the most logical piece to complete the figure.</p>","0","","","","","","","","","","","","","","","","","","","","","","","","","",""
"","","","","","html-keyboard-response","4","32900","0.0-2.0-2.0-0.0","62ae5bba809eb60d54f6abb6","B2","batch2","spm_show_trial_num","null","<p class=block-text>Trial 1 out of 60</p>","null","","","","","","","","","","","","","","","","","","","","","","","","","",""
"","","","","","image-button-response","5","39041","0.0-2.0-2.0-1.0","62ae5bba809eb60d54f6abb6","B2","batch2","spm_respsonse","6137.600000023842","img/question_1_1.jpeg","3","mat_01","4","1","1","6137.600000023842","","","","","","","","","","","","","","","","","","","","",""
"","","","","","html-keyboard-response","6","40095","0.0-2.0-2.0-0.1","62ae5bba809eb60d54f6abb6","B2","batch2","spm_show_trial_num","null","<p class=block-text>Trial 2 out of 60</p>","null","","","","","","","","","","","","","","","","","","","","","","","","","",""
"","","","","","image-button-response","7","42148","0.0-2.0-2.0-1.1","62ae5bba809eb60d54f6abb6","B2","batch2","spm_respsonse","2052","img/question_1_2.jpeg","4","mat_02","5","1","1","2052","","","","","","","","","","","","","","","","","","","","",""
"","","","","","html-keyboard-response","8","43201","0.0-2.0-2.0-0.2","62ae5bba809eb60d54f6abb6","B2","batch2","spm_show_trial_num","null","<p class=block-text>Trial 3 out of 60</p>","null","","","","","","","","","","","","","","","","","","","","","","","","","",""
"","","","","","image-button-response","9","45690","0.0-2.0-2.0-1.2","62ae5bba809eb60d54f6abb6","B2","batch2","spm_respsonse","2487.2000000476837","img/question_1_3.jpeg","0","mat_03","1","1","1","2487.2000000476837","","","","","","","","","","","","","","","","","","","","",""
"","","","","","html-keyboard-response","10","46757","0.0-2.0-2.0-0.3","62ae5bba809eb60d54f6abb6","B2","batch2","spm_show_trial_num","null","<p class=block-text>Trial 4 out of 60</p>","null","","","","","","","","","","","","","","","","","","","","","","","","","",""
"","","","","","image-button-response","11","49269","0.0-2.0-2.0-1.3","62ae5bba809eb60d54f6abb6","B2","batch2","spm_respsonse","2510.7000000476837","img/question_1_4.jpeg","1","mat_04","2","1","1","2510.7000000476837","","","","","","","","","","","","","","","","","","","","",""
"","","","","","html-keyboard-response","12","50345","0.0-2.0-2.0-0.4","62ae5bba809eb60d54f6abb6","B2","batch2","spm_show_trial_num","null","<p class=block-text>Trial 5 out of 60</p>","null","","","","","","","","","","","","","","","","","","","","","","","","","",""
"","","","","","image-button-response","13","56932","0.0-2.0-2.0-1.4","62ae5bba809eb60d54f6abb6","B2","batch2","spm_respsonse","6585.899999976158","img/question_1_5.jpeg","5","mat_05","6","1","1","6585.899999976158","","","","","","","","","","","","","","","","","","","","",""
"","","","","","html-keyboard-response","14","57999","0.0-2.0-2.0-0.5","62ae5bba809eb60d54f6abb6","B2","batch2","spm_show_trial_num","null","<p class=block-text>Trial 6 out of 60</p>","null","","","","","","","","","","","","","","","","","","","","","","","","","",""
"","","","","","image-button-response","15","61856","0.0-2.0-2.0-1.5","62ae5bba809eb60d54f6abb6","B2","batch2","spm_respsonse","3855.6999999284744","img/question_1_6.jpeg","2","mat_06","3","1","1","3855.6999999284744","","","","","","","","","","","","","","","","","","","","",""
"","","","","","html-keyboard-response","16","62909","0.0-2.0-2.0-0.6","62ae5bba809eb60d54f6abb6","B2","batch2","spm_show_trial_num","null","<p class=block-text>Trial 7 out of 60</p>","null","","","","","","","","","","","","","","","","","","","","","","","","","",""
"","","","","","image-button-response","17","66197","0.0-2.0-2.0-1.6","62ae5bba809eb60d54f6abb6","B2","batch2","spm_respsonse","3287.100000023842","img/question_1_7.jpeg","5","mat_07","6","1","1","3287.100000023842","","","","","","","","","","","","","","","","","","","","",""
"","","","","","html-keyboard-response","18","67250","0.0-2.0-2.0-0.7","62ae5bba809eb60d54f6abb6","B2","batch2","spm_show_trial_num","null","<p class=block-text>Trial 8 out of 60</p>","null","","","","","","","","","","","","","","","","","","","","","","","","","",""
"","","","","","image-button-response","19","73622","0.0-2.0-2.0-1.7","62ae5bba809eb60d54f6abb6","B2","batch2","spm_respsonse","6370.200000047684","img/question_1_8.jpeg","1","mat_08","2","1","1","6370.200000047684","","","","","","","","","","","","","","","","","","","","",""
"","","","","","html-keyboard-response","20","74674","0.0-2.0-2.0-0.8","62ae5bba809eb60d54f6abb6","B2","batch2","spm_show_trial_num","null","<p class=block-text>Trial 9 out of 60</p>","null","","","","","","","","","","","","","","","","","","","","","","","","","",""
"","","","","","image-button-response","21","78392","0.0-2.0-2.0-1.8","62ae5bba809eb60d54f6abb6","B2","batch2","spm_respsonse","3717.3000000715256","img/question_1_9.jpeg","0","mat_09","1","1","1","3717.3000000715256","","","","","","","","","","","","","","","","","","","","",""
"","","","","","html-keyboard-response","22","79457","0.0-2.0-2.0-0.9","62ae5bba809eb60d54f6abb6","B2","batch2","spm_show_trial_num","null","<p class=block-text>Trial 10 out of 60</p>","null","","","","","","","","","","","","","","","","","","","","","","","","","",""
"","","","","","image-button-response","23","86225","0.0-2.0-2.0-1.9","62ae5bba809eb60d54f6abb6","B2","batch2","spm_respsonse","6767.199999928474","img/question_1_10.jpeg","2","mat_10","3","1","1","6767.199999928474","","","","","","","","","","","","","","","","","","","","",""
"","","","","","html-keyboard-response","24","87289","0.0-2.0-2.0-0.10","62ae5bba809eb60d54f6abb6","B2","batch2","spm_show_trial_num","null","<p class=block-text>Trial 11 out of 60</p>","null","","","","","","","","","","","","","","","","","","","","","","","","","",""
"","","","","","image-button-response","25","104762","0.0-2.0-2.0-1.10","62ae5bba809eb60d54f6abb6","B2","batch2","spm_respsonse","17471.399999976158","img/question_1_11.jpeg","3","mat_11","4","1","1","17471.399999976158","","","","","","","","","","","","","","","","","","","","",""
"","","","","","html-keyboard-response","26","105827","0.0-2.0-2.0-0.11","62ae5bba809eb60d54f6abb6","B2","batch2","spm_show_trial_num","null","<p class=block-text>Trial 12 out of 60</p>","null","","","","","","","","","","","","","","","","","","","","","","","","","",""
"","","","","","image-button-response","27","121541","0.0-2.0-2.0-1.11","62ae5bba809eb60d54f6abb6","B2","batch2","spm_respsonse","15713.100000023842","img/question_1_12.jpeg","4","mat_12","5","1","1","15713.100000023842","","","","","","","","","","","","","","","","","","","","",""
"","","","","","html-keyboard-response","28","122607","0.0-2.0-2.0-0.12","62ae5bba809eb60d54f6abb6","B2","batch2","spm_show_trial_num","null","<p class=block-text>Trial 13 out of 60</p>","null","","","","","","","","","","","","","","","","","","","","","","","","","",""
"","","","","","image-button-response","29","124625","0.0-2.0-2.0-1.12","62ae5bba809eb60d54f6abb6","B2","batch2","spm_respsonse","2016.4000000953674","img/question_2_1.jpeg","1","mat_13","2","1","1","2016.4000000953674","","","","","","","","","","","","","","","","","","","","",""
"","","","","","html-keyboard-response","30","125676","0.0-2.0-2.0-0.13","62ae5bba809eb60d54f6abb6","B2","batch2","spm_show_trial_num","null","<p class=block-text>Trial 14 out of 60</p>","null","","","","","","","","","","","","","","","","","","","","","","","","","",""
"","","","","","image-button-response","31","130100","0.0-2.0-2.0-1.13","62ae5bba809eb60d54f6abb6","B2","batch2","spm_respsonse","4422.5","img/question_2_2.jpeg","5","mat_14","6","1","1","4422.5","","","","","","","","","","","","","","","","","","","","",""
"","","","","","html-keyboard-response","32","131167","0.0-2.0-2.0-0.14","62ae5bba809eb60d54f6abb6","B2","batch2","spm_show_trial_num","null","<p class=block-text>Trial 15 out of 60</p>","null","","","","","","","","","","","","","","","","","","","","","","","","","",""
"","","","","","image-button-response","33","135145","0.0-2.0-2.0-1.14","62ae5bba809eb60d54f6abb6","B2","batch2","spm_respsonse","3977.3000000715256","img/question_2_3.jpeg","0","mat_15","1","1","1","3977.3000000715256","","","","","","","","","","","","","","","","","","","","",""
"","","","","","html-keyboard-response","34","136198","0.0-2.0-2.0-0.15","62ae5bba809eb60d54f6abb6","B2","batch2","spm_show_trial_num","null","<p class=block-text>Trial 16 out of 60</p>","null","","","","","","","","","","","","","","","","","","","","","","","","","",""
"","","","","","image-button-response","35","141922","0.0-2.0-2.0-1.15","62ae5bba809eb60d54f6abb6","B2","batch2","spm_respsonse","5723.5","img/question_2_4.jpeg","1","mat_16","2","1","1","5723.5","","","","","","","","","","","","","","","","","","","","",""
"","","","","","html-keyboard-response","36","142985","0.0-2.0-2.0-0.16","62ae5bba809eb60d54f6abb6","B2","batch2","spm_show_trial_num","null","<p class=block-text>Trial 17 out of 60</p>","null","","","","","","","","","","","","","","","","","","","","","","","","","",""
"","","","","","image-button-response","37","147008","0.0-2.0-2.0-1.16","62ae5bba809eb60d54f6abb6","B2","batch2","spm_respsonse","4021.600000023842","img/question_2_5.jpeg","0","mat_17","1","1","1","4021.600000023842","","","","","","","","","","","","","","","","","","","","",""
"","","","","","html-keyboard-response","38","148063","0.0-2.0-2.0-0.17","62ae5bba809eb60d54f6abb6","B2","batch2","spm_show_trial_num","null","<p class=block-text>Trial 18 out of 60</p>","null","","","","","","","","","","","","","","","","","","","","","","","","","",""
"","","","","","image-button-response","39","153414","0.0-2.0-2.0-1.17","62ae5bba809eb60d54f6abb6","B2","batch2","spm_respsonse","5349.799999952316","img/question_2_6.jpeg","2","mat_18","3","1","1","5349.799999952316","","","","","","","","","","","","","","","","","","","","",""
"","","","","","html-keyboard-response","40","154473","0.0-2.0-2.0-0.18","62ae5bba809eb60d54f6abb6","B2","batch2","spm_show_trial_num","null","<p class=block-text>Trial 19 out of 60</p>","null","","","","","","","","","","","","","","","","","","","","","","","","","",""
"","","","","","image-button-response","41","157863","0.0-2.0-2.0-1.18","62ae5bba809eb60d54f6abb6","B2","batch2","spm_respsonse","3389.600000023842","img/question_2_7.jpeg","4","mat_19","5","1","1","3389.600000023842","","","","","","","","","","","","","","","","","","","","",""
"","","","","","html-keyboard-response","42","158915","0.0-2.0-2.0-0.19","62ae5bba809eb60d54f6abb6","B2","batch2","spm_show_trial_num","null","<p class=block-text>Trial 20 out of 60</p>","null","","","","","","","","","","","","","","","","","","","","","","","","","",""
"","","","","","image-button-response","43","163726","0.0-2.0-2.0-1.19","62ae5bba809eb60d54f6abb6","B2","batch2","spm_respsonse","4810.299999952316","img/question_2_8.jpeg","5","mat_20","6","1","1","4810.299999952316","","","","","","","","","","","","","","","","","","","","",""
"","","","","","html-keyboard-response","44","164777","0.0-2.0-2.0-0.20","62ae5bba809eb60d54f6abb6","B2","batch2","spm_show_trial_num","null","<p class=block-text>Trial 21 out of 60</p>","null","","","","","","","","","","","","","","","","","","","","","","","","","",""
"","","","","","image-button-response","45","169619","0.0-2.0-2.0-1.20","62ae5bba809eb60d54f6abb6","B2","batch2","spm_respsonse","4840.5","img/question_2_9.jpeg","3","mat_21","4","1","1","4840.5","","","","","","","","","","","","","","","","","","","","",""
"","","","","","html-keyboard-response","46","170671","0.0-2.0-2.0-0.21","62ae5bba809eb60d54f6abb6","B2","batch2","spm_show_trial_num","null","<p class=block-text>Trial 22 out of 60</p>","null","","","","","","","","","","","","","","","","","","","","","","","","","",""
"","","","","","image-button-response","47","174208","0.0-2.0-2.0-1.21","62ae5bba809eb60d54f6abb6","B2","batch2","spm_respsonse","3535.7000000476837","img/question_2_10.jpeg","2","mat_22","3","1","1","3535.7000000476837","","","","","","","","","","","","","","","","","","","","",""
"","","","","","html-keyboard-response","48","175272","0.0-2.0-2.0-0.22","62ae5bba809eb60d54f6abb6","B2","batch2","spm_show_trial_num","null","<p class=block-text>Trial 23 out of 60</p>","null","","","","","","","","","","","","","","","","","","","","","","","","","",""
"","","","","","image-button-response","49","179128","0.0-2.0-2.0-1.22","62ae5bba809eb60d54f6abb6","B2","batch2","spm_respsonse","3854.6999999284744","img/question_2_11.jpeg","3","mat_23","4","1","1","3854.6999999284744","","","","","","","","","","","","","","","","","","","","",""
"","","","","","html-keyboard-response","50","180192","0.0-2.0-2.0-0.23","62ae5bba809eb60d54f6abb6","B2","batch2","spm_show_trial_num","null","<p class=block-text>Trial 24 out of 60</p>","null","","","","","","","","","","","","","","","","","","","","","","","","","",""
"","","","","","image-button-response","51","198464","0.0-2.0-2.0-1.23","62ae5bba809eb60d54f6abb6","B2","batch2","spm_respsonse","18270.899999976158","img/question_2_12.jpeg","4","mat_24","5","1","1","18270.899999976158","","","","","","","","","","","","","","","","","","","","",""
"","","","","","html-button-response","52","200205","0.0-2.0-3.0","62ae5bba809eb60d54f6abb6","B2","batch2","attention_check","1480.8999999761581","<p class = block-text>Attention check: Please choose 1<br></p>","0","","","true","","","","","","","","","","","","","","","","","","","","","","",""
"","","","","","html-keyboard-response","53","201017","0.0-2.0-4.0-0.0","62ae5bba809eb60d54f6abb6","B2","batch2","spm_show_trial_num","null","<p class=block-text>Trial 25 out of 60</p>","null","","","","","","","","","","","","","","","","","","","","","","","","","",""
"","","","","","image-button-response","54","206186","0.0-2.0-4.0-1.0","62ae5bba809eb60d54f6abb6","B2","batch2","spm_respsonse","5167.399999976158","img/question_3_1.jpeg","7","mat_25","8","1","1","5167.399999976158","","","","","","","","","","","","","","","","","","","","",""
"","","","","","html-keyboard-response","55","207241","0.0-2.0-4.0-0.1","62ae5bba809eb60d54f6abb6","B2","batch2","spm_show_trial_num","null","<p class=block-text>Trial 26 out of 60</p>","null","","","","","","","","","","","","","","","","","","","","","","","","","",""
"","","","","","image-button-response","56","213218","0.0-2.0-4.0-1.1","62ae5bba809eb60d54f6abb6","B2","batch2","spm_respsonse","5975.399999976158","img/question_3_2.jpeg","1","mat_26","2","1","1","5975.399999976158","","","","","","","","","","","","","","","","","","","","",""
"","","","","","html-keyboard-response","57","214274","0.0-2.0-4.0-0.2","62ae5bba809eb60d54f6abb6","B2","batch2","spm_show_trial_num","null","<p class=block-text>Trial 27 out of 60</p>","null","","","","","","","","","","","","","","","","","","","","","","","","","",""
"","","","","","image-button-response","58","223822","0.0-2.0-4.0-1.2","62ae5bba809eb60d54f6abb6","B2","batch2","spm_respsonse","9546.399999976158","img/question_3_3.jpeg","2","mat_27","3","1","1","9546.399999976158","","","","","","","","","","","","","","","","","","","","",""
"","","","","","html-keyboard-response","59","224879","0.0-2.0-4.0-0.3","62ae5bba809eb60d54f6abb6","B2","batch2","spm_show_trial_num","null","<p class=block-text>Trial 28 out of 60</p>","null","","","","","","","","","","","","","","","","","","","","","","","","","",""
"","","","","","image-button-response","60","236358","0.0-2.0-4.0-1.3","62ae5bba809eb60d54f6abb6","B2","batch2","spm_respsonse","11476.299999952316","img/question_3_4.jpeg","7","mat_28","8","1","1","11476.299999952316","","","","","","","","","","","","","","","","","","","","",""
"","","","","","html-keyboard-response","61","237432","0.0-2.0-4.0-0.4","62ae5bba809eb60d54f6abb6","B2","batch2","spm_show_trial_num","null","<p class=block-text>Trial 29 out of 60</p>","null","","","","","","","","","","","","","","","","","","","","","","","","","",""
"","","","","","image-button-response","62","243280","0.0-2.0-4.0-1.4","62ae5bba809eb60d54f6abb6","B2","batch2","spm_respsonse","5846.599999904633","img/question_3_5.jpeg","6","mat_29","7","1","1","5846.599999904633","","","","","","","","","","","","","","","","","","","","",""
"","","","","","html-keyboard-response","63","244332","0.0-2.0-4.0-0.5","62ae5bba809eb60d54f6abb6","B2","batch2","spm_show_trial_num","null","<p class=block-text>Trial 30 out of 60</p>","null","","","","","","","","","","","","","","","","","","","","","","","","","",""
"","","","","","image-button-response","64","248452","0.0-2.0-4.0-1.5","62ae5bba809eb60d54f6abb6","B2","batch2","spm_respsonse","4118.899999976158","img/question_3_6.jpeg","3","mat_30","4","1","1","4118.899999976158","","","","","","","","","","","","","","","","","","","","",""
"","","","","","html-keyboard-response","65","249505","0.0-2.0-4.0-0.6","62ae5bba809eb60d54f6abb6","B2","batch2","spm_show_trial_num","null","<p class=block-text>Trial 31 out of 60</p>","null","","","","","","","","","","","","","","","","","","","","","","","","","",""
"","","","","","image-button-response","66","257741","0.0-2.0-4.0-1.6","62ae5bba809eb60d54f6abb6","B2","batch2","spm_respsonse","8235.299999952316","img/question_3_7.jpeg","4","mat_31","5","1","1","8235.299999952316","","","","","","","","","","","","","","","","","","","","",""
"","","","","","html-keyboard-response","67","258796","0.0-2.0-4.0-0.7","62ae5bba809eb60d54f6abb6","B2","batch2","spm_show_trial_num","null","<p class=block-text>Trial 32 out of 60</p>","null","","","","","","","","","","","","","","","","","","","","","","","","","",""
"","","","","","image-button-response","68","291883","0.0-2.0-4.0-1.7","62ae5bba809eb60d54f6abb6","B2","batch2","spm_respsonse","33085.700000047684","img/question_3_8.jpeg","0","mat_32","1","1","1","33085.700000047684","","","","","","","","","","","","","","","","","","","","",""
"","","","","","html-keyboard-response","69","292945","0.0-2.0-4.0-0.8","62ae5bba809eb60d54f6abb6","B2","batch2","spm_show_trial_num","null","<p class=block-text>Trial 33 out of 60</p>","null","","","","","","","","","","","","","","","","","","","","","","","","","",""
"","","","","","image-button-response","70","298696","0.0-2.0-4.0-1.8","62ae5bba809eb60d54f6abb6","B2","batch2","spm_respsonse","5749.399999976158","img/question_3_9.jpeg","6","mat_33","7","1","1","5749.399999976158","","","","","","","","","","","","","","","","","","","","",""
"","","","","","html-keyboard-response","71","299761","0.0-2.0-4.0-0.9","62ae5bba809eb60d54f6abb6","B2","batch2","spm_show_trial_num","null","<p class=block-text>Trial 34 out of 60</p>","null","","","","","","","","","","","","","","","","","","","","","","","","","",""
"","","","","","image-button-response","72","314176","0.0-2.0-4.0-1.9","62ae5bba809eb60d54f6abb6","B2","batch2","spm_respsonse","14412.799999952316","img/question_3_10.jpeg","7","mat_34","6","0","0","14412.799999952316","","","","","","","","","","","","","","","","","","","","",""
"","","","","","html-keyboard-response","73","315231","0.0-2.0-4.0-0.10","62ae5bba809eb60d54f6abb6","B2","batch2","spm_show_trial_num","null","<p class=block-text>Trial 35 out of 60</p>","null","","","","","","","","","","","","","","","","","","","","","","","","","",""
"","","","","","image-button-response","74","347274","0.0-2.0-4.0-1.10","62ae5bba809eb60d54f6abb6","B2","batch2","spm_respsonse","32041.700000047684","img/question_3_11.jpeg","4","mat_35","1","0","0","32041.700000047684","","","","","","","","","","","","","","","","","","","","",""
"","","","","","html-keyboard-response","75","348340","0.0-2.0-4.0-0.11","62ae5bba809eb60d54f6abb6","B2","batch2","spm_show_trial_num","null","<p class=block-text>Trial 36 out of 60</p>","null","","","","","","","","","","","","","","","","","","","","","","","","","",""
"","","","","","image-button-response","76","357153","0.0-2.0-4.0-1.11","62ae5bba809eb60d54f6abb6","B2","batch2","spm_respsonse","8811.199999928474","img/question_3_12.jpeg","5","mat_36","2","0","0","8811.199999928474","","","","","","","","","","","","","","","","","","","","",""
"","","","","","html-keyboard-response","77","358213","0.0-2.0-4.0-0.12","62ae5bba809eb60d54f6abb6","B2","batch2","spm_show_trial_num","null","<p class=block-text>Trial 37 out of 60</p>","null","","","","","","","","","","","","","","","","","","","","","","","","","",""
"","","","","","image-button-response","78","361061","0.0-2.0-4.0-1.12","62ae5bba809eb60d54f6abb6","B2","batch2","spm_respsonse","2847.1999999284744","img/question_4_1.jpeg","2","mat_37","3","1","1","2847.1999999284744","","","","","","","","","","","","","","","","","","","","",""
"","","","","","html-keyboard-response","79","362116","0.0-2.0-4.0-0.13","62ae5bba809eb60d54f6abb6","B2","batch2","spm_show_trial_num","null","<p class=block-text>Trial 38 out of 60</p>","null","","","","","","","","","","","","","","","","","","","","","","","","","",""
"","","","","","image-button-response","80","369387","0.0-2.0-4.0-1.13","62ae5bba809eb60d54f6abb6","B2","batch2","spm_respsonse","7270.200000047684","img/question_4_2.jpeg","3","mat_38","4","1","1","7270.200000047684","","","","","","","","","","","","","","","","","","","","",""
"","","","","","html-keyboard-response","81","370447","0.0-2.0-4.0-0.14","62ae5bba809eb60d54f6abb6","B2","batch2","spm_show_trial_num","null","<p class=block-text>Trial 39 out of 60</p>","null","","","","","","","","","","","","","","","","","","","","","","","","","",""
"","","","","","image-button-response","82","374350","0.0-2.0-4.0-1.14","62ae5bba809eb60d54f6abb6","B2","batch2","spm_respsonse","3901.7000000476837","img/question_4_3.jpeg","2","mat_39","3","1","1","3901.7000000476837","","","","","","","","","","","","","","","","","","","","",""
"","","","","","html-keyboard-response","83","375413","0.0-2.0-4.0-0.15","62ae5bba809eb60d54f6abb6","B2","batch2","spm_show_trial_num","null","<p class=block-text>Trial 40 out of 60</p>","null","","","","","","","","","","","","","","","","","","","","","","","","","",""
"","","","","","image-button-response","84","381504","0.0-2.0-4.0-1.15","62ae5bba809eb60d54f6abb6","B2","batch2","spm_respsonse","6089.100000023842","img/question_4_4.jpeg","1","mat_40","7","0","0","6089.100000023842","","","","","","","","","","","","","","","","","","","","",""
"","","","","","html-keyboard-response","85","382568","0.0-2.0-4.0-0.16","62ae5bba809eb60d54f6abb6","B2","batch2","spm_show_trial_num","null","<p class=block-text>Trial 41 out of 60</p>","null","","","","","","","","","","","","","","","","","","","","","","","","","",""
"","","","","","image-button-response","86","388624","0.0-2.0-4.0-1.16","62ae5bba809eb60d54f6abb6","B2","batch2","spm_respsonse","6054.5","img/question_4_5.jpeg","7","mat_41","8","1","1","6054.5","","","","","","","","","","","","","","","","","","","","",""
"","","","","","html-keyboard-response","87","389676","0.0-2.0-4.0-0.17","62ae5bba809eb60d54f6abb6","B2","batch2","spm_show_trial_num","null","<p class=block-text>Trial 42 out of 60</p>","null","","","","","","","","","","","","","","","","","","","","","","","","","",""
"","","","","","image-button-response","88","396361","0.0-2.0-4.0-1.17","62ae5bba809eb60d54f6abb6","B2","batch2","spm_respsonse","6683.5","img/question_4_6.jpeg","5","mat_42","6","1","1","6683.5","","","","","","","","","","","","","","","","","","","","",""
"","","","","","html-keyboard-response","89","397425","0.0-2.0-4.0-0.18","62ae5bba809eb60d54f6abb6","B2","batch2","spm_show_trial_num","null","<p class=block-text>Trial 43 out of 60</p>","null","","","","","","","","","","","","","","","","","","","","","","","","","",""
"","","","","","image-button-response","90","404566","0.0-2.0-4.0-1.18","62ae5bba809eb60d54f6abb6","B2","batch2","spm_respsonse","7138.799999952316","img/question_4_7.jpeg","4","mat_43","5","1","1","7138.799999952316","","","","","","","","","","","","","","","","","","","","",""
"","","","","","html-keyboard-response","91","405627","0.0-2.0-4.0-0.19","62ae5bba809eb60d54f6abb6","B2","batch2","spm_show_trial_num","null","<p class=block-text>Trial 44 out of 60</p>","null","","","","","","","","","","","","","","","","","","","","","","","","","",""
"","","","","","image-button-response","92","415952","0.0-2.0-4.0-1.19","62ae5bba809eb60d54f6abb6","B2","batch2","spm_respsonse","10322.5","img/question_4_8.jpeg","3","mat_44","4","1","1","10322.5","","","","","","","","","","","","","","","","","","","","",""
"","","","","","html-keyboard-response","93","417015","0.0-2.0-4.0-0.20","62ae5bba809eb60d54f6abb6","B2","batch2","spm_show_trial_num","null","<p class=block-text>Trial 45 out of 60</p>","null","","","","","","","","","","","","","","","","","","","","","","","","","",""
"","","","","","image-button-response","94","427957","0.0-2.0-4.0-1.20","62ae5bba809eb60d54f6abb6","B2","batch2","spm_respsonse","10940.700000047684","img/question_4_9.jpeg","0","mat_45","1","1","1","10940.700000047684","","","","","","","","","","","","","","","","","","","","",""
"","","","","","html-keyboard-response","95","429030","0.0-2.0-4.0-0.21","62ae5bba809eb60d54f6abb6","B2","batch2","spm_show_trial_num","null","<p class=block-text>Trial 46 out of 60</p>","null","","","","","","","","","","","","","","","","","","","","","","","","","",""
"","","","","","image-button-response","96","446847","0.0-2.0-4.0-1.21","62ae5bba809eb60d54f6abb6","B2","batch2","spm_respsonse","17815.100000023842","img/question_4_10.jpeg","1","mat_46","2","1","1","17815.100000023842","","","","","","","","","","","","","","","","","","","","",""
"","","","","","html-keyboard-response","97","447922","0.0-2.0-4.0-0.22","62ae5bba809eb60d54f6abb6","B2","batch2","spm_show_trial_num","null","<p class=block-text>Trial 47 out of 60</p>","null","","","","","","","","","","","","","","","","","","","","","","","","","",""
"","","","","","image-button-response","98","468286","0.0-2.0-4.0-1.22","62ae5bba809eb60d54f6abb6","B2","batch2","spm_respsonse","20362.100000023842","img/question_4_11.jpeg","4","mat_47","5","1","1","20362.100000023842","","","","","","","","","","","","","","","","","","","","",""
"","","","","","html-keyboard-response","99","469347","0.0-2.0-4.0-0.23","62ae5bba809eb60d54f6abb6","B2","batch2","spm_show_trial_num","null","<p class=block-text>Trial 48 out of 60</p>","null","","","","","","","","","","","","","","","","","","","","","","","","","",""
"","","","","","image-button-response","100","478460","0.0-2.0-4.0-1.23","62ae5bba809eb60d54f6abb6","B2","batch2","spm_respsonse","9112","img/question_4_12.jpeg","6","mat_48","6","0","0","9112","","","","","","","","","","","","","","","","","","","","",""
"","","","","","html-keyboard-response","101","479526","0.0-2.0-4.0-0.24","62ae5bba809eb60d54f6abb6","B2","batch2","spm_show_trial_num","null","<p class=block-text>Trial 49 out of 60</p>","null","","","","","","","","","","","","","","","","","","","","","","","","","",""
"","","","","","image-button-response","102","494983","0.0-2.0-4.0-1.24","62ae5bba809eb60d54f6abb6","B2","batch2","spm_respsonse","15456","img/question_5_1.jpeg","6","mat_49","7","1","1","15456","","","","","","","","","","","","","","","","","","","","",""
"","","","","","html-keyboard-response","103","496043","0.0-2.0-4.0-0.25","62ae5bba809eb60d54f6abb6","B2","batch2","spm_show_trial_num","null","<p class=block-text>Trial 50 out of 60</p>","null","","","","","","","","","","","","","","","","","","","","","","","","","",""
"","","","","","image-button-response","104","512029","0.0-2.0-4.0-1.25","62ae5bba809eb60d54f6abb6","B2","batch2","spm_respsonse","15984.600000023842","img/question_5_2.jpeg","0","mat_50","6","0","0","15984.600000023842","","","","","","","","","","","","","","","","","","","","",""
"","","","","","html-keyboard-response","105","513099","0.0-2.0-4.0-0.26","62ae5bba809eb60d54f6abb6","B2","batch2","spm_show_trial_num","null","<p class=block-text>Trial 51 out of 60</p>","null","","","","","","","","","","","","","","","","","","","","","","","","","",""
"","","","","","image-button-response","106","529638","0.0-2.0-4.0-1.26","62ae5bba809eb60d54f6abb6","B2","batch2","spm_respsonse","16538.100000023842","img/question_5_3.jpeg","7","mat_51","8","1","1","16538.100000023842","","","","","","","","","","","","","","","","","","","","",""
"","","","","","html-keyboard-response","107","530698","0.0-2.0-4.0-0.27","62ae5bba809eb60d54f6abb6","B2","batch2","spm_show_trial_num","null","<p class=block-text>Trial 52 out of 60</p>","null","","","","","","","","","","","","","","","","","","","","","","","","","",""
"","","","","","image-button-response","108","549844","0.0-2.0-4.0-1.27","62ae5bba809eb60d54f6abb6","B2","batch2","spm_respsonse","19144.5","img/question_5_4.jpeg","1","mat_52","2","1","1","19144.5","","","","","","","","","","","","","","","","","","","","",""
"","","","","","html-keyboard-response","109","550919","0.0-2.0-4.0-0.28","62ae5bba809eb60d54f6abb6","B2","batch2","spm_show_trial_num","null","<p class=block-text>Trial 53 out of 60</p>","null","","","","","","","","","","","","","","","","","","","","","","","","","",""
"","","","","","image-button-response","110","561008","0.0-2.0-4.0-1.28","62ae5bba809eb60d54f6abb6","B2","batch2","spm_respsonse","10087.399999976158","img/question_5_5.jpeg","0","mat_53","1","1","1","10087.399999976158","","","","","","","","","","","","","","","","","","","","",""
"","","","","","html-keyboard-response","111","562078","0.0-2.0-4.0-0.29","62ae5bba809eb60d54f6abb6","B2","batch2","spm_show_trial_num","null","<p class=block-text>Trial 54 out of 60</p>","null","","","","","","","","","","","","","","","","","","","","","","","","","",""
"","","","","","image-button-response","112","586247","0.0-2.0-4.0-1.29","62ae5bba809eb60d54f6abb6","B2","batch2","spm_respsonse","24167.299999952316","img/question_5_6.jpeg","4","mat_54","5","1","1","24167.299999952316","","","","","","","","","","","","","","","","","","","","",""
"","","","","","html-keyboard-response","113","587302","0.0-2.0-4.0-0.30","62ae5bba809eb60d54f6abb6","B2","batch2","spm_show_trial_num","null","<p class=block-text>Trial 55 out of 60</p>","null","","","","","","","","","","","","","","","","","","","","","","","","","",""
"","","","","","image-button-response","114","608950","0.0-2.0-4.0-1.30","62ae5bba809eb60d54f6abb6","B2","batch2","spm_respsonse","21646.600000023842","img/question_5_7.jpeg","3","mat_55","1","0","0","21646.600000023842","","","","","","","","","","","","","","","","","","","","",""
"","","","","","html-keyboard-response","115","610005","0.0-2.0-4.0-0.31","62ae5bba809eb60d54f6abb6","B2","batch2","spm_show_trial_num","null","<p class=block-text>Trial 56 out of 60</p>","null","","","","","","","","","","","","","","","","","","","","","","","","","",""
"","","","","","image-button-response","116","619448","0.0-2.0-4.0-1.31","62ae5bba809eb60d54f6abb6","B2","batch2","spm_respsonse","9440.899999976158","img/question_5_8.jpeg","1","mat_56","6","0","0","9440.899999976158","","","","","","","","","","","","","","","","","","","","",""
"","","","","","html-keyboard-response","117","620514","0.0-2.0-4.0-0.32","62ae5bba809eb60d54f6abb6","B2","batch2","spm_show_trial_num","null","<p class=block-text>Trial 57 out of 60</p>","null","","","","","","","","","","","","","","","","","","","","","","","","","",""
"","","","","","image-button-response","118","633453","0.0-2.0-4.0-1.32","62ae5bba809eb60d54f6abb6","B2","batch2","spm_respsonse","12938.399999976158","img/question_5_9.jpeg","7","mat_57","3","0","0","12938.399999976158","","","","","","","","","","","","","","","","","","","","",""
"","","","","","html-keyboard-response","119","634532","0.0-2.0-4.0-0.33","62ae5bba809eb60d54f6abb6","B2","batch2","spm_show_trial_num","null","<p class=block-text>Trial 58 out of 60</p>","null","","","","","","","","","","","","","","","","","","","","","","","","","",""
"","","","","","image-button-response","120","657318","0.0-2.0-4.0-1.33","62ae5bba809eb60d54f6abb6","B2","batch2","spm_respsonse","22784.799999952316","img/question_5_10.jpeg","5","mat_58","2","0","0","22784.799999952316","","","","","","","","","","","","","","","","","","","","",""
"","","","","","html-keyboard-response","121","658370","0.0-2.0-4.0-0.34","62ae5bba809eb60d54f6abb6","B2","batch2","spm_show_trial_num","null","<p class=block-text>Trial 59 out of 60</p>","null","","","","","","","","","","","","","","","","","","","","","","","","","",""
"","","","","","image-button-response","122","680512","0.0-2.0-4.0-1.34","62ae5bba809eb60d54f6abb6","B2","batch2","spm_respsonse","22141.100000023842","img/question_5_11.jpeg","3","mat_59","4","1","1","22141.100000023842","","","","","","","","","","","","","","","","","","","","",""
"","","","","","html-keyboard-response","123","681563","0.0-2.0-4.0-0.35","62ae5bba809eb60d54f6abb6","B2","batch2","spm_show_trial_num","null","<p class=block-text>Trial 60 out of 60</p>","null","","","","","","","","","","","","","","","","","","","","","","","","","",""
"","","","","","image-button-response","124","706374","0.0-2.0-4.0-1.35","62ae5bba809eb60d54f6abb6","B2","batch2","spm_respsonse","24809.599999904633","img/question_5_12.jpeg","1","mat_60","5","0","0","24809.599999904633","","","","","","","","","","","","","","","","","","","","",""
"","","","","","html-button-response","125","708613","0.0-2.0-5.0","62ae5bba809eb60d54f6abb6","B2","batch2","spm_goodbye","1987.3999999761581","<p class= block-text>This concludes the Standard Progressive Matrix game. Thank you for your responses!<br> When you are ready, click the button continue</p>","0","","","","","","","","","","","","","","","","","","","","","","","","","",""
"true","","","","","fullscreen","126","718064","0.0-3.0-0.0","62ae5bba809eb60d54f6abb6","B2","batch2","","","","","","","","","","","","","","","","","","","","","","","","","","","","","",""
"","","","","","instructions","127","735939","0.0-3.0-1.0-0.0","62ae5bba809eb60d54f6abb6","B2","batch2","","17874.399999976158","","","","","","","","[{""page_index"":0,""viewing_time"":10644.299999952316},{""page_index"":1,""viewing_time"":7229.899999976158}]","","","","","","","","","","","","","","","","","","","",""
"","","","","","html-button-response","128","737421","0.0-3.0-1.0-1.0-0.0","62ae5bba809eb60d54f6abb6","B2","batch2","pattern_enter_quiz","1481.2000000476837","<p class=block-text> Let's answer a few questions <br>","0","","","","","","","","","","","","","","","","","","","","","","","","","",""
"","","","","","html-button-response","129","742784","0.0-3.0-1.0-1.0-1.0","62ae5bba809eb60d54f6abb6","B2","batch2","pattern_quiz","5362.199999928474","<p class = block-text>True or False: You will have as much time as you want to make each choice. <br></p>","1","","","true","","","","","","","","","","","","","","","","","","","","","","",""
"","","","","","html-button-response","130","743738","0.0-3.0-1.0-1.0-2.0","62ae5bba809eb60d54f6abb6","B2","batch2","pattern_quiz_feedback","952.8999999761581","<p class = block-text>Correct! You should make your choice <strong> as fast as you can</strong>.</p>","0","","","","","","","","","","","","","","","","","","","","","","","","","",""
"","","","","","html-button-response","131","746631","0.0-3.0-1.0-1.0-3.0","62ae5bba809eb60d54f6abb6","B2","batch2","pattern_quiz","2892.6999999284744","<p class = block-text>True or False: You will look for 4 pieces in black or white color connected in a row either horizontally, vertically or diagonally. <br></p>","0","","","true","","","","","","","","","","","","","","","","","","","","","","",""
"","","","","","html-button-response","132","747352","0.0-3.0-1.0-1.0-4.0","62ae5bba809eb60d54f6abb6","B2","batch2","pattern_quiz_feedback","719.3999999761581","<p class = block-text>Correct! </p>","0","","","","","","","","","","","","","","","","","","","","","","","","","",""
"","","","","","html-button-response","133","749954","0.0-3.0-2.0","62ae5bba809eb60d54f6abb6","B2","batch2","pattern_enter_practice","2601.100000023842","<p class=block-text> Now that you've understood the game, let's do a few practice trials before we start!<br> <br>","0","","","","","","","","","","","","","","","","","","","","","","","","","",""
"","","","","","image-keyboard-response","134","752501","0.0-3.0-3.0-0.0","62ae5bba809eb60d54f6abb6","B2","batch2","pattern_practice","2545.100000023842","stim/prac_no_16_1.png","j","","j","true","","","","","","","","","","","","","","","","","","","","","","",""
"","","","","","html-keyboard-response","135","753520","0.0-3.0-3.0-1.0","62ae5bba809eb60d54f6abb6","B2","batch2","pattern_feedback","null","<p style=""font-size:30px;color:green;"">Correct!</p>","null","","","","","","","","","","","","","","","","","","","","","","","","","",""
"","","","","","image-keyboard-response","136","754574","0.0-3.0-3.0-0.1","62ae5bba809eb60d54f6abb6","B2","batch2","pattern_practice","1052.5","stim/prac_yes_18_hor_w1.png","f","","f","true","","","","","","","","","","","","","","","","","","","","","","",""
"","","","","","html-keyboard-response","137","755584","0.0-3.0-3.0-1.1","62ae5bba809eb60d54f6abb6","B2","batch2","pattern_feedback","null","<p style=""font-size:30px;color:green;"">Correct!</p>","null","","","","","","","","","","","","","","","","","","","","","","","","","",""
"","","","","","image-keyboard-response","138","756603","0.0-3.0-3.0-0.2","62ae5bba809eb60d54f6abb6","B2","batch2","pattern_practice","1018","stim/prac_yes_20_dia_b1.png","f","","f","true","","","","","","","","","","","","","","","","","","","","","","",""
"","","","","","html-keyboard-response","139","757629","0.0-3.0-3.0-1.2","62ae5bba809eb60d54f6abb6","B2","batch2","pattern_feedback","null","<p style=""font-size:30px;color:green;"">Correct!</p>","null","","","","","","","","","","","","","","","","","","","","","","","","","",""
"","","","","","image-keyboard-response","140","758447","0.0-3.0-3.0-0.3","62ae5bba809eb60d54f6abb6","B2","batch2","pattern_practice","817.2000000476837","stim/prac_yes_16_ver_w1.png","f","","f","true","","","","","","","","","","","","","","","","","","","","","","",""
"","","","","","html-keyboard-response","141","759464","0.0-3.0-3.0-1.3","62ae5bba809eb60d54f6abb6","B2","batch2","pattern_feedback","null","<p style=""font-size:30px;color:green;"">Correct!</p>","null","","","","","","","","","","","","","","","","","","","","","","","","","",""
"","","","","","image-keyboard-response","142","760253","0.0-3.0-3.0-0.4","62ae5bba809eb60d54f6abb6","B2","batch2","pattern_practice","788.1999999284744","stim/prac_no_18_1.png","j","","j","true","","","","","","","","","","","","","","","","","","","","","","",""
"","","","","","html-keyboard-response","143","761279","0.0-3.0-3.0-1.4","62ae5bba809eb60d54f6abb6","B2","batch2","pattern_feedback","null","<p style=""font-size:30px;color:green;"">Correct!</p>","null","","","","","","","","","","","","","","","","","","","","","","","","","",""
"","","","","","html-button-response","144","769197","0.0-3.0-4.0","62ae5bba809eb60d54f6abb6","B2","batch2","pattern_enter_official_trials","7917.299999952316","<p class=block-text> Good job! You are done with practice trials!<br>
        You responded correctly on 100% of the trials.<br>
        Press the button below to start official trials. Now you won't see any feedback about your response</p>","0","","","","","","","","","","","","","","","","","","","","","","","","","",""
"","","","","","html-keyboard-response","145","770013","0.0-3.0-5.0-0.0","62ae5bba809eb60d54f6abb6","B2","batch2","pattern_show_trial_num","null","<p class=block-text>Trial 1 out of 78</p>","null","","","","","","","","","","","","","","","","","","","","","","","","","",""
"","","","","","image-keyboard-response","146","771326","0.0-3.0-5.0-1.0","62ae5bba809eb60d54f6abb6","B2","batch2","pattern_response","1312.3000000715256","stim/yes_37_hor_w1_w.png","f","pattern_60","f","true","","","","1312.3000000715256","true","1","","","","","","","","","","","","","","","","",""
"","","","","","html-keyboard-response","147","772644","0.0-3.0-5.0-0.1","62ae5bba809eb60d54f6abb6","B2","batch2","pattern_show_trial_num","null","<p class=block-text>Trial 2 out of 78</p>","null","","","","","","","","","","","","","","","","","","","","","","","","","",""
"","","","","","image-keyboard-response","148","773830","0.0-3.0-5.0-1.1","62ae5bba809eb60d54f6abb6","B2","batch2","pattern_response","1185.7999999523163","stim/no_15_1_w.png","j","pattern_03","j","true","","","","1185.7999999523163","true","2","","","","","","","","","","","","","","","","",""
"","","","","","html-keyboard-response","149","775157","0.0-3.0-5.0-0.2","62ae5bba809eb60d54f6abb6","B2","batch2","pattern_show_trial_num","null","<p class=block-text>Trial 3 out of 78</p>","null","","","","","","","","","","","","","","","","","","","","","","","","","",""
"","","","","","image-keyboard-response","150","775736","0.0-3.0-5.0-1.2","62ae5bba809eb60d54f6abb6","B2","batch2","pattern_response","578.2999999523163","stim/yes_12_hor_w1_w.png","f","pattern_42","f","true","","","","578.2999999523163","true","3","","","","","","","","","","","","","","","","",""
"","","","","","html-keyboard-response","151","777039","0.0-3.0-5.0-0.3","62ae5bba809eb60d54f6abb6","B2","batch2","pattern_show_trial_num","null","<p class=block-text>Trial 4 out of 78</p>","null","","","","","","","","","","","","","","","","","","","","","","","","","",""
"","","","","","image-keyboard-response","152","777848","0.0-3.0-5.0-1.3","62ae5bba809eb60d54f6abb6","B2","batch2","pattern_response","808.2999999523163","stim/yes_39_hor_w1_w.png","f","pattern_62","f","true","","","","808.2999999523163","true","4","","","","","","","","","","","","","","","","",""
"","","","","","html-keyboard-response","153","779162","0.0-3.0-5.0-0.4","62ae5bba809eb60d54f6abb6","B2","batch2","pattern_show_trial_num","null","<p class=block-text>Trial 5 out of 78</p>","null","","","","","","","","","","","","","","","","","","","","","","","","","",""
"","","","","","image-keyboard-response","154","780696","0.0-3.0-5.0-1.4","62ae5bba809eb60d54f6abb6","B2","batch2","pattern_response","1532.4000000953674","stim/no_47_1_b.png","j","pattern_27","j","true","","","","1532.4000000953674","true","5","","","","","","","","","","","","","","","","",""
"","","","","","html-keyboard-response","155","782015","0.0-3.0-5.0-0.5","62ae5bba809eb60d54f6abb6","B2","batch2","pattern_show_trial_num","null","<p class=block-text>Trial 6 out of 78</p>","null","","","","","","","","","","","","","","","","","","","","","","","","","",""
"","","","","","image-keyboard-response","156","782853","0.0-3.0-5.0-1.5","62ae5bba809eb60d54f6abb6","B2","batch2","pattern_response","837.1000000238419","stim/yes_30_ver_b1_b.png","f","pattern_54","f","true","","","","837.1000000238419","true","6","","","","","","","","","","","","","","","","",""
"","","","","","html-keyboard-response","157","784173","0.0-3.0-5.0-0.6","62ae5bba809eb60d54f6abb6","B2","batch2","pattern_show_trial_num","null","<p class=block-text>Trial 7 out of 78</p>","null","","","","","","","","","","","","","","","","","","","","","","","","","",""
"","","","","","image-keyboard-response","158","785019","0.0-3.0-5.0-1.6","62ae5bba809eb60d54f6abb6","B2","batch2","pattern_response","844.7999999523163","stim/yes_36_ver_w1_w.png","f","pattern_58","f","true","","","","844.7999999523163","true","7","","","","","","","","","","","","","","","","",""
"","","","","","html-keyboard-response","159","786334","0.0-3.0-5.0-0.7","62ae5bba809eb60d54f6abb6","B2","batch2","pattern_show_trial_num","null","<p class=block-text>Trial 8 out of 78</p>","null","","","","","","","","","","","","","","","","","","","","","","","","","",""
"","","","","","image-keyboard-response","160","789414","0.0-3.0-5.0-1.7","62ae5bba809eb60d54f6abb6","B2","batch2","pattern_response","3080","stim/no_67_1.png","j","pattern_39","j","true","","","","3080","true","8","","","","","","","","","","","","","","","","",""
"","","","","","html-keyboard-response","161","790729","0.0-3.0-5.0-0.8","62ae5bba809eb60d54f6abb6","B2","batch2","pattern_show_trial_num","null","<p class=block-text>Trial 9 out of 78</p>","null","","","","","","","","","","","","","","","","","","","","","","","","","",""
"","","","","","image-keyboard-response","162","792130","0.0-3.0-5.0-1.8","62ae5bba809eb60d54f6abb6","B2","batch2","pattern_response","1399.8999999761581","stim/yes_49_hor_w1_b.png","f","pattern_70","f","true","","","","1399.8999999761581","true","9","","","","","","","","","","","","","","","","",""
"","","","","","html-keyboard-response","163","793458","0.0-3.0-5.0-0.9","62ae5bba809eb60d54f6abb6","B2","batch2","pattern_show_trial_num","null","<p class=block-text>Trial 10 out of 78</p>","null","","","","","","","","","","","","","","","","","","","","","","","","","",""
"","","","","","image-keyboard-response","164","796654","0.0-3.0-5.0-1.9","62ae5bba809eb60d54f6abb6","B2","batch2","pattern_response","3195.899999976158","stim/no_49_2_b.png","j","pattern_29","j","true","","","","3195.899999976158","true","10","","","","","","","","","","","","","","","","",""
"","","","","","html-keyboard-response","165","797967","0.0-3.0-5.0-0.10","62ae5bba809eb60d54f6abb6","B2","batch2","pattern_show_trial_num","null","<p class=block-text>Trial 11 out of 78</p>","null","","","","","","","","","","","","","","","","","","","","","","","","","",""
"","","","","","image-keyboard-response","166","799866","0.0-3.0-5.0-1.10","62ae5bba809eb60d54f6abb6","B2","batch2","pattern_response","1897.3999999761581","stim/no_36_1_b.png","j","pattern_17","j","true","","","","1897.3999999761581","true","11","","","","","","","","","","","","","","","","",""
"","","","","","html-keyboard-response","167","801184","0.0-3.0-5.0-0.11","62ae5bba809eb60d54f6abb6","B2","batch2","pattern_show_trial_num","null","<p class=block-text>Trial 12 out of 78</p>","null","","","","","","","","","","","","","","","","","","","","","","","","","",""
"","","","","","image-keyboard-response","168","802869","0.0-3.0-5.0-1.11","62ae5bba809eb60d54f6abb6","B2","batch2","pattern_response","1684.6000000238419","stim/yes_42_dia_w1_w.png","f","pattern_64","f","true","","","","1684.6000000238419","true","12","","","","","","","","","","","","","","","","",""
"","","","","","html-keyboard-response","169","804194","0.0-3.0-5.0-0.12","62ae5bba809eb60d54f6abb6","B2","batch2","pattern_show_trial_num","null","<p class=block-text>Trial 13 out of 78</p>","null","","","","","","","","","","","","","","","","","","","","","","","","","",""
"","","","","","image-keyboard-response","170","808969","0.0-3.0-5.0-1.12","62ae5bba809eb60d54f6abb6","B2","batch2","pattern_response","4773.699999928474","stim/no_53_1_b.png","j","pattern_33","j","true","","","","4773.699999928474","true","13","","","","","","","","","","","","","","","","",""
"","","","","","html-keyboard-response","171","810290","0.0-3.0-5.0-0.13","62ae5bba809eb60d54f6abb6","B2","batch2","pattern_show_trial_num","null","<p class=block-text>Trial 14 out of 78</p>","null","","","","","","","","","","","","","","","","","","","","","","","","","",""
"","","","","","image-keyboard-response","172","811135","0.0-3.0-5.0-1.13","62ae5bba809eb60d54f6abb6","B2","batch2","pattern_response","843.7000000476837","stim/yes_15_dia_b1u_b.png","f","pattern_44","f","true","","","","843.7000000476837","true","14","","","","","","","","","","","","","","","","",""
"","","","","","html-keyboard-response","173","812450","0.0-3.0-5.0-0.14","62ae5bba809eb60d54f6abb6","B2","batch2","pattern_show_trial_num","null","<p class=block-text>Trial 15 out of 78</p>","null","","","","","","","","","","","","","","","","","","","","","","","","","",""
"","","","","","image-keyboard-response","174","813242","0.0-3.0-5.0-1.14","62ae5bba809eb60d54f6abb6","B2","batch2","pattern_response","790.6000000238419","stim/yes_29_hor_b1_b.png","f","pattern_52","f","true","","","","790.6000000238419","true","15","","","","","","","","","","","","","","","","",""
"","","","","","html-keyboard-response","175","814565","0.0-3.0-5.0-0.15","62ae5bba809eb60d54f6abb6","B2","batch2","pattern_show_trial_num","null","<p class=block-text>Trial 16 out of 78</p>","null","","","","","","","","","","","","","","","","","","","","","","","","","",""
"","","","","","image-keyboard-response","176","815501","0.0-3.0-5.0-1.15","62ae5bba809eb60d54f6abb6","B2","batch2","pattern_response","934.6999999284744","stim/no_22_1_b.png","j","pattern_07","j","true","","","","934.6999999284744","true","16","","","","","","","","","","","","","","","","",""
"","","","","","html-keyboard-response","177","816815","0.0-3.0-5.0-0.16","62ae5bba809eb60d54f6abb6","B2","batch2","pattern_show_trial_num","null","<p class=block-text>Trial 17 out of 78</p>","null","","","","","","","","","","","","","","","","","","","","","","","","","",""
"","","","","","image-keyboard-response","178","819053","0.0-3.0-5.0-1.16","62ae5bba809eb60d54f6abb6","B2","batch2","pattern_response","2237.7999999523163","stim/yes_44_ver_w1_w.png","j","pattern_66","f","false","","","","2237.7999999523163","false","16","","","","","","","","","","","","","","","","",""
"","","","","","html-keyboard-response","179","820356","0.0-3.0-5.0-0.17","62ae5bba809eb60d54f6abb6","B2","batch2","pattern_show_trial_num","null","<p class=block-text>Trial 18 out of 78</p>","null","","","","","","","","","","","","","","","","","","","","","","","","","",""
"","","","","","image-keyboard-response","180","821378","0.0-3.0-5.0-1.17","62ae5bba809eb60d54f6abb6","B2","batch2","pattern_response","1021.2000000476837","stim/yes_26_dia_w2_w.png","f","pattern_50","f","true","","","","1021.2000000476837","true","17","","","","","","","","","","","","","","","","",""
"","","","","","html-keyboard-response","181","822695","0.0-3.0-5.0-0.18","62ae5bba809eb60d54f6abb6","B2","batch2","pattern_show_trial_num","null","<p class=block-text>Trial 19 out of 78</p>","null","","","","","","","","","","","","","","","","","","","","","","","","","",""
"","","","","","image-keyboard-response","182","825690","0.0-3.0-5.0-1.18","62ae5bba809eb60d54f6abb6","B2","batch2","pattern_response","2994.7000000476837","stim/yes_46_ver_b1_b.png","f","pattern_68","f","true","","","","2994.7000000476837","true","18","","","","","","","","","","","","","","","","",""
"","","","","","html-keyboard-response","183","827009","0.0-3.0-5.0-0.19","62ae5bba809eb60d54f6abb6","B2","batch2","pattern_show_trial_num","null","<p class=block-text>Trial 20 out of 78</p>","null","","","","","","","","","","","","","","","","","","","","","","","","","",""
"","","","","","image-keyboard-response","184","829690","0.0-3.0-5.0-1.19","62ae5bba809eb60d54f6abb6","B2","batch2","pattern_response","2680.899999976158","stim/no_45_1_w.png","j","pattern_25","j","true","","","","2680.899999976158","true","19","","","","","","","","","","","","","","","","",""
"","","","","","html-keyboard-response","185","831010","0.0-3.0-5.0-0.20","62ae5bba809eb60d54f6abb6","B2","batch2","pattern_show_trial_num","null","<p class=block-text>Trial 21 out of 78</p>","null","","","","","","","","","","","","","","","","","","","","","","","","","",""
"","","","","","image-keyboard-response","186","832111","0.0-3.0-5.0-1.20","62ae5bba809eb60d54f6abb6","B2","batch2","pattern_response","1100.2999999523163","stim/no_18_1_b.png","j","pattern_05","j","true","","","","1100.2999999523163","true","20","","","","","","","","","","","","","","","","",""
"","","","","","html-keyboard-response","187","833426","0.0-3.0-5.0-0.21","62ae5bba809eb60d54f6abb6","B2","batch2","pattern_show_trial_num","null","<p class=block-text>Trial 22 out of 78</p>","null","","","","","","","","","","","","","","","","","","","","","","","","","",""
"","","","","","image-keyboard-response","188","836168","0.0-3.0-5.0-1.21","62ae5bba809eb60d54f6abb6","B2","batch2","pattern_response","2740.899999976158","stim/no_51_1.png","j","pattern_31","j","true","","","","2740.899999976158","true","21","","","","","","","","","","","","","","","","",""
"","","","","","html-keyboard-response","189","837471","0.0-3.0-5.0-0.22","62ae5bba809eb60d54f6abb6","B2","batch2","pattern_show_trial_num","null","<p class=block-text>Trial 23 out of 78</p>","null","","","","","","","","","","","","","","","","","","","","","","","","","",""
"","","","","","image-keyboard-response","190","839411","0.0-3.0-5.0-1.22","62ae5bba809eb60d54f6abb6","B2","batch2","pattern_response","1939.6000000238419","stim/no_25_1_b.png","j","pattern_09","j","true","","","","1939.6000000238419","true","22","","","","","","","","","","","","","","","","",""
"","","","","","html-keyboard-response","191","840735","0.0-3.0-5.0-0.23","62ae5bba809eb60d54f6abb6","B2","batch2","pattern_show_trial_num","null","<p class=block-text>Trial 24 out of 78</p>","null","","","","","","","","","","","","","","","","","","","","","","","","","",""
"","","","","","image-keyboard-response","192","844425","0.0-3.0-5.0-1.23","62ae5bba809eb60d54f6abb6","B2","batch2","pattern_response","3688.6999999284744","stim/no_58_1_w.png","j","pattern_35","j","true","","","","3688.6999999284744","true","23","","","","","","","","","","","","","","","","",""
"","","","","","html-keyboard-response","193","845740","0.0-3.0-5.0-0.24","62ae5bba809eb60d54f6abb6","B2","batch2","pattern_show_trial_num","null","<p class=block-text>Trial 25 out of 78</p>","null","","","","","","","","","","","","","","","","","","","","","","","","","",""
"","","","","","image-keyboard-response","194","846477","0.0-3.0-5.0-1.24","62ae5bba809eb60d54f6abb6","B2","batch2","pattern_response","735.7999999523163","stim/no_12_1.png","j","pattern_01","j","true","","","","735.7999999523163","true","24","","","","","","","","","","","","","","","","",""
"","","","","","html-keyboard-response","195","847793","0.0-3.0-5.0-0.25","62ae5bba809eb60d54f6abb6","B2","batch2","pattern_show_trial_num","null","<p class=block-text>Trial 26 out of 78</p>","null","","","","","","","","","","","","","","","","","","","","","","","","","",""
"","","","","","image-keyboard-response","196","850446","0.0-3.0-5.0-1.25","62ae5bba809eb60d54f6abb6","B2","batch2","pattern_response","2652.399999976158","stim/no_39_1_w.png","j","pattern_21","j","true","","","","2652.399999976158","true","25","","","","","","","","","","","","","","","","",""
"","","","","","html-keyboard-response","197","851771","0.0-3.0-5.0-0.26","62ae5bba809eb60d54f6abb6","B2","batch2","pattern_show_trial_num","null","<p class=block-text>Trial 27 out of 78</p>","null","","","","","","","","","","","","","","","","","","","","","","","","","",""
"","","","","","image-keyboard-response","198","852631","0.0-3.0-5.0-1.26","62ae5bba809eb60d54f6abb6","B2","batch2","pattern_response","858.7999999523163","stim/yes_33_dia_w1_w.png","f","pattern_56","f","true","","","","858.7999999523163","true","26","","","","","","","","","","","","","","","","",""
"","","","","","html-keyboard-response","199","853950","0.0-3.0-5.0-0.27","62ae5bba809eb60d54f6abb6","B2","batch2","pattern_show_trial_num","null","<p class=block-text>Trial 28 out of 78</p>","null","","","","","","","","","","","","","","","","","","","","","","","","","",""
"","","","","","image-keyboard-response","200","855091","0.0-3.0-5.0-1.27","62ae5bba809eb60d54f6abb6","B2","batch2","pattern_response","1140.1999999284744","stim/no_28_2.png","j","pattern_11","j","true","","","","1140.1999999284744","true","27","","","","","","","","","","","","","","","","",""
"","","","","","html-keyboard-response","201","856409","0.0-3.0-5.0-0.28","62ae5bba809eb60d54f6abb6","B2","batch2","pattern_show_trial_num","null","<p class=block-text>Trial 29 out of 78</p>","null","","","","","","","","","","","","","","","","","","","","","","","","","",""
"","","","","","image-keyboard-response","202","857171","0.0-3.0-5.0-1.28","62ae5bba809eb60d54f6abb6","B2","batch2","pattern_response","760.7999999523163","stim/yes_17_ver_b1_b.png","f","pattern_46","f","true","","","","760.7999999523163","true","28","","","","","","","","","","","","","","","","",""
"","","","","","html-keyboard-response","203","858481","0.0-3.0-5.0-0.29","62ae5bba809eb60d54f6abb6","B2","batch2","pattern_show_trial_num","null","<p class=block-text>Trial 30 out of 78</p>","null","","","","","","","","","","","","","","","","","","","","","","","","","",""
"","","","","","image-keyboard-response","204","859592","0.0-3.0-5.0-1.29","62ae5bba809eb60d54f6abb6","B2","batch2","pattern_response","1110.1999999284744","stim/yes_70_ver_b1.png","f","pattern_80","f","true","","","","1110.1999999284744","true","29","","","","","","","","","","","","","","","","",""
"","","","","","html-keyboard-response","205","860915","0.0-3.0-5.0-0.30","62ae5bba809eb60d54f6abb6","B2","batch2","pattern_show_trial_num","null","<p class=block-text>Trial 31 out of 78</p>","null","","","","","","","","","","","","","","","","","","","","","","","","","",""
"","","","","","image-keyboard-response","206","863183","0.0-3.0-5.0-1.30","62ae5bba809eb60d54f6abb6","B2","batch2","pattern_response","2267.5","stim/no_37_2_w.png","j","pattern_19","j","true","","","","2267.5","true","30","","","","","","","","","","","","","","","","",""
"","","","","","html-keyboard-response","207","864498","0.0-3.0-5.0-0.31","62ae5bba809eb60d54f6abb6","B2","batch2","pattern_show_trial_num","null","<p class=block-text>Trial 32 out of 78</p>","null","","","","","","","","","","","","","","","","","","","","","","","","","",""
"","","","","","image-keyboard-response","208","866367","0.0-3.0-5.0-1.31","62ae5bba809eb60d54f6abb6","B2","batch2","pattern_response","1867.2000000476837","stim/no_43_2_b.png","j","pattern_23","j","true","","","","1867.2000000476837","true","31","","","","","","","","","","","","","","","","",""
"","","","","","html-keyboard-response","209","867680","0.0-3.0-5.0-0.32","62ae5bba809eb60d54f6abb6","B2","batch2","pattern_show_trial_num","null","<p class=block-text>Trial 33 out of 78</p>","null","","","","","","","","","","","","","","","","","","","","","","","","","",""
"","","","","","image-keyboard-response","210","868536","0.0-3.0-5.0-1.32","62ae5bba809eb60d54f6abb6","B2","batch2","pattern_response","855.5","stim/yes_23_ver_b1.png","f","pattern_48","f","true","","","","855.5","true","32","","","","","","","","","","","","","","","","",""
"","","","","","html-keyboard-response","211","869857","0.0-3.0-5.0-0.33","62ae5bba809eb60d54f6abb6","B2","batch2","pattern_show_trial_num","null","<p class=block-text>Trial 34 out of 78</p>","null","","","","","","","","","","","","","","","","","","","","","","","","","",""
"","","","","","image-keyboard-response","212","870834","0.0-3.0-5.0-1.33","62ae5bba809eb60d54f6abb6","B2","batch2","pattern_response","976.3999999761581","stim/yes_63_dia_b1.png","f","pattern_78","f","true","","","","976.3999999761581","true","33","","","","","","","","","","","","","","","","",""
"","","","","","html-keyboard-response","213","872167","0.0-3.0-5.0-0.34","62ae5bba809eb60d54f6abb6","B2","batch2","pattern_show_trial_num","null","<p class=block-text>Trial 35 out of 78</p>","null","","","","","","","","","","","","","","","","","","","","","","","","","",""
"","","","","","image-keyboard-response","214","873244","0.0-3.0-5.0-1.34","62ae5bba809eb60d54f6abb6","B2","batch2","pattern_response","1075.7999999523163","stim/yes_53_ver_b1_b.png","f","pattern_74","f","true","","","","1075.7999999523163","true","34","","","","","","","","","","","","","","","","",""
"","","","","","html-keyboard-response","215","874554","0.0-3.0-5.0-0.35","62ae5bba809eb60d54f6abb6","B2","batch2","pattern_show_trial_num","null","<p class=block-text>Trial 36 out of 78</p>","null","","","","","","","","","","","","","","","","","","","","","","","","","",""
"","","","","","image-keyboard-response","216","880607","0.0-3.0-5.0-1.35","62ae5bba809eb60d54f6abb6","B2","batch2","pattern_response","6052.199999928474","stim/yes_58_dia_w1_w.png","f","pattern_76","f","true","","","","6052.199999928474","true","35","","","","","","","","","","","","","","","","",""
"","","","","","html-keyboard-response","217","881922","0.0-3.0-5.0-0.36","62ae5bba809eb60d54f6abb6","B2","batch2","pattern_show_trial_num","null","<p class=block-text>Trial 37 out of 78</p>","null","","","","","","","","","","","","","","","","","","","","","","","","","",""
"","","","","","image-keyboard-response","218","883262","0.0-3.0-5.0-1.36","62ae5bba809eb60d54f6abb6","B2","batch2","pattern_response","1339.3999999761581","stim/no_30_1_b.png","j","pattern_13","j","true","","","","1339.3999999761581","true","36","","","","","","","","","","","","","","","","",""
"","","","","","html-keyboard-response","219","884569","0.0-3.0-5.0-0.37","62ae5bba809eb60d54f6abb6","B2","batch2","pattern_show_trial_num","null","<p class=block-text>Trial 38 out of 78</p>","null","","","","","","","","","","","","","","","","","","","","","","","","","",""
"","","","","","image-keyboard-response","220","886239","0.0-3.0-5.0-1.37","62ae5bba809eb60d54f6abb6","B2","batch2","pattern_response","1668.2999999523163","stim/yes_51_dia_b1.png","f","pattern_72","f","true","","","","1668.2999999523163","true","37","","","","","","","","","","","","","","","","",""
"","","","","","html-keyboard-response","221","887552","0.0-3.0-5.0-0.38","62ae5bba809eb60d54f6abb6","B2","batch2","pattern_show_trial_num","null","<p class=block-text>Trial 39 out of 78</p>","null","","","","","","","","","","","","","","","","","","","","","","","","","",""
"","","","","","image-keyboard-response","222","890743","0.0-3.0-5.0-1.38","62ae5bba809eb60d54f6abb6","B2","batch2","pattern_response","3189.5","stim/no_33_1_b.png","j","pattern_15","j","true","","","","3189.5","true","38","","","","","","","","","","","","","","","","",""
"","","","","","image-keyboard-response","223","893325","0.0-3.0-6.0","62ae5bba809eb60d54f6abb6","B2","batch2","attention_check","2068.3000000715256","stim/empty_board.png","j","","j","true","","","","","","","500","[""f"",""j""]","","","","","","","","","","","","","","",""
"","","","","","html-keyboard-response","224","894130","0.0-3.0-7.0-0.0","62ae5bba809eb60d54f6abb6","B2","batch2","pattern_show_trial_num","null","<p class=block-text>Trial 40 out of 78</p>","null","","","","","","","","","","","","","","","","","","","","","","","","","",""
"","","","","","image-keyboard-response","225","896014","0.0-3.0-7.0-1.0","62ae5bba809eb60d54f6abb6","B2","batch2","pattern_response","1882.7000000476837","stim/yes_45_hor_b2_b.png","f","pattern_67","f","true","","","","1882.7000000476837","true","39","","","","","","","","","","","","","","","","",""
"","","","","","html-keyboard-response","226","897336","0.0-3.0-7.0-0.1","62ae5bba809eb60d54f6abb6","B2","batch2","pattern_show_trial_num","null","<p class=block-text>Trial 41 out of 78</p>","null","","","","","","","","","","","","","","","","","","","","","","","","","",""
"","","","","","image-keyboard-response","227","902150","0.0-3.0-7.0-1.1","62ae5bba809eb60d54f6abb6","B2","batch2","pattern_response","4813.199999928474","stim/no_36_2_w.png","f","pattern_18","j","false","","","","4813.199999928474","false","39","","","","","","","","","","","","","","","","",""
"","","","","","html-keyboard-response","228","903478","0.0-3.0-7.0-0.2","62ae5bba809eb60d54f6abb6","B2","batch2","pattern_show_trial_num","null","<p class=block-text>Trial 42 out of 78</p>","null","","","","","","","","","","","","","","","","","","","","","","","","","",""
"","","","","","image-keyboard-response","229","905855","0.0-3.0-7.0-1.2","62ae5bba809eb60d54f6abb6","B2","batch2","pattern_response","2375.5","stim/yes_35_dia_b1.png","f","pattern_57","f","true","","","","2375.5","true","40","","","","","","","","","","","","","","","","",""
"","","","","","html-keyboard-response","230","907186","0.0-3.0-7.0-0.3","62ae5bba809eb60d54f6abb6","B2","batch2","pattern_show_trial_num","null","<p class=block-text>Trial 43 out of 78</p>","null","","","","","","","","","","","","","","","","","","","","","","","","","",""
"","","","","","image-keyboard-response","231","908715","0.0-3.0-7.0-1.3","62ae5bba809eb60d54f6abb6","B2","batch2","pattern_response","1527","stim/no_13_2_b.png","j","pattern_02","j","true","","","","1527","true","41","","","","","","","","","","","","","","","","",""
"","","","","","html-keyboard-response","232","910033","0.0-3.0-7.0-0.4","62ae5bba809eb60d54f6abb6","B2","batch2","pattern_show_trial_num","null","<p class=block-text>Trial 44 out of 78</p>","null","","","","","","","","","","","","","","","","","","","","","","","","","",""
"","","","","","image-keyboard-response","233","915532","0.0-3.0-7.0-1.4","62ae5bba809eb60d54f6abb6","B2","batch2","pattern_response","5495.299999952316","stim/no_65_1_b.png","j","pattern_38","j","true","","","","5495.299999952316","true","42","","","","","","","","","","","","","","","","",""
"","","","","","html-keyboard-response","234","916841","0.0-3.0-7.0-0.5","62ae5bba809eb60d54f6abb6","B2","batch2","pattern_show_trial_num","null","<p class=block-text>Trial 45 out of 78</p>","null","","","","","","","","","","","","","","","","","","","","","","","","","",""
"","","","","","image-keyboard-response","235","918340","0.0-3.0-7.0-1.5","62ae5bba809eb60d54f6abb6","B2","batch2","pattern_response","1498.2000000476837","stim/no_29_1_b.png","j","pattern_12","j","true","","","","1498.2000000476837","true","43","","","","","","","","","","","","","","","","",""
"","","","","","html-keyboard-response","236","919657","0.0-3.0-7.0-0.6","62ae5bba809eb60d54f6abb6","B2","batch2","pattern_show_trial_num","null","<p class=block-text>Trial 46 out of 78</p>","null","","","","","","","","","","","","","","","","","","","","","","","","","",""
"","","","","","image-keyboard-response","237","920476","0.0-3.0-7.0-1.6","62ae5bba809eb60d54f6abb6","B2","batch2","pattern_response","818.8999999761581","stim/yes_22_ver_w1.png","f","pattern_47","f","true","","","","818.8999999761581","true","44","","","","","","","","","","","","","","","","",""
"","","","","","html-keyboard-response","238","921794","0.0-3.0-7.0-0.7","62ae5bba809eb60d54f6abb6","B2","batch2","pattern_show_trial_num","null","<p class=block-text>Trial 47 out of 78</p>","null","","","","","","","","","","","","","","","","","","","","","","","","","",""
"","","","","","image-keyboard-response","239","926024","0.0-3.0-7.0-1.7","62ae5bba809eb60d54f6abb6","B2","batch2","pattern_response","4229.5","stim/no_44_1.png","j","pattern_24","j","true","","","","4229.5","true","45","","","","","","","","","","","","","","","","",""
"","","","","","html-keyboard-response","240","927345","0.0-3.0-7.0-0.8","62ae5bba809eb60d54f6abb6","B2","batch2","pattern_show_trial_num","null","<p class=block-text>Trial 48 out of 78</p>","null","","","","","","","","","","","","","","","","","","","","","","","","","",""
"","","","","","image-keyboard-response","241","932391","0.0-3.0-7.0-1.8","62ae5bba809eb60d54f6abb6","B2","batch2","pattern_response","5045.400000095367","stim/no_55_1_w.png","j","pattern_34","j","true","","","","5045.400000095367","true","46","","","","","","","","","","","","","","","","",""
"","","","","","html-keyboard-response","242","933718","0.0-3.0-7.0-0.9","62ae5bba809eb60d54f6abb6","B2","batch2","pattern_show_trial_num","null","<p class=block-text>Trial 49 out of 78</p>","null","","","","","","","","","","","","","","","","","","","","","","","","","",""
"","","","","","image-keyboard-response","243","937723","0.0-3.0-7.0-1.9","62ae5bba809eb60d54f6abb6","B2","batch2","pattern_response","4004.100000023842","stim/no_38_1_b.png","j","pattern_20","j","true","","","","4004.100000023842","true","47","","","","","","","","","","","","","","","","",""
"","","","","","html-keyboard-response","244","939028","0.0-3.0-7.0-0.10","62ae5bba809eb60d54f6abb6","B2","batch2","pattern_show_trial_num","null","<p class=block-text>Trial 50 out of 78</p>","null","","","","","","","","","","","","","","","","","","","","","","","","","",""
"","","","","","image-keyboard-response","245","940186","0.0-3.0-7.0-1.10","62ae5bba809eb60d54f6abb6","B2","batch2","pattern_response","1157.2999999523163","stim/yes_37_dia_w1.png","f","pattern_59","f","true","","","","1157.2999999523163","true","48","","","","","","","","","","","","","","","","",""
"","","","","","html-keyboard-response","246","941503","0.0-3.0-7.0-0.11","62ae5bba809eb60d54f6abb6","B2","batch2","pattern_show_trial_num","null","<p class=block-text>Trial 51 out of 78</p>","null","","","","","","","","","","","","","","","","","","","","","","","","","",""
"","","","","","image-keyboard-response","247","947402","0.0-3.0-7.0-1.11","62ae5bba809eb60d54f6abb6","B2","batch2","pattern_response","5897.899999976158","stim/no_52_1.png","j","pattern_32","j","true","","","","5897.899999976158","true","49","","","","","","","","","","","","","","","","",""
"","","","","","html-keyboard-response","248","948723","0.0-3.0-7.0-0.12","62ae5bba809eb60d54f6abb6","B2","batch2","pattern_show_trial_num","null","<p class=block-text>Trial 52 out of 78</p>","null","","","","","","","","","","","","","","","","","","","","","","","","","",""
"","","","","","image-keyboard-response","249","949869","0.0-3.0-7.0-1.12","62ae5bba809eb60d54f6abb6","B2","batch2","pattern_response","1144.5","stim/yes_43_ver_w1_w.png","f","pattern_65","f","true","","","","1144.5","true","50","","","","","","","","","","","","","","","","",""
"","","","","","html-keyboard-response","250","951177","0.0-3.0-7.0-0.13","62ae5bba809eb60d54f6abb6","B2","batch2","pattern_show_trial_num","null","<p class=block-text>Trial 53 out of 78</p>","null","","","","","","","","","","","","","","","","","","","","","","","","","",""
"","","","","","image-keyboard-response","251","953205","0.0-3.0-7.0-1.13","62ae5bba809eb60d54f6abb6","B2","batch2","pattern_response","2027.0999999046326","stim/yes_31_hor_b1.png","f","pattern_55","f","true","","","","2027.0999999046326","true","51","","","","","","","","","","","","","","","","",""
"","","","","","html-keyboard-response","252","954516","0.0-3.0-7.0-0.14","62ae5bba809eb60d54f6abb6","B2","batch2","pattern_show_trial_num","null","<p class=block-text>Trial 54 out of 78</p>","null","","","","","","","","","","","","","","","","","","","","","","","","","",""
"","","","","","image-keyboard-response","253","959059","0.0-3.0-7.0-1.14","62ae5bba809eb60d54f6abb6","B2","batch2","pattern_response","4541.600000023842","stim/no_42_1_w.png","j","pattern_22","j","true","","","","4541.600000023842","true","52","","","","","","","","","","","","","","","","",""
"","","","","","html-keyboard-response","254","960384","0.0-3.0-7.0-0.15","62ae5bba809eb60d54f6abb6","B2","batch2","pattern_show_trial_num","null","<p class=block-text>Trial 55 out of 78</p>","null","","","","","","","","","","","","","","","","","","","","","","","","","",""
"","","","","","image-keyboard-response","255","967430","0.0-3.0-7.0-1.15","62ae5bba809eb60d54f6abb6","B2","batch2","pattern_response","7044.799999952316","stim/no_70_2.png","j","pattern_40","j","true","","","","7044.799999952316","true","53","","","","","","","","","","","","","","","","",""
"","","","","","html-keyboard-response","256","968750","0.0-3.0-7.0-0.16","62ae5bba809eb60d54f6abb6","B2","batch2","pattern_show_trial_num","null","<p class=block-text>Trial 56 out of 78</p>","null","","","","","","","","","","","","","","","","","","","","","","","","","",""
"","","","","","image-keyboard-response","257","974340","0.0-3.0-7.0-1.16","62ae5bba809eb60d54f6abb6","B2","batch2","pattern_response","5588.600000023842","stim/no_62_1_w.png","j","pattern_36","j","true","","","","5588.600000023842","true","54","","","","","","","","","","","","","","","","",""
"","","","","","html-keyboard-response","258","975657","0.0-3.0-7.0-0.17","62ae5bba809eb60d54f6abb6","B2","batch2","pattern_show_trial_num","null","<p class=block-text>Trial 57 out of 78</p>","null","","","","","","","","","","","","","","","","","","","","","","","","","",""
"","","","","","image-keyboard-response","259","977938","0.0-3.0-7.0-1.17","62ae5bba809eb60d54f6abb6","B2","batch2","pattern_response","2279.2999999523163","stim/yes_38_hor_b1_b.png","f","pattern_61","f","true","","","","2279.2999999523163","true","55","","","","","","","","","","","","","","","","",""
"","","","","","html-keyboard-response","260","979251","0.0-3.0-7.0-0.18","62ae5bba809eb60d54f6abb6","B2","batch2","pattern_show_trial_num","null","<p class=block-text>Trial 58 out of 78</p>","null","","","","","","","","","","","","","","","","","","","","","","","","","",""
"","","","","","image-keyboard-response","261","980338","0.0-3.0-7.0-1.18","62ae5bba809eb60d54f6abb6","B2","batch2","pattern_response","1086.2000000476837","stim/yes_55_hor_w1_w.png","f","pattern_75","f","true","","","","1086.2000000476837","true","56","","","","","","","","","","","","","","","","",""
"","","","","","html-keyboard-response","262","981659","0.0-3.0-7.0-0.19","62ae5bba809eb60d54f6abb6","B2","batch2","pattern_show_trial_num","null","<p class=block-text>Trial 59 out of 78</p>","null","","","","","","","","","","","","","","","","","","","","","","","","","",""
"","","","","","image-keyboard-response","263","986641","0.0-3.0-7.0-1.19","62ae5bba809eb60d54f6abb6","B2","batch2","pattern_response","4982.300000071526","stim/yes_50_dia_w1.png","j","pattern_71","f","false","","","","4982.300000071526","false","56","","","","","","","","","","","","","","","","",""
"","","","","","html-keyboard-response","264","987962","0.0-3.0-7.0-0.20","62ae5bba809eb60d54f6abb6","B2","batch2","pattern_show_trial_num","null","<p class=block-text>Trial 60 out of 78</p>","null","","","","","","","","","","","","","","","","","","","","","","","","","",""
"","","","","","image-keyboard-response","265","988832","0.0-3.0-7.0-1.20","62ae5bba809eb60d54f6abb6","B2","batch2","pattern_response","868.7999999523163","stim/no_23_1.png","j","pattern_08","j","true","","","","868.7999999523163","true","57","","","","","","","","","","","","","","","","",""
"","","","","","html-keyboard-response","266","990151","0.0-3.0-7.0-0.21","62ae5bba809eb60d54f6abb6","B2","batch2","pattern_show_trial_num","null","<p class=block-text>Trial 61 out of 78</p>","null","","","","","","","","","","","","","","","","","","","","","","","","","",""
"","","","","","image-keyboard-response","267","992168","0.0-3.0-7.0-1.21","62ae5bba809eb60d54f6abb6","B2","batch2","pattern_response","2016.7999999523163","stim/no_34_1_b.png","j","pattern_16","j","true","","","","2016.7999999523163","true","58","","","","","","","","","","","","","","","","",""
"","","","","","html-keyboard-response","268","993485","0.0-3.0-7.0-0.22","62ae5bba809eb60d54f6abb6","B2","batch2","pattern_show_trial_num","null","<p class=block-text>Trial 62 out of 78</p>","null","","","","","","","","","","","","","","","","","","","","","","","","","",""
"","","","","","image-keyboard-response","269","994263","0.0-3.0-7.0-1.22","62ae5bba809eb60d54f6abb6","B2","batch2","pattern_response","777","stim/yes_14_hor_b1_w.png","f","pattern_43","f","true","","","","777","true","59","","","","","","","","","","","","","","","","",""
"","","","","","html-keyboard-response","270","995582","0.0-3.0-7.0-0.23","62ae5bba809eb60d54f6abb6","B2","batch2","pattern_show_trial_num","null","<p class=block-text>Trial 63 out of 78</p>","null","","","","","","","","","","","","","","","","","","","","","","","","","",""
"","","","","","image-keyboard-response","271","997104","0.0-3.0-7.0-1.23","62ae5bba809eb60d54f6abb6","B2","batch2","pattern_response","1521.1000000238419","stim/yes_29_ver_w1.png","f","pattern_53","f","true","","","","1521.1000000238419","true","60","","","","","","","","","","","","","","","","",""
"","","","","","html-keyboard-response","272","998419","0.0-3.0-7.0-0.24","62ae5bba809eb60d54f6abb6","B2","batch2","pattern_show_trial_num","null","<p class=block-text>Trial 64 out of 78</p>","null","","","","","","","","","","","","","","","","","","","","","","","","","",""
"","","","","","image-keyboard-response","273","1000117","0.0-3.0-7.0-1.24","62ae5bba809eb60d54f6abb6","B2","batch2","pattern_response","1696.5","stim/yes_48_dia_w1_w.png","f","pattern_69","f","true","","","","1696.5","true","61","","","","","","","","","","","","","","","","",""
"","","","","","html-keyboard-response","274","1001438","0.0-3.0-7.0-0.25","62ae5bba809eb60d54f6abb6","B2","batch2","pattern_show_trial_num","null","<p class=block-text>Trial 65 out of 78</p>","null","","","","","","","","","","","","","","","","","","","","","","","","","",""
"","","","","","image-keyboard-response","275","1002655","0.0-3.0-7.0-1.25","62ae5bba809eb60d54f6abb6","B2","batch2","pattern_response","1215.1000000238419","stim/no_20_1_w.png","j","pattern_06","j","true","","","","1215.1000000238419","true","62","","","","","","","","","","","","","","","","",""
"","","","","","html-keyboard-response","276","1003972","0.0-3.0-7.0-0.26","62ae5bba809eb60d54f6abb6","B2","batch2","pattern_show_trial_num","null","<p class=block-text>Trial 66 out of 78</p>","null","","","","","","","","","","","","","","","","","","","","","","","","","",""
"","","","","","image-keyboard-response","277","1005187","0.0-3.0-7.0-1.26","62ae5bba809eb60d54f6abb6","B2","batch2","pattern_response","1214.1999999284744","stim/yes_60_ver_b1_b.png","f","pattern_77","f","true","","","","1214.1999999284744","true","63","","","","","","","","","","","","","","","","",""
"","","","","","html-keyboard-response","278","1006502","0.0-3.0-7.0-0.27","62ae5bba809eb60d54f6abb6","B2","batch2","pattern_show_trial_num","null","<p class=block-text>Trial 67 out of 78</p>","null","","","","","","","","","","","","","","","","","","","","","","","","","",""
"","","","","","image-keyboard-response","279","1008425","0.0-3.0-7.0-1.27","62ae5bba809eb60d54f6abb6","B2","batch2","pattern_response","1921.8999999761581","stim/yes_67_hor_b1.png","f","pattern_79","f","true","","","","1921.8999999761581","true","64","","","","","","","","","","","","","","","","",""
"","","","","","html-keyboard-response","280","1009740","0.0-3.0-7.0-0.28","62ae5bba809eb60d54f6abb6","B2","batch2","pattern_show_trial_num","null","<p class=block-text>Trial 68 out of 78</p>","null","","","","","","","","","","","","","","","","","","","","","","","","","",""
"","","","","","image-keyboard-response","281","1013319","0.0-3.0-7.0-1.28","62ae5bba809eb60d54f6abb6","B2","batch2","pattern_response","3574.7999999523163","stim/no_46_1_b.png","j","pattern_26","j","true","","","","3574.7999999523163","true","65","","","","","","","","","","","","","","","","",""
"","","","","","html-keyboard-response","282","1014643","0.0-3.0-7.0-0.29","62ae5bba809eb60d54f6abb6","B2","batch2","pattern_show_trial_num","null","<p class=block-text>Trial 69 out of 78</p>","null","","","","","","","","","","","","","","","","","","","","","","","","","",""
"","","","","","image-keyboard-response","283","1019034","0.0-3.0-7.0-1.29","62ae5bba809eb60d54f6abb6","B2","batch2","pattern_response","4389.899999976158","stim/no_48_1_w.png","j","pattern_28","j","true","","","","4389.899999976158","true","66","","","","","","","","","","","","","","","","",""
"","","","","","html-keyboard-response","284","1020347","0.0-3.0-7.0-0.30","62ae5bba809eb60d54f6abb6","B2","batch2","pattern_show_trial_num","null","<p class=block-text>Trial 70 out of 78</p>","null","","","","","","","","","","","","","","","","","","","","","","","","","",""
"","","","","","image-keyboard-response","285","1021581","0.0-3.0-7.0-1.30","62ae5bba809eb60d54f6abb6","B2","batch2","pattern_response","1232.8000000715256","stim/yes_40_dia_b1_b.png","f","pattern_63","f","true","","","","1232.8000000715256","true","67","","","","","","","","","","","","","","","","",""
"","","","","","html-keyboard-response","286","1022903","0.0-3.0-7.0-0.31","62ae5bba809eb60d54f6abb6","B2","batch2","pattern_show_trial_num","null","<p class=block-text>Trial 71 out of 78</p>","null","","","","","","","","","","","","","","","","","","","","","","","","","",""
"","","","","","image-keyboard-response","287","1023665","0.0-3.0-7.0-1.31","62ae5bba809eb60d54f6abb6","B2","batch2","pattern_response","760.3999999761581","stim/yes_25_hor_b1_b.png","f","pattern_49","f","true","","","","760.3999999761581","true","68","","","","","","","","","","","","","","","","",""
"","","","","","html-keyboard-response","288","1024994","0.0-3.0-7.0-0.32","62ae5bba809eb60d54f6abb6","B2","batch2","pattern_show_trial_num","null","<p class=block-text>Trial 72 out of 78</p>","null","","","","","","","","","","","","","","","","","","","","","","","","","",""
"","","","","","image-keyboard-response","289","1025707","0.0-3.0-7.0-1.32","62ae5bba809eb60d54f6abb6","B2","batch2","pattern_response","711.8999999761581","stim/yes_28_ver_b1.png","f","pattern_51","f","true","","","","711.8999999761581","true","69","","","","","","","","","","","","","","","","",""
"","","","","","html-keyboard-response","290","1027021","0.0-3.0-7.0-0.33","62ae5bba809eb60d54f6abb6","B2","batch2","pattern_show_trial_num","null","<p class=block-text>Trial 73 out of 78</p>","null","","","","","","","","","","","","","","","","","","","","","","","","","",""
"","","","","","image-keyboard-response","291","1028008","0.0-3.0-7.0-1.33","62ae5bba809eb60d54f6abb6","B2","batch2","pattern_response","986.7999999523163","stim/no_17_1_w.png","j","pattern_04","j","true","","","","986.7999999523163","true","70","","","","","","","","","","","","","","","","",""
"","","","","","html-keyboard-response","292","1029331","0.0-3.0-7.0-0.34","62ae5bba809eb60d54f6abb6","B2","batch2","pattern_show_trial_num","null","<p class=block-text>Trial 74 out of 78</p>","null","","","","","","","","","","","","","","","","","","","","","","","","","",""
"","","","","","image-keyboard-response","293","1030229","0.0-3.0-7.0-1.34","62ae5bba809eb60d54f6abb6","B2","batch2","pattern_response","896.5","stim/yes_17_dia_w1.png","f","pattern_45","f","true","","","","896.5","true","71","","","","","","","","","","","","","","","","",""
"","","","","","html-keyboard-response","294","1031549","0.0-3.0-7.0-0.35","62ae5bba809eb60d54f6abb6","B2","batch2","pattern_show_trial_num","null","<p class=block-text>Trial 75 out of 78</p>","null","","","","","","","","","","","","","","","","","","","","","","","","","",""
"","","","","","image-keyboard-response","295","1032680","0.0-3.0-7.0-1.35","62ae5bba809eb60d54f6abb6","B2","batch2","pattern_response","1129.8999999761581","stim/no_26_1_w.png","j","pattern_10","j","true","","","","1129.8999999761581","true","72","","","","","","","","","","","","","","","","",""
"","","","","","html-keyboard-response","296","1033994","0.0-3.0-7.0-0.36","62ae5bba809eb60d54f6abb6","B2","batch2","pattern_show_trial_num","null","<p class=block-text>Trial 76 out of 78</p>","null","","","","","","","","","","","","","","","","","","","","","","","","","",""
"","","","","","image-keyboard-response","297","1038381","0.0-3.0-7.0-1.36","62ae5bba809eb60d54f6abb6","B2","batch2","pattern_response","4386.400000095367","stim/no_50_1.png","j","pattern_30","j","true","","","","4386.400000095367","true","73","","","","","","","","","","","","","","","","",""
"","","","","","html-keyboard-response","298","1039695","0.0-3.0-7.0-0.37","62ae5bba809eb60d54f6abb6","B2","batch2","pattern_show_trial_num","null","<p class=block-text>Trial 77 out of 78</p>","null","","","","","","","","","","","","","","","","","","","","","","","","","",""
"","","","","","image-keyboard-response","299","1042053","0.0-3.0-7.0-1.37","62ae5bba809eb60d54f6abb6","B2","batch2","pattern_response","2357","stim/yes_52_ver_w1.png","f","pattern_73","f","true","","","","2357","true","74","","","","","","","","","","","","","","","","",""
"","","","","","html-keyboard-response","300","1043365","0.0-3.0-7.0-0.38","62ae5bba809eb60d54f6abb6","B2","batch2","pattern_show_trial_num","null","<p class=block-text>Trial 78 out of 78</p>","null","","","","","","","","","","","","","","","","","","","","","","","","","",""
"","","","","","image-keyboard-response","301","1046330","0.0-3.0-7.0-1.38","62ae5bba809eb60d54f6abb6","B2","batch2","pattern_response","2963.5999999046326","stim/no_32_1_w.png","j","pattern_14","j","true","","","","2963.5999999046326","true","75","","","","","","","","","","","","","","","","",""
"","","","","","html-button-response","302","1053904","0.0-3.0-8.0","62ae5bba809eb60d54f6abb6","B2","batch2","","7057.799999952316","<p class = block-text>This concludes the 4-in-a-row detection game.Thank you for your responses!<br>
            You responded correctly on 96% of the trials.<br>
            When you are ready, press ""Continue"" button to continue </p>","0","","","","","","","","","","","","","","","","","","","","","","","","","",""
"true","","","","","fullscreen","303","1056353","0.0-4.0-0.0","62ae5bba809eb60d54f6abb6","B2","batch2","","","","","","","","","","","","","","","","","","","","","","","","","","","","","",""
"","","","","","instructions","304","1093367","0.0-4.0-1.0-0.0-0.0","62ae5bba809eb60d54f6abb6","B2","batch2","tol-instructions","37014.300000071526","","","","","","","","[{""page_index"":0,""viewing_time"":9721.800000071526},{""page_index"":1,""viewing_time"":14681.199999928474},{""page_index"":2,""viewing_time"":1830.1000000238419},{""page_index"":3,""viewing_time"":1769.3000000715256},{""page_index"":4,""viewing_time"":3693.6999999284744},{""page_index"":5,""viewing_time"":3667.3000000715256},{""page_index"":6,""viewing_time"":1650.5}]","","","","","","","","","","","","","","","","","","","",""
"","","","","","html-button-response","305","1093969","0.0-4.0-1.0-1.0-0.0","62ae5bba809eb60d54f6abb6","B2","batch2","tol_enter_quiz","600.8999999761581","<p class=block-text> Let's answer a few questions <br>","0","","","","","","","","","","","","","","","","","","","","","","","","","",""
"","","","","","html-button-response","306","1097483","0.0-4.0-1.0-1.0-1.0","62ae5bba809eb60d54f6abb6","B2","batch2","tol_quiz","3513.399999976158","<p class = block-text>True or False: You can only move the ball on top of a peg. <br></p>","0","","","true","","","","","","","","","","","","","","","","","","","","","","",""
"","","","","","html-button-response","307","1098355","0.0-4.0-1.0-1.0-2.0","62ae5bba809eb60d54f6abb6","B2","batch2","tol_quiz_feedback","871.2000000476837","<p class = block-text>Correct! You can only move the ball on top of a peg.</p>","0","","","","","","","","","","","","","","","","","","","","","","","","","",""
"","","","","","html-button-response","308","1100573","0.0-4.0-1.0-1.0-3.0","62ae5bba809eb60d54f6abb6","B2","batch2","tol_quiz","2216.6999999284744","<p class = block-text>True or False: You should try to match your board with the target board with fewest moves possible. <br></p>","0","","","true","","","","","","","","","","","","","","","","","","","","","","",""
"","","","","","html-button-response","309","1101043","0.0-4.0-1.0-1.0-4.0","62ae5bba809eb60d54f6abb6","B2","batch2","tol_quiz_feedback","469.7999999523163","<p class = block-text>Correct! </p>","0","","","","","","","","","","","","","","","","","","","","","","","","","",""
"","","","","","html-button-response","310","1102019","0.0-4.0-2.0","62ae5bba809eb60d54f6abb6","B2","batch2","","975","<p class=block-text> Now that you've understood the game, let's practice a few easier examples before we start!<br> <br>","0","","","","","","","","","","","","","","","","","","","","","","","","","",""
"","","","","","single-stim-button","311","1103867","0.0-4.0-3.0-0.0","62ae5bba809eb60d54f6abb6","B2","batch2","tol_practice","1846","","","","","","","","","","","","","","tol_peg_2","1846","1846","0","[[1,2,0],[0,0],[0]]","1","[[1,2,0],[0,0],[3]]","practice","1846","","","","","",""
"","","","","","single-stim-button","312","1105612","0.0-4.0-3.0-1.0","62ae5bba809eb60d54f6abb6","B2","batch2","tol_practice","1744","","","","","","","","","","","","","","tol_peg_3","1744","1744","0","[[1,2,0],[0,0],[3]]","1","[[1,2,0],[0,0],[3]]","practice","1744","","","","","",""
"","","","","","poldrack-single-stim","313","1106620","0.0-4.0-4.0","62ae5bba809eb60d54f6abb6","B2","batch2","tol_feedback","-1","","","","","true","","","","","","","","","","1000","1000","500","","","","","","-1","none","true","","0",""
"","","","","","single-stim-button","314","1109017","0.0-4.0-5.0-0.0","62ae5bba809eb60d54f6abb6","B2","batch2","tol_practice","2397","","","","","","","","","","","","","","tol_peg_1","2397","2397","0","[[1,0,0],[3,0],[0]]","2","[[0,0,0],[3,1],[2]]","practice","2397","","","","","",""
"","","","","","single-stim-button","315","1109791","0.0-4.0-5.0-1.0","62ae5bba809eb60d54f6abb6","B2","batch2","tol_practice","774","","","","","","","","","","","","","","tol_peg_3","774","774","0","[[1,0,0],[3,0],[2]]","2","[[0,0,0],[3,1],[2]]","practice","774","","","","","",""
"","","","","","single-stim-button","316","1110452","0.0-4.0-5.1-0.1","62ae5bba809eb60d54f6abb6","B2","batch2","tol_practice","660","","","","","","","","","","","","","","tol_peg_1","660","660","0","[[0,0,0],[3,0],[2]]","3","[[0,0,0],[3,1],[2]]","practice","660","","","","","",""
"","","","","","single-stim-button","317","1111039","0.0-4.0-5.1-1.1","62ae5bba809eb60d54f6abb6","B2","batch2","tol_practice","587","","","","","","","","","","","","","","tol_peg_2","587","587","0","[[0,0,0],[3,1],[2]]","3","[[0,0,0],[3,1],[2]]","practice","587","","","","","",""
"","","","","","poldrack-single-stim","318","1112050","0.0-4.0-6.0","62ae5bba809eb60d54f6abb6","B2","batch2","tol_feedback","-1","","","","","true","","","","","","","","","","1000","1000","500","","","","","","-1","none","true","","0",""
"","","","","","single-stim-button","319","1114214","0.0-4.0-7.0-0.0","62ae5bba809eb60d54f6abb6","B2","batch2","tol_practice","2163","","","","","","","","","","","","","","tol_peg_2","2163","2163","0","[[1,2,0],[0,0],[0]]","4","[[1,0,0],[2,0],[3]]","practice","2163","","","","","",""
"","","","","","single-stim-button","320","1114848","0.0-4.0-7.0-1.0","62ae5bba809eb60d54f6abb6","B2","batch2","tol_practice","633","","","","","","","","","","","","","","tol_peg_3","633","633","0","[[1,2,0],[0,0],[3]]","4","[[1,0,0],[2,0],[3]]","practice","633","","","","","",""
"","","","","","single-stim-button","321","1115412","0.0-4.0-7.1-0.1","62ae5bba809eb60d54f6abb6","B2","batch2","tol_practice","564","","","","","","","","","","","","","","tol_peg_1","564","564","0","[[1,0,0],[0,0],[3]]","5","[[1,0,0],[2,0],[3]]","practice","564","","","","","",""
"","","","","","single-stim-button","322","1115870","0.0-4.0-7.1-1.1","62ae5bba809eb60d54f6abb6","B2","batch2","tol_practice","457","","","","","","","","","","","","","","tol_peg_2","457","457","0","[[1,0,0],[2,0],[3]]","5","[[1,0,0],[2,0],[3]]","practice","457","","","","","",""
"","","","","","poldrack-single-stim","323","1116877","0.0-4.0-8.0","62ae5bba809eb60d54f6abb6","B2","batch2","tol_feedback","-1","","","","","true","","","","","","","","","","1000","1000","500","","","","","","-1","none","true","","0",""
"","","","","","html-button-response","324","1118188","0.0-4.0-9.0","62ae5bba809eb60d54f6abb6","B2","batch2","tol_instruction","1310.2999999523163","<div class = centerbox><p class = center-block-text>Great job! You are done with practice trials<br>You are about to start official trials.<br> <br> Problem <strong>1</strong> out of 25 problems</p></div>","0","","","","","","","","","","","","","","","","","","","","","","","","","",""
"","","","","","single-stim-button","325","1123371","0.0-4.0-10.0-0.0","62ae5bba809eb60d54f6abb6","B2","batch2","tol_tohand","4182","","","","","","","","","","","","","","tol_peg_2","4182","4182","0","[[1,2,0],[0,0],[0]]","1","[[1,3,0],[2,0],[0]]","0","0","","","","","","3"
"","","","","","single-stim-button","326","1123975","0.0-4.0-10.0-1.0","62ae5bba809eb60d54f6abb6","B2","batch2","tol_toboard","603","","","","","","","","","","","","","","tol_peg_3","603","603","0","[[1,2,0],[0,0],[3]]","1","[[1,3,0],[2,0],[0]]","0","0","","","","","","3"
"","","","","","single-stim-button","327","1124653","0.0-4.0-10.1-0.1","62ae5bba809eb60d54f6abb6","B2","batch2","tol_tohand","678","","","","","","","","","","","","","","tol_peg_1","678","678","0","[[1,0,0],[0,0],[3]]","2","[[1,3,0],[2,0],[0]]","0","0","","","","","","3"
"","","","","","single-stim-button","328","1124995","0.0-4.0-10.1-1.1","62ae5bba809eb60d54f6abb6","B2","batch2","tol_toboard","341","","","","","","","","","","","","","","tol_peg_2","341","341","0","[[1,0,0],[2,0],[3]]","2","[[1,3,0],[2,0],[0]]","0","0","","","","","","3"
"","","","","","single-stim-button","329","1125359","0.0-4.0-10.2-0.2","62ae5bba809eb60d54f6abb6","B2","batch2","tol_tohand","364","","","","","","","","","","","","","","tol_peg_3","364","364","0","[[1,0,0],[2,0],[0]]","3","[[1,3,0],[2,0],[0]]","0","0","","","","","","3"
"","","","","","single-stim-button","330","1125842","0.0-4.0-10.2-1.2","62ae5bba809eb60d54f6abb6","B2","batch2","tol_toboard","482","","","","","","","","","","","","","","tol_peg_1","482","482","0","[[1,3,0],[2,0],[0]]","3","[[1,3,0],[2,0],[0]]","0","0","","","","","","3"
"","","","","","poldrack-single-stim","331","1126844","0.0-4.0-11.0","62ae5bba809eb60d54f6abb6","B2","batch2","tol_feedback","-1","","","","","true","","","","","","","","","","1000","1000","500","","","","","","-1","none","true","4182","5224",""
"","","","","","html-button-response","332","1127828","0.0-4.0-12.0","62ae5bba809eb60d54f6abb6","B2","batch2","tol_trial_num","983.3999999761581","<div class = centerbox><p class = center-block-text>problem <strong>2</strong> out of 25 problems</p></div>","0","","","","","","","","","","","","","","","","","","","","","","","","","",""
"","","","","","single-stim-button","333","1130323","0.0-4.0-13.0-0.0","62ae5bba809eb60d54f6abb6","B2","batch2","tol_tohand","2495","","","","","","","","","","","","","","tol_peg_1","2495","2495","0","[[1,0,0],[3,0],[0]]","1","[[2,1,3],[0,0],[0]]","1","0","","","","","","5"
"","","","","","single-stim-button","334","1132613","0.0-4.0-13.0-1.0","62ae5bba809eb60d54f6abb6","B2","batch2","tol_toboard","2290","","","","","","","","","","","","","","tol_peg_3","2290","2290","0","[[1,0,0],[3,0],[2]]","1","[[2,1,3],[0,0],[0]]","1","0","","","","","","5"
"","","","","","single-stim-button","335","1137859","0.0-4.0-13.1-0.1","62ae5bba809eb60d54f6abb6","B2","batch2","tol_tohand","5245","","","","","","","","","","","","","","tol_peg_1","5245","5245","0","[[0,0,0],[3,0],[2]]","2","[[2,1,3],[0,0],[0]]","1","0","","","","","","5"
"","","","","","single-stim-button","336","1138357","0.0-4.0-13.1-1.1","62ae5bba809eb60d54f6abb6","B2","batch2","tol_toboard","498","","","","","","","","","","","","","","tol_peg_2","498","498","0","[[0,0,0],[3,1],[2]]","2","[[2,1,3],[0,0],[0]]","1","0","","","","","","5"
"","","","","","single-stim-button","337","1138795","0.0-4.0-13.2-0.2","62ae5bba809eb60d54f6abb6","B2","batch2","tol_tohand","437","","","","","","","","","","","","","","tol_peg_3","437","437","0","[[0,0,0],[3,1],[0]]","3","[[2,1,3],[0,0],[0]]","1","0","","","","","","5"
"","","","","","single-stim-button","338","1139387","0.0-4.0-13.2-1.2","62ae5bba809eb60d54f6abb6","B2","batch2","tol_toboard","591","","","","","","","","","","","","","","tol_peg_1","591","591","0","[[2,0,0],[3,1],[0]]","3","[[2,1,3],[0,0],[0]]","1","0","","","","","","5"
"","","","","","single-stim-button","339","1140507","0.0-4.0-13.3-0.3","62ae5bba809eb60d54f6abb6","B2","batch2","tol_tohand","1120","","","","","","","","","","","","","","tol_peg_2","1120","1120","0","[[2,0,0],[3,0],[0]]","4","[[2,1,3],[0,0],[0]]","1","0","","","","","","5"
"","","","","","single-stim-button","340","1141164","0.0-4.0-13.3-1.3","62ae5bba809eb60d54f6abb6","B2","batch2","tol_toboard","656","","","","","","","","","","","","","","tol_peg_3","656","656","0","[[2,0,0],[3,0],[1]]","4","[[2,1,3],[0,0],[0]]","1","0","","","","","","5"
"","","","","","single-stim-button","341","1141506","0.0-4.0-13.4-0.4","62ae5bba809eb60d54f6abb6","B2","batch2","tol_tohand","341","","","","","","","","","","","","","","tol_peg_2","341","341","0","[[2,0,0],[0,0],[1]]","5","[[2,1,3],[0,0],[0]]","1","0","","","","","","5"
"","","","","","single-stim-button","342","1141869","0.0-4.0-13.4-1.4","62ae5bba809eb60d54f6abb6","B2","batch2","tol_toboard","362","","","","","","","","","","","","","","tol_peg_1","362","362","0","[[2,3,0],[0,0],[1]]","5","[[2,1,3],[0,0],[0]]","1","0","","","","","","5"
"","","","","","single-stim-button","343","1142315","0.0-4.0-13.5-0.5","62ae5bba809eb60d54f6abb6","B2","batch2","tol_tohand","446","","","","","","","","","","","","","","tol_peg_3","446","446","0","[[2,3,0],[0,0],[0]]","6","[[2,1,3],[0,0],[0]]","1","0","","","","","","5"
"","","","","","single-stim-button","344","1143581","0.0-4.0-13.5-1.5","62ae5bba809eb60d54f6abb6","B2","batch2","tol_toboard","1264","","","","","","","","","","","","","","tol_peg_3","1264","1264","0","[[2,3,0],[0,0],[1]]","6","[[2,1,3],[0,0],[0]]","1","0","","","","","","5"
"","","","","","single-stim-button","345","1144137","0.0-4.0-13.6-0.6","62ae5bba809eb60d54f6abb6","B2","batch2","tol_tohand","555","","","","","","","","","","","","","","tol_peg_1","555","555","0","[[2,0,0],[0,0],[1]]","7","[[2,1,3],[0,0],[0]]","1","0","","","","","","5"
"","","","","","single-stim-button","346","1144439","0.0-4.0-13.6-1.6","62ae5bba809eb60d54f6abb6","B2","batch2","tol_toboard","302","","","","","","","","","","","","","","tol_peg_2","302","302","0","[[2,0,0],[3,0],[1]]","7","[[2,1,3],[0,0],[0]]","1","0","","","","","","5"
"","","","","","single-stim-button","347","1144792","0.0-4.0-13.7-0.7","62ae5bba809eb60d54f6abb6","B2","batch2","tol_tohand","353","","","","","","","","","","","","","","tol_peg_3","353","353","0","[[2,0,0],[3,0],[0]]","8","[[2,1,3],[0,0],[0]]","1","0","","","","","","5"
