"success","timeout","failed_images","failed_audio","failed_video","trial_type","trial_index","time_elapsed","internal_node_id","subject_id","study_id","session_id","view_history","rt","task","stimulus","response","correct","mouse_click","stim_duration","block_duration","timing_post_trial","current_position","tol_num_moves_made","tol_target","tol_problem_id","tol_rt","key_press","possible_responses","tol_correct","preplanning","tol_rt_per_trial","tol_min_moves","answer","item","fiar_detect_rt","fiar_detect_correct","total_correct_fiar_detect","post_trial_gap","choices","spm_correct","spm_rt"
"true","false","[]","[]","[]","preload","0","36336","0.0-0.0","62b496ea7c06f67ea068d0d3","A3","batch1","","","","","","","","","","","","","","","","","","","","","","","","","","","","","",""
"true","","","","","fullscreen","1","42749","0.0-1.0-0.0","62b496ea7c06f67ea068d0d3","A3","batch1","","","","","","","","","","","","","","","","","","","","","","","","","","","","","",""
"true","","","","","fullscreen","2","49291","0.0-2.0-0.0","62b496ea7c06f67ea068d0d3","A3","batch1","","","","","","","","","","","","","","","","","","","","","","","","","","","","","",""
"","","","","","instructions","3","58794","0.0-2.0-1.0-0.0-0.0","62b496ea7c06f67ea068d0d3","A3","batch1","[{""page_index"":0,""viewing_time"":3998},{""page_index"":1,""viewing_time"":1009},{""page_index"":2,""viewing_time"":806},{""page_index"":3,""viewing_time"":674},{""page_index"":4,""viewing_time"":711},{""page_index"":5,""viewing_time"":656},{""page_index"":6,""viewing_time"":1648}]","9502","tol-instructions","","","","","","","","","","","","","","","","","","","","","","","","","","",""
"","","","","","html-button-response","4","60098","0.0-2.0-1.0-1.0-0.0","62b496ea7c06f67ea068d0d3","A3","batch1","","1303","tol_enter_quiz","<p class=block-text> Let's answer a few questions <br>","0","","","","","","","","","","","","","","","","","","","","","","","","",""
"","","","","","html-button-response","5","65475","0.0-2.0-1.0-1.0-1.0","62b496ea7c06f67ea068d0d3","A3","batch1","","5373","tol_quiz","<p class = block-text>True or False: You can only move the ball on top of a peg. <br></p>","1","false","","","","","","","","","","","","","","","","","","","","","","","",""
"","","","","","html-button-response","6","66786","0.0-2.0-1.0-1.0-2.0","62b496ea7c06f67ea068d0d3","A3","batch1","","1310","tol_quiz_feedback","<p class = block-text>Incorrect. Remember, you can only move the ball on top of a peg.</p>","0","","","","","","","","","","","","","","","","","","","","","","","","",""
"","","","","","html-button-response","7","68410","0.0-2.0-1.0-1.0-3.0","62b496ea7c06f67ea068d0d3","A3","batch1","","1622","tol_quiz","<p class = block-text>True or False: You should try to match your board with the target board with fewest moves possible. <br></p>","0","true","","","","","","","","","","","","","","","","","","","","","","","",""
"","","","","","html-button-response","8","70187","0.0-2.0-1.0-1.0-4.0","62b496ea7c06f67ea068d0d3","A3","batch1","","1775","tol_quiz_feedback","<p class = block-text>Correct! </p>","0","","","","","","","","","","","","","","","","","","","","","","","","",""
"","","","","","html-button-response","9","71739","0.0-2.0-1.0-2.0-0.0","62b496ea7c06f67ea068d0d3","A3","batch1","","1549","","<p class = block-text>You made too many incorrect choices.</p><p class = block-text>You will now repeat the instructions and quiz</p>","0","","","","","","","","","","","","","","","","","","","","","","","","",""
"","","","","","instructions","10","77634","0.0-2.0-1.1-0.1-0.1","62b496ea7c06f67ea068d0d3","A3","batch1","[{""page_index"":0,""viewing_time"":1379},{""page_index"":1,""viewing_time"":1296},{""page_index"":2,""viewing_time"":6},{""page_index"":3,""viewing_time"":883},{""page_index"":4,""viewing_time"":583},{""page_index"":5,""viewing_time"":744},{""page_index"":6,""viewing_time"":1001}]","5892","tol-instructions","","","","","","","","","","","","","","","","","","","","","","","","","","",""
"","","","","","html-button-response","11","78690","0.0-2.0-1.1-1.1-0.1","62b496ea7c06f67ea068d0d3","A3","batch1","","1054","tol_enter_quiz","<p class=block-text> Let's answer a few questions <br>","0","","","","","","","","","","","","","","","","","","","","","","","","",""
"","","","","","html-button-response","12","84218","0.0-2.0-1.1-1.1-1.1","62b496ea7c06f67ea068d0d3","A3","batch1","","5525","tol_quiz","<p class = block-text>True or False: You can only move the ball on top of a peg. <br></p>","0","true","","","","","","","","","","","","","","","","","","","","","","","",""
"","","","","","html-button-response","13","85395","0.0-2.0-1.1-1.1-2.1","62b496ea7c06f67ea068d0d3","A3","batch1","","1174","tol_quiz_feedback","<p class = block-text>Correct! You can only move the ball on top of a peg.</p>","0","","","","","","","","","","","","","","","","","","","","","","","","",""
"","","","","","html-button-response","14","90211","0.0-2.0-1.1-1.1-3.1","62b496ea7c06f67ea068d0d3","A3","batch1","","4813","tol_quiz","<p class = block-text>True or False: You should try to match your board with the target board with fewest moves possible. <br></p>","0","true","","","","","","","","","","","","","","","","","","","","","","","",""
"","","","","","html-button-response","15","91322","0.0-2.0-1.1-1.1-4.1","62b496ea7c06f67ea068d0d3","A3","batch1","","1108","tol_quiz_feedback","<p class = block-text>Correct! </p>","0","","","","","","","","","","","","","","","","","","","","","","","","",""
"","","","","","html-button-response","16","93299","0.0-2.0-2.0","62b496ea7c06f67ea068d0d3","A3","batch1","","1975","","<p class=block-text> Now that you've understood the game, let's practice a few easier examples before we start!<br> <br>","0","","","","","","","","","","","","","","","","","","","","","","","","",""
"","","","","","single-stim-button","17","100691","0.0-2.0-3.0-0.0","62b496ea7c06f67ea068d0d3","A3","batch1","","7390","tol_practice","","","","tol_peg_2","7390","7390","0","[[1,2,0],[0,0],[0]]","1","[[1,2,0],[0,0],[3]]","practice","7390","","","","","","","","","","","","","","",""
"","","","","","single-stim-button","18","103354","0.0-2.0-3.0-1.0","62b496ea7c06f67ea068d0d3","A3","batch1","","2662","tol_practice","","","","tol_peg_1","2662","2662","0","[[1,2,3],[0,0],[0]]","1","[[1,2,0],[0,0],[3]]","practice","2662","","","","","","","","","","","","","","",""
"","","","","","single-stim-button","19","119331","0.0-2.0-3.1-0.1","62b496ea7c06f67ea068d0d3","A3","batch1","","15975","tol_practice","","","","tol_peg_1","15975","15975","0","[[1,2,0],[0,0],[0]]","2","[[1,2,0],[0,0],[3]]","practice","15975","","","","","","","","","","","","","","",""
"","","","","","single-stim-button","20","121595","0.0-2.0-3.1-1.1","62b496ea7c06f67ea068d0d3","A3","batch1","","2264","tol_practice","","","","tol_peg_1","2264","2264","0","[[1,2,3],[0,0],[0]]","2","[[1,2,0],[0,0],[3]]","practice","2264","","","","","","","","","","","","","","",""
"","","","","","single-stim-button","21","122274","0.0-2.0-3.2-0.2","62b496ea7c06f67ea068d0d3","A3","batch1","","679","tol_practice","","","","tol_peg_1","679","679","0","[[1,2,0],[0,0],[0]]","3","[[1,2,0],[0,0],[3]]","practice","679","","","","","","","","","","","","","","",""
"","","","","","single-stim-button","22","122906","0.0-2.0-3.2-1.2","62b496ea7c06f67ea068d0d3","A3","batch1","","630","tol_practice","","","","tol_peg_1","630","630","0","[[1,2,3],[0,0],[0]]","3","[[1,2,0],[0,0],[3]]","practice","630","","","","","","","","","","","","","","",""
"","","","","","single-stim-button","23","123354","0.0-2.0-3.3-0.3","62b496ea7c06f67ea068d0d3","A3","batch1","","448","tol_practice","","","","tol_peg_1","448","448","0","[[1,2,0],[0,0],[0]]","4","[[1,2,0],[0,0],[3]]","practice","448","","","","","","","","","","","","","","",""
"","","","","","single-stim-button","24","125571","0.0-2.0-3.3-1.3","62b496ea7c06f67ea068d0d3","A3","batch1","","2216","tol_practice","","","","tol_peg_1","2216","2216","0","[[1,2,3],[0,0],[0]]","4","[[1,2,0],[0,0],[3]]","practice","2216","","","","","","","","","","","","","","",""
"","","","","","single-stim-button","25","126978","0.0-2.0-3.4-0.4","62b496ea7c06f67ea068d0d3","A3","batch1","","1406","tol_practice","","","","tol_peg_1","1406","1406","0","[[1,2,0],[0,0],[0]]","5","[[1,2,0],[0,0],[3]]","practice","1406","","","","","","","","","","","","","","",""
"","","","","","single-stim-button","26","161138","0.0-2.0-3.4-1.4","62b496ea7c06f67ea068d0d3","A3","batch1","","34159","tol_practice","","","","tol_peg_1","34159","34159","0","[[1,2,3],[0,0],[0]]","5","[[1,2,0],[0,0],[3]]","practice","34159","","","","","","","","","","","","","","",""
"","","","","","single-stim-button","27","163122","0.0-2.0-3.5-0.5","62b496ea7c06f67ea068d0d3","A3","batch1","","1982","tol_practice","","","","tol_peg_1","1982","1982","0","[[1,2,0],[0,0],[0]]","6","[[1,2,0],[0,0],[3]]","practice","1982","","","","","","","","","","","","","","",""
"","","","","","single-stim-button","28","164114","0.0-2.0-3.5-1.5","62b496ea7c06f67ea068d0d3","A3","batch1","","992","tol_practice","","","","tol_peg_1","992","992","0","[[1,2,3],[0,0],[0]]","6","[[1,2,0],[0,0],[3]]","practice","992","","","","","","","","","","","","","","",""
"","","","","","single-stim-button","29","165049","0.0-2.0-3.6-0.6","62b496ea7c06f67ea068d0d3","A3","batch1","","935","tol_practice","","","","tol_peg_1","935","935","0","[[1,2,0],[0,0],[0]]","7","[[1,2,0],[0,0],[3]]","practice","935","","","","","","","","","","","","","","",""
"","","","","","single-stim-button","30","189810","0.0-2.0-3.6-1.6","62b496ea7c06f67ea068d0d3","A3","batch1","","24760","tol_practice","","","","tol_peg_3","24760","24760","0","[[1,2,0],[0,0],[3]]","7","[[1,2,0],[0,0],[3]]","practice","24760","","","","","","","","","","","","","","",""
"","","","","","poldrack-single-stim","31","190817","0.0-2.0-4.0","62b496ea7c06f67ea068d0d3","A3","batch1","","-1","tol_feedback","","","true","","1000","1000","500","","","","","","-1","none","true","","0","","","","","","","","","",""
"","","","","","single-stim-button","32","194754","0.0-2.0-5.0-0.0","62b496ea7c06f67ea068d0d3","A3","batch1","","3935","tol_practice","","","","tol_peg_1","3935","3935","0","[[1,0,0],[3,0],[0]]","8","[[0,0,0],[3,1],[2]]","practice","3935","","","","","","","","","","","","","","",""
"","","","","","single-stim-button","33","194858","0.0-2.0-5.0-1.0","62b496ea7c06f67ea068d0d3","A3","batch1","","104","tol_practice","","","","tol_peg_1","104","104","0","[[1,2,0],[3,0],[0]]","8","[[0,0,0],[3,1],[2]]","practice","104","","","","","","","","","","","","","","",""
"","","","","","single-stim-button","34","195553","0.0-2.0-5.1-0.1","62b496ea7c06f67ea068d0d3","A3","batch1","","694","tol_practice","","","","tol_peg_1","694","694","0","[[1,0,0],[3,0],[0]]","9","[[0,0,0],[3,1],[2]]","practice","694","","","","","","","","","","","","","","",""
"","","","","","single-stim-button","35","196841","0.0-2.0-5.1-1.1","62b496ea7c06f67ea068d0d3","A3","batch1","","1288","tol_practice","","","","tol_peg_3","1288","1288","0","[[1,0,0],[3,0],[2]]","9","[[0,0,0],[3,1],[2]]","practice","1288","","","","","","","","","","","","","","",""
"","","","","","single-stim-button","36","197033","0.0-2.0-5.2-0.2","62b496ea7c06f67ea068d0d3","A3","batch1","","192","tol_practice","","","","tol_peg_3","192","192","0","[[1,0,0],[3,0],[0]]","10","[[0,0,0],[3,1],[2]]","practice","192","","","","","","","","","","","","","","",""
"","","","","","single-stim-button","37","197857","0.0-2.0-5.2-1.2","62b496ea7c06f67ea068d0d3","A3","batch1","","823","tol_practice","","","","tol_peg_3","823","823","0","[[1,0,0],[3,0],[2]]","10","[[0,0,0],[3,1],[2]]","practice","823","","","","","","","","","","","","","","",""
"","","","","","single-stim-button","38","216825","0.0-2.0-5.3-0.3","62b496ea7c06f67ea068d0d3","A3","batch1","","18967","tol_practice","","","","tol_peg_3","18967","18967","0","[[1,0,0],[3,0],[0]]","11","[[0,0,0],[3,1],[2]]","practice","18967","","","","","","","","","","","","","","",""
"","","","","","single-stim-button","39","217065","0.0-2.0-5.3-1.3","62b496ea7c06f67ea068d0d3","A3","batch1","","240","tol_practice","","","","tol_peg_3","240","240","0","[[1,0,0],[3,0],[2]]","11","[[0,0,0],[3,1],[2]]","practice","240","","","","","","","","","","","","","","",""
"","","","","","single-stim-button","40","217794","0.0-2.0-5.4-0.4","62b496ea7c06f67ea068d0d3","A3","batch1","","728","tol_practice","","","","tol_peg_3","728","728","0","[[1,0,0],[3,0],[0]]","12","[[0,0,0],[3,1],[2]]","practice","728","","","","","","","","","","","","","","",""
"","","","","","single-stim-button","41","218873","0.0-2.0-5.4-1.4","62b496ea7c06f67ea068d0d3","A3","batch1","","1079","tol_practice","","","","tol_peg_3","1079","1079","0","[[1,0,0],[3,0],[2]]","12","[[0,0,0],[3,1],[2]]","practice","1079","","","","","","","","","","","","","","",""
"","","","","","single-stim-button","42","220033","0.0-2.0-5.5-0.5","62b496ea7c06f67ea068d0d3","A3","batch1","","1160","tol_practice","","","","tol_peg_2","1160","1160","0","[[1,0,0],[0,0],[2]]","13","[[0,0,0],[3,1],[2]]","practice","1160","","","","","","","","","","","","","","",""
"","","","","","single-stim-button","43","220225","0.0-2.0-5.5-1.5","62b496ea7c06f67ea068d0d3","A3","batch1","","190","tol_practice","","","","tol_peg_2","190","190","0","[[1,0,0],[3,0],[2]]","13","[[0,0,0],[3,1],[2]]","practice","190","","","","","","","","","","","","","","",""
"","","","","","single-stim-button","44","220929","0.0-2.0-5.6-0.6","62b496ea7c06f67ea068d0d3","A3","batch1","","704","tol_practice","","","","tol_peg_2","704","704","0","[[1,0,0],[0,0],[2]]","14","[[0,0,0],[3,1],[2]]","practice","704","","","","","","","","","","","","","","",""
"","","","","","single-stim-button","45","222952","0.0-2.0-5.6-1.6","62b496ea7c06f67ea068d0d3","A3","batch1","","2022","tol_practice","","","","tol_peg_2","2022","2022","0","[[1,0,0],[3,0],[2]]","14","[[0,0,0],[3,1],[2]]","practice","2022","","","","","","","","","","","","","","",""
"","","","","","single-stim-button","46","225698","0.0-2.0-5.7-0.7","62b496ea7c06f67ea068d0d3","A3","batch1","","2744","tol_practice","","","","tol_peg_2","2744","2744","0","[[1,0,0],[0,0],[2]]","15","[[0,0,0],[3,1],[2]]","practice","2744","","","","","","","","","","","","","","",""
"","","","","","single-stim-button","47","232320","0.0-2.0-5.7-1.7","62b496ea7c06f67ea068d0d3","A3","batch1","","6622","tol_practice","","","","tol_peg_2","6622","6622","0","[[1,0,0],[3,0],[2]]","15","[[0,0,0],[3,1],[2]]","practice","6622","","","","","","","","","","","","","","",""
"","","","","","single-stim-button","48","233313","0.0-2.0-5.8-0.8","62b496ea7c06f67ea068d0d3","A3","batch1","","992","tol_practice","","","","tol_peg_1","992","992","0","[[0,0,0],[3,0],[2]]","16","[[0,0,0],[3,1],[2]]","practice","992","","","","","","","","","","","","","","",""
"","","","","","single-stim-button","49","233512","0.0-2.0-5.8-1.8","62b496ea7c06f67ea068d0d3","A3","batch1","","199","tol_practice","","","","tol_peg_1","199","199","0","[[1,0,0],[3,0],[2]]","16","[[0,0,0],[3,1],[2]]","practice","199","","","","","","","","","","","","","","",""
"","","","","","single-stim-button","50","233953","0.0-2.0-5.9-0.9","62b496ea7c06f67ea068d0d3","A3","batch1","","440","tol_practice","","","","tol_peg_1","440","440","0","[[0,0,0],[3,0],[2]]","17","[[0,0,0],[3,1],[2]]","practice","440","","","","","","","","","","","","","","",""
"","","","","","single-stim-button","51","234424","0.0-2.0-5.9-1.9","62b496ea7c06f67ea068d0d3","A3","batch1","","471","tol_practice","","","","tol_peg_1","471","471","0","[[1,0,0],[3,0],[2]]","17","[[0,0,0],[3,1],[2]]","practice","471","","","","","","","","","","","","","","",""
"","","","","","single-stim-button","52","244073","0.0-2.0-5.10-0.10","62b496ea7c06f67ea068d0d3","A3","batch1","","9648","tol_practice","","","","tol_peg_3","9648","9648","0","[[1,0,0],[3,0],[0]]","18","[[0,0,0],[3,1],[2]]","practice","9648","","","","","","","","","","","","","","",""
"","","","","","single-stim-button","53","256057","0.0-2.0-5.10-1.10","62b496ea7c06f67ea068d0d3","A3","batch1","","11983","tol_practice","","","","tol_peg_3","11983","11983","0","[[1,0,0],[3,0],[2]]","18","[[0,0,0],[3,1],[2]]","practice","11983","","","","","","","","","","","","","","",""
"","","","","","single-stim-button","54","256257","0.0-2.0-5.11-0.11","62b496ea7c06f67ea068d0d3","A3","batch1","","200","tol_practice","","","","tol_peg_3","200","200","0","[[1,0,0],[3,0],[0]]","19","[[0,0,0],[3,1],[2]]","practice","200","","","","","","","","","","","","","","",""
"","","","","","single-stim-button","55","256761","0.0-2.0-5.11-1.11","62b496ea7c06f67ea068d0d3","A3","batch1","","504","tol_practice","","","","tol_peg_3","504","504","0","[[1,0,0],[3,0],[2]]","19","[[0,0,0],[3,1],[2]]","practice","504","","","","","","","","","","","","","","",""
"","","","","","single-stim-button","56","259704","0.0-2.0-5.12-0.12","62b496ea7c06f67ea068d0d3","A3","batch1","","2942","tol_practice","","","","tol_peg_1","2942","2942","0","[[0,0,0],[3,0],[2]]","20","[[0,0,0],[3,1],[2]]","practice","2942","","","","","","","","","","","","","","",""
"","","","","","single-stim-button","57","259904","0.0-2.0-5.12-1.12","62b496ea7c06f67ea068d0d3","A3","batch1","","200","tol_practice","","","","tol_peg_1","200","200","0","[[1,0,0],[3,0],[2]]","20","[[0,0,0],[3,1],[2]]","practice","200","","","","","","","","","","","","","","",""
"","","","","","single-stim-button","58","260569","0.0-2.0-5.13-0.13","62b496ea7c06f67ea068d0d3","A3","batch1","","664","tol_practice","","","","tol_peg_1","664","664","0","[[0,0,0],[3,0],[2]]","21","[[0,0,0],[3,1],[2]]","practice","664","","","","","","","","","","","","","","",""
"","","","","","single-stim-button","59","264192","0.0-2.0-5.13-1.13","62b496ea7c06f67ea068d0d3","A3","batch1","","3623","tol_practice","","","","tol_peg_2","3623","3623","0","[[0,0,0],[3,1],[2]]","21","[[0,0,0],[3,1],[2]]","practice","3623","","","","","","","","","","","","","","",""
"","","","","","poldrack-single-stim","60","265198","0.0-2.0-6.0","62b496ea7c06f67ea068d0d3","A3","batch1","","-1","tol_feedback","","","true","","1000","1000","500","","","","","","-1","none","true","","0","","","","","","","","","",""
"","","","","","single-stim-button","61","268937","0.0-2.0-7.0-0.0","62b496ea7c06f67ea068d0d3","A3","batch1","","3738","tol_practice","","","","tol_peg_2","3738","3738","0","[[1,2,0],[0,0],[0]]","22","[[1,0,0],[2,0],[3]]","practice","3738","","","","","","","","","","","","","","",""
"","","","","","single-stim-button","62","270745","0.0-2.0-7.0-1.0","62b496ea7c06f67ea068d0d3","A3","batch1","","1807","tol_practice","","","","tol_peg_1","1807","1807","0","[[1,2,3],[0,0],[0]]","22","[[1,0,0],[2,0],[3]]","practice","1807","","","","","","","","","","","","","","",""
"","","","","","single-stim-button","63","270953","0.0-2.0-7.1-0.1","62b496ea7c06f67ea068d0d3","A3","batch1","","207","tol_practice","","","","tol_peg_1","207","207","0","[[1,2,0],[0,0],[0]]","23","[[1,0,0],[2,0],[3]]","practice","207","","","","","","","","","","","","","","",""
"","","","","","single-stim-button","64","271633","0.0-2.0-7.1-1.1","62b496ea7c06f67ea068d0d3","A3","batch1","","679","tol_practice","","","","tol_peg_1","679","679","0","[[1,2,3],[0,0],[0]]","23","[[1,0,0],[2,0],[3]]","practice","679","","","","","","","","","","","","","","",""
"","","","","","single-stim-button","65","272336","0.0-2.0-7.2-0.2","62b496ea7c06f67ea068d0d3","A3","batch1","","703","tol_practice","","","","tol_peg_1","703","703","0","[[1,2,0],[0,0],[0]]","24","[[1,0,0],[2,0],[3]]","practice","703","","","","","","","","","","","","","","",""
"","","","","","single-stim-button","66","272512","0.0-2.0-7.2-1.2","62b496ea7c06f67ea068d0d3","A3","batch1","","175","tol_practice","","","","tol_peg_1","175","175","0","[[1,2,3],[0,0],[0]]","24","[[1,0,0],[2,0],[3]]","practice","175","","","","","","","","","","","","","","",""
"","","","","","single-stim-button","67","273169","0.0-2.0-7.3-0.3","62b496ea7c06f67ea068d0d3","A3","batch1","","655","tol_practice","","","","tol_peg_1","655","655","0","[[1,2,0],[0,0],[0]]","25","[[1,0,0],[2,0],[3]]","practice","655","","","","","","","","","","","","","","",""
"","","","","","single-stim-button","68","273369","0.0-2.0-7.3-1.3","62b496ea7c06f67ea068d0d3","A3","batch1","","199","tol_practice","","","","tol_peg_1","199","199","0","[[1,2,3],[0,0],[0]]","25","[[1,0,0],[2,0],[3]]","practice","199","","","","","","","","","","","","","","",""
"","","","","","single-stim-button","69","274376","0.0-2.0-7.4-0.4","62b496ea7c06f67ea068d0d3","A3","batch1","","1006","tol_practice","","","","tol_peg_1","1006","1006","0","[[1,2,0],[0,0],[0]]","26","[[1,0,0],[2,0],[3]]","practice","1006","","","","","","","","","","","","","","",""
"","","","","","single-stim-button","70","274568","0.0-2.0-7.4-1.4","62b496ea7c06f67ea068d0d3","A3","batch1","","192","tol_practice","","","","tol_peg_1","192","192","0","[[1,2,3],[0,0],[0]]","26","[[1,0,0],[2,0],[3]]","practice","192","","","","","","","","","","","","","","",""
"","","","","","single-stim-button","71","275304","0.0-2.0-7.5-0.5","62b496ea7c06f67ea068d0d3","A3","batch1","","735","tol_practice","","","","tol_peg_1","735","735","0","[[1,2,0],[0,0],[0]]","27","[[1,0,0],[2,0],[3]]","practice","735","","","","","","","","","","","","","","",""
"","","","","","single-stim-button","72","276672","0.0-2.0-7.5-1.5","62b496ea7c06f67ea068d0d3","A3","batch1","","1366","tol_practice","","","","tol_peg_2","1366","1366","0","[[1,2,0],[3,0],[0]]","27","[[1,0,0],[2,0],[3]]","practice","1366","","","","","","","","","","","","","","",""
"","","","","","single-stim-button","73","276856","0.0-2.0-7.6-0.6","62b496ea7c06f67ea068d0d3","A3","batch1","","184","tol_practice","","","","tol_peg_2","184","184","0","[[1,2,0],[0,0],[0]]","28","[[1,0,0],[2,0],[3]]","practice","184","","","","","","","","","","","","","","",""
"","","","","","single-stim-button","74","277793","0.0-2.0-7.6-1.6","62b496ea7c06f67ea068d0d3","A3","batch1","","936","tol_practice","","","","tol_peg_2","936","936","0","[[1,2,0],[3,0],[0]]","28","[[1,0,0],[2,0],[3]]","practice","936","","","","","","","","","","","","","","",""
"","","","","","single-stim-button","75","278873","0.0-2.0-7.7-0.7","62b496ea7c06f67ea068d0d3","A3","batch1","","1079","tol_practice","","","","tol_peg_1","1079","1079","0","[[1,0,0],[3,0],[0]]","29","[[1,0,0],[2,0],[3]]","practice","1079","","","","","","","","","","","","","","",""
"","","","","","single-stim-button","76","280271","0.0-2.0-7.7-1.7","62b496ea7c06f67ea068d0d3","A3","batch1","","1398","tol_practice","","","","tol_peg_2","1398","1398","0","[[1,0,0],[3,2],[0]]","29","[[1,0,0],[2,0],[3]]","practice","1398","","","","","","","","","","","","","","",""
"","","","","","single-stim-button","77","280456","0.0-2.0-7.8-0.8","62b496ea7c06f67ea068d0d3","A3","batch1","","184","tol_practice","","","","tol_peg_2","184","184","0","[[1,0,0],[3,0],[0]]","30","[[1,0,0],[2,0],[3]]","practice","184","","","","","","","","","","","","","","",""
"","","","","","single-stim-button","78","281025","0.0-2.0-7.8-1.8","62b496ea7c06f67ea068d0d3","A3","batch1","","569","tol_practice","","","","tol_peg_2","569","569","0","[[1,0,0],[3,2],[0]]","30","[[1,0,0],[2,0],[3]]","practice","569","","","","","","","","","","","","","","",""
"","","","","","single-stim-button","79","281977","0.0-2.0-7.9-0.9","62b496ea7c06f67ea068d0d3","A3","batch1","","951","tol_practice","","","","tol_peg_1","951","951","0","[[0,0,0],[3,2],[0]]","31","[[1,0,0],[2,0],[3]]","practice","951","","","","","","","","","","","","","","",""
"","","","","","single-stim-button","80","282169","0.0-2.0-7.9-1.9","62b496ea7c06f67ea068d0d3","A3","batch1","","192","tol_practice","","","","tol_peg_1","192","192","0","[[1,0,0],[3,2],[0]]","31","[[1,0,0],[2,0],[3]]","practice","192","","","","","","","","","","","","","","",""
"","","","","","single-stim-button","81","282680","0.0-2.0-7.10-0.10","62b496ea7c06f67ea068d0d3","A3","batch1","","511","tol_practice","","","","tol_peg_1","511","511","0","[[0,0,0],[3,2],[0]]","32","[[1,0,0],[2,0],[3]]","practice","511","","","","","","","","","","","","","","",""
"","","","","","single-stim-button","82","289657","0.0-2.0-7.10-1.10","62b496ea7c06f67ea068d0d3","A3","batch1","","6977","tol_practice","","","","tol_peg_1","6977","6977","0","[[1,0,0],[3,2],[0]]","32","[[1,0,0],[2,0],[3]]","practice","6977","","","","","","","","","","","","","","",""
"","","","","","single-stim-button","83","289840","0.0-2.0-7.11-0.11","62b496ea7c06f67ea068d0d3","A3","batch1","","183","tol_practice","","","","tol_peg_1","183","183","0","[[0,0,0],[3,2],[0]]","33","[[1,0,0],[2,0],[3]]","practice","183","","","","","","","","","","","","","","",""
"","","","","","single-stim-button","84","290320","0.0-2.0-7.11-1.11","62b496ea7c06f67ea068d0d3","A3","batch1","","479","tol_practice","","","","tol_peg_1","479","479","0","[[1,0,0],[3,2],[0]]","33","[[1,0,0],[2,0],[3]]","practice","479","","","","","","","","","","","","","","",""
"","","","","","single-stim-button","85","290681","0.0-2.0-7.12-0.12","62b496ea7c06f67ea068d0d3","A3","batch1","","361","tol_practice","","","","tol_peg_1","361","361","0","[[0,0,0],[3,2],[0]]","34","[[1,0,0],[2,0],[3]]","practice","361","","","","","","","","","","","","","","",""
"","","","","","single-stim-button","86","291152","0.0-2.0-7.12-1.12","62b496ea7c06f67ea068d0d3","A3","batch1","","470","tol_practice","","","","tol_peg_1","470","470","0","[[1,0,0],[3,2],[0]]","34","[[1,0,0],[2,0],[3]]","practice","470","","","","","","","","","","","","","","",""
"","","","","","single-stim-button","87","292344","0.0-2.0-7.13-0.13","62b496ea7c06f67ea068d0d3","A3","batch1","","1192","tol_practice","","","","tol_peg_2","1192","1192","0","[[1,0,0],[3,0],[0]]","35","[[1,0,0],[2,0],[3]]","practice","1192","","","","","","","","","","","","","","",""
"","","","","","single-stim-button","88","292545","0.0-2.0-7.13-1.13","62b496ea7c06f67ea068d0d3","A3","batch1","","200","tol_practice","","","","tol_peg_2","200","200","0","[[1,0,0],[3,2],[0]]","35","[[1,0,0],[2,0],[3]]","practice","200","","","","","","","","","","","","","","",""
"","","","","","single-stim-button","89","293136","0.0-2.0-7.14-0.14","62b496ea7c06f67ea068d0d3","A3","batch1","","591","tol_practice","","","","tol_peg_2","591","591","0","[[1,0,0],[3,0],[0]]","36","[[1,0,0],[2,0],[3]]","practice","591","","","","","","","","","","","","","","",""
"","","","","","single-stim-button","90","294280","0.0-2.0-7.14-1.14","62b496ea7c06f67ea068d0d3","A3","batch1","","1144","tol_practice","","","","tol_peg_1","1144","1144","0","[[1,2,0],[3,0],[0]]","36","[[1,0,0],[2,0],[3]]","practice","1144","","","","","","","","","","","","","","",""
"","","","","","single-stim-button","91","294473","0.0-2.0-7.15-0.15","62b496ea7c06f67ea068d0d3","A3","batch1","","192","tol_practice","","","","tol_peg_1","192","192","0","[[1,0,0],[3,0],[0]]","37","[[1,0,0],[2,0],[3]]","practice","192","","","","","","","","","","","","","","",""
"","","","","","single-stim-button","92","295360","0.0-2.0-7.15-1.15","62b496ea7c06f67ea068d0d3","A3","batch1","","887","tol_practice","","","","tol_peg_2","887","887","0","[[1,0,0],[3,2],[0]]","37","[[1,0,0],[2,0],[3]]","practice","887","","","","","","","","","","","","","","",""
"","","","","","single-stim-button","93","296721","0.0-2.0-7.16-0.16","62b496ea7c06f67ea068d0d3","A3","batch1","","1361","tol_practice","","","","tol_peg_1","1361","1361","0","[[0,0,0],[3,2],[0]]","38","[[1,0,0],[2,0],[3]]","practice","1361","","","","","","","","","","","","","","",""
"","","","","","single-stim-button","94","297200","0.0-2.0-7.16-1.16","62b496ea7c06f67ea068d0d3","A3","batch1","","478","tol_practice","","","","tol_peg_1","478","478","0","[[1,0,0],[3,2],[0]]","38","[[1,0,0],[2,0],[3]]","practice","478","","","","","","","","","","","","","","",""
"","","","","","single-stim-button","95","297824","0.0-2.0-7.17-0.17","62b496ea7c06f67ea068d0d3","A3","batch1","","624","tol_practice","","","","tol_peg_1","624","624","0","[[0,0,0],[3,2],[0]]","39","[[1,0,0],[2,0],[3]]","practice","624","","","","","","","","","","","","","","",""
"","","","","","single-stim-button","96","298344","0.0-2.0-7.17-1.17","62b496ea7c06f67ea068d0d3","A3","batch1","","518","tol_practice","","","","tol_peg_1","518","518","0","[[1,0,0],[3,2],[0]]","39","[[1,0,0],[2,0],[3]]","practice","518","","","","","","","","","","","","","","",""
"","","","","","single-stim-button","97","298528","0.0-2.0-7.18-0.18","62b496ea7c06f67ea068d0d3","A3","batch1","","184","tol_practice","","","","tol_peg_1","184","184","0","[[0,0,0],[3,2],[0]]","40","[[1,0,0],[2,0],[3]]","practice","184","","","","","","","","","","","","","","",""
"","","","","","single-stim-button","98","298936","0.0-2.0-7.18-1.18","62b496ea7c06f67ea068d0d3","A3","batch1","","408","tol_practice","","","","tol_peg_1","408","408","0","[[1,0,0],[3,2],[0]]","40","[[1,0,0],[2,0],[3]]","practice","408","","","","","","","","","","","","","","",""
"","","","","","single-stim-button","99","299864","0.0-2.0-7.19-0.19","62b496ea7c06f67ea068d0d3","A3","batch1","","927","tol_practice","","","","tol_peg_2","927","927","0","[[1,0,0],[3,0],[0]]","41","[[1,0,0],[2,0],[3]]","practice","927","","","","","","","","","","","","","","",""
"","","","","","single-stim-button","100","300152","0.0-2.0-7.19-1.19","62b496ea7c06f67ea068d0d3","A3","batch1","","287","tol_practice","","","","tol_peg_2","287","287","0","[[1,0,0],[3,2],[0]]","41","[[1,0,0],[2,0],[3]]","practice","287","","","","","","","","","","","","","","",""
"","","","","","single-stim-button","101","300816","0.0-2.0-7.20-0.20","62b496ea7c06f67ea068d0d3","A3","batch1","","663","tol_practice","","","","tol_peg_2","663","663","0","[[1,0,0],[3,0],[0]]","42","[[1,0,0],[2,0],[3]]","practice","663","","","","","","","","","","","","","","",""
"","","","","","single-stim-button","102","301800","0.0-2.0-7.20-1.20","62b496ea7c06f67ea068d0d3","A3","batch1","","984","tol_practice","","","","tol_peg_1","984","984","0","[[1,2,0],[3,0],[0]]","42","[[1,0,0],[2,0],[3]]","practice","984","","","","","","","","","","","","","","",""
"","","","","","single-stim-button","103","303784","0.0-2.0-7.21-0.21","62b496ea7c06f67ea068d0d3","A3","batch1","","1984","tol_practice","","","","tol_peg_2","1984","1984","0","[[1,2,0],[0,0],[0]]","43","[[1,0,0],[2,0],[3]]","practice","1984","","","","","","","","","","","","","","",""
"","","","","","single-stim-button","104","304977","0.0-2.0-7.21-1.21","62b496ea7c06f67ea068d0d3","A3","batch1","","1192","tol_practice","","","","tol_peg_1","1192","1192","0","[[1,2,3],[0,0],[0]]","43","[[1,0,0],[2,0],[3]]","practice","1192","","","","","","","","","","","","","","",""
"","","","","","single-stim-button","105","308889","0.0-2.0-7.22-0.22","62b496ea7c06f67ea068d0d3","A3","batch1","","3911","tol_practice","","","","tol_peg_1","3911","3911","0","[[1,2,0],[0,0],[0]]","44","[[1,0,0],[2,0],[3]]","practice","3911","","","","","","","","","","","","","","",""
"","","","","","single-stim-button","106","309913","0.0-2.0-7.22-1.22","62b496ea7c06f67ea068d0d3","A3","batch1","","1023","tol_practice","","","","tol_peg_2","1023","1023","0","[[1,2,0],[3,0],[0]]","44","[[1,0,0],[2,0],[3]]","practice","1023","","","","","","","","","","","","","","",""
"","","","","","single-stim-button","107","311192","0.0-2.0-7.23-0.23","62b496ea7c06f67ea068d0d3","A3","batch1","","1279","tol_practice","","","","tol_peg_1","1279","1279","0","[[1,0,0],[3,0],[0]]","45","[[1,0,0],[2,0],[3]]","practice","1279","","","","","","","","","","","","","","",""
"","","","","","single-stim-button","108","312528","0.0-2.0-7.23-1.23","62b496ea7c06f67ea068d0d3","A3","batch1","","1336","tol_practice","","","","tol_peg_2","1336","1336","0","[[1,0,0],[3,2],[0]]","45","[[1,0,0],[2,0],[3]]","practice","1336","","","","","","","","","","","","","","",""
"","","","","","single-stim-button","109","313744","0.0-2.0-7.24-0.24","62b496ea7c06f67ea068d0d3","A3","batch1","","1216","tol_practice","","","","tol_peg_1","1216","1216","0","[[0,0,0],[3,2],[0]]","46","[[1,0,0],[2,0],[3]]","practice","1216","","","","","","","","","","","","","","",""
"","","","","","single-stim-button","110","315824","0.0-2.0-7.24-1.24","62b496ea7c06f67ea068d0d3","A3","batch1","","2079","tol_practice","","","","tol_peg_3","2079","2079","0","[[0,0,0],[3,2],[1]]","46","[[1,0,0],[2,0],[3]]","practice","2079","","","","","","","","","","","","","","",""
"","","","","","single-stim-button","111","318663","0.0-2.0-7.25-0.25","62b496ea7c06f67ea068d0d3","A3","batch1","","2838","tol_practice","","","","tol_peg_2","2838","2838","0","[[0,0,0],[3,0],[1]]","47","[[1,0,0],[2,0],[3]]","practice","2838","","","","","","","","","","","","","","",""
"","","","","","single-stim-button","112","324736","0.0-2.0-7.25-1.25","62b496ea7c06f67ea068d0d3","A3","batch1","","6073","tol_practice","","","","tol_peg_2","6073","6073","0","[[0,0,0],[3,2],[1]]","47","[[1,0,0],[2,0],[3]]","practice","6073","","","","","","","","","","","","","","",""
"","","","","","single-stim-button","113","324920","0.0-2.0-7.26-0.26","62b496ea7c06f67ea068d0d3","A3","batch1","","183","tol_practice","","","","tol_peg_2","183","183","0","[[0,0,0],[3,0],[1]]","48","[[1,0,0],[2,0],[3]]","practice","183","","","","","","","","","","","","","","",""
"","","","","","single-stim-button","114","325400","0.0-2.0-7.26-1.26","62b496ea7c06f67ea068d0d3","A3","batch1","","479","tol_practice","","","","tol_peg_2","479","479","0","[[0,0,0],[3,2],[1]]","48","[[1,0,0],[2,0],[3]]","practice","479","","","","","","","","","","","","","","",""
"","","","","","single-stim-button","115","326816","0.0-2.0-7.27-0.27","62b496ea7c06f67ea068d0d3","A3","batch1","","1416","tol_practice","","","","tol_peg_3","1416","1416","0","[[0,0,0],[3,2],[0]]","49","[[1,0,0],[2,0],[3]]","practice","1416","","","","","","","","","","","","","","",""
"","","","","","single-stim-button","116","334479","0.0-2.0-7.27-1.27","62b496ea7c06f67ea068d0d3","A3","batch1","","7663","tol_practice","","","","tol_peg_3","7663","7663","0","[[0,0,0],[3,2],[1]]","49","[[1,0,0],[2,0],[3]]","practice","7663","","","","","","","","","","","","","","",""
"","","","","","single-stim-button","117","337200","0.0-2.0-7.28-0.28","62b496ea7c06f67ea068d0d3","A3","batch1","","2720","tol_practice","","","","tol_peg_2","2720","2720","0","[[0,0,0],[3,0],[1]]","50","[[1,0,0],[2,0],[3]]","practice","2720","","","","","","","","","","","","","","",""
"","","","","","single-stim-button","118","338280","0.0-2.0-7.28-1.28","62b496ea7c06f67ea068d0d3","A3","batch1","","1079","tol_practice","","","","tol_peg_1","1079","1079","0","[[2,0,0],[3,0],[1]]","50","[[1,0,0],[2,0],[3]]","practice","1079","","","","","","","","","","","","","","",""
"","","","","","single-stim-button","119","347088","0.0-2.0-7.29-0.29","62b496ea7c06f67ea068d0d3","A3","batch1","","8807","tol_practice","","","","tol_peg_2","8807","8807","0","[[2,0,0],[0,0],[1]]","51","[[1,0,0],[2,0],[3]]","practice","8807","","","","","","","","","","","","","","",""
"","","","","","single-stim-button","120","348991","0.0-2.0-7.29-1.29","62b496ea7c06f67ea068d0d3","A3","batch1","","1903","tol_practice","","","","tol_peg_1","1903","1903","0","[[2,3,0],[0,0],[1]]","51","[[1,0,0],[2,0],[3]]","practice","1903","","","","","","","","","","","","","","",""
"","","","","","single-stim-button","121","351016","0.0-2.0-7.30-0.30","62b496ea7c06f67ea068d0d3","A3","batch1","","2023","tol_practice","","","","tol_peg_3","2023","2023","0","[[2,3,0],[0,0],[0]]","52","[[1,0,0],[2,0],[3]]","practice","2023","","","","","","","","","","","","","","",""
"","","","","","single-stim-button","122","352551","0.0-2.0-7.30-1.30","62b496ea7c06f67ea068d0d3","A3","batch1","","1535","tol_practice","","","","tol_peg_1","1535","1535","0","[[2,3,1],[0,0],[0]]","52","[[1,0,0],[2,0],[3]]","practice","1535","","","","","","","","","","","","","","",""
"","","","","","single-stim-button","123","353864","0.0-2.0-7.31-0.31","62b496ea7c06f67ea068d0d3","A3","batch1","","1313","tol_practice","","","","tol_peg_1","1313","1313","0","[[2,3,0],[0,0],[0]]","53","[[1,0,0],[2,0],[3]]","practice","1313","","","","","","","","","","","","","","",""
"","","","","","single-stim-button","124","355400","0.0-2.0-7.31-1.31","62b496ea7c06f67ea068d0d3","A3","batch1","","1536","tol_practice","","","","tol_peg_3","1536","1536","0","[[2,3,0],[0,0],[1]]","53","[[1,0,0],[2,0],[3]]","practice","1536","","","","","","","","","","","","","","",""
"","","","","","single-stim-button","125","357807","0.0-2.0-7.32-0.32","62b496ea7c06f67ea068d0d3","A3","batch1","","2407","tol_practice","","","","tol_peg_1","2407","2407","0","[[2,0,0],[0,0],[1]]","54","[[1,0,0],[2,0],[3]]","practice","2407","","","","","","","","","","","","","","",""
"","","","","","single-stim-button","126","360799","0.0-2.0-7.32-1.32","62b496ea7c06f67ea068d0d3","A3","batch1","","2992","tol_practice","","","","tol_peg_1","2992","2992","0","[[2,3,0],[0,0],[1]]","54","[[1,0,0],[2,0],[3]]","practice","2992","","","","","","","","","","","","","","",""
"","","","","","single-stim-button","127","361679","0.0-2.0-7.33-0.33","62b496ea7c06f67ea068d0d3","A3","batch1","","880","tol_practice","","","","tol_peg_1","880","880","0","[[2,0,0],[0,0],[1]]","55","[[1,0,0],[2,0],[3]]","practice","880","","","","","","","","","","","","","","",""
"","","","","","single-stim-button","128","364183","0.0-2.0-7.33-1.33","62b496ea7c06f67ea068d0d3","A3","batch1","","2504","tol_practice","","","","tol_peg_2","2504","2504","0","[[2,0,0],[3,0],[1]]","55","[[1,0,0],[2,0],[3]]","practice","2504","","","","","","","","","","","","","","",""
"","","","","","single-stim-button","129","365320","0.0-2.0-7.34-0.34","62b496ea7c06f67ea068d0d3","A3","batch1","","1136","tol_practice","","","","tol_peg_1","1136","1136","0","[[0,0,0],[3,0],[1]]","56","[[1,0,0],[2,0],[3]]","practice","1136","","","","","","","","","","","","","","",""
"","","","","","single-stim-button","130","366552","0.0-2.0-7.34-1.34","62b496ea7c06f67ea068d0d3","A3","batch1","","1230","tol_practice","","","","tol_peg_2","1230","1230","0","[[0,0,0],[3,2],[1]]","56","[[1,0,0],[2,0],[3]]","practice","1230","","","","","","","","","","","","","","",""
"","","","","","single-stim-button","131","368143","0.0-2.0-7.35-0.35","62b496ea7c06f67ea068d0d3","A3","batch1","","1591","tol_practice","","","","tol_peg_2","1591","1591","0","[[0,0,0],[3,0],[1]]","57","[[1,0,0],[2,0],[3]]","practice","1591","","","","","","","","","","","","","","",""
"","","","","","single-stim-button","132","369679","0.0-2.0-7.35-1.35","62b496ea7c06f67ea068d0d3","A3","batch1","","1535","tol_practice","","","","tol_peg_2","1535","1535","0","[[0,0,0],[3,2],[1]]","57","[[1,0,0],[2,0],[3]]","practice","1535","","","","","","","","","","","","","","",""
"","","","","","single-stim-button","133","377048","0.0-2.0-7.36-0.36","62b496ea7c06f67ea068d0d3","A3","batch1","","7367","tol_practice","","","","tol_peg_3","7367","7367","0","[[0,0,0],[3,2],[0]]","58","[[1,0,0],[2,0],[3]]","practice","7367","","","","","","","","","","","","","","",""
"","","","","","single-stim-button","134","378471","0.0-2.0-7.36-1.36","62b496ea7c06f67ea068d0d3","A3","batch1","","1423","tol_practice","","","","tol_peg_1","1423","1423","0","[[1,0,0],[3,2],[0]]","58","[[1,0,0],[2,0],[3]]","practice","1423","","","","","","","","","","","","","","",""
"","","","","","single-stim-button","135","382432","0.0-2.0-7.37-0.37","62b496ea7c06f67ea068d0d3","A3","batch1","","3960","tol_practice","","","","tol_peg_2","3960","3960","0","[[1,0,0],[3,0],[0]]","59","[[1,0,0],[2,0],[3]]","practice","3960","","","","","","","","","","","","","","",""
"","","","","","single-stim-button","136","386119","0.0-2.0-7.37-1.37","62b496ea7c06f67ea068d0d3","A3","batch1","","3687","tol_practice","","","","tol_peg_1","3687","3687","0","[[1,2,0],[3,0],[0]]","59","[[1,0,0],[2,0],[3]]","practice","3687","","","","","","","","","","","","","","",""
"","","","","","single-stim-button","137","387471","0.0-2.0-7.38-0.38","62b496ea7c06f67ea068d0d3","A3","batch1","","1352","tol_practice","","","","tol_peg_2","1352","1352","0","[[1,2,0],[0,0],[0]]","60","[[1,0,0],[2,0],[3]]","practice","1352","","","","","","","","","","","","","","",""
"","","","","","single-stim-button","138","389200","0.0-2.0-7.38-1.38","62b496ea7c06f67ea068d0d3","A3","batch1","","1728","tol_practice","","","","tol_peg_3","1728","1728","0","[[1,2,0],[0,0],[3]]","60","[[1,0,0],[2,0],[3]]","practice","1728","","","","","","","","","","","","","","",""
"","","","","","single-stim-button","139","392199","0.0-2.0-7.39-0.39","62b496ea7c06f67ea068d0d3","A3","batch1","","2998","tol_practice","","","","tol_peg_1","2998","2998","0","[[1,0,0],[0,0],[3]]","61","[[1,0,0],[2,0],[3]]","practice","2998","","","","","","","","","","","","","","",""
"","","","","","single-stim-button","140","393415","0.0-2.0-7.39-1.39","62b496ea7c06f67ea068d0d3","A3","batch1","","1216","tol_practice","","","","tol_peg_2","1216","1216","0","[[1,0,0],[2,0],[3]]","61","[[1,0,0],[2,0],[3]]","practice","1216","","","","","","","","","","","","","","",""
"","","","","","poldrack-single-stim","141","394426","0.0-2.0-8.0","62b496ea7c06f67ea068d0d3","A3","batch1","","-1","tol_feedback","","","true","","1000","1000","500","","","","","","-1","none","true","","0","","","","","","","","","",""
"","","","","","html-button-response","142","397966","0.0-2.0-9.0","62b496ea7c06f67ea068d0d3","A3","batch1","","3540","tol_instruction","<div class = centerbox><p class = center-block-text>Great job! You are done with practice trials<br>You are about to start official trials.<br> <br> Problem <strong>1</strong> out of 25 problems</p></div>","0","","","","","","","","","","","","","","","","","","","","","","","","",""
"","","","","","single-stim-button","143","406439","0.0-2.0-10.0-0.0","62b496ea7c06f67ea068d0d3","A3","batch1","","7465","tol_tohand","","","","tol_peg_2","7465","7465","0","[[1,2,0],[0,0],[0]]","1","[[1,3,0],[2,0],[0]]","0","0","","","","","","3","","","","","","","","",""
"","","","","","single-stim-button","144","407751","0.0-2.0-10.0-1.0","62b496ea7c06f67ea068d0d3","A3","batch1","","1312","tol_toboard","","","","tol_peg_1","1312","1312","0","[[1,2,3],[0,0],[0]]","1","[[1,3,0],[2,0],[0]]","0","0","","","","","","3","","","","","","","","",""
"","","","","","single-stim-button","145","409304","0.0-2.0-10.1-0.1","62b496ea7c06f67ea068d0d3","A3","batch1","","1552","tol_tohand","","","","tol_peg_1","1552","1552","0","[[1,2,0],[0,0],[0]]","2","[[1,3,0],[2,0],[0]]","0","0","","","","","","3","","","","","","","","",""
"","","","","","single-stim-button","146","410719","0.0-2.0-10.1-1.1","62b496ea7c06f67ea068d0d3","A3","batch1","","1414","tol_toboard","","","","tol_peg_3","1414","1414","0","[[1,2,0],[0,0],[3]]","2","[[1,3,0],[2,0],[0]]","0","0","","","","","","3","","","","","","","","",""
"","","","","","single-stim-button","147","411839","0.0-2.0-10.2-0.2","62b496ea7c06f67ea068d0d3","A3","batch1","","1120","tol_tohand","","","","tol_peg_1","1120","1120","0","[[1,0,0],[0,0],[3]]","3","[[1,3,0],[2,0],[0]]","0","0","","","","","","3","","","","","","","","",""
"","","","","","single-stim-button","148","413455","0.0-2.0-10.2-1.2","62b496ea7c06f67ea068d0d3","A3","batch1","","1616","tol_toboard","","","","tol_peg_2","1616","1616","0","[[1,0,0],[2,0],[3]]","3","[[1,3,0],[2,0],[0]]","0","0","","","","","","3","","","","","","","","",""
"","","","","","single-stim-button","149","415527","0.0-2.0-10.3-0.3","62b496ea7c06f67ea068d0d3","A3","batch1","","2072","tol_tohand","","","","tol_peg_3","2072","2072","0","[[1,0,0],[2,0],[0]]","4","[[1,3,0],[2,0],[0]]","0","0","","","","","","3","","","","","","","","",""
"","","","","","single-stim-button","150","416487","0.0-2.0-10.3-1.3","62b496ea7c06f67ea068d0d3","A3","batch1","","960","tol_toboard","","","","tol_peg_1","960","960","0","[[1,3,0],[2,0],[0]]","4","[[1,3,0],[2,0],[0]]","0","0","","","","","","3","","","","","","","","",""
"","","","","","poldrack-single-stim","151","417495","0.0-2.0-11.0","62b496ea7c06f67ea068d0d3","A3","batch1","","-1","tol_feedback","","","true","","1000","1000","500","","","","","","-1","none","true","7465","12209","","","","","","","","","",""
"","","","","","html-button-response","152","418615","0.0-2.0-12.0","62b496ea7c06f67ea068d0d3","A3","batch1","","1118","tol_trial_num","<div class = centerbox><p class = center-block-text>problem <strong>2</strong> out of 25 problems</p></div>","0","","","","","","","","","","","","","","","","","","","","","","","","",""
"","","","","","single-stim-button","153","424735","0.0-2.0-13.0-0.0","62b496ea7c06f67ea068d0d3","A3","batch1","","6119","tol_tohand","","","","tol_peg_2","6119","6119","0","[[1,2,0],[0,0],[0]]","1","[[2,1,3],[0,0],[0]]","1","0","","","","","","5","","","","","","","","",""
"","","","","","single-stim-button","154","425702","0.0-2.0-13.0-1.0","62b496ea7c06f67ea068d0d3","A3","batch1","","967","tol_toboard","","","","tol_peg_1","967","967","0","[[1,2,3],[0,0],[0]]","1","[[2,1,3],[0,0],[0]]","1","0","","","","","","5","","","","","","","","",""
"","","","","","single-stim-button","155","427039","0.0-2.0-13.1-0.1","62b496ea7c06f67ea068d0d3","A3","batch1","","1335","tol_tohand","","","","tol_peg_1","1335","1335","0","[[1,2,0],[0,0],[0]]","2","[[2,1,3],[0,0],[0]]","1","0","","","","","","5","","","","","","","","",""
"","","","","","single-stim-button","156","429743","0.0-2.0-13.1-1.1","62b496ea7c06f67ea068d0d3","A3","batch1","","2703","tol_toboard","","","","tol_peg_3","2703","2703","0","[[1,2,0],[0,0],[3]]","2","[[2,1,3],[0,0],[0]]","1","0","","","","","","5","","","","","","","","",""
"","","","","","single-stim-button","157","431310","0.0-2.0-13.2-0.2","62b496ea7c06f67ea068d0d3","A3","batch1","","1567","tol_tohand","","","","tol_peg_1","1567","1567","0","[[1,0,0],[0,0],[3]]","3","[[2,1,3],[0,0],[0]]","1","0","","","","","","5","","","","","","","","",""
"","","","","","single-stim-button","158","432967","0.0-2.0-13.2-1.2","62b496ea7c06f67ea068d0d3","A3","batch1","","1657","tol_toboard","","","","tol_peg_2","1657","1657","0","[[1,0,0],[2,0],[3]]","3","[[2,1,3],[0,0],[0]]","1","0","","","","","","5","","","","","","","","",""
"","","","","","single-stim-button","159","433919","0.0-2.0-13.3-0.3","62b496ea7c06f67ea068d0d3","A3","batch1","","951","tol_tohand","","","","tol_peg_1","951","951","0","[[0,0,0],[2,0],[3]]","4","[[2,1,3],[0,0],[0]]","1","0","","","","","","5","","","","","","","","",""
"","","","","","single-stim-button","160","435703","0.0-2.0-13.3-1.3","62b496ea7c06f67ea068d0d3","A3","batch1","","1783","tol_toboard","","","","tol_peg_2","1783","1783","0","[[0,0,0],[2,1],[3]]","4","[[2,1,3],[0,0],[0]]","1","0","","","","","","5","","","","","","","","",""
"","","","","","single-stim-button","161","438982","0.0-2.0-13.4-0.4","62b496ea7c06f67ea068d0d3","A3","batch1","","3279","tol_tohand","","","","tol_peg_2","3279","3279","0","[[0,0,0],[2,0],[3]]","5","[[2,1,3],[0,0],[0]]","1","0","","","","","","5","","","","","","","","",""
"","","","","","single-stim-button","162","440527","0.0-2.0-13.4-1.4","62b496ea7c06f67ea068d0d3","A3","batch1","","1543","tol_toboard","","","","tol_peg_1","1543","1543","0","[[1,0,0],[2,0],[3]]","5","[[2,1,3],[0,0],[0]]","1","0","","","","","","5","","","","","","","","",""
"","","","","","single-stim-button","163","441102","0.0-2.0-13.5-0.5","62b496ea7c06f67ea068d0d3","A3","batch1","","575","tol_tohand","","","","tol_peg_1","575","575","0","[[0,0,0],[2,0],[3]]","6","[[2,1,3],[0,0],[0]]","1","0","","","","","","5","","","","","","","","",""
"","","","","","single-stim-button","164","442319","0.0-2.0-13.5-1.5","62b496ea7c06f67ea068d0d3","A3","batch1","","1216","tol_toboard","","","","tol_peg_2","1216","1216","0","[[0,0,0],[2,1],[3]]","6","[[2,1,3],[0,0],[0]]","1","0","","","","","","5","","","","","","","","",""
"","","","","","single-stim-button","165","442982","0.0-2.0-13.6-0.6","62b496ea7c06f67ea068d0d3","A3","batch1","","663","tol_tohand","","","","tol_peg_2","663","663","0","[[0,0,0],[2,0],[3]]","7","[[2,1,3],[0,0],[0]]","1","0","","","","","","5","","","","","","","","",""
"","","","","","single-stim-button","166","447405","0.0-2.0-13.6-1.6","62b496ea7c06f67ea068d0d3","A3","batch1","","4422","tol_toboard","","","","tol_peg_2","4422","4422","0","[[0,0,0],[2,1],[3]]","7","[[2,1,3],[0,0],[0]]","1","0","","","","","","5","","","","","","","","",""
"","","","","","single-stim-button","167","451879","0.0-2.0-13.7-0.7","62b496ea7c06f67ea068d0d3","A3","batch1","","4473","tol_tohand","","","","tol_peg_2","4473","4473","0","[[0,0,0],[2,0],[3]]","8","[[2,1,3],[0,0],[0]]","1","0","","","","","","5","","","","","","","","",""
"","","","","","single-stim-button","168","453606","0.0-2.0-13.7-1.7","62b496ea7c06f67ea068d0d3","A3","batch1","","1727","tol_toboard","","","","tol_peg_1","1727","1727","0","[[1,0,0],[2,0],[3]]","8","[[2,1,3],[0,0],[0]]","1","0","","","","","","5","","","","","","","","",""
"","","","","","single-stim-button","169","454582","0.0-2.0-13.8-0.8","62b496ea7c06f67ea068d0d3","A3","batch1","","975","tol_tohand","","","","tol_peg_3","975","975","0","[[1,0,0],[2,0],[0]]","9","[[2,1,3],[0,0],[0]]","1","0","","","","","","5","","","","","","","","",""
"","","","","","single-stim-button","170","456111","0.0-2.0-13.8-1.8","62b496ea7c06f67ea068d0d3","A3","batch1","","1529","tol_toboard","","","","tol_peg_1","1529","1529","0","[[1,3,0],[2,0],[0]]","9","[[2,1,3],[0,0],[0]]","1","0","","","","","","5","","","","","","","","",""
"","","","","","single-stim-button","171","457038","0.0-2.0-13.9-0.9","62b496ea7c06f67ea068d0d3","A3","batch1","","927","tol_tohand","","","","tol_peg_2","927","927","0","[[1,3,0],[0,0],[0]]","10","[[2,1,3],[0,0],[0]]","1","0","","","","","","5","","","","","","","","",""
"","","","","","single-stim-button","172","459887","0.0-2.0-13.9-1.9","62b496ea7c06f67ea068d0d3","A3","batch1","","2848","tol_toboard","","","","tol_peg_3","2848","2848","0","[[1,3,0],[0,0],[2]]","10","[[2,1,3],[0,0],[0]]","1","0","","","","","","5","","","","","","","","",""
"","","","","","single-stim-button","173","463271","0.0-2.0-13.10-0.10","62b496ea7c06f67ea068d0d3","A3","batch1","","3383","tol_tohand","","","","tol_peg_1","3383","3383","0","[[1,0,0],[0,0],[2]]","11","[[2,1,3],[0,0],[0]]","1","0","","","","","","5","","","","","","","","",""
"","","","","","single-stim-button","174","464670","0.0-2.0-13.10-1.10","62b496ea7c06f67ea068d0d3","A3","batch1","","1398","tol_toboard","","","","tol_peg_2","1398","1398","0","[[1,0,0],[3,0],[2]]","11","[[2,1,3],[0,0],[0]]","1","0","","","","","","5","","","","","","","","",""
"","","","","","single-stim-button","175","466151","0.0-2.0-13.11-0.11","62b496ea7c06f67ea068d0d3","A3","batch1","","1480","tol_tohand","","","","tol_peg_1","1480","1480","0","[[0,0,0],[3,0],[2]]","12","[[2,1,3],[0,0],[0]]","1","0","","","","","","5","","","","","","","","",""
"","","","","","single-stim-button","176","467207","0.0-2.0-13.11-1.11","62b496ea7c06f67ea068d0d3","A3","batch1","","1055","tol_toboard","","","","tol_peg_2","1055","1055","0","[[0,0,0],[3,1],[2]]","12","[[2,1,3],[0,0],[0]]","1","0","","","","","","5","","","","","","","","",""
"","","","","","single-stim-button","177","468045","0.0-2.0-13.12-0.12","62b496ea7c06f67ea068d0d3","A3","batch1","","838","tol_tohand","","","","tol_peg_3","838","838","0","[[0,0,0],[3,1],[0]]","13","[[2,1,3],[0,0],[0]]","1","0","","","","","","5","","","","","","","","",""
"","","","","","single-stim-button","178","469390","0.0-2.0-13.12-1.12","62b496ea7c06f67ea068d0d3","A3","batch1","","1344","tol_toboard","","","","tol_peg_1","1344","1344","0","[[2,0,0],[3,1],[0]]","13","[[2,1,3],[0,0],[0]]","1","0","","","","","","5","","","","","","","","",""
"","","","","","single-stim-button","179","471830","0.0-2.0-13.13-0.13","62b496ea7c06f67ea068d0d3","A3","batch1","","2439","tol_tohand","","","","tol_peg_2","2439","2439","0","[[2,0,0],[3,0],[0]]","14","[[2,1,3],[0,0],[0]]","1","0","","","","","","5","","","","","","","","",""
"","","","","","single-stim-button","180","472935","0.0-2.0-13.13-1.13","62b496ea7c06f67ea068d0d3","A3","batch1","","1104","tol_toboard","","","","tol_peg_3","1104","1104","0","[[2,0,0],[3,0],[1]]","14","[[2,1,3],[0,0],[0]]","1","0","","","","","","5","","","","","","","","",""
"","","","","","single-stim-button","181","474374","0.0-2.0-13.14-0.14","62b496ea7c06f67ea068d0d3","A3","batch1","","1438","tol_tohand","","","","tol_peg_2","1438","1438","0","[[2,0,0],[0,0],[1]]","15","[[2,1,3],[0,0],[0]]","1","0","","","","","","5","","","","","","","","",""
"","","","","","single-stim-button","182","475918","0.0-2.0-13.14-1.14","62b496ea7c06f67ea068d0d3","A3","batch1","","1544","tol_toboard","","","","tol_peg_2","1544","1544","0","[[2,0,0],[3,0],[1]]","15","[[2,1,3],[0,0],[0]]","1","0","","","","","","5","","","","","","","","",""
"","","","","","single-stim-button","183","476734","0.0-2.0-13.15-0.15","62b496ea7c06f67ea068d0d3","A3","batch1","","816","tol_tohand","","","","tol_peg_3","816","816","0","[[2,0,0],[3,0],[0]]","16","[[2,1,3],[0,0],[0]]","1","0","","","","","","5","","","","","","","","",""
"","","","","","single-stim-button","184","478150","0.0-2.0-13.15-1.15","62b496ea7c06f67ea068d0d3","A3","batch1","","1415","tol_toboard","","","","tol_peg_1","1415","1415","0","[[2,1,0],[3,0],[0]]","16","[[2,1,3],[0,0],[0]]","1","0","","","","","","5","","","","","","","","",""
"","","","","","single-stim-button","185","479038","0.0-2.0-13.16-0.16","62b496ea7c06f67ea068d0d3","A3","batch1","","888","tol_tohand","","","","tol_peg_2","888","888","0","[[2,1,0],[0,0],[0]]","17","[[2,1,3],[0,0],[0]]","1","0","","","","","","5","","","","","","","","",""
"","","","","","single-stim-button","186","480222","0.0-2.0-13.16-1.16","62b496ea7c06f67ea068d0d3","A3","batch1","","1183","tol_toboard","","","","tol_peg_1","1183","1183","0","[[2,1,3],[0,0],[0]]","17","[[2,1,3],[0,0],[0]]","1","0","","","","","","5","","","","","","","","",""
"","","","","","poldrack-single-stim","187","481228","0.0-2.0-14.0","62b496ea7c06f67ea068d0d3","A3","batch1","","-1","tol_feedback","","","true","","1000","1000","500","","","","","","-1","none","true","6119","32146","","","","","","","","","",""
"","","","","","html-button-response","188","482205","0.0-2.0-15.0","62b496ea7c06f67ea068d0d3","A3","batch1","","976","tol_trial_num","<div class = centerbox><p class = center-block-text>problem <strong>3</strong> out of 25 problems</p></div>","0","","","","","","","","","","","","","","","","","","","","","","","","",""
"","","","","","single-stim-button","189","486430","0.0-2.0-16.0-0.0","62b496ea7c06f67ea068d0d3","A3","batch1","","4222","tol_tohand","","","","tol_peg_1","4222","4222","0","[[2,0,0],[0,0],[1]]","1","[[1,2,0],[3,0],[0]]","2","0","","","","","","4","","","","","","","","",""
"","","","","","single-stim-button","190","488286","0.0-2.0-16.0-1.0","62b496ea7c06f67ea068d0d3","A3","batch1","","1855","tol_toboard","","","","tol_peg_2","1855","1855","0","[[2,0,0],[3,0],[1]]","1","[[1,2,0],[3,0],[0]]","2","0","","","","","","4","","","","","","","","",""
"","","","","","single-stim-button","191","490838","0.0-2.0-16.1-0.1","62b496ea7c06f67ea068d0d3","A3","batch1","","2551","tol_tohand","","","","tol_peg_1","2551","2551","0","[[0,0,0],[3,0],[1]]","2","[[1,2,0],[3,0],[0]]","2","0","","","","","","4","","","","","","","","",""
"","","","","","single-stim-button","192","494502","0.0-2.0-16.1-1.1","62b496ea7c06f67ea068d0d3","A3","batch1","","3664","tol_toboard","","","","tol_peg_2","3664","3664","0","[[0,0,0],[3,2],[1]]","2","[[1,2,0],[3,0],[0]]","2","0","","","","","","4","","","","","","","","",""
"","","","","","single-stim-button","193","496070","0.0-2.0-16.2-0.2","62b496ea7c06f67ea068d0d3","A3","batch1","","1568","tol_tohand","","","","tol_peg_3","1568","1568","0","[[0,0,0],[3,2],[0]]","3","[[1,2,0],[3,0],[0]]","2","0","","","","","","4","","","","","","","","",""
"","","","","","single-stim-button","194","497398","0.0-2.0-16.2-1.2","62b496ea7c06f67ea068d0d3","A3","batch1","","1328","tol_toboard","","","","tol_peg_1","1328","1328","0","[[1,0,0],[3,2],[0]]","3","[[1,2,0],[3,0],[0]]","2","0","","","","","","4","","","","","","","","",""
"","","","","","single-stim-button","195","498358","0.0-2.0-16.3-0.3","62b496ea7c06f67ea068d0d3","A3","batch1","","959","tol_tohand","","","","tol_peg_2","959","959","0","[[1,0,0],[3,0],[0]]","4","[[1,2,0],[3,0],[0]]","2","0","","","","","","4","","","","","","","","",""
"","","","","","single-stim-button","196","499245","0.0-2.0-16.3-1.3","62b496ea7c06f67ea068d0d3","A3","batch1","","887","tol_toboard","","","","tol_peg_1","887","887","0","[[1,2,0],[3,0],[0]]","4","[[1,2,0],[3,0],[0]]","2","0","","","","","","4","","","","","","","","",""
"","","","","","poldrack-single-stim","197","500254","0.0-2.0-17.0","62b496ea7c06f67ea068d0d3","A3","batch1","","-1","tol_feedback","","","true","","1000","1000","500","","","","","","-1","none","true","4222","9300","","","","","","","","","",""
"","","","","","html-button-response","198","501149","0.0-2.0-18.0","62b496ea7c06f67ea068d0d3","A3","batch1","","894","tol_trial_num","<div class = centerbox><p class = center-block-text>problem <strong>4</strong> out of 25 problems</p></div>","0","","","","","","","","","","","","","","","","","","","","","","","","",""
"","","","","","single-stim-button","199","508502","0.0-2.0-19.0-0.0","62b496ea7c06f67ea068d0d3","A3","batch1","","7351","tol_tohand","","","","tol_peg_2","7351","7351","0","[[3,0,0],[2,0],[0]]","1","[[3,0,0],[1,0],[2]]","3","0","","","","","","3","","","","","","","","",""
"","","","","","single-stim-button","200","510006","0.0-2.0-19.0-1.0","62b496ea7c06f67ea068d0d3","A3","batch1","","1504","tol_toboard","","","","tol_peg_1","1504","1504","0","[[3,1,0],[2,0],[0]]","1","[[3,0,0],[1,0],[2]]","3","0","","","","","","3","","","","","","","","",""
"","","","","","single-stim-button","201","511549","0.0-2.0-19.1-0.1","62b496ea7c06f67ea068d0d3","A3","batch1","","1543","tol_tohand","","","","tol_peg_2","1543","1543","0","[[3,1,0],[0,0],[0]]","2","[[3,0,0],[1,0],[2]]","3","0","","","","","","3","","","","","","","","",""
"","","","","","single-stim-button","202","512822","0.0-2.0-19.1-1.1","62b496ea7c06f67ea068d0d3","A3","batch1","","1272","tol_toboard","","","","tol_peg_3","1272","1272","0","[[3,1,0],[0,0],[2]]","2","[[3,0,0],[1,0],[2]]","3","0","","","","","","3","","","","","","","","",""
"","","","","","single-stim-button","203","515518","0.0-2.0-19.2-0.2","62b496ea7c06f67ea068d0d3","A3","batch1","","2696","tol_tohand","","","","tol_peg_1","2696","2696","0","[[3,0,0],[0,0],[2]]","3","[[3,0,0],[1,0],[2]]","3","0","","","","","","3","","","","","","","","",""
"","","","","","single-stim-button","204","516549","0.0-2.0-19.2-1.2","62b496ea7c06f67ea068d0d3","A3","batch1","","1031","tol_toboard","","","","tol_peg_2","1031","1031","0","[[3,0,0],[1,0],[2]]","3","[[3,0,0],[1,0],[2]]","3","0","","","","","","3","","","","","","","","",""
"","","","","","poldrack-single-stim","205","517562","0.0-2.0-20.0","62b496ea7c06f67ea068d0d3","A3","batch1","","-1","tol_feedback","","","true","","1000","1000","500","","","","","","-1","none","true","7351","11590","","","","","","","","","",""
"","","","","","html-button-response","206","519437","0.0-2.0-21.0","62b496ea7c06f67ea068d0d3","A3","batch1","","1874","tol_trial_num","<div class = centerbox><p class = center-block-text>problem <strong>5</strong> out of 25 problems</p></div>","0","","","","","","","","","","","","","","","","","","","","","","","","",""
"","","","","","single-stim-button","207","530310","0.0-2.0-22.0-0.0","62b496ea7c06f67ea068d0d3","A3","batch1","","10871","tol_tohand","","","","tol_peg_2","10871","10871","0","[[1,0,0],[0,0],[3]]","1","[[0,0,0],[1,2],[3]]","4","0","","","","","","7","","","","","","","","",""
"","","","","","single-stim-button","208","531958","0.0-2.0-22.0-1.0","62b496ea7c06f67ea068d0d3","A3","batch1","","1648","tol_toboard","","","","tol_peg_1","1648","1648","0","[[1,2,0],[0,0],[3]]","1","[[0,0,0],[1,2],[3]]","4","0","","","","","","7","","","","","","","","",""
"","","","","","single-stim-button","209","534973","0.0-2.0-22.1-0.1","62b496ea7c06f67ea068d0d3","A3","batch1","","3014","tol_tohand","","","","tol_peg_1","3014","3014","0","[[1,0,0],[0,0],[3]]","2","[[0,0,0],[1,2],[3]]","4","0","","","","","","7","","","","","","","","",""
"","","","","","single-stim-button","210","537310","0.0-2.0-22.1-1.1","62b496ea7c06f67ea068d0d3","A3","batch1","","2337","tol_toboard","","","","tol_peg_1","2337","2337","0","[[1,2,0],[0,0],[3]]","2","[[0,0,0],[1,2],[3]]","4","0","","","","","","7","","","","","","","","",""
"","","","","","single-stim-button","211","549461","0.0-2.0-22.2-0.2","62b496ea7c06f67ea068d0d3","A3","batch1","","12151","tol_tohand","","","","tol_peg_1","12151","12151","0","[[1,0,0],[0,0],[3]]","3","[[0,0,0],[1,2],[3]]","4","0","","","","","","7","","","","","","","","",""
"","","","","","single-stim-button","212","553141","0.0-2.0-22.2-1.2","62b496ea7c06f67ea068d0d3","A3","batch1","","3678","tol_toboard","","","","tol_peg_2","3678","3678","0","[[1,0,0],[2,0],[3]]","3","[[0,0,0],[1,2],[3]]","4","0","","","","","","7","","","","","","","","",""
"","","","","","single-stim-button","213","554022","0.0-2.0-22.3-0.3","62b496ea7c06f67ea068d0d3","A3","batch1","","880","tol_tohand","","","","tol_peg_1","880","880","0","[[0,0,0],[2,0],[3]]","4","[[0,0,0],[1,2],[3]]","4","0","","","","","","7","","","","","","","","",""
"","","","","","single-stim-button","214","555893","0.0-2.0-22.3-1.3","62b496ea7c06f67ea068d0d3","A3","batch1","","1871","tol_toboard","","","","tol_peg_2","1871","1871","0","[[0,0,0],[2,1],[3]]","4","[[0,0,0],[1,2],[3]]","4","0","","","","","","7","","","","","","","","",""
"","","","","","single-stim-button","215","557469","0.0-2.0-22.4-0.4","62b496ea7c06f67ea068d0d3","A3","batch1","","1575","tol_tohand","","","","tol_peg_3","1575","1575","0","[[0,0,0],[2,1],[0]]","5","[[0,0,0],[1,2],[3]]","4","0","","","","","","7","","","","","","","","",""
"","","","","","single-stim-button","216","558701","0.0-2.0-22.4-1.4","62b496ea7c06f67ea068d0d3","A3","batch1","","1232","tol_toboard","","","","tol_peg_1","1232","1232","0","[[3,0,0],[2,1],[0]]","5","[[0,0,0],[1,2],[3]]","4","0","","","","","","7","","","","","","","","",""
"","","","","","single-stim-button","217","560509","0.0-2.0-22.5-0.5","62b496ea7c06f67ea068d0d3","A3","batch1","","1808","tol_tohand","","","","tol_peg_2","1808","1808","0","[[3,0,0],[2,0],[0]]","6","[[0,0,0],[1,2],[3]]","4","0","","","","","","7","","","","","","","","",""
"","","","","","single-stim-button","218","561749","0.0-2.0-22.5-1.5","62b496ea7c06f67ea068d0d3","A3","batch1","","1240","tol_toboard","","","","tol_peg_3","1240","1240","0","[[3,0,0],[2,0],[1]]","6","[[0,0,0],[1,2],[3]]","4","0","","","","","","7","","","","","","","","",""
"","","","","","single-stim-button","219","562797","0.0-2.0-22.6-0.6","62b496ea7c06f67ea068d0d3","A3","batch1","","1048","tol_tohand","","","","tol_peg_2","1048","1048","0","[[3,0,0],[0,0],[1]]","7","[[0,0,0],[1,2],[3]]","4","0","","","","","","7","","","","","","","","",""
"","","","","","single-stim-button","220","565334","0.0-2.0-22.6-1.6","62b496ea7c06f67ea068d0d3","A3","batch1","","2536","tol_toboard","","","","tol_peg_1","2536","2536","0","[[3,2,0],[0,0],[1]]","7","[[0,0,0],[1,2],[3]]","4","0","","","","","","7","","","","","","","","",""
"","","","","","single-stim-button","221","566766","0.0-2.0-22.7-0.7","62b496ea7c06f67ea068d0d3","A3","batch1","","1432","tol_tohand","","","","tol_peg_3","1432","1432","0","[[3,2,0],[0,0],[0]]","8","[[0,0,0],[1,2],[3]]","4","0","","","","","","7","","","","","","","","",""
"","","","","","single-stim-button","222","567917","0.0-2.0-22.7-1.7","62b496ea7c06f67ea068d0d3","A3","batch1","","1151","tol_toboard","","","","tol_peg_2","1151","1151","0","[[3,2,0],[1,0],[0]]","8","[[0,0,0],[1,2],[3]]","4","0","","","","","","7","","","","","","","","",""
"","","","","","single-stim-button","223","569525","0.0-2.0-22.8-0.8","62b496ea7c06f67ea068d0d3","A3","batch1","","1608","tol_tohand","","","","tol_peg_1","1608","1608","0","[[3,0,0],[1,0],[0]]","9","[[0,0,0],[1,2],[3]]","4","0","","","","","","7","","","","","","","","",""
"","","","","","single-stim-button","224","570783","0.0-2.0-22.8-1.8","62b496ea7c06f67ea068d0d3","A3","batch1","","1256","tol_toboard","","","","tol_peg_2","1256","1256","0","[[3,0,0],[1,2],[0]]","9","[[0,0,0],[1,2],[3]]","4","0","","","","","","7","","","","","","","","",""
"","","","","","single-stim-button","225","572021","0.0-2.0-22.9-0.9","62b496ea7c06f67ea068d0d3","A3","batch1","","1238","tol_tohand","","","","tol_peg_1","1238","1238","0","[[0,0,0],[1,2],[0]]","10","[[0,0,0],[1,2],[3]]","4","0","","","","","","7","","","","","","","","",""
"","","","","","single-stim-button","226","573204","0.0-2.0-22.9-1.9","62b496ea7c06f67ea068d0d3","A3","batch1","","1183","tol_toboard","","","","tol_peg_3","1183","1183","0","[[0,0,0],[1,2],[3]]","10","[[0,0,0],[1,2],[3]]","4","0","","","","","","7","","","","","","","","",""
"","","","","","poldrack-single-stim","227","574219","0.0-2.0-23.0","62b496ea7c06f67ea068d0d3","A3","batch1","","-1","tol_feedback","","","true","","1000","1000","500","","","","","","-1","none","true","10871","35625","","","","","","","","","",""
"","","","","","html-button-response","228","576012","0.0-2.0-24.0","62b496ea7c06f67ea068d0d3","A3","batch1","","1792","tol_trial_num","<div class = centerbox><p class = center-block-text>problem <strong>6</strong> out of 25 problems</p></div>","0","","","","","","","","","","","","","","","","","","","","","","","","",""
"","","","","","single-stim-button","229","582037","0.0-2.0-25.0-0.0","62b496ea7c06f67ea068d0d3","A3","batch1","","6023","tol_tohand","","","","tol_peg_2","6023","6023","0","[[0,0,0],[1,0],[3]]","1","[[1,0,0],[2,3],[0]]","5","0","","","","","","6","","","","","","","","",""
"","","","","","single-stim-button","230","584748","0.0-2.0-25.0-1.0","62b496ea7c06f67ea068d0d3","A3","batch1","","2711","tol_toboard","","","","tol_peg_1","2711","2711","0","[[2,0,0],[1,0],[3]]","1","[[1,0,0],[2,3],[0]]","5","0","","","","","","6","","","","","","","","",""
"","","","","","single-stim-button","231","586173","0.0-2.0-25.1-0.1","62b496ea7c06f67ea068d0d3","A3","batch1","","1424","tol_tohand","","","","tol_peg_2","1424","1424","0","[[2,0,0],[0,0],[3]]","2","[[1,0,0],[2,3],[0]]","5","0","","","","","","6","","","","","","","","",""
"","","","","","single-stim-button","232","588180","0.0-2.0-25.1-1.1","62b496ea7c06f67ea068d0d3","A3","batch1","","2007","tol_toboard","","","","tol_peg_1","2007","2007","0","[[2,1,0],[0,0],[3]]","2","[[1,0,0],[2,3],[0]]","5","0","","","","","","6","","","","","","","","",""
"","","","","","single-stim-button","233","591548","0.0-2.0-25.2-0.2","62b496ea7c06f67ea068d0d3","A3","batch1","","3368","tol_tohand","","","","tol_peg_3","3368","3368","0","[[2,1,0],[0,0],[0]]","3","[[1,0,0],[2,3],[0]]","5","0","","","","","","6","","","","","","","","",""
"","","","","","single-stim-button","234","592756","0.0-2.0-25.2-1.2","62b496ea7c06f67ea068d0d3","A3","batch1","","1206","tol_toboard","","","","tol_peg_2","1206","1206","0","[[2,1,0],[3,0],[0]]","3","[[1,0,0],[2,3],[0]]","5","0","","","","","","6","","","","","","","","",""
"","","","","","single-stim-button","235","593709","0.0-2.0-25.3-0.3","62b496ea7c06f67ea068d0d3","A3","batch1","","951","tol_tohand","","","","tol_peg_1","951","951","0","[[2,0,0],[3,0],[0]]","4","[[1,0,0],[2,3],[0]]","5","0","","","","","","6","","","","","","","","",""
"","","","","","single-stim-button","236","595612","0.0-2.0-25.3-1.3","62b496ea7c06f67ea068d0d3","A3","batch1","","1902","tol_toboard","","","","tol_peg_3","1902","1902","0","[[2,0,0],[3,0],[1]]","4","[[1,0,0],[2,3],[0]]","5","0","","","","","","6","","","","","","","","",""
"","","","","","single-stim-button","237","597029","0.0-2.0-25.4-0.4","62b496ea7c06f67ea068d0d3","A3","batch1","","1416","tol_tohand","","","","tol_peg_1","1416","1416","0","[[0,0,0],[3,0],[1]]","5","[[1,0,0],[2,3],[0]]","5","0","","","","","","6","","","","","","","","",""
"","","","","","single-stim-button","238","598413","0.0-2.0-25.4-1.4","62b496ea7c06f67ea068d0d3","A3","batch1","","1382","tol_toboard","","","","tol_peg_2","1382","1382","0","[[0,0,0],[3,2],[1]]","5","[[1,0,0],[2,3],[0]]","5","0","","","","","","6","","","","","","","","",""
"","","","","","single-stim-button","239","599398","0.0-2.0-25.5-0.5","62b496ea7c06f67ea068d0d3","A3","batch1","","985","tol_tohand","","","","tol_peg_3","985","985","0","[[0,0,0],[3,2],[0]]","6","[[1,0,0],[2,3],[0]]","5","0","","","","","","6","","","","","","","","",""
"","","","","","single-stim-button","240","600781","0.0-2.0-25.5-1.5","62b496ea7c06f67ea068d0d3","A3","batch1","","1382","tol_toboard","","","","tol_peg_1","1382","1382","0","[[1,0,0],[3,2],[0]]","6","[[1,0,0],[2,3],[0]]","5","0","","","","","","6","","","","","","","","",""
"","","","","","single-stim-button","241","602677","0.0-2.0-25.6-0.6","62b496ea7c06f67ea068d0d3","A3","batch1","","1896","tol_tohand","","","","tol_peg_2","1896","1896","0","[[1,0,0],[3,0],[0]]","7","[[1,0,0],[2,3],[0]]","5","0","","","","","","6","","","","","","","","",""
"","","","","","single-stim-button","242","609516","0.0-2.0-25.6-1.6","62b496ea7c06f67ea068d0d3","A3","batch1","","6838","tol_toboard","","","","tol_peg_3","6838","6838","0","[[1,0,0],[3,0],[2]]","7","[[1,0,0],[2,3],[0]]","5","0","","","","","","6","","","","","","","","",""
"","","","","","single-stim-button","243","610580","0.0-2.0-25.7-0.7","62b496ea7c06f67ea068d0d3","A3","batch1","","1064","tol_tohand","","","","tol_peg_2","1064","1064","0","[[1,0,0],[0,0],[2]]","8","[[1,0,0],[2,3],[0]]","5","0","","","","","","6","","","","","","","","",""
"","","","","","single-stim-button","244","611677","0.0-2.0-25.7-1.7","62b496ea7c06f67ea068d0d3","A3","batch1","","1096","tol_toboard","","","","tol_peg_1","1096","1096","0","[[1,3,0],[0,0],[2]]","8","[[1,0,0],[2,3],[0]]","5","0","","","","","","6","","","","","","","","",""
"","","","","","single-stim-button","245","612396","0.0-2.0-25.8-0.8","62b496ea7c06f67ea068d0d3","A3","batch1","","719","tol_tohand","","","","tol_peg_3","719","719","0","[[1,3,0],[0,0],[0]]","9","[[1,0,0],[2,3],[0]]","5","0","","","","","","6","","","","","","","","",""
"","","","","","single-stim-button","246","613597","0.0-2.0-25.8-1.8","62b496ea7c06f67ea068d0d3","A3","batch1","","1199","tol_toboard","","","","tol_peg_2","1199","1199","0","[[1,3,0],[2,0],[0]]","9","[[1,0,0],[2,3],[0]]","5","0","","","","","","6","","","","","","","","",""
"","","","","","single-stim-button","247","614812","0.0-2.0-25.9-0.9","62b496ea7c06f67ea068d0d3","A3","batch1","","1215","tol_tohand","","","","tol_peg_1","1215","1215","0","[[1,0,0],[2,0],[0]]","10","[[1,0,0],[2,3],[0]]","5","0","","","","","","6","","","","","","","","",""
"","","","","","single-stim-button","248","615501","0.0-2.0-25.9-1.9","62b496ea7c06f67ea068d0d3","A3","batch1","","688","tol_toboard","","","","tol_peg_2","688","688","0","[[1,0,0],[2,3],[0]]","10","[[1,0,0],[2,3],[0]]","5","0","","","","","","6","","","","","","","","",""
"","","","","","poldrack-single-stim","249","616507","0.0-2.0-26.0","62b496ea7c06f67ea068d0d3","A3","batch1","","-1","tol_feedback","","","true","","1000","1000","500","","","","","","-1","none","true","6023","19061","","","","","","","","","",""
"","","","","","html-button-response","250","617709","0.0-2.0-27.0","62b496ea7c06f67ea068d0d3","A3","batch1","","1200","tol_trial_num","<div class = centerbox><p class = center-block-text>problem <strong>7</strong> out of 25 problems</p></div>","0","","","","","","","","","","","","","","","","","","","","","","","","",""
"","","","","","single-stim-button","251","628964","0.0-2.0-28.0-0.0","62b496ea7c06f67ea068d0d3","A3","batch1","","11253","tol_tohand","","","","tol_peg_1","11253","11253","0","[[2,0,0],[0,0],[3]]","1","[[1,2,0],[3,0],[0]]","6","0","","","","","","5","","","","","","","","",""
"","","","","","single-stim-button","252","633572","0.0-2.0-28.0-1.0","62b496ea7c06f67ea068d0d3","A3","batch1","","4607","tol_toboard","","","","tol_peg_2","4607","4607","0","[[2,0,0],[1,0],[3]]","1","[[1,2,0],[3,0],[0]]","6","0","","","","","","5","","","","","","","","",""
"","","","","","single-stim-button","253","636165","0.0-2.0-28.1-0.1","62b496ea7c06f67ea068d0d3","A3","batch1","","2592","tol_tohand","","","","tol_peg_3","2592","2592","0","[[2,0,0],[1,0],[0]]","2","[[1,2,0],[3,0],[0]]","6","0","","","","","","5","","","","","","","","",""
"","","","","","single-stim-button","254","637380","0.0-2.0-28.1-1.1","62b496ea7c06f67ea068d0d3","A3","batch1","","1215","tol_toboard","","","","tol_peg_2","1215","1215","0","[[2,0,0],[1,3],[0]]","2","[[1,2,0],[3,0],[0]]","6","0","","","","","","5","","","","","","","","",""
"","","","","","single-stim-button","255","639644","0.0-2.0-28.2-0.2","62b496ea7c06f67ea068d0d3","A3","batch1","","2263","tol_tohand","","","","tol_peg_2","2263","2263","0","[[2,0,0],[1,0],[0]]","3","[[1,2,0],[3,0],[0]]","6","0","","","","","","5","","","","","","","","",""
"","","","","","single-stim-button","256","640612","0.0-2.0-28.2-1.2","62b496ea7c06f67ea068d0d3","A3","batch1","","968","tol_toboard","","","","tol_peg_1","968","968","0","[[2,3,0],[1,0],[0]]","3","[[1,2,0],[3,0],[0]]","6","0","","","","","","5","","","","","","","","",""
"","","","","","single-stim-button","257","642701","0.0-2.0-28.3-0.3","62b496ea7c06f67ea068d0d3","A3","batch1","","2088","tol_tohand","","","","tol_peg_2","2088","2088","0","[[2,3,0],[0,0],[0]]","4","[[1,2,0],[3,0],[0]]","6","0","","","","","","5","","","","","","","","",""
"","","","","","single-stim-button","258","643652","0.0-2.0-28.3-1.3","62b496ea7c06f67ea068d0d3","A3","batch1","","951","tol_toboard","","","","tol_peg_3","951","951","0","[[2,3,0],[0,0],[1]]","4","[[1,2,0],[3,0],[0]]","6","0","","","","","","5","","","","","","","","",""
"","","","","","single-stim-button","259","645348","0.0-2.0-28.4-0.4","62b496ea7c06f67ea068d0d3","A3","batch1","","1696","tol_tohand","","","","tol_peg_1","1696","1696","0","[[2,0,0],[0,0],[1]]","5","[[1,2,0],[3,0],[0]]","6","0","","","","","","5","","","","","","","","",""
"","","","","","single-stim-button","260","646300","0.0-2.0-28.4-1.4","62b496ea7c06f67ea068d0d3","A3","batch1","","951","tol_toboard","","","","tol_peg_2","951","951","0","[[2,0,0],[3,0],[1]]","5","[[1,2,0],[3,0],[0]]","6","0","","","","","","5","","","","","","","","",""
"","","","","","single-stim-button","261","650060","0.0-2.0-28.5-0.5","62b496ea7c06f67ea068d0d3","A3","batch1","","3760","tol_tohand","","","","tol_peg_1","3760","3760","0","[[0,0,0],[3,0],[1]]","6","[[1,2,0],[3,0],[0]]","6","0","","","","","","5","","","","","","","","",""
"","","","","","single-stim-button","262","651092","0.0-2.0-28.5-1.5","62b496ea7c06f67ea068d0d3","A3","batch1","","1031","tol_toboard","","","","tol_peg_2","1031","1031","0","[[0,0,0],[3,2],[1]]","6","[[1,2,0],[3,0],[0]]","6","0","","","","","","5","","","","","","","","",""
"","","","","","single-stim-button","263","651693","0.0-2.0-28.6-0.6","62b496ea7c06f67ea068d0d3","A3","batch1","","600","tol_tohand","","","","tol_peg_3","600","600","0","[[0,0,0],[3,2],[0]]","7","[[1,2,0],[3,0],[0]]","6","0","","","","","","5","","","","","","","","",""
"","","","","","single-stim-button","264","652444","0.0-2.0-28.6-1.6","62b496ea7c06f67ea068d0d3","A3","batch1","","751","tol_toboard","","","","tol_peg_1","751","751","0","[[1,0,0],[3,2],[0]]","7","[[1,2,0],[3,0],[0]]","6","0","","","","","","5","","","","","","","","",""
"","","","","","single-stim-button","265","653476","0.0-2.0-28.7-0.7","62b496ea7c06f67ea068d0d3","A3","batch1","","1030","tol_tohand","","","","tol_peg_2","1030","1030","0","[[1,0,0],[3,0],[0]]","8","[[1,2,0],[3,0],[0]]","6","0","","","","","","5","","","","","","","","",""
"","","","","","single-stim-button","266","654276","0.0-2.0-28.7-1.7","62b496ea7c06f67ea068d0d3","A3","batch1","","800","tol_toboard","","","","tol_peg_1","800","800","0","[[1,2,0],[3,0],[0]]","8","[[1,2,0],[3,0],[0]]","6","0","","","","","","5","","","","","","","","",""
"","","","","","poldrack-single-stim","267","655284","0.0-2.0-29.0","62b496ea7c06f67ea068d0d3","A3","batch1","","-1","tol_feedback","","","true","","1000","1000","500","","","","","","-1","none","true","11253","25282","","","","","","","","","",""
"","","","","","html-button-response","268","656517","0.0-2.0-30.0","62b496ea7c06f67ea068d0d3","A3","batch1","","1232","tol_trial_num","<div class = centerbox><p class = center-block-text>problem <strong>8</strong> out of 25 problems</p></div>","0","","","","","","","","","","","","","","","","","","","","","","","","",""
"","","","","","single-stim-button","269","660092","0.0-2.0-31.0-0.0","62b496ea7c06f67ea068d0d3","A3","batch1","","3574","tol_tohand","","","","tol_peg_3","3574","3574","0","[[0,0,0],[2,3],[0]]","1","[[1,2,0],[3,0],[0]]","7","0","","","","","","4","","","","","","","","",""
"","","","","","single-stim-button","270","661363","0.0-2.0-31.0-1.0","62b496ea7c06f67ea068d0d3","A3","batch1","","1271","tol_toboard","","","","tol_peg_1","1271","1271","0","[[1,0,0],[2,3],[0]]","1","[[1,2,0],[3,0],[0]]","7","0","","","","","","4","","","","","","","","",""
"","","","","","single-stim-button","271","663436","0.0-2.0-31.1-0.1","62b496ea7c06f67ea068d0d3","A3","batch1","","2071","tol_tohand","","","","tol_peg_2","2071","2071","0","[[1,0,0],[2,0],[0]]","2","[[1,2,0],[3,0],[0]]","7","0","","","","","","4","","","","","","","","",""
"","","","","","single-stim-button","272","664085","0.0-2.0-31.1-1.1","62b496ea7c06f67ea068d0d3","A3","batch1","","649","tol_toboard","","","","tol_peg_3","649","649","0","[[1,0,0],[2,0],[3]]","2","[[1,2,0],[3,0],[0]]","7","0","","","","","","4","","","","","","","","",""
"","","","","","single-stim-button","273","664652","0.0-2.0-31.2-0.2","62b496ea7c06f67ea068d0d3","A3","batch1","","567","tol_tohand","","","","tol_peg_2","567","567","0","[[1,0,0],[0,0],[3]]","3","[[1,2,0],[3,0],[0]]","7","0","","","","","","4","","","","","","","","",""
"","","","","","single-stim-button","274","665539","0.0-2.0-31.2-1.2","62b496ea7c06f67ea068d0d3","A3","batch1","","887","tol_toboard","","","","tol_peg_1","887","887","0","[[1,2,0],[0,0],[3]]","3","[[1,2,0],[3,0],[0]]","7","0","","","","","","4","","","","","","","","",""
"","","","","","single-stim-button","275","668083","0.0-2.0-31.3-0.3","62b496ea7c06f67ea068d0d3","A3","batch1","","2543","tol_tohand","","","","tol_peg_3","2543","2543","0","[[1,2,0],[0,0],[0]]","4","[[1,2,0],[3,0],[0]]","7","0","","","","","","4","","","","","","","","",""
"","","","","","single-stim-button","276","668772","0.0-2.0-31.3-1.3","62b496ea7c06f67ea068d0d3","A3","batch1","","688","tol_toboard","","","","tol_peg_2","688","688","0","[[1,2,0],[3,0],[0]]","4","[[1,2,0],[3,0],[0]]","7","0","","","","","","4","","","","","","","","",""
"","","","","","poldrack-single-stim","277","669779","0.0-2.0-32.0","62b496ea7c06f67ea068d0d3","A3","batch1","","-1","tol_feedback","","","true","","1000","1000","500","","","","","","-1","none","true","3574","8755","","","","","","","","","",""
"","","","","","html-button-response","278","671947","0.0-2.0-33.0","62b496ea7c06f67ea068d0d3","A3","batch1","","2166","tol_trial_num","<div class = centerbox><p class = center-block-text>problem <strong>9</strong> out of 25 problems</p></div>","0","","","","","","","","","","","","","","","","","","","","","","","","",""
"","","","","","single-stim-button","279","675812","0.0-2.0-34.0-0.0","62b496ea7c06f67ea068d0d3","A3","batch1","","3864","tol_tohand","","","","tol_peg_1","3864","3864","0","[[3,0,0],[0,0],[1]]","1","[[2,1,0],[3,0],[0]]","8","0","","","","","","6","","","","","","","","",""
"","","","","","single-stim-button","280","676716","0.0-2.0-34.0-1.0","62b496ea7c06f67ea068d0d3","A3","batch1","","904","tol_toboard","","","","tol_peg_2","904","904","0","[[3,0,0],[2,0],[1]]","1","[[2,1,0],[3,0],[0]]","8","0","","","","","","6","","","","","","","","",""
"","","","","","single-stim-button","281","678500","0.0-2.0-34.1-0.1","62b496ea7c06f67ea068d0d3","A3","batch1","","1783","tol_tohand","","","","tol_peg_3","1783","1783","0","[[3,0,0],[2,0],[0]]","2","[[2,1,0],[3,0],[0]]","8","0","","","","","","6","","","","","","","","",""
"","","","","","single-stim-button","282","679580","0.0-2.0-34.1-1.1","62b496ea7c06f67ea068d0d3","A3","batch1","","1080","tol_toboard","","","","tol_peg_2","1080","1080","0","[[3,0,0],[2,1],[0]]","2","[[2,1,0],[3,0],[0]]","8","0","","","","","","6","","","","","","","","",""
"","","","","","single-stim-button","283","682596","0.0-2.0-34.2-0.2","62b496ea7c06f67ea068d0d3","A3","batch1","","3015","tol_tohand","","","","tol_peg_1","3015","3015","0","[[0,0,0],[2,1],[0]]","3","[[2,1,0],[3,0],[0]]","8","0","","","","","","6","","","","","","","","",""
"","","","","","single-stim-button","284","683796","0.0-2.0-34.2-1.2","62b496ea7c06f67ea068d0d3","A3","batch1","","1200","tol_toboard","","","","tol_peg_3","1200","1200","0","[[0,0,0],[2,1],[3]]","3","[[2,1,0],[3,0],[0]]","8","0","","","","","","6","","","","","","","","",""
"","","","","","single-stim-button","285","684652","0.0-2.0-34.3-0.3","62b496ea7c06f67ea068d0d3","A3","batch1","","856","tol_tohand","","","","tol_peg_2","856","856","0","[[0,0,0],[2,0],[3]]","4","[[2,1,0],[3,0],[0]]","8","0","","","","","","6","","","","","","","","",""
"","","","","","single-stim-button","286","685756","0.0-2.0-34.3-1.3","62b496ea7c06f67ea068d0d3","A3","batch1","","1104","tol_toboard","","","","tol_peg_1","1104","1104","0","[[1,0,0],[2,0],[3]]","4","[[2,1,0],[3,0],[0]]","8","0","","","","","","6","","","","","","","","",""
"","","","","","single-stim-button","287","687308","0.0-2.0-34.4-0.4","62b496ea7c06f67ea068d0d3","A3","batch1","","1551","tol_tohand","","","","tol_peg_2","1551","1551","0","[[1,0,0],[0,0],[3]]","5","[[2,1,0],[3,0],[0]]","8","0","","","","","","6","","","","","","","","",""
"","","","","","single-stim-button","288","688108","0.0-2.0-34.4-1.4","62b496ea7c06f67ea068d0d3","A3","batch1","","800","tol_toboard","","","","tol_peg_1","800","800","0","[[1,2,0],[0,0],[3]]","5","[[2,1,0],[3,0],[0]]","8","0","","","","","","6","","","","","","","","",""
"","","","","","single-stim-button","289","689435","0.0-2.0-34.5-0.5","62b496ea7c06f67ea068d0d3","A3","batch1","","1327","tol_tohand","","","","tol_peg_3","1327","1327","0","[[1,2,0],[0,0],[0]]","6","[[2,1,0],[3,0],[0]]","8","0","","","","","","6","","","","","","","","",""
"","","","","","single-stim-button","290","690364","0.0-2.0-34.5-1.5","62b496ea7c06f67ea068d0d3","A3","batch1","","928","tol_toboard","","","","tol_peg_2","928","928","0","[[1,2,0],[3,0],[0]]","6","[[2,1,0],[3,0],[0]]","8","0","","","","","","6","","","","","","","","",""
"","","","","","single-stim-button","291","691916","0.0-2.0-34.6-0.6","62b496ea7c06f67ea068d0d3","A3","batch1","","1552","tol_tohand","","","","tol_peg_1","1552","1552","0","[[1,0,0],[3,0],[0]]","7","[[2,1,0],[3,0],[0]]","8","0","","","","","","6","","","","","","","","",""
"","","","","","single-stim-button","292","693356","0.0-2.0-34.6-1.6","62b496ea7c06f67ea068d0d3","A3","batch1","","1439","tol_toboard","","","","tol_peg_2","1439","1439","0","[[1,0,0],[3,2],[0]]","7","[[2,1,0],[3,0],[0]]","8","0","","","","","","6","","","","","","","","",""
"","","","","","single-stim-button","293","696636","0.0-2.0-34.7-0.7","62b496ea7c06f67ea068d0d3","A3","batch1","","3279","tol_tohand","","","","tol_peg_1","3279","3279","0","[[0,0,0],[3,2],[0]]","8","[[2,1,0],[3,0],[0]]","8","0","","","","","","6","","","","","","","","",""
"","","","","","single-stim-button","294","697684","0.0-2.0-34.7-1.7","62b496ea7c06f67ea068d0d3","A3","batch1","","1048","tol_toboard","","","","tol_peg_3","1048","1048","0","[[0,0,0],[3,2],[1]]","8","[[2,1,0],[3,0],[0]]","8","0","","","","","","6","","","","","","","","",""
"","","","","","single-stim-button","295","698644","0.0-2.0-34.8-0.8","62b496ea7c06f67ea068d0d3","A3","batch1","","960","tol_tohand","","","","tol_peg_2","960","960","0","[[0,0,0],[3,0],[1]]","9","[[2,1,0],[3,0],[0]]","8","0","","","","","","6","","","","","","","","",""
"","","","","","single-stim-button","296","699708","0.0-2.0-34.8-1.8","62b496ea7c06f67ea068d0d3","A3","batch1","","1064","tol_toboard","","","","tol_peg_1","1064","1064","0","[[2,0,0],[3,0],[1]]","9","[[2,1,0],[3,0],[0]]","8","0","","","","","","6","","","","","","","","",""
"","","","","","single-stim-button","297","700643","0.0-2.0-34.9-0.9","62b496ea7c06f67ea068d0d3","A3","batch1","","935","tol_tohand","","","","tol_peg_3","935","935","0","[[2,0,0],[3,0],[0]]","10","[[2,1,0],[3,0],[0]]","8","0","","","","","","6","","","","","","","","",""
"","","","","","single-stim-button","298","701412","0.0-2.0-34.9-1.9","62b496ea7c06f67ea068d0d3","A3","batch1","","768","tol_toboard","","","","tol_peg_1","768","768","0","[[2,1,0],[3,0],[0]]","10","[[2,1,0],[3,0],[0]]","8","0","","","","","","6","","","","","","","","",""
"","","","","","poldrack-single-stim","299","702417","0.0-2.0-35.0","62b496ea7c06f67ea068d0d3","A3","batch1","","-1","tol_feedback","","","true","","1000","1000","500","","","","","","-1","none","true","3864","19122","","","","","","","","","",""
"","","","","","html-button-response","300","703732","0.0-2.0-36.0","62b496ea7c06f67ea068d0d3","A3","batch1","","1315","tol_trial_num","<div class = centerbox><p class = center-block-text>problem <strong>10</strong> out of 25 problems</p></div>","0","","","","","","","","","","","","","","","","","","","","","","","","",""
"","","","","","single-stim-button","301","710180","0.0-2.0-37.0-0.0","62b496ea7c06f67ea068d0d3","A3","batch1","","6447","tol_tohand","","","","tol_peg_2","6447","6447","0","[[3,0,0],[0,0],[2]]","1","[[3,0,0],[2,1],[0]]","9","0","","","","","","3","","","","","","","","",""
"","","","","","single-stim-button","302","711115","0.0-2.0-37.0-1.0","62b496ea7c06f67ea068d0d3","A3","batch1","","935","tol_toboard","","","","tol_peg_1","935","935","0","[[3,1,0],[0,0],[2]]","1","[[3,0,0],[2,1],[0]]","9","0","","","","","","3","","","","","","","","",""
"","","","","","single-stim-button","303","711851","0.0-2.0-37.1-0.1","62b496ea7c06f67ea068d0d3","A3","batch1","","736","tol_tohand","","","","tol_peg_3","736","736","0","[[3,1,0],[0,0],[0]]","2","[[3,0,0],[2,1],[0]]","9","0","","","","","","3","","","","","","","","",""
"","","","","","single-stim-button","304","712764","0.0-2.0-37.1-1.1","62b496ea7c06f67ea068d0d3","A3","batch1","","912","tol_toboard","","","","tol_peg_2","912","912","0","[[3,1,0],[2,0],[0]]","2","[[3,0,0],[2,1],[0]]","9","0","","","","","","3","","","","","","","","",""
"","","","","","single-stim-button","305","713988","0.0-2.0-37.2-0.2","62b496ea7c06f67ea068d0d3","A3","batch1","","1224","tol_tohand","","","","tol_peg_1","1224","1224","0","[[3,0,0],[2,0],[0]]","3","[[3,0,0],[2,1],[0]]","9","0","","","","","","3","","","","","","","","",""
"","","","","","single-stim-button","306","714875","0.0-2.0-37.2-1.2","62b496ea7c06f67ea068d0d3","A3","batch1","","886","tol_toboard","","","","tol_peg_2","886","886","0","[[3,0,0],[2,1],[0]]","3","[[3,0,0],[2,1],[0]]","9","0","","","","","","3","","","","","","","","",""
"","","","","","poldrack-single-stim","307","715888","0.0-2.0-38.0","62b496ea7c06f67ea068d0d3","A3","batch1","","-1","tol_feedback","","","true","","1000","1000","500","","","","","","-1","none","true","6447","8407","","","","","","","","","",""
"","","","","","html-button-response","308","716940","0.0-2.0-39.0","62b496ea7c06f67ea068d0d3","A3","batch1","","1051","tol_trial_num","<div class = centerbox><p class = center-block-text>problem <strong>11</strong> out of 25 problems</p></div>","0","","","","","","","","","","","","","","","","","","","","","","","","",""
"","","","","","single-stim-button","309","720827","0.0-2.0-40.0-0.0","62b496ea7c06f67ea068d0d3","A3","batch1","","3887","tol_tohand","","","","tol_peg_1","3887","3887","0","[[1,0,0],[3,0],[0]]","1","[[2,0,0],[1,3],[0]]","10","0","","","","","","6","","","","","","","","",""
"","","","","","single-stim-button","310","721683","0.0-2.0-40.0-1.0","62b496ea7c06f67ea068d0d3","A3","batch1","","856","tol_toboard","","","","tol_peg_3","856","856","0","[[1,0,0],[3,0],[2]]","1","[[2,0,0],[1,3],[0]]","10","0","","","","","","6","","","","","","","","",""
"","","","","","single-stim-button","311","722564","0.0-2.0-40.1-0.1","62b496ea7c06f67ea068d0d3","A3","batch1","","880","tol_tohand","","","","tol_peg_1","880","880","0","[[0,0,0],[3,0],[2]]","2","[[2,0,0],[1,3],[0]]","10","0","","","","","","6","","","","","","","","",""
"","","","","","single-stim-button","312","723443","0.0-2.0-40.1-1.1","62b496ea7c06f67ea068d0d3","A3","batch1","","879","tol_toboard","","","","tol_peg_2","879","879","0","[[0,0,0],[3,1],[2]]","2","[[2,0,0],[1,3],[0]]","10","0","","","","","","6","","","","","","","","",""
"","","","","","single-stim-button","313","724243","0.0-2.0-40.2-0.2","62b496ea7c06f67ea068d0d3","A3","batch1","","800","tol_tohand","","","","tol_peg_3","800","800","0","[[0,0,0],[3,1],[0]]","3","[[2,0,0],[1,3],[0]]","10","0","","","","","","6","","","","","","","","",""
"","","","","","single-stim-button","314","725299","0.0-2.0-40.2-1.2","62b496ea7c06f67ea068d0d3","A3","batch1","","1056","tol_toboard","","","","tol_peg_1","1056","1056","0","[[2,0,0],[3,1],[0]]","3","[[2,0,0],[1,3],[0]]","10","0","","","","","","6","","","","","","","","",""
"","","","","","single-stim-button","315","730027","0.0-2.0-40.3-0.3","62b496ea7c06f67ea068d0d3","A3","batch1","","4727","tol_tohand","","","","tol_peg_2","4727","4727","0","[[2,0,0],[3,0],[0]]","4","[[2,0,0],[1,3],[0]]","10","0","","","","","","6","","","","","","","","",""
"","","","","","single-stim-button","316","730748","0.0-2.0-40.3-1.3","62b496ea7c06f67ea068d0d3","A3","batch1","","720","tol_toboard","","","","tol_peg_3","720","720","0","[[2,0,0],[3,0],[1]]","4","[[2,0,0],[1,3],[0]]","10","0","","","","","","6","","","","","","","","",""
"","","","","","single-stim-button","317","736884","0.0-2.0-40.4-0.4","62b496ea7c06f67ea068d0d3","A3","batch1","","6135","tol_tohand","","","","tol_peg_2","6135","6135","0","[[2,0,0],[0,0],[1]]","5","[[2,0,0],[1,3],[0]]","10","0","","","","","","6","","","","","","","","",""
"","","","","","single-stim-button","318","737867","0.0-2.0-40.4-1.4","62b496ea7c06f67ea068d0d3","A3","batch1","","983","tol_toboard","","","","tol_peg_1","983","983","0","[[2,3,0],[0,0],[1]]","5","[[2,0,0],[1,3],[0]]","10","0","","","","","","6","","","","","","","","",""
"","","","","","single-stim-button","319","738628","0.0-2.0-40.5-0.5","62b496ea7c06f67ea068d0d3","A3","batch1","","761","tol_tohand","","","","tol_peg_3","761","761","0","[[2,3,0],[0,0],[0]]","6","[[2,0,0],[1,3],[0]]","10","0","","","","","","6","","","","","","","","",""
"","","","","","single-stim-button","320","739379","0.0-2.0-40.5-1.5","62b496ea7c06f67ea068d0d3","A3","batch1","","751","tol_toboard","","","","tol_peg_2","751","751","0","[[2,3,0],[1,0],[0]]","6","[[2,0,0],[1,3],[0]]","10","0","","","","","","6","","","","","","","","",""
"","","","","","single-stim-button","321","740763","0.0-2.0-40.6-0.6","62b496ea7c06f67ea068d0d3","A3","batch1","","1384","tol_tohand","","","","tol_peg_1","1384","1384","0","[[2,0,0],[1,0],[0]]","7","[[2,0,0],[1,3],[0]]","10","0","","","","","","6","","","","","","","","",""
"","","","","","single-stim-button","322","741643","0.0-2.0-40.6-1.6","62b496ea7c06f67ea068d0d3","A3","batch1","","880","tol_toboard","","","","tol_peg_2","880","880","0","[[2,0,0],[1,3],[0]]","7","[[2,0,0],[1,3],[0]]","10","0","","","","","","6","","","","","","","","",""
"","","","","","poldrack-single-stim","323","742660","0.0-2.0-41.0","62b496ea7c06f67ea068d0d3","A3","batch1","","-1","tol_feedback","","","true","","1000","1000","500","","","","","","-1","none","true","3887","18574","","","","","","","","","",""
"","","","","","html-button-response","324","744363","0.0-2.0-42.0","62b496ea7c06f67ea068d0d3","A3","batch1","","1702","tol_trial_num","<div class = centerbox><p class = center-block-text>problem <strong>12</strong> out of 25 problems</p></div>","0","","","","","","","","","","","","","","","","","","","","","","","","",""
"","","","","","single-stim-button","325","747748","0.0-2.0-43.0-0.0","62b496ea7c06f67ea068d0d3","A3","batch1","","3383","tol_tohand","","","","tol_peg_1","3383","3383","0","[[1,0,0],[3,0],[0]]","1","[[2,3,0],[0,0],[1]]","11","0","","","","","","4","","","","","","","","",""
"","","","","","single-stim-button","326","748499","0.0-2.0-43.0-1.0","62b496ea7c06f67ea068d0d3","A3","batch1","","750","tol_toboard","","","","tol_peg_2","750","750","0","[[1,0,0],[3,2],[0]]","1","[[2,3,0],[0,0],[1]]","11","0","","","","","","4","","","","","","","","",""
"","","","","","single-stim-button","327","749243","0.0-2.0-43.1-0.1","62b496ea7c06f67ea068d0d3","A3","batch1","","744","tol_tohand","","","","tol_peg_1","744","744","0","[[0,0,0],[3,2],[0]]","2","[[2,3,0],[0,0],[1]]","11","0","","","","","","4","","","","","","","","",""
"","","","","","single-stim-button","328","750290","0.0-2.0-43.1-1.1","62b496ea7c06f67ea068d0d3","A3","batch1","","1047","tol_toboard","","","","tol_peg_3","1047","1047","0","[[0,0,0],[3,2],[1]]","2","[[2,3,0],[0,0],[1]]","11","0","","","","","","4","","","","","","","","",""
"","","","","","single-stim-button","329","752755","0.0-2.0-43.2-0.2","62b496ea7c06f67ea068d0d3","A3","batch1","","2465","tol_tohand","","","","tol_peg_2","2465","2465","0","[[0,0,0],[3,0],[1]]","3","[[2,3,0],[0,0],[1]]","11","0","","","","","","4","","","","","","","","",""
"","","","","","single-stim-button","330","755787","0.0-2.0-43.2-1.2","62b496ea7c06f67ea068d0d3","A3","batch1","","3032","tol_toboard","","","","tol_peg_1","3032","3032","0","[[2,0,0],[3,0],[1]]","3","[[2,3,0],[0,0],[1]]","11","0","","","","","","4","","","","","","","","",""
"","","","","","single-stim-button","331","756852","0.0-2.0-43.3-0.3","62b496ea7c06f67ea068d0d3","A3","batch1","","1063","tol_tohand","","","","tol_peg_2","1063","1063","0","[[2,0,0],[0,0],[1]]","4","[[2,3,0],[0,0],[1]]","11","0","","","","","","4","","","","","","","","",""
"","","","","","single-stim-button","332","760019","0.0-2.0-43.3-1.3","62b496ea7c06f67ea068d0d3","A3","batch1","","3167","tol_toboard","","","","tol_peg_1","3167","3167","0","[[2,3,0],[0,0],[1]]","4","[[2,3,0],[0,0],[1]]","11","0","","","","","","4","","","","","","","","",""
"","","","","","poldrack-single-stim","333","761027","0.0-2.0-44.0","62b496ea7c06f67ea068d0d3","A3","batch1","","-1","tol_feedback","","","true","","1000","1000","500","","","","","","-1","none","true","3383","7655","","","","","","","","","",""
"","","","","","html-button-response","334","761971","0.0-2.0-45.0","62b496ea7c06f67ea068d0d3","A3","batch1","","942","tol_trial_num","<div class = centerbox><p class = center-block-text>problem <strong>13</strong> out of 25 problems</p></div>","0","","","","","","","","","","","","","","","","","","","","","","","","",""
"","","","","","single-stim-button","335","765291","0.0-2.0-46.0-0.0","62b496ea7c06f67ea068d0d3","A3","batch1","","3320","tol_tohand","","","","tol_peg_2","3320","3320","0","[[1,2,0],[0,0],[0]]","1","[[0,0,0],[2,3],[1]]","12","0","","","","","","4","","","","","","","","",""
"","","","","","single-stim-button","336","768011","0.0-2.0-46.0-1.0","62b496ea7c06f67ea068d0d3","A3","batch1","","2720","tol_toboard","","","","tol_peg_3","2720","2720","0","[[1,2,0],[0,0],[3]]","1","[[0,0,0],[2,3],[1]]","12","0","","","","","","4","","","","","","","","",""
"","","","","","single-stim-button","337","768858","0.0-2.0-46.1-0.1","62b496ea7c06f67ea068d0d3","A3","batch1","","847","tol_tohand","","","","tol_peg_1","847","847","0","[[1,0,0],[0,0],[3]]","2","[[0,0,0],[2,3],[1]]","12","0","","","","","","4","","","","","","","","",""
"","","","","","single-stim-button","338","769618","0.0-2.0-46.1-1.1","62b496ea7c06f67ea068d0d3","A3","batch1","","759","tol_toboard","","","","tol_peg_2","759","759","0","[[1,0,0],[2,0],[3]]","2","[[0,0,0],[2,3],[1]]","12","0","","","","","","4","","","","","","","","",""
"","","","","","single-stim-button","339","774339","0.0-2.0-46.2-0.2","62b496ea7c06f67ea068d0d3","A3","batch1","","4720","tol_tohand","","","","tol_peg_1","4720","4720","0","[[0,0,0],[2,0],[3]]","3","[[0,0,0],[2,3],[1]]","12","0","","","","","","4","","","","","","","","",""
"","","","","","single-stim-button","340","775002","0.0-2.0-46.2-1.2","62b496ea7c06f67ea068d0d3","A3","batch1","","663","tol_toboard","","","","tol_peg_2","663","663","0","[[0,0,0],[2,1],[3]]","3","[[0,0,0],[2,3],[1]]","12","0","","","","","","4","","","","","","","","",""
"","","","","","single-stim-button","341","775571","0.0-2.0-46.3-0.3","62b496ea7c06f67ea068d0d3","A3","batch1","","567","tol_tohand","","","","tol_peg_3","567","567","0","[[0,0,0],[2,1],[0]]","4","[[0,0,0],[2,3],[1]]","12","0","","","","","","4","","","","","","","","",""
"","","","","","single-stim-button","342","776194","0.0-2.0-46.3-1.3","62b496ea7c06f67ea068d0d3","A3","batch1","","623","tol_toboard","","","","tol_peg_1","623","623","0","[[3,0,0],[2,1],[0]]","4","[[0,0,0],[2,3],[1]]","12","0","","","","","","4","","","","","","","","",""
"","","","","","single-stim-button","343","776987","0.0-2.0-46.4-0.4","62b496ea7c06f67ea068d0d3","A3","batch1","","792","tol_tohand","","","","tol_peg_2","792","792","0","[[3,0,0],[2,0],[0]]","5","[[0,0,0],[2,3],[1]]","12","0","","","","","","4","","","","","","","","",""
"","","","","","single-stim-button","344","777539","0.0-2.0-46.4-1.4","62b496ea7c06f67ea068d0d3","A3","batch1","","551","tol_toboard","","","","tol_peg_3","551","551","0","[[3,0,0],[2,0],[1]]","5","[[0,0,0],[2,3],[1]]","12","0","","","","","","4","","","","","","","","",""
"","","","","","single-stim-button","345","779444","0.0-2.0-46.5-0.5","62b496ea7c06f67ea068d0d3","A3","batch1","","1903","tol_tohand","","","","tol_peg_1","1903","1903","0","[[0,0,0],[2,0],[1]]","6","[[0,0,0],[2,3],[1]]","12","0","","","","","","4","","","","","","","","",""
"","","","","","single-stim-button","346","780131","0.0-2.0-46.5-1.5","62b496ea7c06f67ea068d0d3","A3","batch1","","686","tol_toboard","","","","tol_peg_2","686","686","0","[[0,0,0],[2,3],[1]]","6","[[0,0,0],[2,3],[1]]","12","0","","","","","","4","","","","","","","","",""
"","","","","","poldrack-single-stim","347","781147","0.0-2.0-47.0","62b496ea7c06f67ea068d0d3","A3","batch1","","-1","tol_feedback","","","true","","1000","1000","500","","","","","","-1","none","true","3320","12149","","","","","","","","","",""
"","","","","","html-button-response","348","788562","0.0-2.0-48.0","62b496ea7c06f67ea068d0d3","A3","batch1","","7414","attention_check","<p class = block-text>How many balls are in your board<br></p>","1","true","","","","","","","","","","","","","","","","","","","","","","","",""
"","","","","","html-button-response","349","790010","0.0-2.0-49.0","62b496ea7c06f67ea068d0d3","A3","batch1","","1447","tol_trial_num","<div class = centerbox><p class = center-block-text>problem <strong>14</strong> out of 25 problems</p></div>","0","","","","","","","","","","","","","","","","","","","","","","","","",""
"","","","","","single-stim-button","350","795987","0.0-2.0-50.0-0.0","62b496ea7c06f67ea068d0d3","A3","batch1","","5974","tol_tohand","","","","tol_peg_1","5974","5974","0","[[2,0,0],[3,0],[0]]","1","[[1,2,0],[3,0],[0]]","13","0","","","","","","4","","","","","","","","",""
"","","","","","single-stim-button","351","796962","0.0-2.0-50.0-1.0","62b496ea7c06f67ea068d0d3","A3","batch1","","975","tol_toboard","","","","tol_peg_3","975","975","0","[[2,0,0],[3,0],[1]]","1","[[1,2,0],[3,0],[0]]","13","0","","","","","","4","","","","","","","","",""
