"success","timeout","failed_images","failed_audio","failed_video","trial_type","trial_index","time_elapsed","internal_node_id","subject_id","study_id","session_id","view_history","rt","stimulus","response","task","correct","answer","item","fiar_detect_rt","fiar_detect_correct","total_correct_fiar_detect","post_trial_gap","choices","spm_correct","spm_rt","mouse_click","stim_duration","block_duration","timing_post_trial","current_position","tol_num_moves_made","tol_target","tol_problem_id","tol_rt","key_press","possible_responses","tol_correct","preplanning","tol_rt_per_trial","tol_min_moves"
"true","false","[]","[]","[]","preload","0","1783","0.0-0.0","62b9e1aed4b802b4e268125d","B2","batch2","","","","","","","","","","","","","","","","","","","","","","","","","","","","","",""
"true","","","","","fullscreen","1","17684","0.0-1.0-0.0","62b9e1aed4b802b4e268125d","B2","batch2","","","","","","","","","","","","","","","","","","","","","","","","","","","","","",""
"true","","","","","fullscreen","2","23834","0.0-2.0-0.0","62b9e1aed4b802b4e268125d","B2","batch2","","","","","","","","","","","","","","","","","","","","","","","","","","","","","",""
"","","","","","instructions","3","53734","0.0-2.0-1.0-0.0","62b9e1aed4b802b4e268125d","B2","batch2","[{""page_index"":0,""viewing_time"":22517.117000000002},{""page_index"":1,""viewing_time"":7383.481}]","29900.598","","","","","","","","","","","","","","","","","","","","","","","","","","","",""
"","","","","","html-button-response","4","55568","0.0-2.0-1.0-1.0-0.0","62b9e1aed4b802b4e268125d","B2","batch2","","1816.702999999994","<p class=block-text> Let's answer a few questions <br>","0","pattern_enter_quiz","","","","","","","","","","","","","","","","","","","","","","","","",""
"","","","","","html-button-response","5","60268","0.0-2.0-1.0-1.0-1.0","62b9e1aed4b802b4e268125d","B2","batch2","","4683.427000000003","<p class = block-text>True or False: You will have as much time as you want to make each choice. <br></p>","1","pattern_quiz","true","","","","","","","","","","","","","","","","","","","","","","","",""
"","","","","","html-button-response","6","62801","0.0-2.0-1.0-1.0-2.0","62b9e1aed4b802b4e268125d","B2","batch2","","2550.0509999999995","<p class = block-text>Correct! You should make your choice <strong> as fast as you can</strong>.</p>","0","pattern_quiz_feedback","","","","","","","","","","","","","","","","","","","","","","","","",""
"","","","","","html-button-response","7","68735","0.0-2.0-1.0-1.0-3.0","62b9e1aed4b802b4e268125d","B2","batch2","","5916.7850000000035","<p class = block-text>True or False: You will look for 4 pieces in black or white color connected in a row either horizontally, vertically or diagonally. <br></p>","0","pattern_quiz","true","","","","","","","","","","","","","","","","","","","","","","","",""
"","","","","","html-button-response","8","69835","0.0-2.0-1.0-1.0-4.0","62b9e1aed4b802b4e268125d","B2","batch2","","1100.0219999999972","<p class = block-text>Correct! </p>","0","pattern_quiz_feedback","","","","","","","","","","","","","","","","","","","","","","","","",""
"","","","","","html-button-response","9","73301","0.0-2.0-2.0","62b9e1aed4b802b4e268125d","B2","batch2","","3450.069000000003","<p class=block-text> Now that you've understood the game, let's do a few practice trials before we start!<br> <br>","0","pattern_enter_practice","","","","","","","","","","","","","","","","","","","","","","","","",""
"","","","","","image-keyboard-response","10","74735","0.0-2.0-3.0-0.0","62b9e1aed4b802b4e268125d","B2","batch2","","1400.0280000000057","stim/prac_yes_20_dia_b1.png","j","pattern_practice","false","f","","","","","","","","","","","","","","","","","","","","","","",""
"","","","","","html-keyboard-response","11","75735","0.0-2.0-3.0-1.0","62b9e1aed4b802b4e268125d","B2","batch2","","null","<p style=""font-size:30px;color:red;"">Wrong.</p>","null","pattern_feedback","","","","","","","","","","","","","","","","","","","","","","","","",""
"","","","","","image-keyboard-response","12","76968","0.0-2.0-3.0-0.1","62b9e1aed4b802b4e268125d","B2","batch2","","1183.356999999989","stim/prac_yes_16_ver_w1.png","f","pattern_practice","true","f","","","","","","","","","","","","","","","","","","","","","","",""
"","","","","","html-keyboard-response","13","77968","0.0-2.0-3.0-1.1","62b9e1aed4b802b4e268125d","B2","batch2","","null","<p style=""font-size:30px;color:green;"">Correct!</p>","null","pattern_feedback","","","","","","","","","","","","","","","","","","","","","","","","",""
"","","","","","image-keyboard-response","14","79551","0.0-2.0-3.0-0.2","62b9e1aed4b802b4e268125d","B2","batch2","","1566.698000000004","stim/prac_no_18_1.png","j","pattern_practice","true","j","","","","","","","","","","","","","","","","","","","","","","",""
"","","","","","html-keyboard-response","15","80552","0.0-2.0-3.0-1.2","62b9e1aed4b802b4e268125d","B2","batch2","","null","<p style=""font-size:30px;color:green;"">Correct!</p>","null","pattern_feedback","","","","","","","","","","","","","","","","","","","","","","","","",""
"","","","","","image-keyboard-response","16","81268","0.0-2.0-3.0-0.3","62b9e1aed4b802b4e268125d","B2","batch2","","716.6809999999969","stim/prac_yes_18_hor_w1.png","f","pattern_practice","true","f","","","","","","","","","","","","","","","","","","","","","","",""
"","","","","","html-keyboard-response","17","82285","0.0-2.0-3.0-1.3","62b9e1aed4b802b4e268125d","B2","batch2","","null","<p style=""font-size:30px;color:green;"">Correct!</p>","null","pattern_feedback","","","","","","","","","","","","","","","","","","","","","","","","",""
"","","","","","image-keyboard-response","18","83452","0.0-2.0-3.0-0.4","62b9e1aed4b802b4e268125d","B2","batch2","","1150.023000000001","stim/prac_no_16_1.png","j","pattern_practice","true","j","","","","","","","","","","","","","","","","","","","","","","",""
"","","","","","html-keyboard-response","19","84452","0.0-2.0-3.0-1.4","62b9e1aed4b802b4e268125d","B2","batch2","","null","<p style=""font-size:30px;color:green;"">Correct!</p>","null","pattern_feedback","","","","","","","","","","","","","","","","","","","","","","","","",""
"","","","","","html-button-response","20","90918","0.0-2.0-4.0","62b9e1aed4b802b4e268125d","B2","batch2","","6450.129000000001","<p class=block-text> Good job! You are done with practice trials!<br>
        You responded correctly on 80% of the trials.<br>
        Press the button below to start official trials. Now you won't see any feedback about your response</p>","0","pattern_enter_official_trials","","","","","","","","","","","","","","","","","","","","","","","","",""
"","","","","","html-keyboard-response","21","91718","0.0-2.0-5.0-0.0","62b9e1aed4b802b4e268125d","B2","batch2","","null","<p class=block-text>Trial 1 out of 78</p>","null","pattern_show_trial_num","","","","","","","","","","","","","","","","","","","","","","","","",""
"","","","","","image-keyboard-response","22","92535","0.0-2.0-5.0-1.0","62b9e1aed4b802b4e268125d","B2","batch2","","783.349000000002","stim/yes_36_ver_w1_w.png","f","pattern_response","true","f","pattern_58","783.349000000002","true","1","","","","","","","","","","","","","","","","","","",""
"","","","","","html-keyboard-response","23","93835","0.0-2.0-5.0-0.1","62b9e1aed4b802b4e268125d","B2","batch2","","null","<p class=block-text>Trial 2 out of 78</p>","null","pattern_show_trial_num","","","","","","","","","","","","","","","","","","","","","","","","",""
"","","","","","image-keyboard-response","24","94502","0.0-2.0-5.0-1.1","62b9e1aed4b802b4e268125d","B2","batch2","","633.346000000005","stim/yes_53_ver_b1_b.png","f","pattern_response","true","f","pattern_74","633.346000000005","true","2","","","","","","","","","","","","","","","","","","",""
"","","","","","html-keyboard-response","25","95802","0.0-2.0-5.0-0.2","62b9e1aed4b802b4e268125d","B2","batch2","","null","<p class=block-text>Trial 3 out of 78</p>","null","pattern_show_trial_num","","","","","","","","","","","","","","","","","","","","","","","","",""
"","","","","","image-keyboard-response","26","96418","0.0-2.0-5.0-1.2","62b9e1aed4b802b4e268125d","B2","batch2","","600.0120000000024","stim/no_15_1_w.png","j","pattern_response","true","j","pattern_03","600.0120000000024","true","3","","","","","","","","","","","","","","","","","","",""
"","","","","","html-keyboard-response","27","97719","0.0-2.0-5.0-0.3","62b9e1aed4b802b4e268125d","B2","batch2","","null","<p class=block-text>Trial 4 out of 78</p>","null","pattern_show_trial_num","","","","","","","","","","","","","","","","","","","","","","","","",""
"","","","","","image-keyboard-response","28","98952","0.0-2.0-5.0-1.3","62b9e1aed4b802b4e268125d","B2","batch2","","1233.357999999993","stim/no_22_1_b.png","j","pattern_response","true","j","pattern_07","1233.357999999993","true","4","","","","","","","","","","","","","","","","","","",""
"","","","","","html-keyboard-response","29","100269","0.0-2.0-5.0-0.4","62b9e1aed4b802b4e268125d","B2","batch2","","null","<p class=block-text>Trial 5 out of 78</p>","null","pattern_show_trial_num","","","","","","","","","","","","","","","","","","","","","","","","",""
"","","","","","image-keyboard-response","30","100819","0.0-2.0-5.0-1.4","62b9e1aed4b802b4e268125d","B2","batch2","","533.3439999999973","stim/yes_15_dia_b1u_b.png","f","pattern_response","true","f","pattern_44","533.3439999999973","true","5","","","","","","","","","","","","","","","","","","",""
"","","","","","html-keyboard-response","31","102102","0.0-2.0-5.0-0.5","62b9e1aed4b802b4e268125d","B2","batch2","","null","<p class=block-text>Trial 6 out of 78</p>","null","pattern_show_trial_num","","","","","","","","","","","","","","","","","","","","","","","","",""
"","","","","","image-keyboard-response","32","102752","0.0-2.0-5.0-1.5","62b9e1aed4b802b4e268125d","B2","batch2","","650.0130000000063","stim/yes_46_ver_b1_b.png","f","pattern_response","true","f","pattern_68","650.0130000000063","true","6","","","","","","","","","","","","","","","","","","",""
"","","","","","html-keyboard-response","33","104052","0.0-2.0-5.0-0.6","62b9e1aed4b802b4e268125d","B2","batch2","","null","<p class=block-text>Trial 7 out of 78</p>","null","pattern_show_trial_num","","","","","","","","","","","","","","","","","","","","","","","","",""
"","","","","","image-keyboard-response","34","106019","0.0-2.0-5.0-1.6","62b9e1aed4b802b4e268125d","B2","batch2","","1933.372000000003","stim/no_33_1_b.png","j","pattern_response","true","j","pattern_15","1933.372000000003","true","7","","","","","","","","","","","","","","","","","","",""
"","","","","","html-keyboard-response","35","107319","0.0-2.0-5.0-0.7","62b9e1aed4b802b4e268125d","B2","batch2","","null","<p class=block-text>Trial 8 out of 78</p>","null","pattern_show_trial_num","","","","","","","","","","","","","","","","","","","","","","","","",""
"","","","","","image-keyboard-response","36","108752","0.0-2.0-5.0-1.7","62b9e1aed4b802b4e268125d","B2","batch2","","1416.6949999999924","stim/no_18_1_b.png","j","pattern_response","true","j","pattern_05","1416.6949999999924","true","8","","","","","","","","","","","","","","","","","","",""
"","","","","","html-keyboard-response","37","110069","0.0-2.0-5.0-0.8","62b9e1aed4b802b4e268125d","B2","batch2","","null","<p class=block-text>Trial 9 out of 78</p>","null","pattern_show_trial_num","","","","","","","","","","","","","","","","","","","","","","","","",""
"","","","","","image-keyboard-response","38","110635","0.0-2.0-5.0-1.8","62b9e1aed4b802b4e268125d","B2","batch2","","550.0109999999986","stim/yes_37_hor_w1_w.png","f","pattern_response","true","f","pattern_60","550.0109999999986","true","9","","","","","","","","","","","","","","","","","","",""
"","","","","","html-keyboard-response","39","111919","0.0-2.0-5.0-0.9","62b9e1aed4b802b4e268125d","B2","batch2","","null","<p class=block-text>Trial 10 out of 78</p>","null","pattern_show_trial_num","","","","","","","","","","","","","","","","","","","","","","","","",""
"","","","","","image-keyboard-response","40","112752","0.0-2.0-5.0-1.9","62b9e1aed4b802b4e268125d","B2","batch2","","800.0160000000033","stim/no_12_1.png","j","pattern_response","true","j","pattern_01","800.0160000000033","true","10","","","","","","","","","","","","","","","","","","",""
"","","","","","html-keyboard-response","41","114052","0.0-2.0-5.0-0.10","62b9e1aed4b802b4e268125d","B2","batch2","","null","<p class=block-text>Trial 11 out of 78</p>","null","pattern_show_trial_num","","","","","","","","","","","","","","","","","","","","","","","","",""
"","","","","","image-keyboard-response","42","114786","0.0-2.0-5.0-1.10","62b9e1aed4b802b4e268125d","B2","batch2","","700.0140000000101","stim/yes_70_ver_b1.png","f","pattern_response","true","f","pattern_80","700.0140000000101","true","11","","","","","","","","","","","","","","","","","","",""
"","","","","","html-keyboard-response","43","116086","0.0-2.0-5.0-0.11","62b9e1aed4b802b4e268125d","B2","batch2","","null","<p class=block-text>Trial 12 out of 78</p>","null","pattern_show_trial_num","","","","","","","","","","","","","","","","","","","","","","","","",""
"","","","","","image-keyboard-response","44","119236","0.0-2.0-5.0-1.11","62b9e1aed4b802b4e268125d","B2","batch2","","3150.0629999999946","stim/no_45_1_w.png","j","pattern_response","true","j","pattern_25","3150.0629999999946","true","12","","","","","","","","","","","","","","","","","","",""
"","","","","","html-keyboard-response","45","120552","0.0-2.0-5.0-0.12","62b9e1aed4b802b4e268125d","B2","batch2","","null","<p class=block-text>Trial 13 out of 78</p>","null","pattern_show_trial_num","","","","","","","","","","","","","","","","","","","","","","","","",""
"","","","","","image-keyboard-response","46","121886","0.0-2.0-5.0-1.12","62b9e1aed4b802b4e268125d","B2","batch2","","1333.3600000000006","stim/yes_33_dia_w1_w.png","j","pattern_response","false","f","pattern_56","1333.3600000000006","false","12","","","","","","","","","","","","","","","","","","",""
"","","","","","html-keyboard-response","47","123202","0.0-2.0-5.0-0.13","62b9e1aed4b802b4e268125d","B2","batch2","","null","<p class=block-text>Trial 14 out of 78</p>","null","pattern_show_trial_num","","","","","","","","","","","","","","","","","","","","","","","","",""
"","","","","","image-keyboard-response","48","125369","0.0-2.0-5.0-1.13","62b9e1aed4b802b4e268125d","B2","batch2","","2166.7100000000064","stim/no_28_2.png","j","pattern_response","true","j","pattern_11","2166.7100000000064","true","13","","","","","","","","","","","","","","","","","","",""
"","","","","","html-keyboard-response","49","126669","0.0-2.0-5.0-0.14","62b9e1aed4b802b4e268125d","B2","batch2","","null","<p class=block-text>Trial 15 out of 78</p>","null","pattern_show_trial_num","","","","","","","","","","","","","","","","","","","","","","","","",""
"","","","","","image-keyboard-response","50","127719","0.0-2.0-5.0-1.14","62b9e1aed4b802b4e268125d","B2","batch2","","1033.353999999992","stim/yes_49_hor_w1_b.png","f","pattern_response","true","f","pattern_70","1033.353999999992","true","14","","","","","","","","","","","","","","","","","","",""
"","","","","","html-keyboard-response","51","129019","0.0-2.0-5.0-0.15","62b9e1aed4b802b4e268125d","B2","batch2","","null","<p class=block-text>Trial 16 out of 78</p>","null","pattern_show_trial_num","","","","","","","","","","","","","","","","","","","","","","","","",""
"","","","","","image-keyboard-response","52","130953","0.0-2.0-5.0-1.15","62b9e1aed4b802b4e268125d","B2","batch2","","1933.372000000003","stim/yes_63_dia_b1.png","f","pattern_response","true","f","pattern_78","1933.372000000003","true","15","","","","","","","","","","","","","","","","","","",""
"","","","","","html-keyboard-response","53","132253","0.0-2.0-5.0-0.16","62b9e1aed4b802b4e268125d","B2","batch2","","null","<p class=block-text>Trial 17 out of 78</p>","null","pattern_show_trial_num","","","","","","","","","","","","","","","","","","","","","","","","",""
"","","","","","image-keyboard-response","54","135086","0.0-2.0-5.0-1.16","62b9e1aed4b802b4e268125d","B2","batch2","","2816.722999999998","stim/yes_44_ver_w1_w.png","f","pattern_response","true","f","pattern_66","2816.722999999998","true","16","","","","","","","","","","","","","","","","","","",""
"","","","","","html-keyboard-response","55","136386","0.0-2.0-5.0-0.17","62b9e1aed4b802b4e268125d","B2","batch2","","null","<p class=block-text>Trial 18 out of 78</p>","null","pattern_show_trial_num","","","","","","","","","","","","","","","","","","","","","","","","",""
"","","","","","image-keyboard-response","56","137719","0.0-2.0-5.0-1.17","62b9e1aed4b802b4e268125d","B2","batch2","","1333.3600000000151","stim/yes_51_dia_b1.png","f","pattern_response","true","f","pattern_72","1333.3600000000151","true","17","","","","","","","","","","","","","","","","","","",""
"","","","","","html-keyboard-response","57","139036","0.0-2.0-5.0-0.18","62b9e1aed4b802b4e268125d","B2","batch2","","null","<p class=block-text>Trial 19 out of 78</p>","null","pattern_show_trial_num","","","","","","","","","","","","","","","","","","","","","","","","",""
"","","","","","image-keyboard-response","58","142019","0.0-2.0-5.0-1.18","62b9e1aed4b802b4e268125d","B2","batch2","","2966.725999999995","stim/no_49_2_b.png","j","pattern_response","true","j","pattern_29","2966.725999999995","true","18","","","","","","","","","","","","","","","","","","",""
"","","","","","html-keyboard-response","59","143336","0.0-2.0-5.0-0.19","62b9e1aed4b802b4e268125d","B2","batch2","","null","<p class=block-text>Trial 20 out of 78</p>","null","pattern_show_trial_num","","","","","","","","","","","","","","","","","","","","","","","","",""
"","","","","","image-keyboard-response","60","144886","0.0-2.0-5.0-1.19","62b9e1aed4b802b4e268125d","B2","batch2","","1533.3640000000014","stim/yes_30_ver_b1_b.png","f","pattern_response","true","f","pattern_54","1533.3640000000014","true","19","","","","","","","","","","","","","","","","","","",""
"","","","","","html-keyboard-response","61","146186","0.0-2.0-5.0-0.20","62b9e1aed4b802b4e268125d","B2","batch2","","null","<p class=block-text>Trial 21 out of 78</p>","null","pattern_show_trial_num","","","","","","","","","","","","","","","","","","","","","","","","",""
"","","","","","image-keyboard-response","62","150036","0.0-2.0-5.0-1.20","62b9e1aed4b802b4e268125d","B2","batch2","","3833.4100000000035","stim/no_58_1_w.png","j","pattern_response","true","j","pattern_35","3833.4100000000035","true","20","","","","","","","","","","","","","","","","","","",""
"","","","","","html-keyboard-response","63","151320","0.0-2.0-5.0-0.21","62b9e1aed4b802b4e268125d","B2","batch2","","null","<p class=block-text>Trial 22 out of 78</p>","null","pattern_show_trial_num","","","","","","","","","","","","","","","","","","","","","","","","",""
"","","","","","image-keyboard-response","64","154236","0.0-2.0-5.0-1.21","62b9e1aed4b802b4e268125d","B2","batch2","","2900.058000000019","stim/no_67_1.png","f","pattern_response","false","j","pattern_39","2900.058000000019","false","20","","","","","","","","","","","","","","","","","","",""
"","","","","","html-keyboard-response","65","155536","0.0-2.0-5.0-0.22","62b9e1aed4b802b4e268125d","B2","batch2","","null","<p class=block-text>Trial 23 out of 78</p>","null","pattern_show_trial_num","","","","","","","","","","","","","","","","","","","","","","","","",""
"","","","","","image-keyboard-response","66","158770","0.0-2.0-5.0-1.22","62b9e1aed4b802b4e268125d","B2","batch2","","3200.063999999984","stim/yes_42_dia_w1_w.png","j","pattern_response","false","f","pattern_64","3200.063999999984","false","20","","","","","","","","","","","","","","","","","","",""
"","","","","","html-keyboard-response","67","160070","0.0-2.0-5.0-0.23","62b9e1aed4b802b4e268125d","B2","batch2","","null","<p class=block-text>Trial 24 out of 78</p>","null","pattern_show_trial_num","","","","","","","","","","","","","","","","","","","","","","","","",""
"","","","","","image-keyboard-response","68","160803","0.0-2.0-5.0-1.23","62b9e1aed4b802b4e268125d","B2","batch2","","700.0139999999956","stim/yes_12_hor_w1_w.png","f","pattern_response","true","f","pattern_42","700.0139999999956","true","21","","","","","","","","","","","","","","","","","","",""
"","","","","","html-keyboard-response","69","162086","0.0-2.0-5.0-0.24","62b9e1aed4b802b4e268125d","B2","batch2","","null","<p class=block-text>Trial 25 out of 78</p>","null","pattern_show_trial_num","","","","","","","","","","","","","","","","","","","","","","","","",""
"","","","","","image-keyboard-response","70","164720","0.0-2.0-5.0-1.24","62b9e1aed4b802b4e268125d","B2","batch2","","2633.3859999999986","stim/no_47_1_b.png","j","pattern_response","true","j","pattern_27","2633.3859999999986","true","22","","","","","","","","","","","","","","","","","","",""
"","","","","","html-keyboard-response","71","166020","0.0-2.0-5.0-0.25","62b9e1aed4b802b4e268125d","B2","batch2","","null","<p class=block-text>Trial 26 out of 78</p>","null","pattern_show_trial_num","","","","","","","","","","","","","","","","","","","","","","","","",""
"","","","","","image-keyboard-response","72","167203","0.0-2.0-5.0-1.25","62b9e1aed4b802b4e268125d","B2","batch2","","1150.0230000000156","stim/yes_26_dia_w2_w.png","f","pattern_response","true","f","pattern_50","1150.0230000000156","true","23","","","","","","","","","","","","","","","","","","",""
"","","","","","html-keyboard-response","73","168503","0.0-2.0-5.0-0.26","62b9e1aed4b802b4e268125d","B2","batch2","","null","<p class=block-text>Trial 27 out of 78</p>","null","pattern_show_trial_num","","","","","","","","","","","","","","","","","","","","","","","","",""
"","","","","","image-keyboard-response","74","172053","0.0-2.0-5.0-1.26","62b9e1aed4b802b4e268125d","B2","batch2","","3550.0709999999963","stim/yes_58_dia_w1_w.png","j","pattern_response","false","f","pattern_76","3550.0709999999963","false","23","","","","","","","","","","","","","","","","","","",""
"","","","","","html-keyboard-response","75","173353","0.0-2.0-5.0-0.27","62b9e1aed4b802b4e268125d","B2","batch2","","null","<p class=block-text>Trial 28 out of 78</p>","null","pattern_show_trial_num","","","","","","","","","","","","","","","","","","","","","","","","",""
"","","","","","image-keyboard-response","76","174037","0.0-2.0-5.0-1.27","62b9e1aed4b802b4e268125d","B2","batch2","","650.0130000000063","stim/yes_29_hor_b1_b.png","f","pattern_response","true","f","pattern_52","650.0130000000063","true","24","","","","","","","","","","","","","","","","","","",""
"","","","","","html-keyboard-response","77","175337","0.0-2.0-5.0-0.28","62b9e1aed4b802b4e268125d","B2","batch2","","null","<p class=block-text>Trial 29 out of 78</p>","null","pattern_show_trial_num","","","","","","","","","","","","","","","","","","","","","","","","",""
"","","","","","image-keyboard-response","78","177703","0.0-2.0-5.0-1.28","62b9e1aed4b802b4e268125d","B2","batch2","","2333.3800000000047","stim/no_39_1_w.png","j","pattern_response","true","j","pattern_21","2333.3800000000047","true","25","","","","","","","","","","","","","","","","","","",""
"","","","","","html-keyboard-response","79","178987","0.0-2.0-5.0-0.29","62b9e1aed4b802b4e268125d","B2","batch2","","null","<p class=block-text>Trial 30 out of 78</p>","null","pattern_show_trial_num","","","","","","","","","","","","","","","","","","","","","","","","",""
"","","","","","image-keyboard-response","80","180854","0.0-2.0-5.0-1.29","62b9e1aed4b802b4e268125d","B2","batch2","","1850.036999999982","stim/no_30_1_b.png","j","pattern_response","true","j","pattern_13","1850.036999999982","true","26","","","","","","","","","","","","","","","","","","",""
"","","","","","html-keyboard-response","81","182154","0.0-2.0-5.0-0.30","62b9e1aed4b802b4e268125d","B2","batch2","","null","<p class=block-text>Trial 31 out of 78</p>","null","pattern_show_trial_num","","","","","","","","","","","","","","","","","","","","","","","","",""
"","","","","","image-keyboard-response","82","185387","0.0-2.0-5.0-1.30","62b9e1aed4b802b4e268125d","B2","batch2","","3200.063999999984","stim/no_51_1.png","j","pattern_response","true","j","pattern_31","3200.063999999984","true","27","","","","","","","","","","","","","","","","","","",""
"","","","","","html-keyboard-response","83","186687","0.0-2.0-5.0-0.31","62b9e1aed4b802b4e268125d","B2","batch2","","null","<p class=block-text>Trial 32 out of 78</p>","null","pattern_show_trial_num","","","","","","","","","","","","","","","","","","","","","","","","",""
"","","","","","image-keyboard-response","84","188954","0.0-2.0-5.0-1.31","62b9e1aed4b802b4e268125d","B2","batch2","","2250.045000000013","stim/no_43_2_b.png","j","pattern_response","true","j","pattern_23","2250.045000000013","true","28","","","","","","","","","","","","","","","","","","",""
"","","","","","html-keyboard-response","85","190254","0.0-2.0-5.0-0.32","62b9e1aed4b802b4e268125d","B2","batch2","","null","<p class=block-text>Trial 33 out of 78</p>","null","pattern_show_trial_num","","","","","","","","","","","","","","","","","","","","","","","","",""
"","","","","","image-keyboard-response","86","192770","0.0-2.0-5.0-1.32","62b9e1aed4b802b4e268125d","B2","batch2","","2516.716999999975","stim/no_36_1_b.png","j","pattern_response","true","j","pattern_17","2516.716999999975","true","29","","","","","","","","","","","","","","","","","","",""
"","","","","","html-keyboard-response","87","194070","0.0-2.0-5.0-0.33","62b9e1aed4b802b4e268125d","B2","batch2","","null","<p class=block-text>Trial 34 out of 78</p>","null","pattern_show_trial_num","","","","","","","","","","","","","","","","","","","","","","","","",""
"","","","","","image-keyboard-response","88","197221","0.0-2.0-5.0-1.33","62b9e1aed4b802b4e268125d","B2","batch2","","3150.0630000000237","stim/no_53_1_b.png","j","pattern_response","true","j","pattern_33","3150.0630000000237","true","30","","","","","","","","","","","","","","","","","","",""
"","","","","","html-keyboard-response","89","198537","0.0-2.0-5.0-0.34","62b9e1aed4b802b4e268125d","B2","batch2","","null","<p class=block-text>Trial 35 out of 78</p>","null","pattern_show_trial_num","","","","","","","","","","","","","","","","","","","","","","","","",""
"","","","","","image-keyboard-response","90","200971","0.0-2.0-5.0-1.34","62b9e1aed4b802b4e268125d","B2","batch2","","2433.3819999999832","stim/no_25_1_b.png","j","pattern_response","true","j","pattern_09","2433.3819999999832","true","31","","","","","","","","","","","","","","","","","","",""
"","","","","","html-keyboard-response","91","202287","0.0-2.0-5.0-0.35","62b9e1aed4b802b4e268125d","B2","batch2","","null","<p class=block-text>Trial 36 out of 78</p>","null","pattern_show_trial_num","","","","","","","","","","","","","","","","","","","","","","","","",""
"","","","","","image-keyboard-response","92","202871","0.0-2.0-5.0-1.35","62b9e1aed4b802b4e268125d","B2","batch2","","533.3439999999828","stim/yes_17_ver_b1_b.png","f","pattern_response","true","f","pattern_46","533.3439999999828","true","32","","","","","","","","","","","","","","","","","","",""
"","","","","","html-keyboard-response","93","204171","0.0-2.0-5.0-0.36","62b9e1aed4b802b4e268125d","B2","batch2","","null","<p class=block-text>Trial 37 out of 78</p>","null","pattern_show_trial_num","","","","","","","","","","","","","","","","","","","","","","","","",""
"","","","","","image-keyboard-response","94","205004","0.0-2.0-5.0-1.36","62b9e1aed4b802b4e268125d","B2","batch2","","816.68299999999","stim/yes_39_hor_w1_w.png","f","pattern_response","true","f","pattern_62","816.68299999999","true","33","","","","","","","","","","","","","","","","","","",""
"","","","","","html-keyboard-response","95","206304","0.0-2.0-5.0-0.37","62b9e1aed4b802b4e268125d","B2","batch2","","null","<p class=block-text>Trial 38 out of 78</p>","null","pattern_show_trial_num","","","","","","","","","","","","","","","","","","","","","","","","",""
"","","","","","image-keyboard-response","96","207337","0.0-2.0-5.0-1.37","62b9e1aed4b802b4e268125d","B2","batch2","","1000.0199999999895","stim/yes_23_ver_b1.png","f","pattern_response","true","f","pattern_48","1000.0199999999895","true","34","","","","","","","","","","","","","","","","","","",""
"","","","","","html-keyboard-response","97","208637","0.0-2.0-5.0-0.38","62b9e1aed4b802b4e268125d","B2","batch2","","null","<p class=block-text>Trial 39 out of 78</p>","null","pattern_show_trial_num","","","","","","","","","","","","","","","","","","","","","","","","",""
"","","","","","image-keyboard-response","98","211704","0.0-2.0-5.0-1.38","62b9e1aed4b802b4e268125d","B2","batch2","","3050.060999999987","stim/no_37_2_w.png","j","pattern_response","true","j","pattern_19","3050.060999999987","true","35","","","","","","","","","","","","","","","","","","",""
"","","","","","image-keyboard-response","99","213838","0.0-2.0-6.0","62b9e1aed4b802b4e268125d","B2","batch2","","1583.3649999999907","stim/empty_board.png","j","attention_check","true","j","","","","","500","[""f"",""j""]","","","","","","","","","","","","","","","","",""
"","","","","","html-keyboard-response","100","214621","0.0-2.0-7.0-0.0","62b9e1aed4b802b4e268125d","B2","batch2","","null","<p class=block-text>Trial 40 out of 78</p>","null","pattern_show_trial_num","","","","","","","","","","","","","","","","","","","","","","","","",""
"","","","","","image-keyboard-response","101","217938","0.0-2.0-7.0-1.0","62b9e1aed4b802b4e268125d","B2","batch2","","3300.0659999999916","stim/no_38_1_b.png","j","pattern_response","true","j","pattern_20","3300.0659999999916","true","36","","","","","","","","","","","","","","","","","","",""
"","","","","","html-keyboard-response","102","219254","0.0-2.0-7.0-0.1","62b9e1aed4b802b4e268125d","B2","batch2","","null","<p class=block-text>Trial 41 out of 78</p>","null","pattern_show_trial_num","","","","","","","","","","","","","","","","","","","","","","","","",""
"","","","","","image-keyboard-response","103","222121","0.0-2.0-7.0-1.1","62b9e1aed4b802b4e268125d","B2","batch2","","2883.3910000000033","stim/no_44_1.png","j","pattern_response","true","j","pattern_24","2883.3910000000033","true","37","","","","","","","","","","","","","","","","","","",""
"","","","","","html-keyboard-response","104","223438","0.0-2.0-7.0-0.2","62b9e1aed4b802b4e268125d","B2","batch2","","null","<p class=block-text>Trial 42 out of 78</p>","null","pattern_show_trial_num","","","","","","","","","","","","","","","","","","","","","","","","",""
"","","","","","image-keyboard-response","105","226154","0.0-2.0-7.0-1.2","62b9e1aed4b802b4e268125d","B2","batch2","","2700.0540000000037","stim/no_34_1_b.png","j","pattern_response","true","j","pattern_16","2700.0540000000037","true","38","","","","","","","","","","","","","","","","","","",""
"","","","","","html-keyboard-response","106","227471","0.0-2.0-7.0-0.3","62b9e1aed4b802b4e268125d","B2","batch2","","null","<p class=block-text>Trial 43 out of 78</p>","null","pattern_show_trial_num","","","","","","","","","","","","","","","","","","","","","","","","",""
"","","","","","image-keyboard-response","107","228104","0.0-2.0-7.0-1.3","62b9e1aed4b802b4e268125d","B2","batch2","","616.6790000000037","stim/yes_25_hor_b1_b.png","f","pattern_response","true","f","pattern_49","616.6790000000037","true","39","","","","","","","","","","","","","","","","","","",""
"","","","","","html-keyboard-response","108","229404","0.0-2.0-7.0-0.4","62b9e1aed4b802b4e268125d","B2","batch2","","null","<p class=block-text>Trial 44 out of 78</p>","null","pattern_show_trial_num","","","","","","","","","","","","","","","","","","","","","","","","",""
"","","","","","image-keyboard-response","109","230788","0.0-2.0-7.0-1.4","62b9e1aed4b802b4e268125d","B2","batch2","","1316.6929999999993","stim/no_20_1_w.png","j","pattern_response","true","j","pattern_06","1316.6929999999993","true","40","","","","","","","","","","","","","","","","","","",""
"","","","","","html-keyboard-response","110","232071","0.0-2.0-7.0-0.5","62b9e1aed4b802b4e268125d","B2","batch2","","null","<p class=block-text>Trial 45 out of 78</p>","null","pattern_show_trial_num","","","","","","","","","","","","","","","","","","","","","","","","",""
"","","","","","image-keyboard-response","111","233855","0.0-2.0-7.0-1.5","62b9e1aed4b802b4e268125d","B2","batch2","","1783.369000000006","stim/yes_60_ver_b1_b.png","f","pattern_response","true","f","pattern_77","1783.369000000006","true","41","","","","","","","","","","","","","","","","","","",""
"","","","","","html-keyboard-response","112","235171","0.0-2.0-7.0-0.6","62b9e1aed4b802b4e268125d","B2","batch2","","null","<p class=block-text>Trial 46 out of 78</p>","null","pattern_show_trial_num","","","","","","","","","","","","","","","","","","","","","","","","",""
"","","","","","image-keyboard-response","113","236571","0.0-2.0-7.0-1.6","62b9e1aed4b802b4e268125d","B2","batch2","","1383.3610000000044","stim/yes_67_hor_b1.png","f","pattern_response","true","f","pattern_79","1383.3610000000044","true","42","","","","","","","","","","","","","","","","","","",""
"","","","","","html-keyboard-response","114","237871","0.0-2.0-7.0-0.7","62b9e1aed4b802b4e268125d","B2","batch2","","null","<p class=block-text>Trial 47 out of 78</p>","null","pattern_show_trial_num","","","","","","","","","","","","","","","","","","","","","","","","",""
"","","","","","image-keyboard-response","115","241621","0.0-2.0-7.0-1.7","62b9e1aed4b802b4e268125d","B2","batch2","","3716.741000000009","stim/no_36_2_w.png","j","pattern_response","true","j","pattern_18","3716.741000000009","true","43","","","","","","","","","","","","","","","","","","",""
"","","","","","html-keyboard-response","116","242921","0.0-2.0-7.0-0.8","62b9e1aed4b802b4e268125d","B2","batch2","","null","<p class=block-text>Trial 48 out of 78</p>","null","pattern_show_trial_num","","","","","","","","","","","","","","","","","","","","","","","","",""
"","","","","","image-keyboard-response","117","246155","0.0-2.0-7.0-1.8","62b9e1aed4b802b4e268125d","B2","batch2","","3216.7309999999998","stim/no_52_1.png","j","pattern_response","true","j","pattern_32","3216.7309999999998","true","44","","","","","","","","","","","","","","","","","","",""
"","","","","","html-keyboard-response","118","247455","0.0-2.0-7.0-0.9","62b9e1aed4b802b4e268125d","B2","batch2","","null","<p class=block-text>Trial 49 out of 78</p>","null","pattern_show_trial_num","","","","","","","","","","","","","","","","","","","","","","","","",""
"","","","","","image-keyboard-response","119","249038","0.0-2.0-7.0-1.9","62b9e1aed4b802b4e268125d","B2","batch2","","1566.698000000004","stim/no_23_1.png","j","pattern_response","true","j","pattern_08","1566.698000000004","true","45","","","","","","","","","","","","","","","","","","",""
"","","","","","html-keyboard-response","120","250355","0.0-2.0-7.0-0.10","62b9e1aed4b802b4e268125d","B2","batch2","","null","<p class=block-text>Trial 50 out of 78</p>","null","pattern_show_trial_num","","","","","","","","","","","","","","","","","","","","","","","","",""
"","","","","","image-keyboard-response","121","251238","0.0-2.0-7.0-1.10","62b9e1aed4b802b4e268125d","B2","batch2","","866.6840000000084","stim/yes_28_ver_b1.png","f","pattern_response","true","f","pattern_51","866.6840000000084","true","46","","","","","","","","","","","","","","","","","","",""
"","","","","","html-keyboard-response","122","252538","0.0-2.0-7.0-0.11","62b9e1aed4b802b4e268125d","B2","batch2","","null","<p class=block-text>Trial 51 out of 78</p>","null","pattern_show_trial_num","","","","","","","","","","","","","","","","","","","","","","","","",""
"","","","","","image-keyboard-response","123","253322","0.0-2.0-7.0-1.11","62b9e1aed4b802b4e268125d","B2","batch2","","750.015000000014","stim/yes_22_ver_w1.png","f","pattern_response","true","f","pattern_47","750.015000000014","true","47","","","","","","","","","","","","","","","","","","",""
"","","","","","html-keyboard-response","124","254622","0.0-2.0-7.0-0.12","62b9e1aed4b802b4e268125d","B2","batch2","","null","<p class=block-text>Trial 52 out of 78</p>","null","pattern_show_trial_num","","","","","","","","","","","","","","","","","","","","","","","","",""
"","","","","","image-keyboard-response","125","255155","0.0-2.0-7.0-1.12","62b9e1aed4b802b4e268125d","B2","batch2","","516.676999999996","stim/yes_14_hor_b1_w.png","f","pattern_response","true","f","pattern_43","516.676999999996","true","48","","","","","","","","","","","","","","","","","","",""
"","","","","","html-keyboard-response","126","256455","0.0-2.0-7.0-0.13","62b9e1aed4b802b4e268125d","B2","batch2","","null","<p class=block-text>Trial 53 out of 78</p>","null","pattern_show_trial_num","","","","","","","","","","","","","","","","","","","","","","","","",""
"","","","","","image-keyboard-response","127","258788","0.0-2.0-7.0-1.13","62b9e1aed4b802b4e268125d","B2","batch2","","2300.046000000002","stim/yes_45_hor_b2_b.png","f","pattern_response","true","f","pattern_67","2300.046000000002","true","49","","","","","","","","","","","","","","","","","","",""
"","","","","","html-keyboard-response","128","260072","0.0-2.0-7.0-0.14","62b9e1aed4b802b4e268125d","B2","batch2","","null","<p class=block-text>Trial 54 out of 78</p>","null","pattern_show_trial_num","","","","","","","","","","","","","","","","","","","","","","","","",""
"","","","","","image-keyboard-response","129","261755","0.0-2.0-7.0-1.14","62b9e1aed4b802b4e268125d","B2","batch2","","1666.7000000000116","stim/yes_38_hor_b1_b.png","f","pattern_response","true","f","pattern_61","1666.7000000000116","true","50","","","","","","","","","","","","","","","","","","",""
"","","","","","html-keyboard-response","130","263055","0.0-2.0-7.0-0.15","62b9e1aed4b802b4e268125d","B2","batch2","","null","<p class=block-text>Trial 55 out of 78</p>","null","pattern_show_trial_num","","","","","","","","","","","","","","","","","","","","","","","","",""
"","","","","","image-keyboard-response","131","264189","0.0-2.0-7.0-1.15","62b9e1aed4b802b4e268125d","B2","batch2","","1083.3549999999814","stim/yes_55_hor_w1_w.png","f","pattern_response","true","f","pattern_75","1083.3549999999814","true","51","","","","","","","","","","","","","","","","","","",""
"","","","","","html-keyboard-response","132","265472","0.0-2.0-7.0-0.16","62b9e1aed4b802b4e268125d","B2","batch2","","null","<p class=block-text>Trial 56 out of 78</p>","null","pattern_show_trial_num","","","","","","","","","","","","","","","","","","","","","","","","",""
"","","","","","image-keyboard-response","133","268389","0.0-2.0-7.0-1.16","62b9e1aed4b802b4e268125d","B2","batch2","","2900.058000000019","stim/yes_37_dia_w1.png","j","pattern_response","false","f","pattern_59","2900.058000000019","false","51","","","","","","","","","","","","","","","","","","",""
"","","","","","html-keyboard-response","134","269705","0.0-2.0-7.0-0.17","62b9e1aed4b802b4e268125d","B2","batch2","","null","<p class=block-text>Trial 57 out of 78</p>","null","pattern_show_trial_num","","","","","","","","","","","","","","","","","","","","","","","","",""
"","","","","","image-keyboard-response","135","270272","0.0-2.0-7.0-1.17","62b9e1aed4b802b4e268125d","B2","batch2","","550.0109999999986","stim/no_13_2_b.png","f","pattern_response","false","j","pattern_02","550.0109999999986","false","51","","","","","","","","","","","","","","","","","","",""
"","","","","","html-keyboard-response","136","271555","0.0-2.0-7.0-0.18","62b9e1aed4b802b4e268125d","B2","batch2","","null","<p class=block-text>Trial 58 out of 78</p>","null","pattern_show_trial_num","","","","","","","","","","","","","","","","","","","","","","","","",""
"","","","","","image-keyboard-response","137","273905","0.0-2.0-7.0-1.18","62b9e1aed4b802b4e268125d","B2","batch2","","2333.3800000000047","stim/yes_48_dia_w1_w.png","f","pattern_response","true","f","pattern_69","2333.3800000000047","true","52","","","","","","","","","","","","","","","","","","",""
"","","","","","html-keyboard-response","138","275222","0.0-2.0-7.0-0.19","62b9e1aed4b802b4e268125d","B2","batch2","","null","<p class=block-text>Trial 59 out of 78</p>","null","pattern_show_trial_num","","","","","","","","","","","","","","","","","","","","","","","","",""
"","","","","","image-keyboard-response","139","279989","0.0-2.0-7.0-1.19","62b9e1aed4b802b4e268125d","B2","batch2","","4766.761999999988","stim/no_65_1_b.png","j","pattern_response","true","j","pattern_38","4766.761999999988","true","53","","","","","","","","","","","","","","","","","","",""
"","","","","","html-keyboard-response","140","281272","0.0-2.0-7.0-0.20","62b9e1aed4b802b4e268125d","B2","batch2","","null","<p class=block-text>Trial 60 out of 78</p>","null","pattern_show_trial_num","","","","","","","","","","","","","","","","","","","","","","","","",""
"","","","","","image-keyboard-response","141","283389","0.0-2.0-7.0-1.20","62b9e1aed4b802b4e268125d","B2","batch2","","2083.375","stim/yes_31_hor_b1.png","f","pattern_response","true","f","pattern_55","2083.375","true","54","","","","","","","","","","","","","","","","","","",""
"","","","","","html-keyboard-response","142","284689","0.0-2.0-7.0-0.21","62b9e1aed4b802b4e268125d","B2","batch2","","null","<p class=block-text>Trial 61 out of 78</p>","null","pattern_show_trial_num","","","","","","","","","","","","","","","","","","","","","","","","",""
"","","","","","image-keyboard-response","143","287222","0.0-2.0-7.0-1.21","62b9e1aed4b802b4e268125d","B2","batch2","","2516.717000000004","stim/no_50_1.png","j","pattern_response","true","j","pattern_30","2516.717000000004","true","55","","","","","","","","","","","","","","","","","","",""
"","","","","","html-keyboard-response","144","288539","0.0-2.0-7.0-0.22","62b9e1aed4b802b4e268125d","B2","batch2","","null","<p class=block-text>Trial 62 out of 78</p>","null","pattern_show_trial_num","","","","","","","","","","","","","","","","","","","","","","","","",""
"","","","","","image-keyboard-response","145","289622","0.0-2.0-7.0-1.22","62b9e1aed4b802b4e268125d","B2","batch2","","1066.6879999999655","stim/no_17_1_w.png","j","pattern_response","true","j","pattern_04","1066.6879999999655","true","56","","","","","","","","","","","","","","","","","","",""
"","","","","","html-keyboard-response","146","290922","0.0-2.0-7.0-0.23","62b9e1aed4b802b4e268125d","B2","batch2","","null","<p class=block-text>Trial 63 out of 78</p>","null","pattern_show_trial_num","","","","","","","","","","","","","","","","","","","","","","","","",""
"","","","","","image-keyboard-response","147","291856","0.0-2.0-7.0-1.23","62b9e1aed4b802b4e268125d","B2","batch2","","916.6849999999977","stim/yes_29_ver_w1.png","f","pattern_response","true","f","pattern_53","916.6849999999977","true","57","","","","","","","","","","","","","","","","","","",""
"","","","","","html-keyboard-response","148","293172","0.0-2.0-7.0-0.24","62b9e1aed4b802b4e268125d","B2","batch2","","null","<p class=block-text>Trial 64 out of 78</p>","null","pattern_show_trial_num","","","","","","","","","","","","","","","","","","","","","","","","",""
"","","","","","image-keyboard-response","149","295922","0.0-2.0-7.0-1.24","62b9e1aed4b802b4e268125d","B2","batch2","","2716.7209999999614","stim/no_70_2.png","f","pattern_response","false","j","pattern_40","2716.7209999999614","false","57","","","","","","","","","","","","","","","","","","",""
"","","","","","html-keyboard-response","150","297239","0.0-2.0-7.0-0.25","62b9e1aed4b802b4e268125d","B2","batch2","","null","<p class=block-text>Trial 65 out of 78</p>","null","pattern_show_trial_num","","","","","","","","","","","","","","","","","","","","","","","","",""
"","","","","","image-keyboard-response","151","299939","0.0-2.0-7.0-1.25","62b9e1aed4b802b4e268125d","B2","batch2","","2700.0540000000037","stim/no_42_1_w.png","j","pattern_response","true","j","pattern_22","2700.0540000000037","true","58","","","","","","","","","","","","","","","","","","",""
"","","","","","html-keyboard-response","152","301239","0.0-2.0-7.0-0.26","62b9e1aed4b802b4e268125d","B2","batch2","","null","<p class=block-text>Trial 66 out of 78</p>","null","pattern_show_trial_num","","","","","","","","","","","","","","","","","","","","","","","","",""
"","","","","","image-keyboard-response","153","302273","0.0-2.0-7.0-1.26","62b9e1aed4b802b4e268125d","B2","batch2","","1016.6870000000345","stim/yes_43_ver_w1_w.png","f","pattern_response","true","f","pattern_65","1016.6870000000345","true","59","","","","","","","","","","","","","","","","","","",""
"","","","","","html-keyboard-response","154","303573","0.0-2.0-7.0-0.27","62b9e1aed4b802b4e268125d","B2","batch2","","null","<p class=block-text>Trial 67 out of 78</p>","null","pattern_show_trial_num","","","","","","","","","","","","","","","","","","","","","","","","",""
"","","","","","image-keyboard-response","155","305223","0.0-2.0-7.0-1.27","62b9e1aed4b802b4e268125d","B2","batch2","","1633.36599999998","stim/yes_40_dia_b1_b.png","f","pattern_response","true","f","pattern_63","1633.36599999998","true","60","","","","","","","","","","","","","","","","","","",""
"","","","","","html-keyboard-response","156","306523","0.0-2.0-7.0-0.28","62b9e1aed4b802b4e268125d","B2","batch2","","null","<p class=block-text>Trial 68 out of 78</p>","null","pattern_show_trial_num","","","","","","","","","","","","","","","","","","","","","","","","",""
"","","","","","image-keyboard-response","157","309523","0.0-2.0-7.0-1.28","62b9e1aed4b802b4e268125d","B2","batch2","","2950.0590000000084","stim/yes_50_dia_w1.png","j","pattern_response","false","f","pattern_71","2950.0590000000084","false","60","","","","","","","","","","","","","","","","","","",""
"","","","","","html-keyboard-response","158","310823","0.0-2.0-7.0-0.29","62b9e1aed4b802b4e268125d","B2","batch2","","null","<p class=block-text>Trial 69 out of 78</p>","null","pattern_show_trial_num","","","","","","","","","","","","","","","","","","","","","","","","",""
"","","","","","image-keyboard-response","159","314406","0.0-2.0-7.0-1.29","62b9e1aed4b802b4e268125d","B2","batch2","","3566.738000000012","stim/no_62_1_w.png","j","pattern_response","true","j","pattern_36","3566.738000000012","true","61","","","","","","","","","","","","","","","","","","",""
"","","","","","html-keyboard-response","160","315690","0.0-2.0-7.0-0.30","62b9e1aed4b802b4e268125d","B2","batch2","","null","<p class=block-text>Trial 70 out of 78</p>","null","pattern_show_trial_num","","","","","","","","","","","","","","","","","","","","","","","","",""
"","","","","","image-keyboard-response","161","317640","0.0-2.0-7.0-1.30","62b9e1aed4b802b4e268125d","B2","batch2","","1916.7050000000163","stim/no_29_1_b.png","j","pattern_response","true","j","pattern_12","1916.7050000000163","true","62","","","","","","","","","","","","","","","","","","",""
"","","","","","html-keyboard-response","162","318923","0.0-2.0-7.0-0.31","62b9e1aed4b802b4e268125d","B2","batch2","","null","<p class=block-text>Trial 71 out of 78</p>","null","pattern_show_trial_num","","","","","","","","","","","","","","","","","","","","","","","","",""
"","","","","","image-keyboard-response","163","320840","0.0-2.0-7.0-1.31","62b9e1aed4b802b4e268125d","B2","batch2","","1883.3710000000428","stim/no_26_1_w.png","j","pattern_response","true","j","pattern_10","1883.3710000000428","true","63","","","","","","","","","","","","","","","","","","",""
"","","","","","html-keyboard-response","164","322140","0.0-2.0-7.0-0.32","62b9e1aed4b802b4e268125d","B2","batch2","","null","<p class=block-text>Trial 72 out of 78</p>","null","pattern_show_trial_num","","","","","","","","","","","","","","","","","","","","","","","","",""
"","","","","","image-keyboard-response","165","324956","0.0-2.0-7.0-1.32","62b9e1aed4b802b4e268125d","B2","batch2","","2800.0559999999823","stim/no_48_1_w.png","j","pattern_response","true","j","pattern_28","2800.0559999999823","true","64","","","","","","","","","","","","","","","","","","",""
"","","","","","html-keyboard-response","166","326256","0.0-2.0-7.0-0.33","62b9e1aed4b802b4e268125d","B2","batch2","","null","<p class=block-text>Trial 73 out of 78</p>","null","pattern_show_trial_num","","","","","","","","","","","","","","","","","","","","","","","","",""
"","","","","","image-keyboard-response","167","327123","0.0-2.0-7.0-1.33","62b9e1aed4b802b4e268125d","B2","batch2","","850.0169999999925","stim/yes_17_dia_w1.png","f","pattern_response","true","f","pattern_45","850.0169999999925","true","65","","","","","","","","","","","","","","","","","","",""
"","","","","","html-keyboard-response","168","328440","0.0-2.0-7.0-0.34","62b9e1aed4b802b4e268125d","B2","batch2","","null","<p class=block-text>Trial 74 out of 78</p>","null","pattern_show_trial_num","","","","","","","","","","","","","","","","","","","","","","","","",""
"","","","","","image-keyboard-response","169","331990","0.0-2.0-7.0-1.34","62b9e1aed4b802b4e268125d","B2","batch2","","3533.4040000000386","stim/no_46_1_b.png","j","pattern_response","true","j","pattern_26","3533.4040000000386","true","66","","","","","","","","","","","","","","","","","","",""
"","","","","","html-keyboard-response","170","333290","0.0-2.0-7.0-0.35","62b9e1aed4b802b4e268125d","B2","batch2","","null","<p class=block-text>Trial 75 out of 78</p>","null","pattern_show_trial_num","","","","","","","","","","","","","","","","","","","","","","","","",""
"","","","","","image-keyboard-response","171","336723","0.0-2.0-7.0-1.35","62b9e1aed4b802b4e268125d","B2","batch2","","3416.734999999986","stim/no_55_1_w.png","j","pattern_response","true","j","pattern_34","3416.734999999986","true","67","","","","","","","","","","","","","","","","","","",""
"","","","","","html-keyboard-response","172","338023","0.0-2.0-7.0-0.36","62b9e1aed4b802b4e268125d","B2","batch2","","null","<p class=block-text>Trial 76 out of 78</p>","null","pattern_show_trial_num","","","","","","","","","","","","","","","","","","","","","","","","",""
"","","","","","image-keyboard-response","173","340240","0.0-2.0-7.0-1.36","62b9e1aed4b802b4e268125d","B2","batch2","","2166.7099999999627","stim/yes_35_dia_b1.png","j","pattern_response","false","f","pattern_57","2166.7099999999627","false","67","","","","","","","","","","","","","","","","","","",""
"","","","","","html-keyboard-response","174","341523","0.0-2.0-7.0-0.37","62b9e1aed4b802b4e268125d","B2","batch2","","null","<p class=block-text>Trial 77 out of 78</p>","null","pattern_show_trial_num","","","","","","","","","","","","","","","","","","","","","","","","",""
"","","","","","image-keyboard-response","175","343707","0.0-2.0-7.0-1.37","62b9e1aed4b802b4e268125d","B2","batch2","","2166.7099999999627","stim/no_32_1_w.png","j","pattern_response","true","j","pattern_14","2166.7099999999627","true","68","","","","","","","","","","","","","","","","","","",""
"","","","","","html-keyboard-response","176","345023","0.0-2.0-7.0-0.38","62b9e1aed4b802b4e268125d","B2","batch2","","null","<p class=block-text>Trial 78 out of 78</p>","null","pattern_show_trial_num","","","","","","","","","","","","","","","","","","","","","","","","",""
"","","","","","image-keyboard-response","177","346140","0.0-2.0-7.0-1.38","62b9e1aed4b802b4e268125d","B2","batch2","","1116.6889999999548","stim/yes_52_ver_w1.png","f","pattern_response","true","f","pattern_73","1116.6889999999548","true","69","","","","","","","","","","","","","","","","","","",""
"","","","","","html-button-response","178","352590","0.0-2.0-8.0","62b9e1aed4b802b4e268125d","B2","batch2","","5933.45199999999","<p class = block-text>This concludes the 4-in-a-row detection game.Thank you for your responses!<br>
            You responded correctly on 88% of the trials.<br>
            When you are ready, press ""Continue"" button to continue </p>","0","","","","","","","","","","","","","","","","","","","","","","","","","",""
"true","","","","","fullscreen","179","356974","0.0-3.0-0.0","62b9e1aed4b802b4e268125d","B2","batch2","","","","","spm_fullscreen","","","","","","","","","","","","","","","","","","","","","","","","",""
"","","","","","html-button-response","180","386974","0.0-3.0-1.0","62b9e1aed4b802b4e268125d","B2","batch2","","29983.93299999996","<p class = block-text><b>Instructions</b> <br>This is a widely used intelligence test in research. <br>In this test, a figure with a missing piece will be presented.<br>Below the figure are alternative pieces to complete the figure, only one of which is correct.<br> Different figures might involve different principles for obtaining the missing piece<br>Your job is to select the most logical piece to complete the figure.</p>","0","","","","","","","","","","","","","","","","","","","","","","","","","",""
"","","","","","html-keyboard-response","181","387774","0.0-3.0-2.0-0.0","62b9e1aed4b802b4e268125d","B2","batch2","","null","<p class=block-text>Trial 1 out of 60</p>","null","spm_show_trial_num","","","","","","","","","","","","","","","","","","","","","","","","",""
"","","","","","image-button-response","182","404308","0.0-3.0-2.0-1.0","62b9e1aed4b802b4e268125d","B2","batch2","","16516.996999999974","img/question_1_1.jpeg","3","spm_respsonse","1","4","mat_01","","","","","","1","16516.996999999974","","","","","","","","","","","","","","",""
"","","","","","html-keyboard-response","183","405375","0.0-3.0-2.0-0.1","62b9e1aed4b802b4e268125d","B2","batch2","","null","<p class=block-text>Trial 2 out of 60</p>","null","spm_show_trial_num","","","","","","","","","","","","","","","","","","","","","","","","",""
"","","","","","image-button-response","184","408091","0.0-3.0-2.0-1.1","62b9e1aed4b802b4e268125d","B2","batch2","","2700.0540000000037","img/question_1_2.jpeg","4","spm_respsonse","1","5","mat_02","","","","","","1","2700.0540000000037","","","","","","","","","","","","","","",""
"","","","","","html-keyboard-response","185","409125","0.0-3.0-2.0-0.2","62b9e1aed4b802b4e268125d","B2","batch2","","null","<p class=block-text>Trial 3 out of 60</p>","null","spm_show_trial_num","","","","","","","","","","","","","","","","","","","","","","","","",""
"","","","","","image-button-response","186","412741","0.0-3.0-2.0-1.2","62b9e1aed4b802b4e268125d","B2","batch2","","3616.7390000000014","img/question_1_3.jpeg","0","spm_respsonse","1","1","mat_03","","","","","","1","3616.7390000000014","","","","","","","","","","","","","","",""
"","","","","","html-keyboard-response","187","413808","0.0-3.0-2.0-0.3","62b9e1aed4b802b4e268125d","B2","batch2","","null","<p class=block-text>Trial 4 out of 60</p>","null","spm_show_trial_num","","","","","","","","","","","","","","","","","","","","","","","","",""
"","","","","","image-button-response","188","419825","0.0-3.0-2.0-1.3","62b9e1aed4b802b4e268125d","B2","batch2","","6000.120000000054","img/question_1_4.jpeg","1","spm_respsonse","1","2","mat_04","","","","","","1","6000.120000000054","","","","","","","","","","","","","","",""
"","","","","","html-keyboard-response","189","420875","0.0-3.0-2.0-0.4","62b9e1aed4b802b4e268125d","B2","batch2","","null","<p class=block-text>Trial 5 out of 60</p>","null","spm_show_trial_num","","","","","","","","","","","","","","","","","","","","","","","","",""
"","","","","","image-button-response","190","425792","0.0-3.0-2.0-1.4","62b9e1aed4b802b4e268125d","B2","batch2","","4916.765000000014","img/question_1_5.jpeg","4","spm_respsonse","0","6","mat_05","","","","","","0","4916.765000000014","","","","","","","","","","","","","","",""
"","","","","","html-keyboard-response","191","426858","0.0-3.0-2.0-0.5","62b9e1aed4b802b4e268125d","B2","batch2","","null","<p class=block-text>Trial 6 out of 60</p>","null","spm_show_trial_num","","","","","","","","","","","","","","","","","","","","","","","","",""
"","","","","","image-button-response","192","431592","0.0-3.0-2.0-1.5","62b9e1aed4b802b4e268125d","B2","batch2","","4733.428000000014","img/question_1_6.jpeg","2","spm_respsonse","1","3","mat_06","","","","","","1","4733.428000000014","","","","","","","","","","","","","","",""
"","","","","","html-keyboard-response","193","432642","0.0-3.0-2.0-0.6","62b9e1aed4b802b4e268125d","B2","batch2","","null","<p class=block-text>Trial 7 out of 60</p>","null","spm_show_trial_num","","","","","","","","","","","","","","","","","","","","","","","","",""
"","","","","","image-button-response","194","438159","0.0-3.0-2.0-1.6","62b9e1aed4b802b4e268125d","B2","batch2","","5500.109999999986","img/question_1_7.jpeg","4","spm_respsonse","0","6","mat_07","","","","","","0","5500.109999999986","","","","","","","","","","","","","","",""
"","","","","","html-keyboard-response","195","439209","0.0-3.0-2.0-0.7","62b9e1aed4b802b4e268125d","B2","batch2","","null","<p class=block-text>Trial 8 out of 60</p>","null","spm_show_trial_num","","","","","","","","","","","","","","","","","","","","","","","","",""
"","","","","","image-button-response","196","450176","0.0-3.0-2.0-1.7","62b9e1aed4b802b4e268125d","B2","batch2","","10966.885999999999","img/question_1_8.jpeg","1","spm_respsonse","1","2","mat_08","","","","","","1","10966.885999999999","","","","","","","","","","","","","","",""
"","","","","","html-keyboard-response","197","451242","0.0-3.0-2.0-0.8","62b9e1aed4b802b4e268125d","B2","batch2","","null","<p class=block-text>Trial 9 out of 60</p>","null","spm_show_trial_num","","","","","","","","","","","","","","","","","","","","","","","","",""
"","","","","","image-button-response","198","457492","0.0-3.0-2.0-1.8","62b9e1aed4b802b4e268125d","B2","batch2","","6250.125","img/question_1_9.jpeg","0","spm_respsonse","1","1","mat_09","","","","","","1","6250.125","","","","","","","","","","","","","","",""
"","","","","","html-keyboard-response","199","458542","0.0-3.0-2.0-0.9","62b9e1aed4b802b4e268125d","B2","batch2","","null","<p class=block-text>Trial 10 out of 60</p>","null","spm_show_trial_num","","","","","","","","","","","","","","","","","","","","","","","","",""
"","","","","","image-button-response","200","477543","0.0-3.0-2.0-1.9","62b9e1aed4b802b4e268125d","B2","batch2","","19017.04700000002","img/question_1_10.jpeg","2","spm_respsonse","1","3","mat_10","","","","","","1","19017.04700000002","","","","","","","","","","","","","","",""
"","","","","","html-keyboard-response","201","478609","0.0-3.0-2.0-0.10","62b9e1aed4b802b4e268125d","B2","batch2","","null","<p class=block-text>Trial 11 out of 60</p>","null","spm_show_trial_num","","","","","","","","","","","","","","","","","","","","","","","","",""
"","","","","","image-button-response","202","494976","0.0-3.0-2.0-1.10","62b9e1aed4b802b4e268125d","B2","batch2","","16366.994000000006","img/question_1_11.jpeg","3","spm_respsonse","1","4","mat_11","","","","","","1","16366.994000000006","","","","","","","","","","","","","","",""
"","","","","","html-keyboard-response","203","496026","0.0-3.0-2.0-0.11","62b9e1aed4b802b4e268125d","B2","batch2","","null","<p class=block-text>Trial 12 out of 60</p>","null","spm_show_trial_num","","","","","","","","","","","","","","","","","","","","","","","","",""
"","","","","","image-button-response","204","514260","0.0-3.0-2.0-1.11","62b9e1aed4b802b4e268125d","B2","batch2","","18217.031000000017","img/question_1_12.jpeg","4","spm_respsonse","1","5","mat_12","","","","","","1","18217.031000000017","","","","","","","","","","","","","","",""
"","","","","","html-keyboard-response","205","515327","0.0-3.0-2.0-0.12","62b9e1aed4b802b4e268125d","B2","batch2","","null","<p class=block-text>Trial 13 out of 60</p>","null","spm_show_trial_num","","","","","","","","","","","","","","","","","","","","","","","","",""
"","","","","","image-button-response","206","517960","0.0-3.0-2.0-1.12","62b9e1aed4b802b4e268125d","B2","batch2","","2650.0529999999562","img/question_2_1.jpeg","1","spm_respsonse","1","2","mat_13","","","","","","1","2650.0529999999562","","","","","","","","","","","","","","",""
"","","","","","html-keyboard-response","207","519027","0.0-3.0-2.0-0.13","62b9e1aed4b802b4e268125d","B2","batch2","","null","<p class=block-text>Trial 14 out of 60</p>","null","spm_show_trial_num","","","","","","","","","","","","","","","","","","","","","","","","",""
"","","","","","image-button-response","208","526944","0.0-3.0-2.0-1.13","62b9e1aed4b802b4e268125d","B2","batch2","","7916.825000000012","img/question_2_2.jpeg","5","spm_respsonse","1","6","mat_14","","","","","","1","7916.825000000012","","","","","","","","","","","","","","",""
"","","","","","html-keyboard-response","209","527994","0.0-3.0-2.0-0.14","62b9e1aed4b802b4e268125d","B2","batch2","","null","<p class=block-text>Trial 15 out of 60</p>","null","spm_show_trial_num","","","","","","","","","","","","","","","","","","","","","","","","",""
"","","","","","image-button-response","210","532344","0.0-3.0-2.0-1.14","62b9e1aed4b802b4e268125d","B2","batch2","","4316.753000000026","img/question_2_3.jpeg","0","spm_respsonse","1","1","mat_15","","","","","","1","4316.753000000026","","","","","","","","","","","","","","",""
"","","","","","html-keyboard-response","211","533394","0.0-3.0-2.0-0.15","62b9e1aed4b802b4e268125d","B2","batch2","","null","<p class=block-text>Trial 16 out of 60</p>","null","spm_show_trial_num","","","","","","","","","","","","","","","","","","","","","","","","",""
"","","","","","image-button-response","212","537661","0.0-3.0-2.0-1.15","62b9e1aed4b802b4e268125d","B2","batch2","","4266.752000000095","img/question_2_4.jpeg","1","spm_respsonse","1","2","mat_16","","","","","","1","4266.752000000095","","","","","","","","","","","","","","",""
"","","","","","html-keyboard-response","213","538711","0.0-3.0-2.0-0.16","62b9e1aed4b802b4e268125d","B2","batch2","","null","<p class=block-text>Trial 17 out of 60</p>","null","spm_show_trial_num","","","","","","","","","","","","","","","","","","","","","","","","",""
"","","","","","image-button-response","214","545294","0.0-3.0-2.0-1.16","62b9e1aed4b802b4e268125d","B2","batch2","","6566.797999999952","img/question_2_5.jpeg","0","spm_respsonse","1","1","mat_17","","","","","","1","6566.797999999952","","","","","","","","","","","","","","",""
"","","","","","html-keyboard-response","215","546344","0.0-3.0-2.0-0.17","62b9e1aed4b802b4e268125d","B2","batch2","","null","<p class=block-text>Trial 18 out of 60</p>","null","spm_show_trial_num","","","","","","","","","","","","","","","","","","","","","","","","",""
"","","","","","image-button-response","216","553944","0.0-3.0-2.0-1.17","62b9e1aed4b802b4e268125d","B2","batch2","","7583.484999999986","img/question_2_6.jpeg","2","spm_respsonse","1","3","mat_18","","","","","","1","7583.484999999986","","","","","","","","","","","","","","",""
"","","","","","html-keyboard-response","217","554994","0.0-3.0-2.0-0.18","62b9e1aed4b802b4e268125d","B2","batch2","","null","<p class=block-text>Trial 19 out of 60</p>","null","spm_show_trial_num","","","","","","","","","","","","","","","","","","","","","","","","",""
"","","","","","image-button-response","218","568628","0.0-3.0-2.0-1.18","62b9e1aed4b802b4e268125d","B2","batch2","","13616.939000000013","img/question_2_7.jpeg","4","spm_respsonse","1","5","mat_19","","","","","","1","13616.939000000013","","","","","","","","","","","","","","",""
"","","","","","html-keyboard-response","219","569678","0.0-3.0-2.0-0.19","62b9e1aed4b802b4e268125d","B2","batch2","","null","<p class=block-text>Trial 20 out of 60</p>","null","spm_show_trial_num","","","","","","","","","","","","","","","","","","","","","","","","",""
"","","","","","image-button-response","220","578011","0.0-3.0-2.0-1.19","62b9e1aed4b802b4e268125d","B2","batch2","","8333.5","img/question_2_8.jpeg","5","spm_respsonse","1","6","mat_20","","","","","","1","8333.5","","","","","","","","","","","","","","",""
"","","","","","html-keyboard-response","221","579061","0.0-3.0-2.0-0.20","62b9e1aed4b802b4e268125d","B2","batch2","","null","<p class=block-text>Trial 21 out of 60</p>","null","spm_show_trial_num","","","","","","","","","","","","","","","","","","","","","","","","",""
"","","","","","image-button-response","222","582578","0.0-3.0-2.0-1.20","62b9e1aed4b802b4e268125d","B2","batch2","","3500.069999999949","img/question_2_9.jpeg","3","spm_respsonse","1","4","mat_21","","","","","","1","3500.069999999949","","","","","","","","","","","","","","",""
"","","","","","html-keyboard-response","223","583628","0.0-3.0-2.0-0.21","62b9e1aed4b802b4e268125d","B2","batch2","","null","<p class=block-text>Trial 22 out of 60</p>","null","spm_show_trial_num","","","","","","","","","","","","","","","","","","","","","","","","",""
"","","","","","image-button-response","224","587512","0.0-3.0-2.0-1.21","62b9e1aed4b802b4e268125d","B2","batch2","","3883.4109999999637","img/question_2_10.jpeg","2","spm_respsonse","1","3","mat_22","","","","","","1","3883.4109999999637","","","","","","","","","","","","","","",""
"","","","","","html-keyboard-response","225","588562","0.0-3.0-2.0-0.22","62b9e1aed4b802b4e268125d","B2","batch2","","null","<p class=block-text>Trial 23 out of 60</p>","null","spm_show_trial_num","","","","","","","","","","","","","","","","","","","","","","","","",""
"","","","","","image-button-response","226","594828","0.0-3.0-2.0-1.22","62b9e1aed4b802b4e268125d","B2","batch2","","6250.125","img/question_2_11.jpeg","3","spm_respsonse","1","4","mat_23","","","","","","1","6250.125","","","","","","","","","","","","","","",""
"","","","","","html-keyboard-response","227","595878","0.0-3.0-2.0-0.23","62b9e1aed4b802b4e268125d","B2","batch2","","null","<p class=block-text>Trial 24 out of 60</p>","null","spm_show_trial_num","","","","","","","","","","","","","","","","","","","","","","","","",""
"","","","","","image-button-response","228","609295","0.0-3.0-2.0-1.23","62b9e1aed4b802b4e268125d","B2","batch2","","13400.26800000004","img/question_2_12.jpeg","4","spm_respsonse","1","5","mat_24","","","","","","1","13400.26800000004","","","","","","","","","","","","","","",""
"","","","","","html-button-response","229","612079","0.0-3.0-3.0","62b9e1aed4b802b4e268125d","B2","batch2","","2516.716999999946","<p class = block-text>Attention check: Please choose 1<br></p>","0","attention_check","true","","","","","","","","","","","","","","","","","","","","","","","",""
"","","","","","html-keyboard-response","230","612879","0.0-3.0-4.0-0.0","62b9e1aed4b802b4e268125d","B2","batch2","","null","<p class=block-text>Trial 25 out of 60</p>","null","spm_show_trial_num","","","","","","","","","","","","","","","","","","","","","","","","",""
"","","","","","image-button-response","231","620179","0.0-3.0-4.0-1.0","62b9e1aed4b802b4e268125d","B2","batch2","","7300.14599999995","img/question_3_1.jpeg","7","spm_respsonse","1","8","mat_25","","","","","","1","7300.14599999995","","","","","","","","","","","","","","",""
"","","","","","html-keyboard-response","232","621229","0.0-3.0-4.0-0.1","62b9e1aed4b802b4e268125d","B2","batch2","","null","<p class=block-text>Trial 26 out of 60</p>","null","spm_show_trial_num","","","","","","","","","","","","","","","","","","","","","","","","",""
"","","","","","image-button-response","233","638713","0.0-3.0-4.0-1.1","62b9e1aed4b802b4e268125d","B2","batch2","","17467.015999999945","img/question_3_2.jpeg","1","spm_respsonse","1","2","mat_26","","","","","","1","17467.015999999945","","","","","","","","","","","","","","",""
"","","","","","html-keyboard-response","234","639763","0.0-3.0-4.0-0.2","62b9e1aed4b802b4e268125d","B2","batch2","","null","<p class=block-text>Trial 27 out of 60</p>","null","spm_show_trial_num","","","","","","","","","","","","","","","","","","","","","","","","",""
"","","","","","image-button-response","235","651913","0.0-3.0-4.0-1.2","62b9e1aed4b802b4e268125d","B2","batch2","","12150.243000000017","img/question_3_3.jpeg","2","spm_respsonse","1","3","mat_27","","","","","","1","12150.243000000017","","","","","","","","","","","","","","",""
"","","","","","html-keyboard-response","236","652980","0.0-3.0-4.0-0.3","62b9e1aed4b802b4e268125d","B2","batch2","","null","<p class=block-text>Trial 28 out of 60</p>","null","spm_show_trial_num","","","","","","","","","","","","","","","","","","","","","","","","",""
"","","","","","image-button-response","237","672197","0.0-3.0-4.0-1.3","62b9e1aed4b802b4e268125d","B2","batch2","","19200.38399999996","img/question_3_4.jpeg","7","spm_respsonse","1","8","mat_28","","","","","","1","19200.38399999996","","","","","","","","","","","","","","",""
"","","","","","html-keyboard-response","238","673247","0.0-3.0-4.0-0.4","62b9e1aed4b802b4e268125d","B2","batch2","","null","<p class=block-text>Trial 29 out of 60</p>","null","spm_show_trial_num","","","","","","","","","","","","","","","","","","","","","","","","",""
"","","","","","image-button-response","239","700414","0.0-3.0-4.0-1.4","62b9e1aed4b802b4e268125d","B2","batch2","","27150.543000000063","img/question_3_5.jpeg","6","spm_respsonse","1","7","mat_29","","","","","","1","27150.543000000063","","","","","","","","","","","","","","",""
"","","","","","html-keyboard-response","240","701464","0.0-3.0-4.0-0.5","62b9e1aed4b802b4e268125d","B2","batch2","","null","<p class=block-text>Trial 30 out of 60</p>","null","spm_show_trial_num","","","","","","","","","","","","","","","","","","","","","","","","",""
"","","","","","image-button-response","241","718714","0.0-3.0-4.0-1.5","62b9e1aed4b802b4e268125d","B2","batch2","","17250.344999999972","img/question_3_6.jpeg","3","spm_respsonse","1","4","mat_30","","","","","","1","17250.344999999972","","","","","","","","","","","","","","",""
"","","","","","html-keyboard-response","242","719764","0.0-3.0-4.0-0.6","62b9e1aed4b802b4e268125d","B2","batch2","","null","<p class=block-text>Trial 31 out of 60</p>","null","spm_show_trial_num","","","","","","","","","","","","","","","","","","","","","","","","",""
"","","","","","image-button-response","243","733098","0.0-3.0-4.0-1.6","62b9e1aed4b802b4e268125d","B2","batch2","","13333.599999999977","img/question_3_7.jpeg","4","spm_respsonse","1","5","mat_31","","","","","","1","13333.599999999977","","","","","","","","","","","","","","",""
"","","","","","html-keyboard-response","244","734148","0.0-3.0-4.0-0.7","62b9e1aed4b802b4e268125d","B2","batch2","","null","<p class=block-text>Trial 32 out of 60</p>","null","spm_show_trial_num","","","","","","","","","","","","","","","","","","","","","","","","",""
"","","","","","image-button-response","245","749965","0.0-3.0-4.0-1.7","62b9e1aed4b802b4e268125d","B2","batch2","","15816.983000000007","img/question_3_8.jpeg","0","spm_respsonse","1","1","mat_32","","","","","","1","15816.983000000007","","","","","","","","","","","","","","",""
"","","","","","html-keyboard-response","246","751032","0.0-3.0-4.0-0.8","62b9e1aed4b802b4e268125d","B2","batch2","","null","<p class=block-text>Trial 33 out of 60</p>","null","spm_show_trial_num","","","","","","","","","","","","","","","","","","","","","","","","",""
"","","","","","image-button-response","247","763165","0.0-3.0-4.0-1.8","62b9e1aed4b802b4e268125d","B2","batch2","","12133.576000000001","img/question_3_9.jpeg","6","spm_respsonse","1","7","mat_33","","","","","","1","12133.576000000001","","","","","","","","","","","","","","",""
"","","","","","html-keyboard-response","248","764215","0.0-3.0-4.0-0.9","62b9e1aed4b802b4e268125d","B2","batch2","","null","<p class=block-text>Trial 34 out of 60</p>","null","spm_show_trial_num","","","","","","","","","","","","","","","","","","","","","","","","",""
"","","","","","image-button-response","249","778532","0.0-3.0-4.0-1.9","62b9e1aed4b802b4e268125d","B2","batch2","","14300.285999999964","img/question_3_10.jpeg","5","spm_respsonse","1","6","mat_34","","","","","","1","14300.285999999964","","","","","","","","","","","","","","",""
"","","","","","html-keyboard-response","250","779582","0.0-3.0-4.0-0.10","62b9e1aed4b802b4e268125d","B2","batch2","","null","<p class=block-text>Trial 35 out of 60</p>","null","spm_show_trial_num","","","","","","","","","","","","","","","","","","","","","","","","",""
"","","","","","image-button-response","251","822350","0.0-3.0-4.0-1.10","62b9e1aed4b802b4e268125d","B2","batch2","","42750.8550000001","img/question_3_11.jpeg","0","spm_respsonse","1","1","mat_35","","","","","","1","42750.8550000001","","","","","","","","","","","","","","",""
"","","","","","html-keyboard-response","252","823416","0.0-3.0-4.0-0.11","62b9e1aed4b802b4e268125d","B2","batch2","","null","<p class=block-text>Trial 36 out of 60</p>","null","spm_show_trial_num","","","","","","","","","","","","","","","","","","","","","","","","",""
"","","","","","image-button-response","253","855500","0.0-3.0-4.0-1.11","62b9e1aed4b802b4e268125d","B2","batch2","","32067.30799999996","img/question_3_12.jpeg","2","spm_respsonse","0","2","mat_36","","","","","","0","32067.30799999996","","","","","","","","","","","","","","",""
"","","","","","html-keyboard-response","254","856550","0.0-3.0-4.0-0.12","62b9e1aed4b802b4e268125d","B2","batch2","","null","<p class=block-text>Trial 37 out of 60</p>","null","spm_show_trial_num","","","","","","","","","","","","","","","","","","","","","","","","",""
"","","","","","image-button-response","255","860117","0.0-3.0-4.0-1.12","62b9e1aed4b802b4e268125d","B2","batch2","","3566.738000000012","img/question_4_1.jpeg","2","spm_respsonse","1","3","mat_37","","","","","","1","3566.738000000012","","","","","","","","","","","","","","",""
"","","","","","html-keyboard-response","256","861184","0.0-3.0-4.0-0.13","62b9e1aed4b802b4e268125d","B2","batch2","","null","<p class=block-text>Trial 38 out of 60</p>","null","spm_show_trial_num","","","","","","","","","","","","","","","","","","","","","","","","",""
"","","","","","image-button-response","257","868567","0.0-3.0-4.0-1.13","62b9e1aed4b802b4e268125d","B2","batch2","","7383.4809999999125","img/question_4_2.jpeg","3","spm_respsonse","1","4","mat_38","","","","","","1","7383.4809999999125","","","","","","","","","","","","","","",""
"","","","","","html-keyboard-response","258","869634","0.0-3.0-4.0-0.14","62b9e1aed4b802b4e268125d","B2","batch2","","null","<p class=block-text>Trial 39 out of 60</p>","null","spm_show_trial_num","","","","","","","","","","","","","","","","","","","","","","","","",""
"","","","","","image-button-response","259","876267","0.0-3.0-4.0-1.14","62b9e1aed4b802b4e268125d","B2","batch2","","6616.798999999999","img/question_4_3.jpeg","2","spm_respsonse","1","3","mat_39","","","","","","1","6616.798999999999","","","","","","","","","","","","","","",""
"","","","","","html-keyboard-response","260","877317","0.0-3.0-4.0-0.15","62b9e1aed4b802b4e268125d","B2","batch2","","null","<p class=block-text>Trial 40 out of 60</p>","null","spm_show_trial_num","","","","","","","","","","","","","","","","","","","","","","","","",""
"","","","","","image-button-response","261","888518","0.0-3.0-4.0-1.15","62b9e1aed4b802b4e268125d","B2","batch2","","11183.55700000003","img/question_4_4.jpeg","6","spm_respsonse","1","7","mat_40","","","","","","1","11183.55700000003","","","","","","","","","","","","","","",""
"","","","","","html-keyboard-response","262","889568","0.0-3.0-4.0-0.16","62b9e1aed4b802b4e268125d","B2","batch2","","null","<p class=block-text>Trial 41 out of 60</p>","null","spm_show_trial_num","","","","","","","","","","","","","","","","","","","","","","","","",""
"","","","","","image-button-response","263","896534","0.0-3.0-4.0-1.16","62b9e1aed4b802b4e268125d","B2","batch2","","6966.805999999982","img/question_4_5.jpeg","7","spm_respsonse","1","8","mat_41","","","","","","1","6966.805999999982","","","","","","","","","","","","","","",""
"","","","","","html-keyboard-response","264","897585","0.0-3.0-4.0-0.17","62b9e1aed4b802b4e268125d","B2","batch2","","null","<p class=block-text>Trial 42 out of 60</p>","null","spm_show_trial_num","","","","","","","","","","","","","","","","","","","","","","","","",""
"","","","","","image-button-response","265","904618","0.0-3.0-4.0-1.17","62b9e1aed4b802b4e268125d","B2","batch2","","7050.140999999945","img/question_4_6.jpeg","5","spm_respsonse","1","6","mat_42","","","","","","1","7050.140999999945","","","","","","","","","","","","","","",""
"","","","","","html-keyboard-response","266","905668","0.0-3.0-4.0-0.18","62b9e1aed4b802b4e268125d","B2","batch2","","null","<p class=block-text>Trial 43 out of 60</p>","null","spm_show_trial_num","","","","","","","","","","","","","","","","","","","","","","","","",""
"","","","","","image-button-response","267","916768","0.0-3.0-4.0-1.18","62b9e1aed4b802b4e268125d","B2","batch2","","11066.887999999919","img/question_4_7.jpeg","4","spm_respsonse","1","5","mat_43","","","","","","1","11066.887999999919","","","","","","","","","","","","","","",""
"","","","","","html-keyboard-response","268","917818","0.0-3.0-4.0-0.19","62b9e1aed4b802b4e268125d","B2","batch2","","null","<p class=block-text>Trial 44 out of 60</p>","null","spm_show_trial_num","","","","","","","","","","","","","","","","","","","","","","","","",""
"","","","","","image-button-response","269","924735","0.0-3.0-4.0-1.19","62b9e1aed4b802b4e268125d","B2","batch2","","6900.138000000035","img/question_4_8.jpeg","3","spm_respsonse","1","4","mat_44","","","","","","1","6900.138000000035","","","","","","","","","","","","","","",""
"","","","","","html-keyboard-response","270","925802","0.0-3.0-4.0-0.20","62b9e1aed4b802b4e268125d","B2","batch2","","null","<p class=block-text>Trial 45 out of 60</p>","null","spm_show_trial_num","","","","","","","","","","","","","","","","","","","","","","","","",""
"","","","","","image-button-response","271","945385","0.0-3.0-4.0-1.20","62b9e1aed4b802b4e268125d","B2","batch2","","19567.058000000077","img/question_4_9.jpeg","0","spm_respsonse","1","1","mat_45","","","","","","1","19567.058000000077","","","","","","","","","","","","","","",""
"","","","","","html-keyboard-response","272","946435","0.0-3.0-4.0-0.21","62b9e1aed4b802b4e268125d","B2","batch2","","null","<p class=block-text>Trial 46 out of 60</p>","null","spm_show_trial_num","","","","","","","","","","","","","","","","","","","","","","","","",""
"","","","","","image-button-response","273","958219","0.0-3.0-4.0-1.21","62b9e1aed4b802b4e268125d","B2","batch2","","11750.234999999986","img/question_4_10.jpeg","1","spm_respsonse","1","2","mat_46","","","","","","1","11750.234999999986","","","","","","","","","","","","","","",""
"","","","","","html-keyboard-response","274","959269","0.0-3.0-4.0-0.22","62b9e1aed4b802b4e268125d","B2","batch2","","null","<p class=block-text>Trial 47 out of 60</p>","null","spm_show_trial_num","","","","","","","","","","","","","","","","","","","","","","","","",""
"","","","","","image-button-response","275","1010520","0.0-3.0-4.0-1.22","62b9e1aed4b802b4e268125d","B2","batch2","","51267.69200000004","img/question_4_11.jpeg","4","spm_respsonse","1","5","mat_47","","","","","","1","51267.69200000004","","","","","","","","","","","","","","",""
"","","","","","html-keyboard-response","276","1011587","0.0-3.0-4.0-0.23","62b9e1aed4b802b4e268125d","B2","batch2","","null","<p class=block-text>Trial 48 out of 60</p>","null","spm_show_trial_num","","","","","","","","","","","","","","","","","","","","","","","","",""
"","","","","","image-button-response","277","1050804","0.0-3.0-4.0-1.23","62b9e1aed4b802b4e268125d","B2","batch2","","39200.7840000001","img/question_4_12.jpeg","7","spm_respsonse","0","6","mat_48","","","","","","0","39200.7840000001","","","","","","","","","","","","","","",""
"","","","","","html-keyboard-response","278","1051854","0.0-3.0-4.0-0.24","62b9e1aed4b802b4e268125d","B2","batch2","","null","<p class=block-text>Trial 49 out of 60</p>","null","spm_show_trial_num","","","","","","","","","","","","","","","","","","","","","","","","",""
"","","","","","image-button-response","279","1073888","0.0-3.0-4.0-1.24","62b9e1aed4b802b4e268125d","B2","batch2","","22017.107000000076","img/question_5_1.jpeg","6","spm_respsonse","1","7","mat_49","","","","","","1","22017.107000000076","","","","","","","","","","","","","","",""
"","","","","","html-keyboard-response","280","1074938","0.0-3.0-4.0-0.25","62b9e1aed4b802b4e268125d","B2","batch2","","null","<p class=block-text>Trial 50 out of 60</p>","null","spm_show_trial_num","","","","","","","","","","","","","","","","","","","","","","","","",""
"","","","","","image-button-response","281","1107455","0.0-3.0-4.0-1.25","62b9e1aed4b802b4e268125d","B2","batch2","","32500.65000000014","img/question_5_2.jpeg","5","spm_respsonse","1","6","mat_50","","","","","","1","32500.65000000014","","","","","","","","","","","","","","",""
"","","","","","html-keyboard-response","282","1108505","0.0-3.0-4.0-0.26","62b9e1aed4b802b4e268125d","B2","batch2","","null","<p class=block-text>Trial 51 out of 60</p>","null","spm_show_trial_num","","","","","","","","","","","","","","","","","","","","","","","","",""
"","","","","","image-button-response","283","1117556","0.0-3.0-4.0-1.26","62b9e1aed4b802b4e268125d","B2","batch2","","9033.513999999966","img/question_5_3.jpeg","7","spm_respsonse","1","8","mat_51","","","","","","1","9033.513999999966","","","","","","","","","","","","","","",""
"","","","","","html-keyboard-response","284","1118606","0.0-3.0-4.0-0.27","62b9e1aed4b802b4e268125d","B2","batch2","","null","<p class=block-text>Trial 52 out of 60</p>","null","spm_show_trial_num","","","","","","","","","","","","","","","","","","","","","","","","",""
"","","","","","image-button-response","285","1152406","0.0-3.0-4.0-1.27","62b9e1aed4b802b4e268125d","B2","batch2","","33784.00900000008","img/question_5_4.jpeg","2","spm_respsonse","0","2","mat_52","","","","","","0","33784.00900000008","","","","","","","","","","","","","","",""
"","","","","","html-keyboard-response","286","1153456","0.0-3.0-4.0-0.28","62b9e1aed4b802b4e268125d","B2","batch2","","null","<p class=block-text>Trial 53 out of 60</p>","null","spm_show_trial_num","","","","","","","","","","","","","","","","","","","","","","","","",""
"","","","","","image-button-response","287","1164740","0.0-3.0-4.0-1.28","62b9e1aed4b802b4e268125d","B2","batch2","","11283.558999999892","img/question_5_5.jpeg","0","spm_respsonse","1","1","mat_53","","","","","","1","11283.558999999892","","","","","","","","","","","","","","",""
"","","","","","html-keyboard-response","288","1165807","0.0-3.0-4.0-0.29","62b9e1aed4b802b4e268125d","B2","batch2","","null","<p class=block-text>Trial 54 out of 60</p>","null","spm_show_trial_num","","","","","","","","","","","","","","","","","","","","","","","","",""
"","","","","","image-button-response","289","1188690","0.0-3.0-4.0-1.29","62b9e1aed4b802b4e268125d","B2","batch2","","22867.12400000007","img/question_5_6.jpeg","4","spm_respsonse","1","5","mat_54","","","","","","1","22867.12400000007","","","","","","","","","","","","","","",""
"","","","","","html-keyboard-response","290","1189740","0.0-3.0-4.0-0.30","62b9e1aed4b802b4e268125d","B2","batch2","","null","<p class=block-text>Trial 55 out of 60</p>","null","spm_show_trial_num","","","","","","","","","","","","","","","","","","","","","","","","",""
"","","","","","image-button-response","291","1216941","0.0-3.0-4.0-1.30","62b9e1aed4b802b4e268125d","B2","batch2","","27200.543999999994","img/question_5_7.jpeg","0","spm_respsonse","1","1","mat_55","","","","","","1","27200.543999999994","","","","","","","","","","","","","","",""
"","","","","","html-keyboard-response","292","1217991","0.0-3.0-4.0-0.31","62b9e1aed4b802b4e268125d","B2","batch2","","null","<p class=block-text>Trial 56 out of 60</p>","null","spm_show_trial_num","","","","","","","","","","","","","","","","","","","","","","","","",""
"","","","","","image-button-response","293","1288759","0.0-3.0-4.0-1.31","62b9e1aed4b802b4e268125d","B2","batch2","","70768.08199999994","img/question_5_8.jpeg","2","spm_respsonse","0","6","mat_56","","","","","","0","70768.08199999994","","","","","","","","","","","","","","",""
"","","","","","html-keyboard-response","294","1289826","0.0-3.0-4.0-0.32","62b9e1aed4b802b4e268125d","B2","batch2","","null","<p class=block-text>Trial 57 out of 60</p>","null","spm_show_trial_num","","","","","","","","","","","","","","","","","","","","","","","","",""
"","","","","","image-button-response","295","1321610","0.0-3.0-4.0-1.32","62b9e1aed4b802b4e268125d","B2","batch2","","31783.968999999808","img/question_5_9.jpeg","2","spm_respsonse","1","3","mat_57","","","","","","1","31783.968999999808","","","","","","","","","","","","","","",""
"","","","","","html-keyboard-response","296","1322660","0.0-3.0-4.0-0.33","62b9e1aed4b802b4e268125d","B2","batch2","","null","<p class=block-text>Trial 58 out of 60</p>","null","spm_show_trial_num","","","","","","","","","","","","","","","","","","","","","","","","",""
"","","","","","image-button-response","297","1365544","0.0-3.0-4.0-1.33","62b9e1aed4b802b4e268125d","B2","batch2","","42884.190999999875","img/question_5_10.jpeg","1","spm_respsonse","1","2","mat_58","","","","","","1","42884.190999999875","","","","","","","","","","","","","","",""
"","","","","","html-keyboard-response","298","1366594","0.0-3.0-4.0-0.34","62b9e1aed4b802b4e268125d","B2","batch2","","null","<p class=block-text>Trial 59 out of 60</p>","null","spm_show_trial_num","","","","","","","","","","","","","","","","","","","","","","","","",""
"","","","","","image-button-response","299","1465096","0.0-3.0-4.0-1.34","62b9e1aed4b802b4e268125d","B2","batch2","","98485.30299999984","img/question_5_11.jpeg","2","spm_respsonse","0","4","mat_59","","","","","","0","98485.30299999984","","","","","","","","","","","","","","",""
"","","","","","html-keyboard-response","300","1466129","0.0-3.0-4.0-0.35","62b9e1aed4b802b4e268125d","B2","batch2","","null","<p class=block-text>Trial 60 out of 60</p>","null","spm_show_trial_num","","","","","","","","","","","","","","","","","","","","","","","","",""
"","","","","","image-button-response","301","1493613","0.0-3.0-4.0-1.35","62b9e1aed4b802b4e268125d","B2","batch2","","27467.216000000015","img/question_5_12.jpeg","1","spm_respsonse","0","5","mat_60","","","","","","0","27467.216000000015","","","","","","","","","","","","","","",""
"","","","","","html-button-response","302","1495980","0.0-3.0-5.0","62b9e1aed4b802b4e268125d","B2","batch2","","2083.375","<p class= block-text>This concludes the Standard Progressive Matrix game. Thank you for your responses!<br> When you are ready, click the button continue</p>","0","spm_goodbye","","","","","","","","","","","","","","","","","","","","","","","","",""
"true","","","","","fullscreen","303","1499147","0.0-4.0-0.0","62b9e1aed4b802b4e268125d","B2","batch2","","","","","","","","","","","","","","","","","","","","","","","","","","","","","",""
"","","","","","instructions","304","1582698","0.0-4.0-1.0-0.0-0.0","62b9e1aed4b802b4e268125d","B2","batch2","[{""page_index"":0,""viewing_time"":19167.050000000047},{""page_index"":1,""viewing_time"":8516.837000000058},{""page_index"":2,""viewing_time"":4550.091000000015},{""page_index"":3,""viewing_time"":15666.979999999981},{""page_index"":4,""viewing_time"":8416.834999999963},{""page_index"":5,""viewing_time"":23500.469999999972},{""page_index"":6,""viewing_time"":3716.7410000001546}]","83535.00400000019","","","tol-instructions","","","","","","","","","","","","","","","","","","","","","","","","",""
"","","","","","html-button-response","305","1584215","0.0-4.0-1.0-1.0-0.0","62b9e1aed4b802b4e268125d","B2","batch2","","1516.6969999999274","<p class=block-text> Let's answer a few questions <br>","0","tol_enter_quiz","","","","","","","","","","","","","","","","","","","","","","","","",""
"","","","","","html-button-response","306","1590815","0.0-4.0-1.0-1.0-1.0","62b9e1aed4b802b4e268125d","B2","batch2","","6600.131999999983","<p class = block-text>True or False: You can only move the ball on top of a peg. <br></p>","0","tol_quiz","true","","","","","","","","","","","","","","","","","","","","","","","",""
"","","","","","html-button-response","307","1592482","0.0-4.0-1.0-1.0-2.0","62b9e1aed4b802b4e268125d","B2","batch2","","1683.3670000000857","<p class = block-text>Correct! You can only move the ball on top of a peg.</p>","0","tol_quiz_feedback","","","","","","","","","","","","","","","","","","","","","","","","",""
"","","","","","html-button-response","308","1596115","0.0-4.0-1.0-1.0-3.0","62b9e1aed4b802b4e268125d","B2","batch2","","3616.738999999827","<p class = block-text>True or False: You should try to match your board with the target board with fewest moves possible. <br></p>","0","tol_quiz","true","","","","","","","","","","","","","","","","","","","","","","","",""
"","","","","","html-button-response","309","1597265","0.0-4.0-1.0-1.0-4.0","62b9e1aed4b802b4e268125d","B2","batch2","","1133.3560000001453","<p class = block-text>Correct! </p>","0","tol_quiz_feedback","","","","","","","","","","","","","","","","","","","","","","","","",""
"","","","","","html-button-response","310","1599515","0.0-4.0-2.0","62b9e1aed4b802b4e268125d","B2","batch2","","2250.0450000001583","<p class=block-text> Now that you've understood the game, let's practice a few easier examples before we start!<br> <br>","0","","","","","","","","","","","","","","","","","","","","","","","","","",""
"","","","","","single-stim-button","311","1604232","0.0-4.0-3.0-0.0","62b9e1aed4b802b4e268125d","B2","batch2","","4717","","","tol_practice","","","","","","","","","","","tol_peg_2","4717","4717","0","[[1,2,0],[0,0],[0]]","1","[[1,2,0],[0,0],[3]]","practice","4717","","","","","",""
"","","","","","single-stim-button","312","1606265","0.0-4.0-3.0-1.0","62b9e1aed4b802b4e268125d","B2","batch2","","2017","","","tol_practice","","","","","","","","","","","tol_peg_3","2017","2017","0","[[1,2,0],[0,0],[3]]","1","[[1,2,0],[0,0],[3]]","practice","2017","","","","","",""
"","","","","","poldrack-single-stim","313","1607265","0.0-4.0-4.0","62b9e1aed4b802b4e268125d","B2","batch2","","-1","","","tol_feedback","true","","","","","","","","","","","1000","1000","500","","","","","","-1","none","true","","0",""
"","","","","","single-stim-button","314","1611815","0.0-4.0-5.0-0.0","62b9e1aed4b802b4e268125d","B2","batch2","","4550","","","tol_practice","","","","","","","","","","","tol_peg_1","4550","4550","0","[[1,0,0],[3,0],[0]]","2","[[0,0,0],[3,1],[2]]","practice","4550","","","","","",""
"","","","","","single-stim-button","315","1613549","0.0-4.0-5.0-1.0","62b9e1aed4b802b4e268125d","B2","batch2","","1734","","","tol_practice","","","","","","","","","","","tol_peg_3","1734","1734","0","[[1,0,0],[3,0],[2]]","2","[[0,0,0],[3,1],[2]]","practice","1734","","","","","",""
"","","","","","single-stim-button","316","1615432","0.0-4.0-5.1-0.1","62b9e1aed4b802b4e268125d","B2","batch2","","1867","","","tol_practice","","","","","","","","","","","tol_peg_1","1867","1867","0","[[0,0,0],[3,0],[2]]","3","[[0,0,0],[3,1],[2]]","practice","1867","","","","","",""
"","","","","","single-stim-button","317","1616882","0.0-4.0-5.1-1.1","62b9e1aed4b802b4e268125d","B2","batch2","","1417","","","tol_practice","","","","","","","","","","","tol_peg_2","1417","1417","0","[[0,0,0],[3,1],[2]]","3","[[0,0,0],[3,1],[2]]","practice","1417","","","","","",""
"","","","","","poldrack-single-stim","318","1617882","0.0-4.0-6.0","62b9e1aed4b802b4e268125d","B2","batch2","","-1","","","tol_feedback","true","","","","","","","","","","","1000","1000","500","","","","","","-1","none","true","","0",""
"","","","","","single-stim-button","319","1621549","0.0-4.0-7.0-0.0","62b9e1aed4b802b4e268125d","B2","batch2","","3667","","","tol_practice","","","","","","","","","","","tol_peg_2","3667","3667","0","[[1,2,0],[0,0],[0]]","4","[[1,0,0],[2,0],[3]]","practice","3667","","","","","",""
"","","","","","single-stim-button","320","1622799","0.0-4.0-7.0-1.0","62b9e1aed4b802b4e268125d","B2","batch2","","1250","","","tol_practice","","","","","","","","","","","tol_peg_3","1250","1250","0","[[1,2,0],[0,0],[3]]","4","[[1,0,0],[2,0],[3]]","practice","1250","","","","","",""
"","","","","","single-stim-button","321","1624016","0.0-4.0-7.1-0.1","62b9e1aed4b802b4e268125d","B2","batch2","","1217","","","tol_practice","","","","","","","","","","","tol_peg_1","1217","1217","0","[[1,0,0],[0,0],[3]]","5","[[1,0,0],[2,0],[3]]","practice","1217","","","","","",""
"","","","","","single-stim-button","322","1624832","0.0-4.0-7.1-1.1","62b9e1aed4b802b4e268125d","B2","batch2","","800","","","tol_practice","","","","","","","","","","","tol_peg_2","800","800","0","[[1,0,0],[2,0],[3]]","5","[[1,0,0],[2,0],[3]]","practice","800","","","","","",""
"","","","","","poldrack-single-stim","323","1625816","0.0-4.0-8.0","62b9e1aed4b802b4e268125d","B2","batch2","","-1","","","tol_feedback","true","","","","","","","","","","","1000","1000","500","","","","","","-1","none","true","","0",""
"","","","","","html-button-response","324","1630116","0.0-4.0-9.0","62b9e1aed4b802b4e268125d","B2","batch2","","4283.418999999994","<div class = centerbox><p class = center-block-text>Great job! You are done with practice trials<br>You are about to start official trials.<br> <br> Problem <strong>1</strong> out of 25 problems</p></div>","0","tol_instruction","","","","","","","","","","","","","","","","","","","","","","","","",""
"","","","","","single-stim-button","325","1635416","0.0-4.0-10.0-0.0","62b9e1aed4b802b4e268125d","B2","batch2","","4283","","","tol_tohand","","","","","","","","","","","tol_peg_2","4283","4283","0","[[1,2,0],[0,0],[0]]","1","[[1,3,0],[2,0],[0]]","0","0","","","","","","3"
"","","","","","single-stim-button","326","1643516","0.0-4.0-10.0-1.0","62b9e1aed4b802b4e268125d","B2","batch2","","8100","","","tol_toboard","","","","","","","","","","","tol_peg_3","8100","8100","0","[[1,2,0],[0,0],[3]]","1","[[1,3,0],[2,0],[0]]","0","0","","","","","","3"
"","","","","","single-stim-button","327","1644616","0.0-4.0-10.1-0.1","62b9e1aed4b802b4e268125d","B2","batch2","","1100","","","tol_tohand","","","","","","","","","","","tol_peg_1","1100","1100","0","[[1,0,0],[0,0],[3]]","2","[[1,3,0],[2,0],[0]]","0","0","","","","","","3"
"","","","","","single-stim-button","328","1645766","0.0-4.0-10.1-1.1","62b9e1aed4b802b4e268125d","B2","batch2","","1150","","","tol_toboard","","","","","","","","","","","tol_peg_2","1150","1150","0","[[1,0,0],[2,0],[3]]","2","[[1,3,0],[2,0],[0]]","0","0","","","","","","3"
"","","","","","single-stim-button","329","1646433","0.0-4.0-10.2-0.2","62b9e1aed4b802b4e268125d","B2","batch2","","667","","","tol_tohand","","","","","","","","","","","tol_peg_3","667","667","0","[[1,0,0],[2,0],[0]]","3","[[1,3,0],[2,0],[0]]","0","0","","","","","","3"
"","","","","","single-stim-button","330","1647433","0.0-4.0-10.2-1.2","62b9e1aed4b802b4e268125d","B2","batch2","","984","","","tol_toboard","","","","","","","","","","","tol_peg_1","984","984","0","[[1,3,0],[2,0],[0]]","3","[[1,3,0],[2,0],[0]]","0","0","","","","","","3"
"","","","","","poldrack-single-stim","331","1648433","0.0-4.0-11.0","62b9e1aed4b802b4e268125d","B2","batch2","","-1","","","tol_feedback","true","","","","","","","","","","","1000","1000","500","","","","","","-1","none","true","4283","6050",""
"","","","","","html-button-response","332","1649650","0.0-4.0-12.0","62b9e1aed4b802b4e268125d","B2","batch2","","1200.0240000002086","<div class = centerbox><p class = center-block-text>problem <strong>2</strong> out of 25 problems</p></div>","0","tol_trial_num","","","","","","","","","","","","","","","","","","","","","","","","",""
"","","","","","single-stim-button","333","1656283","0.0-4.0-13.0-0.0","62b9e1aed4b802b4e268125d","B2","batch2","","6633","","","tol_tohand","","","","","","","","","","","tol_peg_1","6633","6633","0","[[1,0,0],[3,0],[0]]","1","[[2,1,3],[0,0],[0]]","1","0","","","","","","5"
"","","","","","single-stim-button","334","1657516","0.0-4.0-13.0-1.0","62b9e1aed4b802b4e268125d","B2","batch2","","1233","","","tol_toboard","","","","","","","","","","","tol_peg_3","1233","1233","0","[[1,0,0],[3,0],[2]]","1","[[2,1,3],[0,0],[0]]","1","0","","","","","","5"
"","","","","","single-stim-button","335","1659516","0.0-4.0-13.1-0.1","62b9e1aed4b802b4e268125d","B2","batch2","","2000","","","tol_tohand","","","","","","","","","","","tol_peg_1","2000","2000","0","[[0,0,0],[3,0],[2]]","2","[[2,1,3],[0,0],[0]]","1","0","","","","","","5"
"","","","","","single-stim-button","336","1661583","0.0-4.0-13.1-1.1","62b9e1aed4b802b4e268125d","B2","batch2","","2050","","","tol_toboard","","","","","","","","","","","tol_peg_2","2050","2050","0","[[0,0,0],[3,1],[2]]","2","[[2,1,3],[0,0],[0]]","1","0","","","","","","5"
"","","","","","single-stim-button","337","1662550","0.0-4.0-13.2-0.2","62b9e1aed4b802b4e268125d","B2","batch2","","950","","","tol_tohand","","","","","","","","","","","tol_peg_3","950","950","0","[[0,0,0],[3,1],[0]]","3","[[2,1,3],[0,0],[0]]","1","0","","","","","","5"
"","","","","","single-stim-button","338","1663633","0.0-4.0-13.2-1.2","62b9e1aed4b802b4e268125d","B2","batch2","","1083","","","tol_toboard","","","","","","","","","","","tol_peg_1","1083","1083","0","[[2,0,0],[3,1],[0]]","3","[[2,1,3],[0,0],[0]]","1","0","","","","","","5"
"","","","","","single-stim-button","339","1664467","0.0-4.0-13.3-0.3","62b9e1aed4b802b4e268125d","B2","batch2","","834","","","tol_tohand","","","","","","","","","","","tol_peg_2","834","834","0","[[2,0,0],[3,0],[0]]","4","[[2,1,3],[0,0],[0]]","1","0","","","","","","5"
"","","","","","single-stim-button","340","1665267","0.0-4.0-13.3-1.3","62b9e1aed4b802b4e268125d","B2","batch2","","800","","","tol_toboard","","","","","","","","","","","tol_peg_1","800","800","0","[[2,1,0],[3,0],[0]]","4","[[2,1,3],[0,0],[0]]","1","0","","","","","","5"
"","","","","","single-stim-button","341","1666917","0.0-4.0-13.4-0.4","62b9e1aed4b802b4e268125d","B2","batch2","","1650","","","tol_tohand","","","","","","","","","","","tol_peg_2","1650","1650","0","[[2,1,0],[0,0],[0]]","5","[[2,1,3],[0,0],[0]]","1","0","","","","","","5"
"","","","","","single-stim-button","342","1667833","0.0-4.0-13.4-1.4","62b9e1aed4b802b4e268125d","B2","batch2","","916","","","tol_toboard","","","","","","","","","","","tol_peg_1","916","916","0","[[2,1,3],[0,0],[0]]","5","[[2,1,3],[0,0],[0]]","1","0","","","","","","5"
"","","","","","poldrack-single-stim","343","1668850","0.0-4.0-14.0","62b9e1aed4b802b4e268125d","B2","batch2","","-1","","","tol_feedback","true","","","","","","","","","","","1000","1000","500","","","","","","-1","none","true","6633","12067",""
"","","","","","html-button-response","344","1670000","0.0-4.0-15.0","62b9e1aed4b802b4e268125d","B2","batch2","","1183.3570000000764","<div class = centerbox><p class = center-block-text>problem <strong>3</strong> out of 25 problems</p></div>","0","tol_trial_num","","","","","","","","","","","","","","","","","","","","","","","","",""
"","","","","","single-stim-button","345","1674617","0.0-4.0-16.0-0.0","62b9e1aed4b802b4e268125d","B2","batch2","","4617","","","tol_tohand","","","","","","","","","","","tol_peg_1","4617","4617","0","[[2,0,0],[0,0],[1]]","1","[[1,2,0],[3,0],[0]]","2","0","","","","","","4"
