"success","timeout","failed_images","failed_audio","failed_video","trial_type","trial_index","time_elapsed","internal_node_id","subject_id","study_id","session_id","task","rt","stimulus","response","item","answer","correct","spm_correct","spm_rt","view_history","mouse_click","stim_duration","block_duration","timing_post_trial","current_position","tol_num_moves_made","tol_target","tol_problem_id","tol_rt","key_press","possible_responses","tol_correct","preplanning","tol_rt_per_trial","tol_min_moves","fiar_detect_rt","fiar_detect_correct","total_correct_fiar_detect","post_trial_gap","choices"
"true","false","[]","[]","[]","preload","0","16280","0.0-0.0","62bd685ac3edc9ad0d77812b","B2","batch2","","","","","","","","","","","","","","","","","","","","","","","","","","","","","",""
"true","","","","","fullscreen","1","164302","0.0-1.0-0.0","62bd685ac3edc9ad0d77812b","B2","batch2","","","","","","","","","","","","","","","","","","","","","","","","","","","","","",""
"true","","","","","fullscreen","2","167740","0.0-2.0-0.0","62bd685ac3edc9ad0d77812b","B2","batch2","spm_fullscreen","","","","","","","","","","","","","","","","","","","","","","","","","","","","",""
"","","","","","html-button-response","3","170100","0.0-2.0-1.0","62bd685ac3edc9ad0d77812b","B2","batch2","","2357.699999988079","<p class = block-text><b>Instructions</b> <br>This is a widely used intelligence test in research. <br>In this test, a figure with a missing piece will be presented.<br>Below the figure are alternative pieces to complete the figure, only one of which is correct.<br> Different figures might involve different principles for obtaining the missing piece<br>Your job is to select the most logical piece to complete the figure.</p>","0","","","","","","","","","","","","","","","","","","","","","","","","","",""
"","","","","","html-keyboard-response","4","170913","0.0-2.0-2.0-0.0","62bd685ac3edc9ad0d77812b","B2","batch2","spm_show_trial_num","null","<p class=block-text>Trial 1 out of 60</p>","null","","","","","","","","","","","","","","","","","","","","","","","","","",""
"","","","","","image-button-response","5","175852","0.0-2.0-2.0-1.0","62bd685ac3edc9ad0d77812b","B2","batch2","spm_respsonse","4932.4000000059605","img/question_1_1.jpeg","3","mat_01","4","1","1","4932.4000000059605","","","","","","","","","","","","","","","","","","","","",""
"","","","","","html-keyboard-response","6","176920","0.0-2.0-2.0-0.1","62bd685ac3edc9ad0d77812b","B2","batch2","spm_show_trial_num","null","<p class=block-text>Trial 2 out of 60</p>","null","","","","","","","","","","","","","","","","","","","","","","","","","",""
"","","","","","image-button-response","7","179660","0.0-2.0-2.0-1.1","62bd685ac3edc9ad0d77812b","B2","batch2","spm_respsonse","2737.7999999821186","img/question_1_2.jpeg","4","mat_02","5","1","1","2737.7999999821186","","","","","","","","","","","","","","","","","","","","",""
"","","","","","html-keyboard-response","8","180712","0.0-2.0-2.0-0.2","62bd685ac3edc9ad0d77812b","B2","batch2","spm_show_trial_num","null","<p class=block-text>Trial 3 out of 60</p>","null","","","","","","","","","","","","","","","","","","","","","","","","","",""
"","","","","","image-button-response","9","185852","0.0-2.0-2.0-1.2","62bd685ac3edc9ad0d77812b","B2","batch2","spm_respsonse","5136.9000000059605","img/question_1_3.jpeg","0","mat_03","1","1","1","5136.9000000059605","","","","","","","","","","","","","","","","","","","","",""
"","","","","","html-keyboard-response","10","186918","0.0-2.0-2.0-0.3","62bd685ac3edc9ad0d77812b","B2","batch2","spm_show_trial_num","null","<p class=block-text>Trial 4 out of 60</p>","null","","","","","","","","","","","","","","","","","","","","","","","","","",""
"","","","","","image-button-response","11","192636","0.0-2.0-2.0-1.3","62bd685ac3edc9ad0d77812b","B2","batch2","spm_respsonse","5715.199999988079","img/question_1_4.jpeg","1","mat_04","2","1","1","5715.199999988079","","","","","","","","","","","","","","","","","","","","",""
"","","","","","html-keyboard-response","12","193710","0.0-2.0-2.0-0.4","62bd685ac3edc9ad0d77812b","B2","batch2","spm_show_trial_num","null","<p class=block-text>Trial 5 out of 60</p>","null","","","","","","","","","","","","","","","","","","","","","","","","","",""
"","","","","","image-button-response","13","203220","0.0-2.0-2.0-1.4","62bd685ac3edc9ad0d77812b","B2","batch2","spm_respsonse","9506.40000000596","img/question_1_5.jpeg","5","mat_05","6","1","1","9506.40000000596","","","","","","","","","","","","","","","","","","","","",""
"","","","","","html-keyboard-response","14","204281","0.0-2.0-2.0-0.5","62bd685ac3edc9ad0d77812b","B2","batch2","spm_show_trial_num","null","<p class=block-text>Trial 6 out of 60</p>","null","","","","","","","","","","","","","","","","","","","","","","","","","",""
"","","","","","image-button-response","15","213292","0.0-2.0-2.0-1.5","62bd685ac3edc9ad0d77812b","B2","batch2","spm_respsonse","9008","img/question_1_6.jpeg","2","mat_06","3","1","1","9008","","","","","","","","","","","","","","","","","","","","",""
"","","","","","html-keyboard-response","16","214359","0.0-2.0-2.0-0.6","62bd685ac3edc9ad0d77812b","B2","batch2","spm_show_trial_num","null","<p class=block-text>Trial 7 out of 60</p>","null","","","","","","","","","","","","","","","","","","","","","","","","","",""
"","","","","","image-button-response","17","279227","0.0-2.0-2.0-1.6","62bd685ac3edc9ad0d77812b","B2","batch2","spm_respsonse","64865.19999998808","img/question_1_7.jpeg","5","mat_07","6","1","1","64865.19999998808","","","","","","","","","","","","","","","","","","","","",""
"","","","","","html-keyboard-response","18","280289","0.0-2.0-2.0-0.7","62bd685ac3edc9ad0d77812b","B2","batch2","spm_show_trial_num","null","<p class=block-text>Trial 8 out of 60</p>","null","","","","","","","","","","","","","","","","","","","","","","","","","",""
"","","","","","image-button-response","19","283379","0.0-2.0-2.0-1.7","62bd685ac3edc9ad0d77812b","B2","batch2","spm_respsonse","3087.4000000059605","img/question_1_8.jpeg","5","mat_08","2","0","0","3087.4000000059605","","","","","","","","","","","","","","","","","","","","",""
"","","","","","html-keyboard-response","20","284446","0.0-2.0-2.0-0.8","62bd685ac3edc9ad0d77812b","B2","batch2","spm_show_trial_num","null","<p class=block-text>Trial 9 out of 60</p>","null","","","","","","","","","","","","","","","","","","","","","","","","","",""
"","","","","","image-button-response","21","292291","0.0-2.0-2.0-1.8","62bd685ac3edc9ad0d77812b","B2","batch2","spm_respsonse","7842.200000017881","img/question_1_9.jpeg","0","mat_09","1","1","1","7842.200000017881","","","","","","","","","","","","","","","","","","","","",""
"","","","","","html-keyboard-response","22","293352","0.0-2.0-2.0-0.9","62bd685ac3edc9ad0d77812b","B2","batch2","spm_show_trial_num","null","<p class=block-text>Trial 10 out of 60</p>","null","","","","","","","","","","","","","","","","","","","","","","","","","",""
"","","","","","image-button-response","23","300835","0.0-2.0-2.0-1.9","62bd685ac3edc9ad0d77812b","B2","batch2","spm_respsonse","7480.199999988079","img/question_1_10.jpeg","2","mat_10","3","1","1","7480.199999988079","","","","","","","","","","","","","","","","","","","","",""
"","","","","","html-keyboard-response","24","301892","0.0-2.0-2.0-0.10","62bd685ac3edc9ad0d77812b","B2","batch2","spm_show_trial_num","null","<p class=block-text>Trial 11 out of 60</p>","null","","","","","","","","","","","","","","","","","","","","","","","","","",""
"","","","","","image-button-response","25","306955","0.0-2.0-2.0-1.10","62bd685ac3edc9ad0d77812b","B2","batch2","spm_respsonse","5061.100000023842","img/question_1_11.jpeg","3","mat_11","4","1","1","5061.100000023842","","","","","","","","","","","","","","","","","","","","",""
"","","","","","html-keyboard-response","26","308020","0.0-2.0-2.0-0.11","62bd685ac3edc9ad0d77812b","B2","batch2","spm_show_trial_num","null","<p class=block-text>Trial 12 out of 60</p>","null","","","","","","","","","","","","","","","","","","","","","","","","","",""
"","","","","","image-button-response","27","315963","0.0-2.0-2.0-1.11","62bd685ac3edc9ad0d77812b","B2","batch2","spm_respsonse","7940.0999999940395","img/question_1_12.jpeg","4","mat_12","5","1","1","7940.0999999940395","","","","","","","","","","","","","","","","","","","","",""
"","","","","","html-keyboard-response","28","317028","0.0-2.0-2.0-0.12","62bd685ac3edc9ad0d77812b","B2","batch2","spm_show_trial_num","null","<p class=block-text>Trial 13 out of 60</p>","null","","","","","","","","","","","","","","","","","","","","","","","","","",""
"","","","","","image-button-response","29","319299","0.0-2.0-2.0-1.12","62bd685ac3edc9ad0d77812b","B2","batch2","spm_respsonse","2268.7000000178814","img/question_2_1.jpeg","1","mat_13","2","1","1","2268.7000000178814","","","","","","","","","","","","","","","","","","","","",""
"","","","","","html-keyboard-response","30","320360","0.0-2.0-2.0-0.13","62bd685ac3edc9ad0d77812b","B2","batch2","spm_show_trial_num","null","<p class=block-text>Trial 14 out of 60</p>","null","","","","","","","","","","","","","","","","","","","","","","","","","",""
"","","","","","image-button-response","31","324435","0.0-2.0-2.0-1.13","62bd685ac3edc9ad0d77812b","B2","batch2","spm_respsonse","4072.100000023842","img/question_2_2.jpeg","5","mat_14","6","1","1","4072.100000023842","","","","","","","","","","","","","","","","","","","","",""
"","","","","","html-keyboard-response","32","325511","0.0-2.0-2.0-0.14","62bd685ac3edc9ad0d77812b","B2","batch2","spm_show_trial_num","null","<p class=block-text>Trial 15 out of 60</p>","null","","","","","","","","","","","","","","","","","","","","","","","","","",""
"","","","","","image-button-response","33","327883","0.0-2.0-2.0-1.14","62bd685ac3edc9ad0d77812b","B2","batch2","spm_respsonse","2369.399999976158","img/question_2_3.jpeg","0","mat_15","1","1","1","2369.399999976158","","","","","","","","","","","","","","","","","","","","",""
"","","","","","html-keyboard-response","34","328951","0.0-2.0-2.0-0.15","62bd685ac3edc9ad0d77812b","B2","batch2","spm_show_trial_num","null","<p class=block-text>Trial 16 out of 60</p>","null","","","","","","","","","","","","","","","","","","","","","","","","","",""
"","","","","","image-button-response","35","332451","0.0-2.0-2.0-1.15","62bd685ac3edc9ad0d77812b","B2","batch2","spm_respsonse","3497.399999976158","img/question_2_4.jpeg","1","mat_16","2","1","1","3497.399999976158","","","","","","","","","","","","","","","","","","","","",""
"","","","","","html-keyboard-response","36","333517","0.0-2.0-2.0-0.16","62bd685ac3edc9ad0d77812b","B2","batch2","spm_show_trial_num","null","<p class=block-text>Trial 17 out of 60</p>","null","","","","","","","","","","","","","","","","","","","","","","","","","",""
"","","","","","image-button-response","37","339811","0.0-2.0-2.0-1.16","62bd685ac3edc9ad0d77812b","B2","batch2","spm_respsonse","6291.0999999940395","img/question_2_5.jpeg","0","mat_17","1","1","1","6291.0999999940395","","","","","","","","","","","","","","","","","","","","",""
"","","","","","html-keyboard-response","38","340884","0.0-2.0-2.0-0.17","62bd685ac3edc9ad0d77812b","B2","batch2","spm_show_trial_num","null","<p class=block-text>Trial 18 out of 60</p>","null","","","","","","","","","","","","","","","","","","","","","","","","","",""
"","","","","","image-button-response","39","356587","0.0-2.0-2.0-1.17","62bd685ac3edc9ad0d77812b","B2","batch2","spm_respsonse","15699.199999988079","img/question_2_6.jpeg","2","mat_18","3","1","1","15699.199999988079","","","","","","","","","","","","","","","","","","","","",""
"","","","","","html-keyboard-response","40","357652","0.0-2.0-2.0-0.18","62bd685ac3edc9ad0d77812b","B2","batch2","spm_show_trial_num","null","<p class=block-text>Trial 19 out of 60</p>","null","","","","","","","","","","","","","","","","","","","","","","","","","",""
"","","","","","image-button-response","41","363995","0.0-2.0-2.0-1.18","62bd685ac3edc9ad0d77812b","B2","batch2","spm_respsonse","6340.300000011921","img/question_2_7.jpeg","4","mat_19","5","1","1","6340.300000011921","","","","","","","","","","","","","","","","","","","","",""
"","","","","","html-keyboard-response","42","365051","0.0-2.0-2.0-0.19","62bd685ac3edc9ad0d77812b","B2","batch2","spm_show_trial_num","null","<p class=block-text>Trial 20 out of 60</p>","null","","","","","","","","","","","","","","","","","","","","","","","","","",""
"","","","","","image-button-response","43","375466","0.0-2.0-2.0-1.19","62bd685ac3edc9ad0d77812b","B2","batch2","spm_respsonse","10412.800000011921","img/question_2_8.jpeg","5","mat_20","6","1","1","10412.800000011921","","","","","","","","","","","","","","","","","","","","",""
"","","","","","html-keyboard-response","44","376536","0.0-2.0-2.0-0.20","62bd685ac3edc9ad0d77812b","B2","batch2","spm_show_trial_num","null","<p class=block-text>Trial 21 out of 60</p>","null","","","","","","","","","","","","","","","","","","","","","","","","","",""
"","","","","","image-button-response","45","383771","0.0-2.0-2.0-1.20","62bd685ac3edc9ad0d77812b","B2","batch2","spm_respsonse","7232.5999999940395","img/question_2_9.jpeg","3","mat_21","4","1","1","7232.5999999940395","","","","","","","","","","","","","","","","","","","","",""
"","","","","","html-keyboard-response","46","384843","0.0-2.0-2.0-0.21","62bd685ac3edc9ad0d77812b","B2","batch2","spm_show_trial_num","null","<p class=block-text>Trial 22 out of 60</p>","null","","","","","","","","","","","","","","","","","","","","","","","","","",""
"","","","","","image-button-response","47","389163","0.0-2.0-2.0-1.21","62bd685ac3edc9ad0d77812b","B2","batch2","spm_respsonse","4317.300000011921","img/question_2_10.jpeg","2","mat_22","3","1","1","4317.300000011921","","","","","","","","","","","","","","","","","","","","",""
"","","","","","html-keyboard-response","48","390224","0.0-2.0-2.0-0.22","62bd685ac3edc9ad0d77812b","B2","batch2","spm_show_trial_num","null","<p class=block-text>Trial 23 out of 60</p>","null","","","","","","","","","","","","","","","","","","","","","","","","","",""
"","","","","","image-button-response","49","396730","0.0-2.0-2.0-1.22","62bd685ac3edc9ad0d77812b","B2","batch2","spm_respsonse","6503.5999999940395","img/question_2_11.jpeg","3","mat_23","4","1","1","6503.5999999940395","","","","","","","","","","","","","","","","","","","","",""
"","","","","","html-keyboard-response","50","397800","0.0-2.0-2.0-0.23","62bd685ac3edc9ad0d77812b","B2","batch2","spm_show_trial_num","null","<p class=block-text>Trial 24 out of 60</p>","null","","","","","","","","","","","","","","","","","","","","","","","","","",""
"","","","","","image-button-response","51","415570","0.0-2.0-2.0-1.23","62bd685ac3edc9ad0d77812b","B2","batch2","spm_respsonse","17767.79999998212","img/question_2_12.jpeg","4","mat_24","5","1","1","17767.79999998212","","","","","","","","","","","","","","","","","","","","",""
"","","","","","html-button-response","52","418386","0.0-2.0-3.0","62bd685ac3edc9ad0d77812b","B2","batch2","attention_check","2564.0999999940395","<p class = block-text>Attention check: Please choose 1<br></p>","0","","","true","","","","","","","","","","","","","","","","","","","","","","",""
"","","","","","html-keyboard-response","53","419199","0.0-2.0-4.0-0.0","62bd685ac3edc9ad0d77812b","B2","batch2","spm_show_trial_num","null","<p class=block-text>Trial 25 out of 60</p>","null","","","","","","","","","","","","","","","","","","","","","","","","","",""
"","","","","","image-button-response","54","427434","0.0-2.0-4.0-1.0","62bd685ac3edc9ad0d77812b","B2","batch2","spm_respsonse","8232","img/question_3_1.jpeg","7","mat_25","8","1","1","8232","","","","","","","","","","","","","","","","","","","","",""
"","","","","","html-keyboard-response","55","428501","0.0-2.0-4.0-0.1","62bd685ac3edc9ad0d77812b","B2","batch2","spm_show_trial_num","null","<p class=block-text>Trial 26 out of 60</p>","null","","","","","","","","","","","","","","","","","","","","","","","","","",""
"","","","","","image-button-response","56","434538","0.0-2.0-4.0-1.1","62bd685ac3edc9ad0d77812b","B2","batch2","spm_respsonse","6034.699999988079","img/question_3_2.jpeg","1","mat_26","2","1","1","6034.699999988079","","","","","","","","","","","","","","","","","","","","",""
"","","","","","html-keyboard-response","57","435605","0.0-2.0-4.0-0.2","62bd685ac3edc9ad0d77812b","B2","batch2","spm_show_trial_num","null","<p class=block-text>Trial 27 out of 60</p>","null","","","","","","","","","","","","","","","","","","","","","","","","","",""
"","","","","","image-button-response","58","444434","0.0-2.0-4.0-1.2","62bd685ac3edc9ad0d77812b","B2","batch2","spm_respsonse","8826.5","img/question_3_3.jpeg","2","mat_27","3","1","1","8826.5","","","","","","","","","","","","","","","","","","","","",""
"","","","","","html-keyboard-response","59","445486","0.0-2.0-4.0-0.3","62bd685ac3edc9ad0d77812b","B2","batch2","spm_show_trial_num","null","<p class=block-text>Trial 28 out of 60</p>","null","","","","","","","","","","","","","","","","","","","","","","","","","",""
"","","","","","image-button-response","60","455194","0.0-2.0-4.0-1.3","62bd685ac3edc9ad0d77812b","B2","batch2","spm_respsonse","9704.5","img/question_3_4.jpeg","7","mat_28","8","1","1","9704.5","","","","","","","","","","","","","","","","","","","","",""
"","","","","","html-keyboard-response","61","456266","0.0-2.0-4.0-0.4","62bd685ac3edc9ad0d77812b","B2","batch2","spm_show_trial_num","null","<p class=block-text>Trial 29 out of 60</p>","null","","","","","","","","","","","","","","","","","","","","","","","","","",""
"","","","","","image-button-response","62","470602","0.0-2.0-4.0-1.4","62bd685ac3edc9ad0d77812b","B2","batch2","spm_respsonse","14333.200000017881","img/question_3_5.jpeg","6","mat_29","7","1","1","14333.200000017881","","","","","","","","","","","","","","","","","","","","",""
"","","","","","html-keyboard-response","63","471663","0.0-2.0-4.0-0.5","62bd685ac3edc9ad0d77812b","B2","batch2","spm_show_trial_num","null","<p class=block-text>Trial 30 out of 60</p>","null","","","","","","","","","","","","","","","","","","","","","","","","","",""
"","","","","","image-button-response","64","478762","0.0-2.0-4.0-1.5","62bd685ac3edc9ad0d77812b","B2","batch2","spm_respsonse","7095.9000000059605","img/question_3_6.jpeg","3","mat_30","4","1","1","7095.9000000059605","","","","","","","","","","","","","","","","","","","","",""
"","","","","","html-keyboard-response","65","479828","0.0-2.0-4.0-0.6","62bd685ac3edc9ad0d77812b","B2","batch2","spm_show_trial_num","null","<p class=block-text>Trial 31 out of 60</p>","null","","","","","","","","","","","","","","","","","","","","","","","","","",""
"","","","","","image-button-response","66","484674","0.0-2.0-4.0-1.6","62bd685ac3edc9ad0d77812b","B2","batch2","spm_respsonse","4842.899999976158","img/question_3_7.jpeg","4","mat_31","5","1","1","4842.899999976158","","","","","","","","","","","","","","","","","","","","",""
"","","","","","html-keyboard-response","67","485726","0.0-2.0-4.0-0.7","62bd685ac3edc9ad0d77812b","B2","batch2","spm_show_trial_num","null","<p class=block-text>Trial 32 out of 60</p>","null","","","","","","","","","","","","","","","","","","","","","","","","","",""
"","","","","","image-button-response","68","525385","0.0-2.0-4.0-1.7","62bd685ac3edc9ad0d77812b","B2","batch2","spm_respsonse","39657.09999999404","img/question_3_8.jpeg","0","mat_32","1","1","1","39657.09999999404","","","","","","","","","","","","","","","","","","","","",""
"","","","","","html-keyboard-response","69","526453","0.0-2.0-4.0-0.8","62bd685ac3edc9ad0d77812b","B2","batch2","spm_show_trial_num","null","<p class=block-text>Trial 33 out of 60</p>","null","","","","","","","","","","","","","","","","","","","","","","","","","",""
"","","","","","image-button-response","70","533946","0.0-2.0-4.0-1.8","62bd685ac3edc9ad0d77812b","B2","batch2","spm_respsonse","7490.300000011921","img/question_3_9.jpeg","6","mat_33","7","1","1","7490.300000011921","","","","","","","","","","","","","","","","","","","","",""
"","","","","","html-keyboard-response","71","535015","0.0-2.0-4.0-0.9","62bd685ac3edc9ad0d77812b","B2","batch2","spm_show_trial_num","null","<p class=block-text>Trial 34 out of 60</p>","null","","","","","","","","","","","","","","","","","","","","","","","","","",""
"","","","","","image-button-response","72","556577","0.0-2.0-4.0-1.9","62bd685ac3edc9ad0d77812b","B2","batch2","spm_respsonse","21559.5","img/question_3_10.jpeg","5","mat_34","6","1","1","21559.5","","","","","","","","","","","","","","","","","","","","",""
"","","","","","html-keyboard-response","73","557636","0.0-2.0-4.0-0.10","62bd685ac3edc9ad0d77812b","B2","batch2","spm_show_trial_num","null","<p class=block-text>Trial 35 out of 60</p>","null","","","","","","","","","","","","","","","","","","","","","","","","","",""
"","","","","","image-button-response","74","593313","0.0-2.0-4.0-1.10","62bd685ac3edc9ad0d77812b","B2","batch2","spm_respsonse","35674.30000001192","img/question_3_11.jpeg","0","mat_35","1","1","1","35674.30000001192","","","","","","","","","","","","","","","","","","","","",""
"","","","","","html-keyboard-response","75","594372","0.0-2.0-4.0-0.11","62bd685ac3edc9ad0d77812b","B2","batch2","spm_show_trial_num","null","<p class=block-text>Trial 36 out of 60</p>","null","","","","","","","","","","","","","","","","","","","","","","","","","",""
"","","","","","image-button-response","76","622569","0.0-2.0-4.0-1.11","62bd685ac3edc9ad0d77812b","B2","batch2","spm_respsonse","28193.69999998808","img/question_3_12.jpeg","5","mat_36","2","0","0","28193.69999998808","","","","","","","","","","","","","","","","","","","","",""
"","","","","","html-keyboard-response","77","623635","0.0-2.0-4.0-0.12","62bd685ac3edc9ad0d77812b","B2","batch2","spm_show_trial_num","null","<p class=block-text>Trial 37 out of 60</p>","null","","","","","","","","","","","","","","","","","","","","","","","","","",""
"","","","","","image-button-response","78","626577","0.0-2.0-4.0-1.12","62bd685ac3edc9ad0d77812b","B2","batch2","spm_respsonse","2939","img/question_4_1.jpeg","2","mat_37","3","1","1","2939","","","","","","","","","","","","","","","","","","","","",""
"","","","","","html-keyboard-response","79","627636","0.0-2.0-4.0-0.13","62bd685ac3edc9ad0d77812b","B2","batch2","spm_show_trial_num","null","<p class=block-text>Trial 38 out of 60</p>","null","","","","","","","","","","","","","","","","","","","","","","","","","",""
"","","","","","image-button-response","80","635081","0.0-2.0-4.0-1.13","62bd685ac3edc9ad0d77812b","B2","batch2","spm_respsonse","7442.4000000059605","img/question_4_2.jpeg","3","mat_38","4","1","1","7442.4000000059605","","","","","","","","","","","","","","","","","","","","",""
"","","","","","html-keyboard-response","81","636142","0.0-2.0-4.0-0.14","62bd685ac3edc9ad0d77812b","B2","batch2","spm_show_trial_num","null","<p class=block-text>Trial 39 out of 60</p>","null","","","","","","","","","","","","","","","","","","","","","","","","","",""
"","","","","","image-button-response","82","644145","0.0-2.0-4.0-1.14","62bd685ac3edc9ad0d77812b","B2","batch2","spm_respsonse","7999.5999999940395","img/question_4_3.jpeg","2","mat_39","3","1","1","7999.5999999940395","","","","","","","","","","","","","","","","","","","","",""
"","","","","","html-keyboard-response","83","645226","0.0-2.0-4.0-0.15","62bd685ac3edc9ad0d77812b","B2","batch2","spm_show_trial_num","null","<p class=block-text>Trial 40 out of 60</p>","null","","","","","","","","","","","","","","","","","","","","","","","","","",""
"","","","","","image-button-response","84","653041","0.0-2.0-4.0-1.15","62bd685ac3edc9ad0d77812b","B2","batch2","spm_respsonse","7811.4000000059605","img/question_4_4.jpeg","6","mat_40","7","1","1","7811.4000000059605","","","","","","","","","","","","","","","","","","","","",""
"","","","","","html-keyboard-response","85","654108","0.0-2.0-4.0-0.16","62bd685ac3edc9ad0d77812b","B2","batch2","spm_show_trial_num","null","<p class=block-text>Trial 41 out of 60</p>","null","","","","","","","","","","","","","","","","","","","","","","","","","",""
"","","","","","image-button-response","86","665505","0.0-2.0-4.0-1.16","62bd685ac3edc9ad0d77812b","B2","batch2","spm_respsonse","11394.300000011921","img/question_4_5.jpeg","7","mat_41","8","1","1","11394.300000011921","","","","","","","","","","","","","","","","","","","","",""
"","","","","","html-keyboard-response","87","666584","0.0-2.0-4.0-0.17","62bd685ac3edc9ad0d77812b","B2","batch2","spm_show_trial_num","null","<p class=block-text>Trial 42 out of 60</p>","null","","","","","","","","","","","","","","","","","","","","","","","","","",""
"","","","","","image-button-response","88","676617","0.0-2.0-4.0-1.17","62bd685ac3edc9ad0d77812b","B2","batch2","spm_respsonse","10030.40000000596","img/question_4_6.jpeg","5","mat_42","6","1","1","10030.40000000596","","","","","","","","","","","","","","","","","","","","",""
"","","","","","html-keyboard-response","89","677669","0.0-2.0-4.0-0.18","62bd685ac3edc9ad0d77812b","B2","batch2","spm_show_trial_num","null","<p class=block-text>Trial 43 out of 60</p>","null","","","","","","","","","","","","","","","","","","","","","","","","","",""
"","","","","","image-button-response","90","691505","0.0-2.0-4.0-1.18","62bd685ac3edc9ad0d77812b","B2","batch2","spm_respsonse","13833.199999988079","img/question_4_7.jpeg","4","mat_43","5","1","1","13833.199999988079","","","","","","","","","","","","","","","","","","","","",""
"","","","","","html-keyboard-response","91","692567","0.0-2.0-4.0-0.19","62bd685ac3edc9ad0d77812b","B2","batch2","spm_show_trial_num","null","<p class=block-text>Trial 44 out of 60</p>","null","","","","","","","","","","","","","","","","","","","","","","","","","",""
"","","","","","image-button-response","92","715408","0.0-2.0-4.0-1.19","62bd685ac3edc9ad0d77812b","B2","batch2","spm_respsonse","22839.09999999404","img/question_4_8.jpeg","3","mat_44","4","1","1","22839.09999999404","","","","","","","","","","","","","","","","","","","","",""
"","","","","","html-keyboard-response","93","716473","0.0-2.0-4.0-0.20","62bd685ac3edc9ad0d77812b","B2","batch2","spm_show_trial_num","null","<p class=block-text>Trial 45 out of 60</p>","null","","","","","","","","","","","","","","","","","","","","","","","","","",""
"","","","","","image-button-response","94","746528","0.0-2.0-4.0-1.20","62bd685ac3edc9ad0d77812b","B2","batch2","spm_respsonse","30052.59999999404","img/question_4_9.jpeg","0","mat_45","1","1","1","30052.59999999404","","","","","","","","","","","","","","","","","","","","",""
"","","","","","html-keyboard-response","95","747590","0.0-2.0-4.0-0.21","62bd685ac3edc9ad0d77812b","B2","batch2","spm_show_trial_num","null","<p class=block-text>Trial 46 out of 60</p>","null","","","","","","","","","","","","","","","","","","","","","","","","","",""
"","","","","","image-button-response","96","780440","0.0-2.0-4.0-1.21","62bd685ac3edc9ad0d77812b","B2","batch2","spm_respsonse","32846.89999997616","img/question_4_10.jpeg","2","mat_46","2","0","0","32846.89999997616","","","","","","","","","","","","","","","","","","","","",""
"","","","","","html-keyboard-response","97","781506","0.0-2.0-4.0-0.22","62bd685ac3edc9ad0d77812b","B2","batch2","spm_show_trial_num","null","<p class=block-text>Trial 47 out of 60</p>","null","","","","","","","","","","","","","","","","","","","","","","","","","",""
"","","","","","image-button-response","98","810351","0.0-2.0-4.0-1.22","62bd685ac3edc9ad0d77812b","B2","batch2","spm_respsonse","28842.5","img/question_4_11.jpeg","4","mat_47","5","1","1","28842.5","","","","","","","","","","","","","","","","","","","","",""
"","","","","","html-keyboard-response","99","811405","0.0-2.0-4.0-0.23","62bd685ac3edc9ad0d77812b","B2","batch2","spm_show_trial_num","null","<p class=block-text>Trial 48 out of 60</p>","null","","","","","","","","","","","","","","","","","","","","","","","","","",""
"","","","","","image-button-response","100","836607","0.0-2.0-4.0-1.23","62bd685ac3edc9ad0d77812b","B2","batch2","spm_respsonse","25199.5","img/question_4_12.jpeg","5","mat_48","6","1","1","25199.5","","","","","","","","","","","","","","","","","","","","",""
"","","","","","html-keyboard-response","101","837672","0.0-2.0-4.0-0.24","62bd685ac3edc9ad0d77812b","B2","batch2","spm_show_trial_num","null","<p class=block-text>Trial 49 out of 60</p>","null","","","","","","","","","","","","","","","","","","","","","","","","","",""
"","","","","","image-button-response","102","862399","0.0-2.0-4.0-1.24","62bd685ac3edc9ad0d77812b","B2","batch2","spm_respsonse","24724.59999999404","img/question_5_1.jpeg","6","mat_49","7","1","1","24724.59999999404","","","","","","","","","","","","","","","","","","","","",""
"","","","","","html-keyboard-response","103","863463","0.0-2.0-4.0-0.25","62bd685ac3edc9ad0d77812b","B2","batch2","spm_show_trial_num","null","<p class=block-text>Trial 50 out of 60</p>","null","","","","","","","","","","","","","","","","","","","","","","","","","",""
"","","","","","image-button-response","104","899919","0.0-2.0-4.0-1.25","62bd685ac3edc9ad0d77812b","B2","batch2","spm_respsonse","36453.60000002384","img/question_5_2.jpeg","5","mat_50","6","1","1","36453.60000002384","","","","","","","","","","","","","","","","","","","","",""
"","","","","","html-keyboard-response","105","900984","0.0-2.0-4.0-0.26","62bd685ac3edc9ad0d77812b","B2","batch2","spm_show_trial_num","null","<p class=block-text>Trial 51 out of 60</p>","null","","","","","","","","","","","","","","","","","","","","","","","","","",""
"","","","","","image-button-response","106","915975","0.0-2.0-4.0-1.26","62bd685ac3edc9ad0d77812b","B2","batch2","spm_respsonse","14987.40000000596","img/question_5_3.jpeg","1","mat_51","8","0","0","14987.40000000596","","","","","","","","","","","","","","","","","","","","",""
"","","","","","html-keyboard-response","107","917040","0.0-2.0-4.0-0.27","62bd685ac3edc9ad0d77812b","B2","batch2","spm_show_trial_num","null","<p class=block-text>Trial 52 out of 60</p>","null","","","","","","","","","","","","","","","","","","","","","","","","","",""
"","","","","","image-button-response","108","926807","0.0-2.0-4.0-1.27","62bd685ac3edc9ad0d77812b","B2","batch2","spm_respsonse","9764.09999999404","img/question_5_4.jpeg","1","mat_52","2","1","1","9764.09999999404","","","","","","","","","","","","","","","","","","","","",""
"","","","","","html-keyboard-response","109","927884","0.0-2.0-4.0-0.28","62bd685ac3edc9ad0d77812b","B2","batch2","spm_show_trial_num","null","<p class=block-text>Trial 53 out of 60</p>","null","","","","","","","","","","","","","","","","","","","","","","","","","",""
"","","","","","image-button-response","110","948591","0.0-2.0-4.0-1.28","62bd685ac3edc9ad0d77812b","B2","batch2","spm_respsonse","20704.20000001788","img/question_5_5.jpeg","6","mat_53","1","0","0","20704.20000001788","","","","","","","","","","","","","","","","","","","","",""
"","","","","","html-keyboard-response","111","949643","0.0-2.0-4.0-0.29","62bd685ac3edc9ad0d77812b","B2","batch2","spm_show_trial_num","null","<p class=block-text>Trial 54 out of 60</p>","null","","","","","","","","","","","","","","","","","","","","","","","","","",""
"","","","","","image-button-response","112","968542","0.0-2.0-4.0-1.29","62bd685ac3edc9ad0d77812b","B2","batch2","spm_respsonse","18897.20000001788","img/question_5_6.jpeg","4","mat_54","5","1","1","18897.20000001788","","","","","","","","","","","","","","","","","","","","",""
"","","","","","html-keyboard-response","113","969597","0.0-2.0-4.0-0.30","62bd685ac3edc9ad0d77812b","B2","batch2","spm_show_trial_num","null","<p class=block-text>Trial 55 out of 60</p>","null","","","","","","","","","","","","","","","","","","","","","","","","","",""
"","","","","","image-button-response","114","1004670","0.0-2.0-4.0-1.30","62bd685ac3edc9ad0d77812b","B2","batch2","spm_respsonse","35070.19999998808","img/question_5_7.jpeg","5","mat_55","1","0","0","35070.19999998808","","","","","","","","","","","","","","","","","","","","",""
"","","","","","html-keyboard-response","115","1005735","0.0-2.0-4.0-0.31","62bd685ac3edc9ad0d77812b","B2","batch2","spm_show_trial_num","null","<p class=block-text>Trial 56 out of 60</p>","null","","","","","","","","","","","","","","","","","","","","","","","","","",""
"","","","","","image-button-response","116","1075582","0.0-2.0-4.0-1.31","62bd685ac3edc9ad0d77812b","B2","batch2","spm_respsonse","69843.59999999404","img/question_5_8.jpeg","0","mat_56","6","0","0","69843.59999999404","","","","","","","","","","","","","","","","","","","","",""
"","","","","","html-keyboard-response","117","1076660","0.0-2.0-4.0-0.32","62bd685ac3edc9ad0d77812b","B2","batch2","spm_show_trial_num","null","<p class=block-text>Trial 57 out of 60</p>","null","","","","","","","","","","","","","","","","","","","","","","","","","",""
"","","","","","image-button-response","118","1083230","0.0-2.0-4.0-1.32","62bd685ac3edc9ad0d77812b","B2","batch2","spm_respsonse","6566.9000000059605","img/question_5_9.jpeg","3","mat_57","3","0","0","6566.9000000059605","","","","","","","","","","","","","","","","","","","","",""
"","","","","","html-keyboard-response","119","1084304","0.0-2.0-4.0-0.33","62bd685ac3edc9ad0d77812b","B2","batch2","spm_show_trial_num","null","<p class=block-text>Trial 58 out of 60</p>","null","","","","","","","","","","","","","","","","","","","","","","","","","",""
"","","","","","image-button-response","120","1102677","0.0-2.0-4.0-1.33","62bd685ac3edc9ad0d77812b","B2","batch2","spm_respsonse","18370.59999999404","img/question_5_10.jpeg","5","mat_58","2","0","0","18370.59999999404","","","","","","","","","","","","","","","","","","","","",""
"","","","","","html-keyboard-response","121","1103732","0.0-2.0-4.0-0.34","62bd685ac3edc9ad0d77812b","B2","batch2","spm_show_trial_num","null","<p class=block-text>Trial 59 out of 60</p>","null","","","","","","","","","","","","","","","","","","","","","","","","","",""
"","","","","","image-button-response","122","1120629","0.0-2.0-4.0-1.34","62bd685ac3edc9ad0d77812b","B2","batch2","spm_respsonse","16894.20000001788","img/question_5_11.jpeg","4","mat_59","4","0","0","16894.20000001788","","","","","","","","","","","","","","","","","","","","",""
"","","","","","html-keyboard-response","123","1121695","0.0-2.0-4.0-0.35","62bd685ac3edc9ad0d77812b","B2","batch2","spm_show_trial_num","null","<p class=block-text>Trial 60 out of 60</p>","null","","","","","","","","","","","","","","","","","","","","","","","","","",""
"","","","","","image-button-response","124","1147357","0.0-2.0-4.0-1.35","62bd685ac3edc9ad0d77812b","B2","batch2","spm_respsonse","25659.59999999404","img/question_5_12.jpeg","1","mat_60","5","0","0","25659.59999999404","","","","","","","","","","","","","","","","","","","","",""
"","","","","","html-button-response","125","1150789","0.0-2.0-5.0","62bd685ac3edc9ad0d77812b","B2","batch2","spm_goodbye","3179.9000000059605","<p class= block-text>This concludes the Standard Progressive Matrix game. Thank you for your responses!<br> When you are ready, click the button continue</p>","0","","","","","","","","","","","","","","","","","","","","","","","","","",""
"true","","","","","fullscreen","126","1154453","0.0-3.0-0.0","62bd685ac3edc9ad0d77812b","B2","batch2","","","","","","","","","","","","","","","","","","","","","","","","","","","","","",""
"","","","","","instructions","127","1171213","0.0-3.0-1.0-0.0-0.0","62bd685ac3edc9ad0d77812b","B2","batch2","tol-instructions","16758.69999998808","","","","","","","","[{""page_index"":0,""viewing_time"":10598.59999999404},{""page_index"":1,""viewing_time"":1999.800000011921},{""page_index"":2,""viewing_time"":768.0999999940395},{""page_index"":3,""viewing_time"":567.9000000059605},{""page_index"":4,""viewing_time"":537.0999999940395},{""page_index"":5,""viewing_time"":686.9000000059605},{""page_index"":6,""viewing_time"":1600.0999999940395}]","","","","","","","","","","","","","","","","","","","",""
"","","","","","html-button-response","128","1172317","0.0-3.0-1.0-1.0-0.0","62bd685ac3edc9ad0d77812b","B2","batch2","tol_enter_quiz","1103.2000000178814","<p class=block-text> Let's answer a few questions <br>","0","","","","","","","","","","","","","","","","","","","","","","","","","",""
"","","","","","html-button-response","129","1176493","0.0-3.0-1.0-1.0-1.0","62bd685ac3edc9ad0d77812b","B2","batch2","tol_quiz","4175.0999999940395","<p class = block-text>True or False: You can only move the ball on top of a peg. <br></p>","0","","","true","","","","","","","","","","","","","","","","","","","","","","",""
"","","","","","html-button-response","130","1177485","0.0-3.0-1.0-1.0-2.0","62bd685ac3edc9ad0d77812b","B2","batch2","tol_quiz_feedback","990.5","<p class = block-text>Correct! You can only move the ball on top of a peg.</p>","0","","","","","","","","","","","","","","","","","","","","","","","","","",""
"","","","","","html-button-response","131","1180333","0.0-3.0-1.0-1.0-3.0","62bd685ac3edc9ad0d77812b","B2","batch2","tol_quiz","2847.300000011921","<p class = block-text>True or False: You should try to match your board with the target board with fewest moves possible. <br></p>","0","","","true","","","","","","","","","","","","","","","","","","","","","","",""
"","","","","","html-button-response","132","1180885","0.0-3.0-1.0-1.0-4.0","62bd685ac3edc9ad0d77812b","B2","batch2","tol_quiz_feedback","551","<p class = block-text>Correct! </p>","0","","","","","","","","","","","","","","","","","","","","","","","","","",""
"","","","","","html-button-response","133","1181933","0.0-3.0-2.0","62bd685ac3edc9ad0d77812b","B2","batch2","","1046","<p class=block-text> Now that you've understood the game, let's practice a few easier examples before we start!<br> <br>","0","","","","","","","","","","","","","","","","","","","","","","","","","",""
"","","","","","single-stim-button","134","1186919","0.0-3.0-3.0-0.0","62bd685ac3edc9ad0d77812b","B2","batch2","tol_practice","4984","","","","","","","","","tol_peg_2","4984","4984","0","[[1,2,0],[0,0],[0]]","1","[[1,2,0],[0,0],[3]]","practice","4984","","","","","","","","","","",""
"","","","","","single-stim-button","135","1187557","0.0-3.0-3.0-1.0","62bd685ac3edc9ad0d77812b","B2","batch2","tol_practice","638","","","","","","","","","tol_peg_3","638","638","0","[[1,2,0],[0,0],[3]]","1","[[1,2,0],[0,0],[3]]","practice","638","","","","","","","","","","",""
"","","","","","poldrack-single-stim","136","1188570","0.0-3.0-4.0","62bd685ac3edc9ad0d77812b","B2","batch2","tol_feedback","-1","","","","","true","","","","","1000","1000","500","","","","","","-1","none","true","","0","","","","","",""
"","","","","","single-stim-button","137","1191317","0.0-3.0-5.0-0.0","62bd685ac3edc9ad0d77812b","B2","batch2","tol_practice","2747","","","","","","","","","tol_peg_1","2747","2747","0","[[1,0,0],[3,0],[0]]","2","[[0,0,0],[3,1],[2]]","practice","2747","","","","","","","","","","",""
"","","","","","single-stim-button","138","1191893","0.0-3.0-5.0-1.0","62bd685ac3edc9ad0d77812b","B2","batch2","tol_practice","576","","","","","","","","","tol_peg_3","576","576","0","[[1,0,0],[3,0],[2]]","2","[[0,0,0],[3,1],[2]]","practice","576","","","","","","","","","","",""
"","","","","","single-stim-button","139","1193349","0.0-3.0-5.1-0.1","62bd685ac3edc9ad0d77812b","B2","batch2","tol_practice","1455","","","","","","","","","tol_peg_1","1455","1455","0","[[0,0,0],[3,0],[2]]","3","[[0,0,0],[3,1],[2]]","practice","1455","","","","","","","","","","",""
"","","","","","single-stim-button","140","1193917","0.0-3.0-5.1-1.1","62bd685ac3edc9ad0d77812b","B2","batch2","tol_practice","568","","","","","","","","","tol_peg_2","568","568","0","[[0,0,0],[3,1],[2]]","3","[[0,0,0],[3,1],[2]]","practice","568","","","","","","","","","","",""
"","","","","","poldrack-single-stim","141","1194930","0.0-3.0-6.0","62bd685ac3edc9ad0d77812b","B2","batch2","tol_feedback","-1","","","","","true","","","","","1000","1000","500","","","","","","-1","none","true","","0","","","","","",""
"","","","","","single-stim-button","142","1197485","0.0-3.0-7.0-0.0","62bd685ac3edc9ad0d77812b","B2","batch2","tol_practice","2554","","","","","","","","","tol_peg_2","2554","2554","0","[[1,2,0],[0,0],[0]]","4","[[1,0,0],[2,0],[3]]","practice","2554","","","","","","","","","","",""
"","","","","","single-stim-button","143","1198037","0.0-3.0-7.0-1.0","62bd685ac3edc9ad0d77812b","B2","batch2","tol_practice","551","","","","","","","","","tol_peg_3","551","551","0","[[1,2,0],[0,0],[3]]","4","[[1,0,0],[2,0],[3]]","practice","551","","","","","","","","","","",""
"","","","","","single-stim-button","144","1198693","0.0-3.0-7.1-0.1","62bd685ac3edc9ad0d77812b","B2","batch2","tol_practice","656","","","","","","","","","tol_peg_1","656","656","0","[[1,0,0],[0,0],[3]]","5","[[1,0,0],[2,0],[3]]","practice","656","","","","","","","","","","",""
"","","","","","single-stim-button","145","1199197","0.0-3.0-7.1-1.1","62bd685ac3edc9ad0d77812b","B2","batch2","tol_practice","504","","","","","","","","","tol_peg_2","504","504","0","[[1,0,0],[2,0],[3]]","5","[[1,0,0],[2,0],[3]]","practice","504","","","","","","","","","","",""
"","","","","","poldrack-single-stim","146","1200203","0.0-3.0-8.0","62bd685ac3edc9ad0d77812b","B2","batch2","tol_feedback","-1","","","","","true","","","","","1000","1000","500","","","","","","-1","none","true","","0","","","","","",""
"","","","","","html-button-response","147","1201301","0.0-3.0-9.0","62bd685ac3edc9ad0d77812b","B2","batch2","tol_instruction","1097.5","<div class = centerbox><p class = center-block-text>Great job! You are done with practice trials<br>You are about to start official trials.<br> <br> Problem <strong>1</strong> out of 25 problems</p></div>","0","","","","","","","","","","","","","","","","","","","","","","","","","",""
"","","","","","single-stim-button","148","1207757","0.0-3.0-10.0-0.0","62bd685ac3edc9ad0d77812b","B2","batch2","tol_tohand","5454","","","","","","","","","tol_peg_2","5454","5454","0","[[1,2,0],[0,0],[0]]","1","[[1,3,0],[2,0],[0]]","0","0","","","","","","3","","","","",""
"","","","","","single-stim-button","149","1208229","0.0-3.0-10.0-1.0","62bd685ac3edc9ad0d77812b","B2","batch2","tol_toboard","470","","","","","","","","","tol_peg_3","470","470","0","[[1,2,0],[0,0],[3]]","1","[[1,3,0],[2,0],[0]]","0","0","","","","","","3","","","","",""
"","","","","","single-stim-button","150","1208829","0.0-3.0-10.1-0.1","62bd685ac3edc9ad0d77812b","B2","batch2","tol_tohand","599","","","","","","","","","tol_peg_1","599","599","0","[[1,0,0],[0,0],[3]]","2","[[1,3,0],[2,0],[0]]","0","0","","","","","","3","","","","",""
"","","","","","single-stim-button","151","1209269","0.0-3.0-10.1-1.1","62bd685ac3edc9ad0d77812b","B2","batch2","tol_toboard","439","","","","","","","","","tol_peg_2","439","439","0","[[1,0,0],[2,0],[3]]","2","[[1,3,0],[2,0],[0]]","0","0","","","","","","3","","","","",""
"","","","","","single-stim-button","152","1209821","0.0-3.0-10.2-0.2","62bd685ac3edc9ad0d77812b","B2","batch2","tol_tohand","551","","","","","","","","","tol_peg_3","551","551","0","[[1,0,0],[2,0],[0]]","3","[[1,3,0],[2,0],[0]]","0","0","","","","","","3","","","","",""
"","","","","","single-stim-button","153","1210605","0.0-3.0-10.2-1.2","62bd685ac3edc9ad0d77812b","B2","batch2","tol_toboard","783","","","","","","","","","tol_peg_1","783","783","0","[[1,3,0],[2,0],[0]]","3","[[1,3,0],[2,0],[0]]","0","0","","","","","","3","","","","",""
"","","","","","poldrack-single-stim","154","1211610","0.0-3.0-11.0","62bd685ac3edc9ad0d77812b","B2","batch2","tol_feedback","-1","","","","","true","","","","","1000","1000","500","","","","","","-1","none","true","5454","6604","","","","","",""
"","","","","","html-button-response","155","1212604","0.0-3.0-12.0","62bd685ac3edc9ad0d77812b","B2","batch2","tol_trial_num","993.2000000178814","<div class = centerbox><p class = center-block-text>problem <strong>2</strong> out of 25 problems</p></div>","0","","","","","","","","","","","","","","","","","","","","","","","","","",""
"","","","","","single-stim-button","156","1220484","0.0-3.0-13.0-0.0","62bd685ac3edc9ad0d77812b","B2","batch2","tol_tohand","7879","","","","","","","","","tol_peg_1","7879","7879","0","[[1,0,0],[3,0],[0]]","1","[[2,1,3],[0,0],[0]]","1","0","","","","","","5","","","","",""
"","","","","","single-stim-button","157","1221237","0.0-3.0-13.0-1.0","62bd685ac3edc9ad0d77812b","B2","batch2","tol_toboard","751","","","","","","","","","tol_peg_3","751","751","0","[[1,0,0],[3,0],[2]]","1","[[2,1,3],[0,0],[0]]","1","0","","","","","","5","","","","",""
"","","","","","single-stim-button","158","1221644","0.0-3.0-13.1-0.1","62bd685ac3edc9ad0d77812b","B2","batch2","tol_tohand","407","","","","","","","","","tol_peg_1","407","407","0","[[0,0,0],[3,0],[2]]","2","[[2,1,3],[0,0],[0]]","1","0","","","","","","5","","","","",""
"","","","","","single-stim-button","159","1221996","0.0-3.0-13.1-1.1","62bd685ac3edc9ad0d77812b","B2","batch2","tol_toboard","351","","","","","","","","","tol_peg_2","351","351","0","[[0,0,0],[3,1],[2]]","2","[[2,1,3],[0,0],[0]]","1","0","","","","","","5","","","","",""
"","","","","","single-stim-button","160","1222396","0.0-3.0-13.2-0.2","62bd685ac3edc9ad0d77812b","B2","batch2","tol_tohand","399","","","","","","","","","tol_peg_3","399","399","0","[[0,0,0],[3,1],[0]]","3","[[2,1,3],[0,0],[0]]","1","0","","","","","","5","","","","",""
"","","","","","single-stim-button","161","1223356","0.0-3.0-13.2-1.2","62bd685ac3edc9ad0d77812b","B2","batch2","tol_toboard","959","","","","","","","","","tol_peg_1","959","959","0","[[2,0,0],[3,1],[0]]","3","[[2,1,3],[0,0],[0]]","1","0","","","","","","5","","","","",""
"","","","","","single-stim-button","162","1224029","0.0-3.0-13.3-0.3","62bd685ac3edc9ad0d77812b","B2","batch2","tol_tohand","672","","","","","","","","","tol_peg_2","672","672","0","[[2,0,0],[3,0],[0]]","4","[[2,1,3],[0,0],[0]]","1","0","","","","","","5","","","","",""
"","","","","","single-stim-button","163","1224460","0.0-3.0-13.3-1.3","62bd685ac3edc9ad0d77812b","B2","batch2","tol_toboard","431","","","","","","","","","tol_peg_1","431","431","0","[[2,1,0],[3,0],[0]]","4","[[2,1,3],[0,0],[0]]","1","0","","","","","","5","","","","",""
"","","","","","single-stim-button","164","1224828","0.0-3.0-13.4-0.4","62bd685ac3edc9ad0d77812b","B2","batch2","tol_tohand","367","","","","","","","","","tol_peg_2","367","367","0","[[2,1,0],[0,0],[0]]","5","[[2,1,3],[0,0],[0]]","1","0","","","","","","5","","","","",""
"","","","","","single-stim-button","165","1225188","0.0-3.0-13.4-1.4","62bd685ac3edc9ad0d77812b","B2","batch2","tol_toboard","359","","","","","","","","","tol_peg_1","359","359","0","[[2,1,3],[0,0],[0]]","5","[[2,1,3],[0,0],[0]]","1","0","","","","","","5","","","","",""
"","","","","","poldrack-single-stim","166","1226190","0.0-3.0-14.0","62bd685ac3edc9ad0d77812b","B2","batch2","tol_feedback","-1","","","","","true","","","","","1000","1000","500","","","","","","-1","none","true","7879","9724","","","","","",""
"","","","","","html-button-response","167","1226861","0.0-3.0-15.0","62bd685ac3edc9ad0d77812b","B2","batch2","tol_trial_num","669.5","<div class = centerbox><p class = center-block-text>problem <strong>3</strong> out of 25 problems</p></div>","0","","","","","","","","","","","","","","","","","","","","","","","","","",""
"","","","","","single-stim-button","168","1232772","0.0-3.0-16.0-0.0","62bd685ac3edc9ad0d77812b","B2","batch2","tol_tohand","5911","","","","","","","","","tol_peg_1","5911","5911","0","[[2,0,0],[0,0],[1]]","1","[[1,2,0],[3,0],[0]]","2","0","","","","","","4","","","","",""
"","","","","","single-stim-button","169","1233196","0.0-3.0-16.0-1.0","62bd685ac3edc9ad0d77812b","B2","batch2","tol_toboard","423","","","","","","","","","tol_peg_2","423","423","0","[[2,0,0],[3,0],[1]]","1","[[1,2,0],[3,0],[0]]","2","0","","","","","","4","","","","",""
"","","","","","single-stim-button","170","1234268","0.0-3.0-16.1-0.1","62bd685ac3edc9ad0d77812b","B2","batch2","tol_tohand","1071","","","","","","","","","tol_peg_1","1071","1071","0","[[0,0,0],[3,0],[1]]","2","[[1,2,0],[3,0],[0]]","2","0","","","","","","4","","","","",""
"","","","","","single-stim-button","171","1234700","0.0-3.0-16.1-1.1","62bd685ac3edc9ad0d77812b","B2","batch2","tol_toboard","431","","","","","","","","","tol_peg_2","431","431","0","[[0,0,0],[3,2],[1]]","2","[[1,2,0],[3,0],[0]]","2","0","","","","","","4","","","","",""
"","","","","","single-stim-button","172","1235044","0.0-3.0-16.2-0.2","62bd685ac3edc9ad0d77812b","B2","batch2","tol_tohand","343","","","","","","","","","tol_peg_3","343","343","0","[[0,0,0],[3,2],[0]]","3","[[1,2,0],[3,0],[0]]","2","0","","","","","","4","","","","",""
"","","","","","single-stim-button","173","1236389","0.0-3.0-16.2-1.2","62bd685ac3edc9ad0d77812b","B2","batch2","tol_toboard","1344","","","","","","","","","tol_peg_1","1344","1344","0","[[1,0,0],[3,2],[0]]","3","[[1,2,0],[3,0],[0]]","2","0","","","","","","4","","","","",""
"","","","","","single-stim-button","174","1236789","0.0-3.0-16.3-0.3","62bd685ac3edc9ad0d77812b","B2","batch2","tol_tohand","400","","","","","","","","","tol_peg_2","400","400","0","[[1,0,0],[3,0],[0]]","4","[[1,2,0],[3,0],[0]]","2","0","","","","","","4","","","","",""
"","","","","","single-stim-button","175","1237116","0.0-3.0-16.3-1.3","62bd685ac3edc9ad0d77812b","B2","batch2","tol_toboard","327","","","","","","","","","tol_peg_1","327","327","0","[[1,2,0],[3,0],[0]]","4","[[1,2,0],[3,0],[0]]","2","0","","","","","","4","","","","",""
"","","","","","poldrack-single-stim","176","1238127","0.0-3.0-17.0","62bd685ac3edc9ad0d77812b","B2","batch2","tol_feedback","-1","","","","","true","","","","","1000","1000","500","","","","","","-1","none","true","5911","7725","","","","","",""
"","","","","","html-button-response","177","1239492","0.0-3.0-18.0","62bd685ac3edc9ad0d77812b","B2","batch2","tol_trial_num","1364","<div class = centerbox><p class = center-block-text>problem <strong>4</strong> out of 25 problems</p></div>","0","","","","","","","","","","","","","","","","","","","","","","","","","",""
"","","","","","single-stim-button","178","1243844","0.0-3.0-19.0-0.0","62bd685ac3edc9ad0d77812b","B2","batch2","tol_tohand","4351","","","","","","","","","tol_peg_2","4351","4351","0","[[3,0,0],[2,0],[0]]","1","[[3,0,0],[1,0],[2]]","3","0","","","","","","3","","","","",""
"","","","","","single-stim-button","179","1244300","0.0-3.0-19.0-1.0","62bd685ac3edc9ad0d77812b","B2","batch2","tol_toboard","455","","","","","","","","","tol_peg_3","455","455","0","[[3,0,0],[2,0],[1]]","1","[[3,0,0],[1,0],[2]]","3","0","","","","","","3","","","","",""
"","","","","","single-stim-button","180","1244916","0.0-3.0-19.1-0.1","62bd685ac3edc9ad0d77812b","B2","batch2","tol_tohand","615","","","","","","","","","tol_peg_2","615","615","0","[[3,0,0],[0,0],[1]]","2","[[3,0,0],[1,0],[2]]","3","0","","","","","","3","","","","",""
"","","","","","single-stim-button","181","1245316","0.0-3.0-19.1-1.1","62bd685ac3edc9ad0d77812b","B2","batch2","tol_toboard","399","","","","","","","","","tol_peg_1","399","399","0","[[3,2,0],[0,0],[1]]","2","[[3,0,0],[1,0],[2]]","3","0","","","","","","3","","","","",""
"","","","","","single-stim-button","182","1245933","0.0-3.0-19.2-0.2","62bd685ac3edc9ad0d77812b","B2","batch2","tol_tohand","615","","","","","","","","","tol_peg_3","615","615","0","[[3,2,0],[0,0],[0]]","3","[[3,0,0],[1,0],[2]]","3","0","","","","","","3","","","","",""
"","","","","","single-stim-button","183","1246476","0.0-3.0-19.2-1.2","62bd685ac3edc9ad0d77812b","B2","batch2","tol_toboard","543","","","","","","","","","tol_peg_2","543","543","0","[[3,2,0],[1,0],[0]]","3","[[3,0,0],[1,0],[2]]","3","0","","","","","","3","","","","",""
"","","","","","single-stim-button","184","1247028","0.0-3.0-19.3-0.3","62bd685ac3edc9ad0d77812b","B2","batch2","tol_tohand","551","","","","","","","","","tol_peg_1","551","551","0","[[3,0,0],[1,0],[0]]","4","[[3,0,0],[1,0],[2]]","3","0","","","","","","3","","","","",""
"","","","","","single-stim-button","185","1247612","0.0-3.0-19.3-1.3","62bd685ac3edc9ad0d77812b","B2","batch2","tol_toboard","583","","","","","","","","","tol_peg_3","583","583","0","[[3,0,0],[1,0],[2]]","4","[[3,0,0],[1,0],[2]]","3","0","","","","","","3","","","","",""
"","","","","","poldrack-single-stim","186","1248624","0.0-3.0-20.0","62bd685ac3edc9ad0d77812b","B2","batch2","tol_feedback","-1","","","","","true","","","","","1000","1000","500","","","","","","-1","none","true","4351","6132","","","","","",""
"","","","","","html-button-response","187","1249388","0.0-3.0-21.0","62bd685ac3edc9ad0d77812b","B2","batch2","tol_trial_num","763.3000000119209","<div class = centerbox><p class = center-block-text>problem <strong>5</strong> out of 25 problems</p></div>","0","","","","","","","","","","","","","","","","","","","","","","","","","",""
"","","","","","single-stim-button","188","1262580","0.0-3.0-22.0-0.0","62bd685ac3edc9ad0d77812b","B2","batch2","tol_tohand","13191","","","","","","","","","tol_peg_3","13191","13191","0","[[1,0,0],[2,0],[0]]","1","[[0,0,0],[1,2],[3]]","4","0","","","","","","7","","","","",""
"","","","","","single-stim-button","189","1263092","0.0-3.0-22.0-1.0","62bd685ac3edc9ad0d77812b","B2","batch2","tol_toboard","511","","","","","","","","","tol_peg_1","511","511","0","[[1,3,0],[2,0],[0]]","1","[[0,0,0],[1,2],[3]]","4","0","","","","","","7","","","","",""
"","","","","","single-stim-button","190","1263492","0.0-3.0-22.1-0.1","62bd685ac3edc9ad0d77812b","B2","batch2","tol_tohand","399","","","","","","","","","tol_peg_2","399","399","0","[[1,3,0],[0,0],[0]]","2","[[0,0,0],[1,2],[3]]","4","0","","","","","","7","","","","",""
"","","","","","single-stim-button","191","1263868","0.0-3.0-22.1-1.1","62bd685ac3edc9ad0d77812b","B2","batch2","tol_toboard","375","","","","","","","","","tol_peg_3","375","375","0","[[1,3,0],[0,0],[2]]","2","[[0,0,0],[1,2],[3]]","4","0","","","","","","7","","","","",""
"","","","","","single-stim-button","192","1264524","0.0-3.0-22.2-0.2","62bd685ac3edc9ad0d77812b","B2","batch2","tol_tohand","655","","","","","","","","","tol_peg_1","655","655","0","[[1,0,0],[0,0],[2]]","3","[[0,0,0],[1,2],[3]]","4","0","","","","","","7","","","","",""
"","","","","","single-stim-button","193","1264956","0.0-3.0-22.2-1.2","62bd685ac3edc9ad0d77812b","B2","batch2","tol_toboard","432","","","","","","","","","tol_peg_2","432","432","0","[[1,0,0],[3,0],[2]]","3","[[0,0,0],[1,2],[3]]","4","0","","","","","","7","","","","",""
"","","","","","single-stim-button","194","1265956","0.0-3.0-22.3-0.3","62bd685ac3edc9ad0d77812b","B2","batch2","tol_tohand","1000","","","","","","","","","tol_peg_1","1000","1000","0","[[0,0,0],[3,0],[2]]","4","[[0,0,0],[1,2],[3]]","4","0","","","","","","7","","","","",""
"","","","","","single-stim-button","195","1266300","0.0-3.0-22.3-1.3","62bd685ac3edc9ad0d77812b","B2","batch2","tol_toboard","344","","","","","","","","","tol_peg_2","344","344","0","[[0,0,0],[3,1],[2]]","4","[[0,0,0],[1,2],[3]]","4","0","","","","","","7","","","","",""
"","","","","","single-stim-button","196","1266676","0.0-3.0-22.4-0.4","62bd685ac3edc9ad0d77812b","B2","batch2","tol_tohand","375","","","","","","","","","tol_peg_3","375","375","0","[[0,0,0],[3,1],[0]]","5","[[0,0,0],[1,2],[3]]","4","0","","","","","","7","","","","",""
"","","","","","single-stim-button","197","1267260","0.0-3.0-22.4-1.4","62bd685ac3edc9ad0d77812b","B2","batch2","tol_toboard","583","","","","","","","","","tol_peg_1","583","583","0","[[2,0,0],[3,1],[0]]","5","[[0,0,0],[1,2],[3]]","4","0","","","","","","7","","","","",""
"","","","","","single-stim-button","198","1270613","0.0-3.0-22.5-0.5","62bd685ac3edc9ad0d77812b","B2","batch2","tol_tohand","3351","","","","","","","","","tol_peg_2","3351","3351","0","[[2,0,0],[3,0],[0]]","6","[[0,0,0],[1,2],[3]]","4","0","","","","","","7","","","","",""
"","","","","","single-stim-button","199","1271309","0.0-3.0-22.5-1.5","62bd685ac3edc9ad0d77812b","B2","batch2","tol_toboard","696","","","","","","","","","tol_peg_1","696","696","0","[[2,1,0],[3,0],[0]]","6","[[0,0,0],[1,2],[3]]","4","0","","","","","","7","","","","",""
"","","","","","single-stim-button","200","1271629","0.0-3.0-22.6-0.6","62bd685ac3edc9ad0d77812b","B2","batch2","tol_tohand","319","","","","","","","","","tol_peg_2","319","319","0","[[2,1,0],[0,0],[0]]","7","[[0,0,0],[1,2],[3]]","4","0","","","","","","7","","","","",""
"","","","","","single-stim-button","201","1273109","0.0-3.0-22.6-1.6","62bd685ac3edc9ad0d77812b","B2","batch2","tol_toboard","1479","","","","","","","","","tol_peg_3","1479","1479","0","[[2,1,0],[0,0],[3]]","7","[[0,0,0],[1,2],[3]]","4","0","","","","","","7","","","","",""
"","","","","","single-stim-button","202","1273740","0.0-3.0-22.7-0.7","62bd685ac3edc9ad0d77812b","B2","batch2","tol_tohand","631","","","","","","","","","tol_peg_3","631","631","0","[[2,1,0],[0,0],[0]]","8","[[0,0,0],[1,2],[3]]","4","0","","","","","","7","","","","",""
"","","","","","single-stim-button","203","1274100","0.0-3.0-22.7-1.7","62bd685ac3edc9ad0d77812b","B2","batch2","tol_toboard","359","","","","","","","","","tol_peg_2","359","359","0","[[2,1,0],[3,0],[0]]","8","[[0,0,0],[1,2],[3]]","4","0","","","","","","7","","","","",""
"","","","","","single-stim-button","204","1274556","0.0-3.0-22.8-0.8","62bd685ac3edc9ad0d77812b","B2","batch2","tol_tohand","455","","","","","","","","","tol_peg_1","455","455","0","[[2,0,0],[3,0],[0]]","9","[[0,0,0],[1,2],[3]]","4","0","","","","","","7","","","","",""
"","","","","","single-stim-button","205","1275116","0.0-3.0-22.8-1.8","62bd685ac3edc9ad0d77812b","B2","batch2","tol_toboard","559","","","","","","","","","tol_peg_3","559","559","0","[[2,0,0],[3,0],[1]]","9","[[0,0,0],[1,2],[3]]","4","0","","","","","","7","","","","",""
"","","","","","single-stim-button","206","1279796","0.0-3.0-22.9-0.9","62bd685ac3edc9ad0d77812b","B2","batch2","tol_tohand","4679","","","","","","","","","tol_peg_3","4679","4679","0","[[2,0,0],[3,0],[0]]","10","[[0,0,0],[1,2],[3]]","4","0","","","","","","7","","","","",""
"","","","","","single-stim-button","207","1284373","0.0-3.0-22.9-1.9","62bd685ac3edc9ad0d77812b","B2","batch2","tol_toboard","4575","","","","","","","","","tol_peg_3","4575","4575","0","[[2,0,0],[3,0],[1]]","10","[[0,0,0],[1,2],[3]]","4","0","","","","","","7","","","","",""
"","","","","","single-stim-button","208","1293860","0.0-3.0-22.10-0.10","62bd685ac3edc9ad0d77812b","B2","batch2","tol_tohand","9487","","","","","","","","","tol_peg_2","9487","9487","0","[[2,0,0],[0,0],[1]]","11","[[0,0,0],[1,2],[3]]","4","0","","","","","","7","","","","",""
"","","","","","single-stim-button","209","1294204","0.0-3.0-22.10-1.10","62bd685ac3edc9ad0d77812b","B2","batch2","tol_toboard","343","","","","","","","","","tol_peg_1","343","343","0","[[2,3,0],[0,0],[1]]","11","[[0,0,0],[1,2],[3]]","4","0","","","","","","7","","","","",""
"","","","","","single-stim-button","210","1294933","0.0-3.0-22.11-0.11","62bd685ac3edc9ad0d77812b","B2","batch2","tol_tohand","727","","","","","","","","","tol_peg_3","727","727","0","[[2,3,0],[0,0],[0]]","12","[[0,0,0],[1,2],[3]]","4","0","","","","","","7","","","","",""
"","","","","","single-stim-button","211","1295764","0.0-3.0-22.11-1.11","62bd685ac3edc9ad0d77812b","B2","batch2","tol_toboard","831","","","","","","","","","tol_peg_2","831","831","0","[[2,3,0],[1,0],[0]]","12","[[0,0,0],[1,2],[3]]","4","0","","","","","","7","","","","",""
"","","","","","single-stim-button","212","1296204","0.0-3.0-22.12-0.12","62bd685ac3edc9ad0d77812b","B2","batch2","tol_tohand","439","","","","","","","","","tol_peg_1","439","439","0","[[2,0,0],[1,0],[0]]","13","[[0,0,0],[1,2],[3]]","4","0","","","","","","7","","","","",""
"","","","","","single-stim-button","213","1296620","0.0-3.0-22.12-1.12","62bd685ac3edc9ad0d77812b","B2","batch2","tol_toboard","415","","","","","","","","","tol_peg_3","415","415","0","[[2,0,0],[1,0],[3]]","13","[[0,0,0],[1,2],[3]]","4","0","","","","","","7","","","","",""
"","","","","","single-stim-button","214","1297053","0.0-3.0-22.13-0.13","62bd685ac3edc9ad0d77812b","B2","batch2","tol_tohand","431","","","","","","","","","tol_peg_1","431","431","0","[[0,0,0],[1,0],[3]]","14","[[0,0,0],[1,2],[3]]","4","0","","","","","","7","","","","",""
"","","","","","single-stim-button","215","1297405","0.0-3.0-22.13-1.13","62bd685ac3edc9ad0d77812b","B2","batch2","tol_toboard","351","","","","","","","","","tol_peg_2","351","351","0","[[0,0,0],[1,2],[3]]","14","[[0,0,0],[1,2],[3]]","4","0","","","","","","7","","","","",""
"","","","","","poldrack-single-stim","216","1298406","0.0-3.0-23.0","62bd685ac3edc9ad0d77812b","B2","batch2","tol_feedback","-1","","","","","true","","","","","1000","1000","500","","","","","","-1","none","true","13191","36139","","","","","",""
"","","","","","html-button-response","217","1299028","0.0-3.0-24.0","62bd685ac3edc9ad0d77812b","B2","batch2","tol_trial_num","621.3000000119209","<div class = centerbox><p class = center-block-text>problem <strong>6</strong> out of 25 problems</p></div>","0","","","","","","","","","","","","","","","","","","","","","","","","","",""
"","","","","","single-stim-button","218","1307492","0.0-3.0-25.0-0.0","62bd685ac3edc9ad0d77812b","B2","batch2","tol_tohand","8464","","","","","","","","","tol_peg_3","8464","8464","0","[[0,0,0],[1,2],[0]]","1","[[1,0,0],[2,3],[0]]","5","0","","","","","","6","","","","",""
"","","","","","single-stim-button","219","1308204","0.0-3.0-25.0-1.0","62bd685ac3edc9ad0d77812b","B2","batch2","tol_toboard","711","","","","","","","","","tol_peg_1","711","711","0","[[3,0,0],[1,2],[0]]","1","[[1,0,0],[2,3],[0]]","5","0","","","","","","6","","","","",""
"","","","","","single-stim-button","220","1308597","0.0-3.0-25.1-0.1","62bd685ac3edc9ad0d77812b","B2","batch2","tol_tohand","391","","","","","","","","","tol_peg_2","391","391","0","[[3,0,0],[1,0],[0]]","2","[[1,0,0],[2,3],[0]]","5","0","","","","","","6","","","","",""
"","","","","","single-stim-button","221","1308940","0.0-3.0-25.1-1.1","62bd685ac3edc9ad0d77812b","B2","batch2","tol_toboard","343","","","","","","","","","tol_peg_3","343","343","0","[[3,0,0],[1,0],[2]]","2","[[1,0,0],[2,3],[0]]","5","0","","","","","","6","","","","",""
"","","","","","single-stim-button","222","1319036","0.0-3.0-25.2-0.2","62bd685ac3edc9ad0d77812b","B2","batch2","tol_tohand","10096","","","","","","","","","tol_peg_3","10096","10096","0","[[3,0,0],[1,0],[0]]","3","[[1,0,0],[2,3],[0]]","5","0","","","","","","6","","","","",""
"","","","","","single-stim-button","223","1319684","0.0-3.0-25.2-1.2","62bd685ac3edc9ad0d77812b","B2","batch2","tol_toboard","647","","","","","","","","","tol_peg_1","647","647","0","[[3,2,0],[1,0],[0]]","3","[[1,0,0],[2,3],[0]]","5","0","","","","","","6","","","","",""
"","","","","","single-stim-button","224","1320004","0.0-3.0-25.3-0.3","62bd685ac3edc9ad0d77812b","B2","batch2","tol_tohand","319","","","","","","","","","tol_peg_2","319","319","0","[[3,2,0],[0,0],[0]]","4","[[1,0,0],[2,3],[0]]","5","0","","","","","","6","","","","",""
"","","","","","single-stim-button","225","1320276","0.0-3.0-25.3-1.3","62bd685ac3edc9ad0d77812b","B2","batch2","tol_toboard","272","","","","","","","","","tol_peg_3","272","272","0","[[3,2,0],[0,0],[1]]","4","[[1,0,0],[2,3],[0]]","5","0","","","","","","6","","","","",""
"","","","","","single-stim-button","226","1322261","0.0-3.0-25.4-0.4","62bd685ac3edc9ad0d77812b","B2","batch2","tol_tohand","1984","","","","","","","","","tol_peg_1","1984","1984","0","[[3,0,0],[0,0],[1]]","5","[[1,0,0],[2,3],[0]]","5","0","","","","","","6","","","","",""
"","","","","","single-stim-button","227","1322588","0.0-3.0-25.4-1.4","62bd685ac3edc9ad0d77812b","B2","batch2","tol_toboard","327","","","","","","","","","tol_peg_2","327","327","0","[[3,0,0],[2,0],[1]]","5","[[1,0,0],[2,3],[0]]","5","0","","","","","","6","","","","",""
"","","","","","single-stim-button","228","1322957","0.0-3.0-25.5-0.5","62bd685ac3edc9ad0d77812b","B2","batch2","tol_tohand","369","","","","","","","","","tol_peg_1","369","369","0","[[0,0,0],[2,0],[1]]","6","[[1,0,0],[2,3],[0]]","5","0","","","","","","6","","","","",""
"","","","","","single-stim-button","229","1323276","0.0-3.0-25.5-1.5","62bd685ac3edc9ad0d77812b","B2","batch2","tol_toboard","319","","","","","","","","","tol_peg_2","319","319","0","[[0,0,0],[2,3],[1]]","6","[[1,0,0],[2,3],[0]]","5","0","","","","","","6","","","","",""
"","","","","","single-stim-button","230","1323660","0.0-3.0-25.6-0.6","62bd685ac3edc9ad0d77812b","B2","batch2","tol_tohand","384","","","","","","","","","tol_peg_3","384","384","0","[[0,0,0],[2,3],[0]]","7","[[1,0,0],[2,3],[0]]","5","0","","","","","","6","","","","",""
"","","","","","single-stim-button","231","1324132","0.0-3.0-25.6-1.6","62bd685ac3edc9ad0d77812b","B2","batch2","tol_toboard","472","","","","","","","","","tol_peg_1","472","472","0","[[1,0,0],[2,3],[0]]","7","[[1,0,0],[2,3],[0]]","5","0","","","","","","6","","","","",""
"","","","","","poldrack-single-stim","232","1325134","0.0-3.0-26.0","62bd685ac3edc9ad0d77812b","B2","batch2","tol_feedback","-1","","","","","true","","","","","1000","1000","500","","","","","","-1","none","true","8464","22007","","","","","",""
"","","","","","html-button-response","233","1325716","0.0-3.0-27.0","62bd685ac3edc9ad0d77812b","B2","batch2","tol_trial_num","581.3000000119209","<div class = centerbox><p class = center-block-text>problem <strong>7</strong> out of 25 problems</p></div>","0","","","","","","","","","","","","","","","","","","","","","","","","","",""
"","","","","","single-stim-button","234","1329724","0.0-3.0-28.0-0.0","62bd685ac3edc9ad0d77812b","B2","batch2","tol_tohand","4007","","","","","","","","","tol_peg_3","4007","4007","0","[[2,1,0],[0,0],[0]]","1","[[1,2,0],[3,0],[0]]","6","0","","","","","","5","","","","",""
"","","","","","single-stim-button","235","1330252","0.0-3.0-28.0-1.0","62bd685ac3edc9ad0d77812b","B2","batch2","tol_toboard","528","","","","","","","","","tol_peg_2","528","528","0","[[2,1,0],[3,0],[0]]","1","[[1,2,0],[3,0],[0]]","6","0","","","","","","5","","","","",""
"","","","","","single-stim-button","236","1330604","0.0-3.0-28.1-0.1","62bd685ac3edc9ad0d77812b","B2","batch2","tol_tohand","352","","","","","","","","","tol_peg_1","352","352","0","[[2,0,0],[3,0],[0]]","2","[[1,2,0],[3,0],[0]]","6","0","","","","","","5","","","","",""
"","","","","","single-stim-button","237","1332332","0.0-3.0-28.1-1.1","62bd685ac3edc9ad0d77812b","B2","batch2","tol_toboard","1728","","","","","","","","","tol_peg_3","1728","1728","0","[[2,0,0],[3,0],[1]]","2","[[1,2,0],[3,0],[0]]","6","0","","","","","","5","","","","",""
"","","","","","single-stim-button","238","1332876","0.0-3.0-28.2-0.2","62bd685ac3edc9ad0d77812b","B2","batch2","tol_tohand","544","","","","","","","","","tol_peg_1","544","544","0","[[0,0,0],[3,0],[1]]","3","[[1,2,0],[3,0],[0]]","6","0","","","","","","5","","","","",""
"","","","","","single-stim-button","239","1333900","0.0-3.0-28.2-1.2","62bd685ac3edc9ad0d77812b","B2","batch2","tol_toboard","1024","","","","","","","","","tol_peg_2","1024","1024","0","[[0,0,0],[3,2],[1]]","3","[[1,2,0],[3,0],[0]]","6","0","","","","","","5","","","","",""
"","","","","","single-stim-button","240","1334324","0.0-3.0-28.3-0.3","62bd685ac3edc9ad0d77812b","B2","batch2","tol_tohand","423","","","","","","","","","tol_peg_3","423","423","0","[[0,0,0],[3,2],[0]]","4","[[1,2,0],[3,0],[0]]","6","0","","","","","","5","","","","",""
"","","","","","single-stim-button","241","1334788","0.0-3.0-28.3-1.3","62bd685ac3edc9ad0d77812b","B2","batch2","tol_toboard","464","","","","","","","","","tol_peg_1","464","464","0","[[1,0,0],[3,2],[0]]","4","[[1,2,0],[3,0],[0]]","6","0","","","","","","5","","","","",""
"","","","","","single-stim-button","242","1335428","0.0-3.0-28.4-0.4","62bd685ac3edc9ad0d77812b","B2","batch2","tol_tohand","640","","","","","","","","","tol_peg_2","640","640","0","[[1,0,0],[3,0],[0]]","5","[[1,2,0],[3,0],[0]]","6","0","","","","","","5","","","","",""
"","","","","","single-stim-button","243","1335812","0.0-3.0-28.4-1.4","62bd685ac3edc9ad0d77812b","B2","batch2","tol_toboard","384","","","","","","","","","tol_peg_1","384","384","0","[[1,2,0],[3,0],[0]]","5","[[1,2,0],[3,0],[0]]","6","0","","","","","","5","","","","",""
"","","","","","poldrack-single-stim","244","1336828","0.0-3.0-29.0","62bd685ac3edc9ad0d77812b","B2","batch2","tol_feedback","-1","","","","","true","","","","","1000","1000","500","","","","","","-1","none","true","4007","5966","","","","","",""
"","","","","","html-button-response","245","1337324","0.0-3.0-30.0","62bd685ac3edc9ad0d77812b","B2","batch2","tol_trial_num","494.5","<div class = centerbox><p class = center-block-text>problem <strong>8</strong> out of 25 problems</p></div>","0","","","","","","","","","","","","","","","","","","","","","","","","","",""
"","","","","","single-stim-button","246","1342020","0.0-3.0-31.0-0.0","62bd685ac3edc9ad0d77812b","B2","batch2","tol_tohand","4696","","","","","","","","","tol_peg_3","4696","4696","0","[[0,0,0],[2,3],[0]]","1","[[1,2,0],[3,0],[0]]","7","0","","","","","","4","","","","",""
"","","","","","single-stim-button","247","1342628","0.0-3.0-31.0-1.0","62bd685ac3edc9ad0d77812b","B2","batch2","tol_toboard","607","","","","","","","","","tol_peg_1","607","607","0","[[1,0,0],[2,3],[0]]","1","[[1,2,0],[3,0],[0]]","7","0","","","","","","4","","","","",""
"","","","","","single-stim-button","248","1343916","0.0-3.0-31.1-0.1","62bd685ac3edc9ad0d77812b","B2","batch2","tol_tohand","1287","","","","","","","","","tol_peg_2","1287","1287","0","[[1,0,0],[2,0],[0]]","2","[[1,2,0],[3,0],[0]]","7","0","","","","","","4","","","","",""
"","","","","","single-stim-button","249","1344436","0.0-3.0-31.1-1.1","62bd685ac3edc9ad0d77812b","B2","batch2","tol_toboard","520","","","","","","","","","tol_peg_3","520","520","0","[[1,0,0],[2,0],[3]]","2","[[1,2,0],[3,0],[0]]","7","0","","","","","","4","","","","",""
"","","","","","single-stim-button","250","1344836","0.0-3.0-31.2-0.2","62bd685ac3edc9ad0d77812b","B2","batch2","tol_tohand","400","","","","","","","","","tol_peg_2","400","400","0","[[1,0,0],[0,0],[3]]","3","[[1,2,0],[3,0],[0]]","7","0","","","","","","4","","","","",""
"","","","","","single-stim-button","251","1345276","0.0-3.0-31.2-1.2","62bd685ac3edc9ad0d77812b","B2","batch2","tol_toboard","440","","","","","","","","","tol_peg_1","440","440","0","[[1,2,0],[0,0],[3]]","3","[[1,2,0],[3,0],[0]]","7","0","","","","","","4","","","","",""
"","","","","","single-stim-button","252","1346372","0.0-3.0-31.3-0.3","62bd685ac3edc9ad0d77812b","B2","batch2","tol_tohand","1095","","","","","","","","","tol_peg_3","1095","1095","0","[[1,2,0],[0,0],[0]]","4","[[1,2,0],[3,0],[0]]","7","0","","","","","","4","","","","",""
"","","","","","single-stim-button","253","1346804","0.0-3.0-31.3-1.3","62bd685ac3edc9ad0d77812b","B2","batch2","tol_toboard","432","","","","","","","","","tol_peg_2","432","432","0","[[1,2,0],[3,0],[0]]","4","[[1,2,0],[3,0],[0]]","7","0","","","","","","4","","","","",""
"","","","","","poldrack-single-stim","254","1347809","0.0-3.0-32.0","62bd685ac3edc9ad0d77812b","B2","batch2","tol_feedback","-1","","","","","true","","","","","1000","1000","500","","","","","","-1","none","true","4696","7478","","","","","",""
"","","","","","html-button-response","255","1348388","0.0-3.0-33.0","62bd685ac3edc9ad0d77812b","B2","batch2","tol_trial_num","577.9000000059605","<div class = centerbox><p class = center-block-text>problem <strong>9</strong> out of 25 problems</p></div>","0","","","","","","","","","","","","","","","","","","","","","","","","","",""
"","","","","","single-stim-button","256","1354748","0.0-3.0-34.0-0.0","62bd685ac3edc9ad0d77812b","B2","batch2","tol_tohand","6359","","","","","","","","","tol_peg_3","6359","6359","0","[[3,2,0],[0,0],[0]]","1","[[2,1,0],[3,0],[0]]","8","0","","","","","","6","","","","",""
"","","","","","single-stim-button","257","1355876","0.0-3.0-34.0-1.0","62bd685ac3edc9ad0d77812b","B2","batch2","tol_toboard","1127","","","","","","","","","tol_peg_2","1127","1127","0","[[3,2,0],[1,0],[0]]","1","[[2,1,0],[3,0],[0]]","8","0","","","","","","6","","","","",""
"","","","","","single-stim-button","258","1356276","0.0-3.0-34.1-0.1","62bd685ac3edc9ad0d77812b","B2","batch2","tol_tohand","400","","","","","","","","","tol_peg_1","400","400","0","[[3,0,0],[1,0],[0]]","2","[[2,1,0],[3,0],[0]]","8","0","","","","","","6","","","","",""
"","","","","","single-stim-button","259","1356708","0.0-3.0-34.1-1.1","62bd685ac3edc9ad0d77812b","B2","batch2","tol_toboard","430","","","","","","","","","tol_peg_2","430","430","0","[[3,0,0],[1,2],[0]]","2","[[2,1,0],[3,0],[0]]","8","0","","","","","","6","","","","",""
"","","","","","single-stim-button","260","1357028","0.0-3.0-34.2-0.2","62bd685ac3edc9ad0d77812b","B2","batch2","tol_tohand","319","","","","","","","","","tol_peg_1","319","319","0","[[0,0,0],[1,2],[0]]","3","[[2,1,0],[3,0],[0]]","8","0","","","","","","6","","","","",""
"","","","","","single-stim-button","261","1358124","0.0-3.0-34.2-1.2","62bd685ac3edc9ad0d77812b","B2","batch2","tol_toboard","1095","","","","","","","","","tol_peg_3","1095","1095","0","[[0,0,0],[1,2],[3]]","3","[[2,1,0],[3,0],[0]]","8","0","","","","","","6","","","","",""
"","","","","","single-stim-button","262","1359028","0.0-3.0-34.3-0.3","62bd685ac3edc9ad0d77812b","B2","batch2","tol_tohand","904","","","","","","","","","tol_peg_2","904","904","0","[[0,0,0],[1,0],[3]]","4","[[2,1,0],[3,0],[0]]","8","0","","","","","","6","","","","",""
"","","","","","single-stim-button","263","1359428","0.0-3.0-34.3-1.3","62bd685ac3edc9ad0d77812b","B2","batch2","tol_toboard","399","","","","","","","","","tol_peg_1","399","399","0","[[2,0,0],[1,0],[3]]","4","[[2,1,0],[3,0],[0]]","8","0","","","","","","6","","","","",""
"","","","","","single-stim-button","264","1359812","0.0-3.0-34.4-0.4","62bd685ac3edc9ad0d77812b","B2","batch2","tol_tohand","384","","","","","","","","","tol_peg_2","384","384","0","[[2,0,0],[0,0],[3]]","5","[[2,1,0],[3,0],[0]]","8","0","","","","","","6","","","","",""
"","","","","","single-stim-button","265","1360228","0.0-3.0-34.4-1.4","62bd685ac3edc9ad0d77812b","B2","batch2","tol_toboard","415","","","","","","","","","tol_peg_1","415","415","0","[[2,1,0],[0,0],[3]]","5","[[2,1,0],[3,0],[0]]","8","0","","","","","","6","","","","",""
"","","","","","single-stim-button","266","1360732","0.0-3.0-34.5-0.5","62bd685ac3edc9ad0d77812b","B2","batch2","tol_tohand","504","","","","","","","","","tol_peg_3","504","504","0","[[2,1,0],[0,0],[0]]","6","[[2,1,0],[3,0],[0]]","8","0","","","","","","6","","","","",""
"","","","","","single-stim-button","267","1361140","0.0-3.0-34.5-1.5","62bd685ac3edc9ad0d77812b","B2","batch2","tol_toboard","407","","","","","","","","","tol_peg_2","407","407","0","[[2,1,0],[3,0],[0]]","6","[[2,1,0],[3,0],[0]]","8","0","","","","","","6","","","","",""
"","","","","","poldrack-single-stim","268","1362141","0.0-3.0-35.0","62bd685ac3edc9ad0d77812b","B2","batch2","tol_feedback","-1","","","","","true","","","","","1000","1000","500","","","","","","-1","none","true","6359","8870","","","","","",""
"","","","","","html-button-response","269","1362588","0.0-3.0-36.0","62bd685ac3edc9ad0d77812b","B2","batch2","tol_trial_num","445.40000000596046","<div class = centerbox><p class = center-block-text>problem <strong>10</strong> out of 25 problems</p></div>","0","","","","","","","","","","","","","","","","","","","","","","","","","",""
"","","","","","single-stim-button","270","1368052","0.0-3.0-37.0-0.0","62bd685ac3edc9ad0d77812b","B2","batch2","tol_tohand","5463","","","","","","","","","tol_peg_3","5463","5463","0","[[3,0,0],[1,0],[0]]","1","[[3,0,0],[2,1],[0]]","9","0","","","","","","3","","","","",""
"","","","","","single-stim-button","271","1369452","0.0-3.0-37.0-1.0","62bd685ac3edc9ad0d77812b","B2","batch2","tol_toboard","1399","","","","","","","","","tol_peg_1","1399","1399","0","[[3,2,0],[1,0],[0]]","1","[[3,0,0],[2,1],[0]]","9","0","","","","","","3","","","","",""
"","","","","","single-stim-button","272","1369787","0.0-3.0-37.1-0.1","62bd685ac3edc9ad0d77812b","B2","batch2","tol_tohand","335","","","","","","","","","tol_peg_2","335","335","0","[[3,2,0],[0,0],[0]]","2","[[3,0,0],[2,1],[0]]","9","0","","","","","","3","","","","",""
"","","","","","single-stim-button","273","1370068","0.0-3.0-37.1-1.1","62bd685ac3edc9ad0d77812b","B2","batch2","tol_toboard","280","","","","","","","","","tol_peg_3","280","280","0","[[3,2,0],[0,0],[1]]","2","[[3,0,0],[2,1],[0]]","9","0","","","","","","3","","","","",""
"","","","","","single-stim-button","274","1370508","0.0-3.0-37.2-0.2","62bd685ac3edc9ad0d77812b","B2","batch2","tol_tohand","439","","","","","","","","","tol_peg_1","439","439","0","[[3,0,0],[0,0],[1]]","3","[[3,0,0],[2,1],[0]]","9","0","","","","","","3","","","","",""
"","","","","","single-stim-button","275","1371123","0.0-3.0-37.2-1.2","62bd685ac3edc9ad0d77812b","B2","batch2","tol_toboard","615","","","","","","","","","tol_peg_2","615","615","0","[[3,0,0],[2,0],[1]]","3","[[3,0,0],[2,1],[0]]","9","0","","","","","","3","","","","",""
"","","","","","single-stim-button","276","1371524","0.0-3.0-37.3-0.3","62bd685ac3edc9ad0d77812b","B2","batch2","tol_tohand","399","","","","","","","","","tol_peg_3","399","399","0","[[3,0,0],[2,0],[0]]","4","[[3,0,0],[2,1],[0]]","9","0","","","","","","3","","","","",""
"","","","","","single-stim-button","277","1371828","0.0-3.0-37.3-1.3","62bd685ac3edc9ad0d77812b","B2","batch2","tol_toboard","303","","","","","","","","","tol_peg_2","303","303","0","[[3,0,0],[2,1],[0]]","4","[[3,0,0],[2,1],[0]]","9","0","","","","","","3","","","","",""
"","","","","","poldrack-single-stim","278","1372841","0.0-3.0-38.0","62bd685ac3edc9ad0d77812b","B2","batch2","tol_feedback","-1","","","","","true","","","","","1000","1000","500","","","","","","-1","none","true","5463","6636","","","","","",""
"","","","","","html-button-response","279","1373404","0.0-3.0-39.0","62bd685ac3edc9ad0d77812b","B2","batch2","tol_trial_num","561.9000000059605","<div class = centerbox><p class = center-block-text>problem <strong>11</strong> out of 25 problems</p></div>","0","","","","","","","","","","","","","","","","","","","","","","","","","",""
"","","","","","single-stim-button","280","1386348","0.0-3.0-40.0-0.0","62bd685ac3edc9ad0d77812b","B2","batch2","tol_tohand","12943","","","","","","","","","tol_peg_1","12943","12943","0","[[1,0,0],[3,0],[0]]","1","[[2,0,0],[1,3],[0]]","10","0","","","","","","6","","","","",""
"","","","","","single-stim-button","281","1387891","0.0-3.0-40.0-1.0","62bd685ac3edc9ad0d77812b","B2","batch2","tol_toboard","1543","","","","","","","","","tol_peg_3","1543","1543","0","[[1,0,0],[3,0],[2]]","1","[[2,0,0],[1,3],[0]]","10","0","","","","","","6","","","","",""
"","","","","","single-stim-button","282","1389628","0.0-3.0-40.1-0.1","62bd685ac3edc9ad0d77812b","B2","batch2","tol_tohand","1736","","","","","","","","","tol_peg_1","1736","1736","0","[[0,0,0],[3,0],[2]]","2","[[2,0,0],[1,3],[0]]","10","0","","","","","","6","","","","",""
"","","","","","single-stim-button","283","1390163","0.0-3.0-40.1-1.1","62bd685ac3edc9ad0d77812b","B2","batch2","tol_toboard","535","","","","","","","","","tol_peg_2","535","535","0","[[0,0,0],[3,1],[2]]","2","[[2,0,0],[1,3],[0]]","10","0","","","","","","6","","","","",""
"","","","","","single-stim-button","284","1390539","0.0-3.0-40.2-0.2","62bd685ac3edc9ad0d77812b","B2","batch2","tol_tohand","375","","","","","","","","","tol_peg_3","375","375","0","[[0,0,0],[3,1],[0]]","3","[[2,0,0],[1,3],[0]]","10","0","","","","","","6","","","","",""
"","","","","","single-stim-button","285","1391267","0.0-3.0-40.2-1.2","62bd685ac3edc9ad0d77812b","B2","batch2","tol_toboard","727","","","","","","","","","tol_peg_1","727","727","0","[[2,0,0],[3,1],[0]]","3","[[2,0,0],[1,3],[0]]","10","0","","","","","","6","","","","",""
"","","","","","single-stim-button","286","1394404","0.0-3.0-40.3-0.3","62bd685ac3edc9ad0d77812b","B2","batch2","tol_tohand","3136","","","","","","","","","tol_peg_2","3136","3136","0","[[2,0,0],[3,0],[0]]","4","[[2,0,0],[1,3],[0]]","10","0","","","","","","6","","","","",""
"","","","","","single-stim-button","287","1394947","0.0-3.0-40.3-1.3","62bd685ac3edc9ad0d77812b","B2","batch2","tol_toboard","543","","","","","","","","","tol_peg_1","543","543","0","[[2,1,0],[3,0],[0]]","4","[[2,0,0],[1,3],[0]]","10","0","","","","","","6","","","","",""
"","","","","","single-stim-button","288","1395299","0.0-3.0-40.4-0.4","62bd685ac3edc9ad0d77812b","B2","batch2","tol_tohand","351","","","","","","","","","tol_peg_2","351","351","0","[[2,1,0],[0,0],[0]]","5","[[2,0,0],[1,3],[0]]","10","0","","","","","","6","","","","",""
"","","","","","single-stim-button","289","1395619","0.0-3.0-40.4-1.4","62bd685ac3edc9ad0d77812b","B2","batch2","tol_toboard","319","","","","","","","","","tol_peg_3","319","319","0","[[2,1,0],[0,0],[3]]","5","[[2,0,0],[1,3],[0]]","10","0","","","","","","6","","","","",""
"","","","","","single-stim-button","290","1396043","0.0-3.0-40.5-0.5","62bd685ac3edc9ad0d77812b","B2","batch2","tol_tohand","423","","","","","","","","","tol_peg_1","423","423","0","[[2,0,0],[0,0],[3]]","6","[[2,0,0],[1,3],[0]]","10","0","","","","","","6","","","","",""
"","","","","","single-stim-button","291","1397019","0.0-3.0-40.5-1.5","62bd685ac3edc9ad0d77812b","B2","batch2","tol_toboard","975","","","","","","","","","tol_peg_2","975","975","0","[[2,0,0],[1,0],[3]]","6","[[2,0,0],[1,3],[0]]","10","0","","","","","","6","","","","",""
"","","","","","single-stim-button","292","1397604","0.0-3.0-40.6-0.6","62bd685ac3edc9ad0d77812b","B2","batch2","tol_tohand","584","","","","","","","","","tol_peg_3","584","584","0","[[2,0,0],[1,0],[0]]","7","[[2,0,0],[1,3],[0]]","10","0","","","","","","6","","","","",""
"","","","","","single-stim-button","293","1397915","0.0-3.0-40.6-1.6","62bd685ac3edc9ad0d77812b","B2","batch2","tol_toboard","311","","","","","","","","","tol_peg_2","311","311","0","[[2,0,0],[1,3],[0]]","7","[[2,0,0],[1,3],[0]]","10","0","","","","","","6","","","","",""
"","","","","","poldrack-single-stim","294","1398917","0.0-3.0-41.0","62bd685ac3edc9ad0d77812b","B2","batch2","tol_feedback","-1","","","","","true","","","","","1000","1000","500","","","","","","-1","none","true","12943","19548","","","","","",""
"","","","","","html-button-response","295","1399419","0.0-3.0-42.0","62bd685ac3edc9ad0d77812b","B2","batch2","tol_trial_num","501.80000001192093","<div class = centerbox><p class = center-block-text>problem <strong>12</strong> out of 25 problems</p></div>","0","","","","","","","","","","","","","","","","","","","","","","","","","",""
"","","","","","single-stim-button","296","1404332","0.0-3.0-43.0-0.0","62bd685ac3edc9ad0d77812b","B2","batch2","tol_tohand","4912","","","","","","","","","tol_peg_1","4912","4912","0","[[1,0,0],[3,0],[0]]","1","[[2,3,0],[0,0],[1]]","11","0","","","","","","4","","","","",""
"","","","","","single-stim-button","297","1404691","0.0-3.0-43.0-1.0","62bd685ac3edc9ad0d77812b","B2","batch2","tol_toboard","359","","","","","","","","","tol_peg_2","359","359","0","[[1,0,0],[3,2],[0]]","1","[[2,3,0],[0,0],[1]]","11","0","","","","","","4","","","","",""
"","","","","","single-stim-button","298","1405196","0.0-3.0-43.1-0.1","62bd685ac3edc9ad0d77812b","B2","batch2","tol_tohand","505","","","","","","","","","tol_peg_1","505","505","0","[[0,0,0],[3,2],[0]]","2","[[2,3,0],[0,0],[1]]","11","0","","","","","","4","","","","",""
"","","","","","single-stim-button","299","1405683","0.0-3.0-43.1-1.1","62bd685ac3edc9ad0d77812b","B2","batch2","tol_toboard","487","","","","","","","","","tol_peg_3","487","487","0","[[0,0,0],[3,2],[1]]","2","[[2,3,0],[0,0],[1]]","11","0","","","","","","4","","","","",""
"","","","","","single-stim-button","300","1406131","0.0-3.0-43.2-0.2","62bd685ac3edc9ad0d77812b","B2","batch2","tol_tohand","448","","","","","","","","","tol_peg_2","448","448","0","[[0,0,0],[3,0],[1]]","3","[[2,3,0],[0,0],[1]]","11","0","","","","","","4","","","","",""
"","","","","","single-stim-button","301","1406684","0.0-3.0-43.2-1.2","62bd685ac3edc9ad0d77812b","B2","batch2","tol_toboard","552","","","","","","","","","tol_peg_1","552","552","0","[[2,0,0],[3,0],[1]]","3","[[2,3,0],[0,0],[1]]","11","0","","","","","","4","","","","",""
"","","","","","single-stim-button","302","1407691","0.0-3.0-43.3-0.3","62bd685ac3edc9ad0d77812b","B2","batch2","tol_tohand","1006","","","","","","","","","tol_peg_2","1006","1006","0","[[2,0,0],[0,0],[1]]","4","[[2,3,0],[0,0],[1]]","11","0","","","","","","4","","","","",""
"","","","","","single-stim-button","303","1408452","0.0-3.0-43.3-1.3","62bd685ac3edc9ad0d77812b","B2","batch2","tol_toboard","759","","","","","","","","","tol_peg_1","759","759","0","[[2,3,0],[0,0],[1]]","4","[[2,3,0],[0,0],[1]]","11","0","","","","","","4","","","","",""
"","","","","","poldrack-single-stim","304","1409453","0.0-3.0-44.0","62bd685ac3edc9ad0d77812b","B2","batch2","tol_feedback","-1","","","","","true","","","","","1000","1000","500","","","","","","-1","none","true","4912","6871","","","","","",""
"","","","","","html-button-response","305","1410491","0.0-3.0-45.0","62bd685ac3edc9ad0d77812b","B2","batch2","tol_trial_num","1037.0999999940395","<div class = centerbox><p class = center-block-text>problem <strong>13</strong> out of 25 problems</p></div>","0","","","","","","","","","","","","","","","","","","","","","","","","","",""
"","","","","","single-stim-button","306","1418699","0.0-3.0-46.0-0.0","62bd685ac3edc9ad0d77812b","B2","batch2","tol_tohand","8207","","","","","","","","","tol_peg_2","8207","8207","0","[[1,2,0],[0,0],[0]]","1","[[0,0,0],[2,3],[1]]","12","0","","","","","","4","","","","",""
"","","","","","single-stim-button","307","1419387","0.0-3.0-46.0-1.0","62bd685ac3edc9ad0d77812b","B2","batch2","tol_toboard","687","","","","","","","","","tol_peg_3","687","687","0","[[1,2,0],[0,0],[3]]","1","[[0,0,0],[2,3],[1]]","12","0","","","","","","4","","","","",""
"","","","","","single-stim-button","308","1419876","0.0-3.0-46.1-0.1","62bd685ac3edc9ad0d77812b","B2","batch2","tol_tohand","488","","","","","","","","","tol_peg_1","488","488","0","[[1,0,0],[0,0],[3]]","2","[[0,0,0],[2,3],[1]]","12","0","","","","","","4","","","","",""
"","","","","","single-stim-button","309","1420235","0.0-3.0-46.1-1.1","62bd685ac3edc9ad0d77812b","B2","batch2","tol_toboard","359","","","","","","","","","tol_peg_2","359","359","0","[[1,0,0],[2,0],[3]]","2","[[0,0,0],[2,3],[1]]","12","0","","","","","","4","","","","",""
"","","","","","single-stim-button","310","1420740","0.0-3.0-46.2-0.2","62bd685ac3edc9ad0d77812b","B2","batch2","tol_tohand","503","","","","","","","","","tol_peg_3","503","503","0","[[1,0,0],[2,0],[0]]","3","[[0,0,0],[2,3],[1]]","12","0","","","","","","4","","","","",""
"","","","","","single-stim-button","311","1421035","0.0-3.0-46.2-1.2","62bd685ac3edc9ad0d77812b","B2","batch2","tol_toboard","295","","","","","","","","","tol_peg_2","295","295","0","[[1,0,0],[2,3],[0]]","3","[[0,0,0],[2,3],[1]]","12","0","","","","","","4","","","","",""
"","","","","","single-stim-button","312","1421611","0.0-3.0-46.3-0.3","62bd685ac3edc9ad0d77812b","B2","batch2","tol_tohand","576","","","","","","","","","tol_peg_1","576","576","0","[[0,0,0],[2,3],[0]]","4","[[0,0,0],[2,3],[1]]","12","0","","","","","","4","","","","",""
"","","","","","single-stim-button","313","1422067","0.0-3.0-46.3-1.3","62bd685ac3edc9ad0d77812b","B2","batch2","tol_toboard","455","","","","","","","","","tol_peg_3","455","455","0","[[0,0,0],[2,3],[1]]","4","[[0,0,0],[2,3],[1]]","12","0","","","","","","4","","","","",""
"","","","","","poldrack-single-stim","314","1423076","0.0-3.0-47.0","62bd685ac3edc9ad0d77812b","B2","batch2","tol_feedback","-1","","","","","true","","","","","1000","1000","500","","","","","","-1","none","true","8207","9774","","","","","",""
"","","","","","html-button-response","315","1427363","0.0-3.0-48.0","62bd685ac3edc9ad0d77812b","B2","batch2","attention_check","4285.799999982119","<p class = block-text>How many balls are in your board<br></p>","1","","","true","","","","","","","","","","","","","","","","","","","","","","",""
"","","","","","html-button-response","316","1428619","0.0-3.0-49.0","62bd685ac3edc9ad0d77812b","B2","batch2","tol_trial_num","1255","<div class = centerbox><p class = center-block-text>problem <strong>14</strong> out of 25 problems</p></div>","0","","","","","","","","","","","","","","","","","","","","","","","","","",""
"","","","","","single-stim-button","317","1433308","0.0-3.0-50.0-0.0","62bd685ac3edc9ad0d77812b","B2","batch2","tol_tohand","4688","","","","","","","","","tol_peg_1","4688","4688","0","[[2,0,0],[3,0],[0]]","1","[[1,2,0],[3,0],[0]]","13","0","","","","","","4","","","","",""
"","","","","","single-stim-button","318","1433627","0.0-3.0-50.0-1.0","62bd685ac3edc9ad0d77812b","B2","batch2","tol_toboard","319","","","","","","","","","tol_peg_2","319","319","0","[[2,0,0],[3,1],[0]]","1","[[1,2,0],[3,0],[0]]","13","0","","","","","","4","","","","",""
"","","","","","single-stim-button","319","1433955","0.0-3.0-50.1-0.1","62bd685ac3edc9ad0d77812b","B2","batch2","tol_tohand","328","","","","","","","","","tol_peg_1","328","328","0","[[0,0,0],[3,1],[0]]","2","[[1,2,0],[3,0],[0]]","13","0","","","","","","4","","","","",""
"","","","","","single-stim-button","320","1434315","0.0-3.0-50.1-1.1","62bd685ac3edc9ad0d77812b","B2","batch2","tol_toboard","360","","","","","","","","","tol_peg_3","360","360","0","[[0,0,0],[3,1],[2]]","2","[[1,2,0],[3,0],[0]]","13","0","","","","","","4","","","","",""
"","","","","","single-stim-button","321","1434651","0.0-3.0-50.2-0.2","62bd685ac3edc9ad0d77812b","B2","batch2","tol_tohand","336","","","","","","","","","tol_peg_2","336","336","0","[[0,0,0],[3,0],[2]]","3","[[1,2,0],[3,0],[0]]","13","0","","","","","","4","","","","",""
"","","","","","single-stim-button","322","1435035","0.0-3.0-50.2-1.2","62bd685ac3edc9ad0d77812b","B2","batch2","tol_toboard","384","","","","","","","","","tol_peg_1","384","384","0","[[1,0,0],[3,0],[2]]","3","[[1,2,0],[3,0],[0]]","13","0","","","","","","4","","","","",""
"","","","","","single-stim-button","323","1435715","0.0-3.0-50.3-0.3","62bd685ac3edc9ad0d77812b","B2","batch2","tol_tohand","680","","","","","","","","","tol_peg_3","680","680","0","[[1,0,0],[3,0],[0]]","4","[[1,2,0],[3,0],[0]]","13","0","","","","","","4","","","","",""
"","","","","","single-stim-button","324","1436683","0.0-3.0-50.3-1.3","62bd685ac3edc9ad0d77812b","B2","batch2","tol_toboard","968","","","","","","","","","tol_peg_1","968","968","0","[[1,2,0],[3,0],[0]]","4","[[1,2,0],[3,0],[0]]","13","0","","","","","","4","","","","",""
"","","","","","poldrack-single-stim","325","1437684","0.0-3.0-51.0","62bd685ac3edc9ad0d77812b","B2","batch2","tol_feedback","-1","","","","","true","","","","","1000","1000","500","","","","","","-1","none","true","4688","6032","","","","","",""
"","","","","","html-button-response","326","1438155","0.0-3.0-52.0","62bd685ac3edc9ad0d77812b","B2","batch2","tol_trial_num","469.80000001192093","<div class = centerbox><p class = center-block-text>problem <strong>15</strong> out of 25 problems</p></div>","0","","","","","","","","","","","","","","","","","","","","","","","","","",""
"","","","","","single-stim-button","327","1440932","0.0-3.0-53.0-0.0","62bd685ac3edc9ad0d77812b","B2","batch2","tol_tohand","2776","","","","","","","","","tol_peg_1","2776","2776","0","[[1,0,0],[3,0],[0]]","1","[[2,0,0],[3,0],[1]]","14","0","","","","","","3","","","","",""
"","","","","","single-stim-button","328","1441299","0.0-3.0-53.0-1.0","62bd685ac3edc9ad0d77812b","B2","batch2","tol_toboard","367","","","","","","","","","tol_peg_2","367","367","0","[[1,0,0],[3,2],[0]]","1","[[2,0,0],[3,0],[1]]","14","0","","","","","","3","","","","",""
"","","","","","single-stim-button","329","1441707","0.0-3.0-53.1-0.1","62bd685ac3edc9ad0d77812b","B2","batch2","tol_tohand","408","","","","","","","","","tol_peg_1","408","408","0","[[0,0,0],[3,2],[0]]","2","[[2,0,0],[3,0],[1]]","14","0","","","","","","3","","","","",""
"","","","","","single-stim-button","330","1442692","0.0-3.0-53.1-1.1","62bd685ac3edc9ad0d77812b","B2","batch2","tol_toboard","984","","","","","","","","","tol_peg_3","984","984","0","[[0,0,0],[3,2],[1]]","2","[[2,0,0],[3,0],[1]]","14","0","","","","","","3","","","","",""
"","","","","","single-stim-button","331","1443091","0.0-3.0-53.2-0.2","62bd685ac3edc9ad0d77812b","B2","batch2","tol_tohand","399","","","","","","","","","tol_peg_2","399","399","0","[[0,0,0],[3,0],[1]]","3","[[2,0,0],[3,0],[1]]","14","0","","","","","","3","","","","",""
"","","","","","single-stim-button","332","1443467","0.0-3.0-53.2-1.2","62bd685ac3edc9ad0d77812b","B2","batch2","tol_toboard","376","","","","","","","","","tol_peg_1","376","376","0","[[2,0,0],[3,0],[1]]","3","[[2,0,0],[3,0],[1]]","14","0","","","","","","3","","","","",""
"","","","","","poldrack-single-stim","333","1444484","0.0-3.0-54.0","62bd685ac3edc9ad0d77812b","B2","batch2","tol_feedback","-1","","","","","true","","","","","1000","1000","500","","","","","","-1","none","true","2776","3583","","","","","",""
"","","","","","html-button-response","334","1445091","0.0-3.0-55.0","62bd685ac3edc9ad0d77812b","B2","batch2","tol_trial_num","606.3000000119209","<div class = centerbox><p class = center-block-text>problem <strong>16</strong> out of 25 problems</p></div>","0","","","","","","","","","","","","","","","","","","","","","","","","","",""
"","","","","","single-stim-button","335","1453347","0.0-3.0-56.0-0.0","62bd685ac3edc9ad0d77812b","B2","batch2","tol_tohand","8256","","","","","","","","","tol_peg_3","8256","8256","0","[[0,0,0],[2,3],[0]]","1","[[2,3,0],[1,0],[0]]","15","0","","","","","","7","","","","",""
"","","","","","single-stim-button","336","1455395","0.0-3.0-56.0-1.0","62bd685ac3edc9ad0d77812b","B2","batch2","tol_toboard","2047","","","","","","","","","tol_peg_1","2047","2047","0","[[1,0,0],[2,3],[0]]","1","[[2,3,0],[1,0],[0]]","15","0","","","","","","7","","","","",""
"","","","","","single-stim-button","337","1455979","0.0-3.0-56.1-0.1","62bd685ac3edc9ad0d77812b","B2","batch2","tol_tohand","584","","","","","","","","","tol_peg_2","584","584","0","[[1,0,0],[2,0],[0]]","2","[[2,3,0],[1,0],[0]]","15","0","","","","","","7","","","","",""
"","","","","","single-stim-button","338","1459083","0.0-3.0-56.1-1.1","62bd685ac3edc9ad0d77812b","B2","batch2","tol_toboard","3104","","","","","","","","","tol_peg_3","3104","3104","0","[[1,0,0],[2,0],[3]]","2","[[2,3,0],[1,0],[0]]","15","0","","","","","","7","","","","",""
"","","","","","single-stim-button","339","1467083","0.0-3.0-56.2-0.2","62bd685ac3edc9ad0d77812b","B2","batch2","tol_tohand","8000","","","","","","","","","tol_peg_1","8000","8000","0","[[0,0,0],[2,0],[3]]","3","[[2,3,0],[1,0],[0]]","15","0","","","","","","7","","","","",""
"","","","","","single-stim-button","340","1471331","0.0-3.0-56.2-1.2","62bd685ac3edc9ad0d77812b","B2","batch2","tol_toboard","4248","","","","","","","","","tol_peg_2","4248","4248","0","[[0,0,0],[2,1],[3]]","3","[[2,3,0],[1,0],[0]]","15","0","","","","","","7","","","","",""
"","","","","","single-stim-button","341","1472059","0.0-3.0-56.3-0.3","62bd685ac3edc9ad0d77812b","B2","batch2","tol_tohand","728","","","","","","","","","tol_peg_3","728","728","0","[[0,0,0],[2,1],[0]]","4","[[2,3,0],[1,0],[0]]","15","0","","","","","","7","","","","",""
"","","","","","single-stim-button","342","1472499","0.0-3.0-56.3-1.3","62bd685ac3edc9ad0d77812b","B2","batch2","tol_toboard","440","","","","","","","","","tol_peg_1","440","440","0","[[3,0,0],[2,1],[0]]","4","[[2,3,0],[1,0],[0]]","15","0","","","","","","7","","","","",""
"","","","","","single-stim-button","343","1477355","0.0-3.0-56.4-0.4","62bd685ac3edc9ad0d77812b","B2","batch2","tol_tohand","4856","","","","","","","","","tol_peg_2","4856","4856","0","[[3,0,0],[2,0],[0]]","5","[[2,3,0],[1,0],[0]]","15","0","","","","","","7","","","","",""
"","","","","","single-stim-button","344","1477907","0.0-3.0-56.4-1.4","62bd685ac3edc9ad0d77812b","B2","batch2","tol_toboard","551","","","","","","","","","tol_peg_3","551","551","0","[[3,0,0],[2,0],[1]]","5","[[2,3,0],[1,0],[0]]","15","0","","","","","","7","","","","",""
"","","","","","single-stim-button","345","1478291","0.0-3.0-56.5-0.5","62bd685ac3edc9ad0d77812b","B2","batch2","tol_tohand","384","","","","","","","","","tol_peg_2","384","384","0","[[3,0,0],[0,0],[1]]","6","[[2,3,0],[1,0],[0]]","15","0","","","","","","7","","","","",""
"","","","","","single-stim-button","346","1478659","0.0-3.0-56.5-1.5","62bd685ac3edc9ad0d77812b","B2","batch2","tol_toboard","368","","","","","","","","","tol_peg_1","368","368","0","[[3,2,0],[0,0],[1]]","6","[[2,3,0],[1,0],[0]]","15","0","","","","","","7","","","","",""
"","","","","","single-stim-button","347","1479523","0.0-3.0-56.6-0.6","62bd685ac3edc9ad0d77812b","B2","batch2","tol_tohand","864","","","","","","","","","tol_peg_3","864","864","0","[[3,2,0],[0,0],[0]]","7","[[2,3,0],[1,0],[0]]","15","0","","","","","","7","","","","",""
"","","","","","single-stim-button","348","1479859","0.0-3.0-56.6-1.6","62bd685ac3edc9ad0d77812b","B2","batch2","tol_toboard","336","","","","","","","","","tol_peg_2","336","336","0","[[3,2,0],[1,0],[0]]","7","[[2,3,0],[1,0],[0]]","15","0","","","","","","7","","","","",""
"","","","","","single-stim-button","349","1482003","0.0-3.0-56.7-0.7","62bd685ac3edc9ad0d77812b","B2","batch2","tol_tohand","2144","","","","","","","","","tol_peg_1","2144","2144","0","[[3,0,0],[1,0],[0]]","8","[[2,3,0],[1,0],[0]]","15","0","","","","","","7","","","","",""
"","","","","","single-stim-button","350","1483259","0.0-3.0-56.7-1.7","62bd685ac3edc9ad0d77812b","B2","batch2","tol_toboard","1255","","","","","","","","","tol_peg_3","1255","1255","0","[[3,0,0],[1,0],[2]]","8","[[2,3,0],[1,0],[0]]","15","0","","","","","","7","","","","",""
"","","","","","single-stim-button","351","1483796","0.0-3.0-56.8-0.8","62bd685ac3edc9ad0d77812b","B2","batch2","tol_tohand","536","","","","","","","","","tol_peg_1","536","536","0","[[0,0,0],[1,0],[2]]","9","[[2,3,0],[1,0],[0]]","15","0","","","","","","7","","","","",""
"","","","","","single-stim-button","352","1484083","0.0-3.0-56.8-1.8","62bd685ac3edc9ad0d77812b","B2","batch2","tol_toboard","286","","","","","","","","","tol_peg_2","286","286","0","[[0,0,0],[1,3],[2]]","9","[[2,3,0],[1,0],[0]]","15","0","","","","","","7","","","","",""
"","","","","","single-stim-button","353","1484507","0.0-3.0-56.9-0.9","62bd685ac3edc9ad0d77812b","B2","batch2","tol_tohand","423","","","","","","","","","tol_peg_3","423","423","0","[[0,0,0],[1,3],[0]]","10","[[2,3,0],[1,0],[0]]","15","0","","","","","","7","","","","",""
"","","","","","single-stim-button","354","1484923","0.0-3.0-56.9-1.9","62bd685ac3edc9ad0d77812b","B2","batch2","tol_toboard","416","","","","","","","","","tol_peg_1","416","416","0","[[2,0,0],[1,3],[0]]","10","[[2,3,0],[1,0],[0]]","15","0","","","","","","7","","","","",""
