"success","timeout","failed_images","failed_audio","failed_video","trial_type","trial_index","time_elapsed","internal_node_id","subject_id","study_id","session_id","view_history","rt","task","stimulus","response","correct","mouse_click","stim_duration","block_duration","timing_post_trial","current_position","tol_num_moves_made","tol_target","tol_problem_id","tol_rt","key_press","possible_responses","tol_correct","preplanning","tol_rt_per_trial","tol_min_moves","answer","item","fiar_detect_rt","fiar_detect_correct","total_correct_fiar_detect","post_trial_gap","choices","spm_correct","spm_rt"
"true","false","[]","[]","[]","preload","0","2813","0.0-0.0","62c44d672834a5c5ce7362f1","D2","batch4","","","","","","","","","","","","","","","","","","","","","","","","","","","","","",""
"true","","","","","fullscreen","1","10616","0.0-1.0-0.0","62c44d672834a5c5ce7362f1","D2","batch4","","","","","","","","","","","","","","","","","","","","","","","","","","","","","",""
"true","","","","","fullscreen","2","13975","0.0-2.0-0.0","62c44d672834a5c5ce7362f1","D2","batch4","","","","","","","","","","","","","","","","","","","","","","","","","","","","","",""
"","","","","","instructions","3","77074","0.0-2.0-1.0-0.0-0.0","62c44d672834a5c5ce7362f1","D2","batch4","[{""page_index"":0,""viewing_time"":10803.299999952316},{""page_index"":1,""viewing_time"":7828},{""page_index"":2,""viewing_time"":3834},{""page_index"":3,""viewing_time"":18143.899999976158},{""page_index"":4,""viewing_time"":8426},{""page_index"":5,""viewing_time"":7734},{""page_index"":6,""viewing_time"":6328.100000023842}]","63097.699999928474","tol-instructions","","","","","","","","","","","","","","","","","","","","","","","","","","",""
"","","","","","html-button-response","4","78074","0.0-2.0-1.0-1.0-0.0","62c44d672834a5c5ce7362f1","D2","batch4","","998.1999999284744","tol_enter_quiz","<p class=block-text> Let's answer a few questions <br>","0","","","","","","","","","","","","","","","","","","","","","","","","",""
"","","","","","html-button-response","5","83804","0.0-2.0-1.0-1.0-1.0","62c44d672834a5c5ce7362f1","D2","batch4","","5728.399999976158","tol_quiz","<p class = block-text>True or False: You can only move the ball on top of a peg. <br></p>","0","true","","","","","","","","","","","","","","","","","","","","","","","",""
"","","","","","html-button-response","6","84774","0.0-2.0-1.0-1.0-2.0","62c44d672834a5c5ce7362f1","D2","batch4","","968.8000000715256","tol_quiz_feedback","<p class = block-text>Correct! You can only move the ball on top of a peg.</p>","0","","","","","","","","","","","","","","","","","","","","","","","","",""
"","","","","","html-button-response","7","89998","0.0-2.0-1.0-1.0-3.0","62c44d672834a5c5ce7362f1","D2","batch4","","5222.5","tol_quiz","<p class = block-text>True or False: You should try to match your board with the target board with fewest moves possible. <br></p>","0","true","","","","","","","","","","","","","","","","","","","","","","","",""
"","","","","","html-button-response","8","90766","0.0-2.0-1.0-1.0-4.0","62c44d672834a5c5ce7362f1","D2","batch4","","767.1999999284744","tol_quiz_feedback","<p class = block-text>Correct! </p>","0","","","","","","","","","","","","","","","","","","","","","","","","",""
"","","","","","html-button-response","9","92028","0.0-2.0-2.0","62c44d672834a5c5ce7362f1","D2","batch4","","1260.6000000238419","","<p class=block-text> Now that you've understood the game, let's practice a few easier examples before we start!<br> <br>","0","","","","","","","","","","","","","","","","","","","","","","","","",""
"","","","","","single-stim-button","10","95042","0.0-2.0-3.0-0.0","62c44d672834a5c5ce7362f1","D2","batch4","","3012","tol_practice","","","","tol_peg_2","3012","3012","0","[[1,2,0],[0,0],[0]]","1","[[1,2,0],[0,0],[3]]","practice","3012","","","","","","","","","","","","","","",""
"","","","","","single-stim-button","11","98604","0.0-2.0-3.0-1.0","62c44d672834a5c5ce7362f1","D2","batch4","","3561","tol_practice","","","","tol_peg_3","3561","3561","0","[[1,2,0],[0,0],[3]]","1","[[1,2,0],[0,0],[3]]","practice","3561","","","","","","","","","","","","","","",""
"","","","","","poldrack-single-stim","12","99606","0.0-2.0-4.0","62c44d672834a5c5ce7362f1","D2","batch4","","-1","tol_feedback","","","true","","1000","1000","500","","","","","","-1","none","true","","0","","","","","","","","","",""
"","","","","","single-stim-button","13","113016","0.0-2.0-5.0-0.0","62c44d672834a5c5ce7362f1","D2","batch4","","13409","tol_practice","","","","tol_peg_1","13409","13409","0","[[1,0,0],[3,0],[0]]","2","[[0,0,0],[3,1],[2]]","practice","13409","","","","","","","","","","","","","","",""
"","","","","","single-stim-button","14","114188","0.0-2.0-5.0-1.0","62c44d672834a5c5ce7362f1","D2","batch4","","1171","tol_practice","","","","tol_peg_3","1171","1171","0","[[1,0,0],[3,0],[2]]","2","[[0,0,0],[3,1],[2]]","practice","1171","","","","","","","","","","","","","","",""
"","","","","","single-stim-button","15","117342","0.0-2.0-5.1-0.1","62c44d672834a5c5ce7362f1","D2","batch4","","3153","tol_practice","","","","tol_peg_1","3153","3153","0","[[0,0,0],[3,0],[2]]","3","[[0,0,0],[3,1],[2]]","practice","3153","","","","","","","","","","","","","","",""
"","","","","","single-stim-button","16","118414","0.0-2.0-5.1-1.1","62c44d672834a5c5ce7362f1","D2","batch4","","1072","tol_practice","","","","tol_peg_2","1072","1072","0","[[0,0,0],[3,1],[2]]","3","[[0,0,0],[3,1],[2]]","practice","1072","","","","","","","","","","","","","","",""
"","","","","","poldrack-single-stim","17","119417","0.0-2.0-6.0","62c44d672834a5c5ce7362f1","D2","batch4","","-1","tol_feedback","","","true","","1000","1000","500","","","","","","-1","none","true","","0","","","","","","","","","",""
"","","","","","single-stim-button","18","124494","0.0-2.0-7.0-0.0","62c44d672834a5c5ce7362f1","D2","batch4","","5077","tol_practice","","","","tol_peg_2","5077","5077","0","[[1,2,0],[0,0],[0]]","4","[[1,0,0],[2,0],[3]]","practice","5077","","","","","","","","","","","","","","",""
"","","","","","single-stim-button","19","127087","0.0-2.0-7.0-1.0","62c44d672834a5c5ce7362f1","D2","batch4","","2591","tol_practice","","","","tol_peg_3","2591","2591","0","[[1,2,0],[0,0],[3]]","4","[[1,0,0],[2,0],[3]]","practice","2591","","","","","","","","","","","","","","",""
"","","","","","single-stim-button","20","128143","0.0-2.0-7.1-0.1","62c44d672834a5c5ce7362f1","D2","batch4","","1055","tol_practice","","","","tol_peg_1","1055","1055","0","[[1,0,0],[0,0],[3]]","5","[[1,0,0],[2,0],[3]]","practice","1055","","","","","","","","","","","","","","",""
"","","","","","single-stim-button","21","128884","0.0-2.0-7.1-1.1","62c44d672834a5c5ce7362f1","D2","batch4","","741","tol_practice","","","","tol_peg_2","741","741","0","[[1,0,0],[2,0],[3]]","5","[[1,0,0],[2,0],[3]]","practice","741","","","","","","","","","","","","","","",""
"","","","","","poldrack-single-stim","22","129885","0.0-2.0-8.0","62c44d672834a5c5ce7362f1","D2","batch4","","-1","tol_feedback","","","true","","1000","1000","500","","","","","","-1","none","true","","0","","","","","","","","","",""
"","","","","","html-button-response","23","131917","0.0-2.0-9.0","62c44d672834a5c5ce7362f1","D2","batch4","","2030.6000000238419","tol_instruction","<div class = centerbox><p class = center-block-text>Great job! You are done with practice trials<br>You are about to start official trials.<br> <br> Problem <strong>1</strong> out of 25 problems</p></div>","0","","","","","","","","","","","","","","","","","","","","","","","","",""
"","","","","","single-stim-button","24","139518","0.0-2.0-10.0-0.0","62c44d672834a5c5ce7362f1","D2","batch4","","6590","tol_tohand","","","","tol_peg_2","6590","6590","0","[[1,2,0],[0,0],[0]]","1","[[1,3,0],[2,0],[0]]","0","0","","","","","","3","","","","","","","","",""
"","","","","","single-stim-button","25","142934","0.0-2.0-10.0-1.0","62c44d672834a5c5ce7362f1","D2","batch4","","3416","tol_toboard","","","","tol_peg_3","3416","3416","0","[[1,2,0],[0,0],[3]]","1","[[1,3,0],[2,0],[0]]","0","0","","","","","","3","","","","","","","","",""
"","","","","","single-stim-button","26","144395","0.0-2.0-10.1-0.1","62c44d672834a5c5ce7362f1","D2","batch4","","1459","tol_tohand","","","","tol_peg_1","1459","1459","0","[[1,0,0],[0,0],[3]]","2","[[1,3,0],[2,0],[0]]","0","0","","","","","","3","","","","","","","","",""
"","","","","","single-stim-button","27","146796","0.0-2.0-10.1-1.1","62c44d672834a5c5ce7362f1","D2","batch4","","2401","tol_toboard","","","","tol_peg_2","2401","2401","0","[[1,0,0],[2,0],[3]]","2","[[1,3,0],[2,0],[0]]","0","0","","","","","","3","","","","","","","","",""
"","","","","","single-stim-button","28","147750","0.0-2.0-10.2-0.2","62c44d672834a5c5ce7362f1","D2","batch4","","953","tol_tohand","","","","tol_peg_3","953","953","0","[[1,0,0],[2,0],[0]]","3","[[1,3,0],[2,0],[0]]","0","0","","","","","","3","","","","","","","","",""
"","","","","","single-stim-button","29","148762","0.0-2.0-10.2-1.2","62c44d672834a5c5ce7362f1","D2","batch4","","1011","tol_toboard","","","","tol_peg_1","1011","1011","0","[[1,3,0],[2,0],[0]]","3","[[1,3,0],[2,0],[0]]","0","0","","","","","","3","","","","","","","","",""
"","","","","","poldrack-single-stim","30","149764","0.0-2.0-11.0","62c44d672834a5c5ce7362f1","D2","batch4","","-1","tol_feedback","","","true","","1000","1000","500","","","","","","-1","none","true","6590","9002","","","","","","","","","",""
"","","","","","html-button-response","31","151102","0.0-2.0-12.0","62c44d672834a5c5ce7362f1","D2","batch4","","1336.7000000476837","tol_trial_num","<div class = centerbox><p class = center-block-text>problem <strong>2</strong> out of 25 problems</p></div>","0","","","","","","","","","","","","","","","","","","","","","","","","",""
"","","","","","single-stim-button","32","160814","0.0-2.0-13.0-0.0","62c44d672834a5c5ce7362f1","D2","batch4","","9711","tol_tohand","","","","tol_peg_1","9711","9711","0","[[1,0,0],[3,0],[0]]","1","[[2,1,3],[0,0],[0]]","1","0","","","","","","5","","","","","","","","",""
"","","","","","single-stim-button","33","163994","0.0-2.0-13.0-1.0","62c44d672834a5c5ce7362f1","D2","batch4","","3179","tol_toboard","","","","tol_peg_1","3179","3179","0","[[1,2,0],[3,0],[0]]","1","[[2,1,3],[0,0],[0]]","1","0","","","","","","5","","","","","","","","",""
"","","","","","single-stim-button","34","166563","0.0-2.0-13.1-0.1","62c44d672834a5c5ce7362f1","D2","batch4","","2568","tol_tohand","","","","tol_peg_1","2568","2568","0","[[1,0,0],[3,0],[0]]","2","[[2,1,3],[0,0],[0]]","1","0","","","","","","5","","","","","","","","",""
"","","","","","single-stim-button","35","169028","0.0-2.0-13.1-1.1","62c44d672834a5c5ce7362f1","D2","batch4","","2464","tol_toboard","","","","tol_peg_3","2464","2464","0","[[1,0,0],[3,0],[2]]","2","[[2,1,3],[0,0],[0]]","1","0","","","","","","5","","","","","","","","",""
"","","","","","single-stim-button","36","171207","0.0-2.0-13.2-0.2","62c44d672834a5c5ce7362f1","D2","batch4","","2177","tol_tohand","","","","tol_peg_1","2177","2177","0","[[0,0,0],[3,0],[2]]","3","[[2,1,3],[0,0],[0]]","1","0","","","","","","5","","","","","","","","",""
"","","","","","single-stim-button","37","175418","0.0-2.0-13.2-1.2","62c44d672834a5c5ce7362f1","D2","batch4","","4211","tol_toboard","","","","tol_peg_2","4211","4211","0","[[0,0,0],[3,1],[2]]","3","[[2,1,3],[0,0],[0]]","1","0","","","","","","5","","","","","","","","",""
"","","","","","single-stim-button","38","177416","0.0-2.0-13.3-0.3","62c44d672834a5c5ce7362f1","D2","batch4","","1997","tol_tohand","","","","tol_peg_3","1997","1997","0","[[0,0,0],[3,1],[0]]","4","[[2,1,3],[0,0],[0]]","1","0","","","","","","5","","","","","","","","",""
"","","","","","single-stim-button","39","178426","0.0-2.0-13.3-1.3","62c44d672834a5c5ce7362f1","D2","batch4","","1009","tol_toboard","","","","tol_peg_1","1009","1009","0","[[2,0,0],[3,1],[0]]","4","[[2,1,3],[0,0],[0]]","1","0","","","","","","5","","","","","","","","",""
"","","","","","single-stim-button","40","180592","0.0-2.0-13.4-0.4","62c44d672834a5c5ce7362f1","D2","batch4","","2165","tol_tohand","","","","tol_peg_2","2165","2165","0","[[2,0,0],[3,0],[0]]","5","[[2,1,3],[0,0],[0]]","1","0","","","","","","5","","","","","","","","",""
"","","","","","single-stim-button","41","181308","0.0-2.0-13.4-1.4","62c44d672834a5c5ce7362f1","D2","batch4","","715","tol_toboard","","","","tol_peg_1","715","715","0","[[2,1,0],[3,0],[0]]","5","[[2,1,3],[0,0],[0]]","1","0","","","","","","5","","","","","","","","",""
"","","","","","single-stim-button","42","181903","0.0-2.0-13.5-0.5","62c44d672834a5c5ce7362f1","D2","batch4","","593","tol_tohand","","","","tol_peg_2","593","593","0","[[2,1,0],[0,0],[0]]","6","[[2,1,3],[0,0],[0]]","1","0","","","","","","5","","","","","","","","",""
"","","","","","single-stim-button","43","182558","0.0-2.0-13.5-1.5","62c44d672834a5c5ce7362f1","D2","batch4","","655","tol_toboard","","","","tol_peg_1","655","655","0","[[2,1,3],[0,0],[0]]","6","[[2,1,3],[0,0],[0]]","1","0","","","","","","5","","","","","","","","",""
"","","","","","poldrack-single-stim","44","183560","0.0-2.0-14.0","62c44d672834a5c5ce7362f1","D2","batch4","","-1","tol_feedback","","","true","","1000","1000","500","","","","","","-1","none","true","9711","19211","","","","","","","","","",""
"","","","","","html-button-response","45","185863","0.0-2.0-15.0","62c44d672834a5c5ce7362f1","D2","batch4","","2301.9000000953674","tol_trial_num","<div class = centerbox><p class = center-block-text>problem <strong>3</strong> out of 25 problems</p></div>","0","","","","","","","","","","","","","","","","","","","","","","","","",""
"","","","","","single-stim-button","46","190215","0.0-2.0-16.0-0.0","62c44d672834a5c5ce7362f1","D2","batch4","","4350","tol_tohand","","","","tol_peg_1","4350","4350","0","[[2,0,0],[0,0],[1]]","1","[[1,2,0],[3,0],[0]]","2","0","","","","","","4","","","","","","","","",""
"","","","","","single-stim-button","47","191555","0.0-2.0-16.0-1.0","62c44d672834a5c5ce7362f1","D2","batch4","","1338","tol_toboard","","","","tol_peg_2","1338","1338","0","[[2,0,0],[3,0],[1]]","1","[[1,2,0],[3,0],[0]]","2","0","","","","","","4","","","","","","","","",""
"","","","","","single-stim-button","48","195633","0.0-2.0-16.1-0.1","62c44d672834a5c5ce7362f1","D2","batch4","","4077","tol_tohand","","","","tol_peg_1","4077","4077","0","[[0,0,0],[3,0],[1]]","2","[[1,2,0],[3,0],[0]]","2","0","","","","","","4","","","","","","","","",""
"","","","","","single-stim-button","49","199423","0.0-2.0-16.1-1.1","62c44d672834a5c5ce7362f1","D2","batch4","","3788","tol_toboard","","","","tol_peg_2","3788","3788","0","[[0,0,0],[3,2],[1]]","2","[[1,2,0],[3,0],[0]]","2","0","","","","","","4","","","","","","","","",""
"","","","","","single-stim-button","50","201065","0.0-2.0-16.2-0.2","62c44d672834a5c5ce7362f1","D2","batch4","","1641","tol_tohand","","","","tol_peg_3","1641","1641","0","[[0,0,0],[3,2],[0]]","3","[[1,2,0],[3,0],[0]]","2","0","","","","","","4","","","","","","","","",""
"","","","","","single-stim-button","51","201975","0.0-2.0-16.2-1.2","62c44d672834a5c5ce7362f1","D2","batch4","","910","tol_toboard","","","","tol_peg_1","910","910","0","[[1,0,0],[3,2],[0]]","3","[[1,2,0],[3,0],[0]]","2","0","","","","","","4","","","","","","","","",""
"","","","","","single-stim-button","52","204466","0.0-2.0-16.3-0.3","62c44d672834a5c5ce7362f1","D2","batch4","","2489","tol_tohand","","","","tol_peg_2","2489","2489","0","[[1,0,0],[3,0],[0]]","4","[[1,2,0],[3,0],[0]]","2","0","","","","","","4","","","","","","","","",""
"","","","","","single-stim-button","53","205413","0.0-2.0-16.3-1.3","62c44d672834a5c5ce7362f1","D2","batch4","","946","tol_toboard","","","","tol_peg_1","946","946","0","[[1,2,0],[3,0],[0]]","4","[[1,2,0],[3,0],[0]]","2","0","","","","","","4","","","","","","","","",""
"","","","","","poldrack-single-stim","54","206416","0.0-2.0-17.0","62c44d672834a5c5ce7362f1","D2","batch4","","-1","tol_feedback","","","true","","1000","1000","500","","","","","","-1","none","true","4350","12557","","","","","","","","","",""
"","","","","","html-button-response","55","207585","0.0-2.0-18.0","62c44d672834a5c5ce7362f1","D2","batch4","","1167.7000000476837","tol_trial_num","<div class = centerbox><p class = center-block-text>problem <strong>4</strong> out of 25 problems</p></div>","0","","","","","","","","","","","","","","","","","","","","","","","","",""
"","","","","","single-stim-button","56","213598","0.0-2.0-19.0-0.0","62c44d672834a5c5ce7362f1","D2","batch4","","6012","tol_tohand","","","","tol_peg_2","6012","6012","0","[[3,0,0],[2,0],[0]]","1","[[3,0,0],[1,0],[2]]","3","0","","","","","","3","","","","","","","","",""
"","","","","","single-stim-button","57","214924","0.0-2.0-19.0-1.0","62c44d672834a5c5ce7362f1","D2","batch4","","1325","tol_toboard","","","","tol_peg_1","1325","1325","0","[[3,1,0],[2,0],[0]]","1","[[3,0,0],[1,0],[2]]","3","0","","","","","","3","","","","","","","","",""
"","","","","","single-stim-button","58","215762","0.0-2.0-19.1-0.1","62c44d672834a5c5ce7362f1","D2","batch4","","837","tol_tohand","","","","tol_peg_2","837","837","0","[[3,1,0],[0,0],[0]]","2","[[3,0,0],[1,0],[2]]","3","0","","","","","","3","","","","","","","","",""
"","","","","","single-stim-button","59","216754","0.0-2.0-19.1-1.1","62c44d672834a5c5ce7362f1","D2","batch4","","991","tol_toboard","","","","tol_peg_3","991","991","0","[[3,1,0],[0,0],[2]]","2","[[3,0,0],[1,0],[2]]","3","0","","","","","","3","","","","","","","","",""
"","","","","","single-stim-button","60","217628","0.0-2.0-19.2-0.2","62c44d672834a5c5ce7362f1","D2","batch4","","873","tol_tohand","","","","tol_peg_1","873","873","0","[[3,0,0],[0,0],[2]]","3","[[3,0,0],[1,0],[2]]","3","0","","","","","","3","","","","","","","","",""
"","","","","","single-stim-button","61","218343","0.0-2.0-19.2-1.2","62c44d672834a5c5ce7362f1","D2","batch4","","713","tol_toboard","","","","tol_peg_2","713","713","0","[[3,0,0],[1,0],[2]]","3","[[3,0,0],[1,0],[2]]","3","0","","","","","","3","","","","","","","","",""
"","","","","","poldrack-single-stim","62","219345","0.0-2.0-20.0","62c44d672834a5c5ce7362f1","D2","batch4","","-1","tol_feedback","","","true","","1000","1000","500","","","","","","-1","none","true","6012","7722","","","","","","","","","",""
"","","","","","html-button-response","63","220413","0.0-2.0-21.0","62c44d672834a5c5ce7362f1","D2","batch4","","1067","tol_trial_num","<div class = centerbox><p class = center-block-text>problem <strong>5</strong> out of 25 problems</p></div>","0","","","","","","","","","","","","","","","","","","","","","","","","",""
"","","","","","single-stim-button","64","232954","0.0-2.0-22.0-0.0","62c44d672834a5c5ce7362f1","D2","batch4","","12541","tol_tohand","","","","tol_peg_3","12541","12541","0","[[1,0,0],[2,0],[0]]","1","[[0,0,0],[1,2],[3]]","4","0","","","","","","7","","","","","","","","",""
"","","","","","single-stim-button","65","236221","0.0-2.0-22.0-1.0","62c44d672834a5c5ce7362f1","D2","batch4","","3265","tol_toboard","","","","tol_peg_2","3265","3265","0","[[1,0,0],[2,3],[0]]","1","[[0,0,0],[1,2],[3]]","4","0","","","","","","7","","","","","","","","",""
"","","","","","single-stim-button","66","238088","0.0-2.0-22.1-0.1","62c44d672834a5c5ce7362f1","D2","batch4","","1867","tol_tohand","","","","tol_peg_1","1867","1867","0","[[0,0,0],[2,3],[0]]","2","[[0,0,0],[1,2],[3]]","4","0","","","","","","7","","","","","","","","",""
"","","","","","single-stim-button","67","239182","0.0-2.0-22.1-1.1","62c44d672834a5c5ce7362f1","D2","batch4","","1093","tol_toboard","","","","tol_peg_3","1093","1093","0","[[0,0,0],[2,3],[1]]","2","[[0,0,0],[1,2],[3]]","4","0","","","","","","7","","","","","","","","",""
"","","","","","single-stim-button","68","251284","0.0-2.0-22.2-0.2","62c44d672834a5c5ce7362f1","D2","batch4","","12101","tol_tohand","","","","tol_peg_3","12101","12101","0","[[0,0,0],[2,3],[0]]","3","[[0,0,0],[1,2],[3]]","4","0","","","","","","7","","","","","","","","",""
"","","","","","single-stim-button","69","252471","0.0-2.0-22.2-1.2","62c44d672834a5c5ce7362f1","D2","batch4","","1185","tol_toboard","","","","tol_peg_1","1185","1185","0","[[1,0,0],[2,3],[0]]","3","[[0,0,0],[1,2],[3]]","4","0","","","","","","7","","","","","","","","",""
"","","","","","single-stim-button","70","253049","0.0-2.0-22.3-0.3","62c44d672834a5c5ce7362f1","D2","batch4","","578","tol_tohand","","","","tol_peg_2","578","578","0","[[1,0,0],[2,0],[0]]","4","[[0,0,0],[1,2],[3]]","4","0","","","","","","7","","","","","","","","",""
"","","","","","single-stim-button","71","254251","0.0-2.0-22.3-1.3","62c44d672834a5c5ce7362f1","D2","batch4","","1201","tol_toboard","","","","tol_peg_1","1201","1201","0","[[1,3,0],[2,0],[0]]","4","[[0,0,0],[1,2],[3]]","4","0","","","","","","7","","","","","","","","",""
"","","","","","single-stim-button","72","255697","0.0-2.0-22.4-0.4","62c44d672834a5c5ce7362f1","D2","batch4","","1444","tol_tohand","","","","tol_peg_2","1444","1444","0","[[1,3,0],[0,0],[0]]","5","[[0,0,0],[1,2],[3]]","4","0","","","","","","7","","","","","","","","",""
"","","","","","single-stim-button","73","261492","0.0-2.0-22.4-1.4","62c44d672834a5c5ce7362f1","D2","batch4","","5795","tol_toboard","","","","tol_peg_2","5795","5795","0","[[1,3,0],[2,0],[0]]","5","[[0,0,0],[1,2],[3]]","4","0","","","","","","7","","","","","","","","",""
"","","","","","single-stim-button","74","265549","0.0-2.0-22.5-0.5","62c44d672834a5c5ce7362f1","D2","batch4","","4056","tol_tohand","","","","tol_peg_1","4056","4056","0","[[1,0,0],[2,0],[0]]","6","[[0,0,0],[1,2],[3]]","4","0","","","","","","7","","","","","","","","",""
"","","","","","single-stim-button","75","267263","0.0-2.0-22.5-1.5","62c44d672834a5c5ce7362f1","D2","batch4","","1713","tol_toboard","","","","tol_peg_3","1713","1713","0","[[1,0,0],[2,0],[3]]","6","[[0,0,0],[1,2],[3]]","4","0","","","","","","7","","","","","","","","",""
"","","","","","single-stim-button","76","267788","0.0-2.0-22.6-0.6","62c44d672834a5c5ce7362f1","D2","batch4","","524","tol_tohand","","","","tol_peg_2","524","524","0","[[1,0,0],[0,0],[3]]","7","[[0,0,0],[1,2],[3]]","4","0","","","","","","7","","","","","","","","",""
"","","","","","single-stim-button","77","273111","0.0-2.0-22.6-1.6","62c44d672834a5c5ce7362f1","D2","batch4","","5321","tol_toboard","","","","tol_peg_2","5321","5321","0","[[1,0,0],[2,0],[3]]","7","[[0,0,0],[1,2],[3]]","4","0","","","","","","7","","","","","","","","",""
"","","","","","single-stim-button","78","283900","0.0-2.0-22.7-0.7","62c44d672834a5c5ce7362f1","D2","batch4","","10789","tol_tohand","","","","tol_peg_3","10789","10789","0","[[1,0,0],[2,0],[0]]","8","[[0,0,0],[1,2],[3]]","4","0","","","","","","7","","","","","","","","",""
"","","","","","single-stim-button","79","286009","0.0-2.0-22.7-1.7","62c44d672834a5c5ce7362f1","D2","batch4","","2108","tol_toboard","","","","tol_peg_2","2108","2108","0","[[1,0,0],[2,3],[0]]","8","[[0,0,0],[1,2],[3]]","4","0","","","","","","7","","","","","","","","",""
"","","","","","single-stim-button","80","286783","0.0-2.0-22.8-0.8","62c44d672834a5c5ce7362f1","D2","batch4","","772","tol_tohand","","","","tol_peg_1","772","772","0","[[0,0,0],[2,3],[0]]","9","[[0,0,0],[1,2],[3]]","4","0","","","","","","7","","","","","","","","",""
"","","","","","single-stim-button","81","287869","0.0-2.0-22.8-1.8","62c44d672834a5c5ce7362f1","D2","batch4","","1085","tol_toboard","","","","tol_peg_3","1085","1085","0","[[0,0,0],[2,3],[1]]","9","[[0,0,0],[1,2],[3]]","4","0","","","","","","7","","","","","","","","",""
"","","","","","single-stim-button","82","295694","0.0-2.0-22.9-0.9","62c44d672834a5c5ce7362f1","D2","batch4","","7824","tol_tohand","","","","tol_peg_2","7824","7824","0","[[0,0,0],[2,0],[1]]","10","[[0,0,0],[1,2],[3]]","4","0","","","","","","7","","","","","","","","",""
"","","","","","single-stim-button","83","304795","0.0-2.0-22.9-1.9","62c44d672834a5c5ce7362f1","D2","batch4","","9100","tol_toboard","","","","tol_peg_2","9100","9100","0","[[0,0,0],[2,3],[1]]","10","[[0,0,0],[1,2],[3]]","4","0","","","","","","7","","","","","","","","",""
"","","","","","single-stim-button","84","309316","0.0-2.0-22.10-0.10","62c44d672834a5c5ce7362f1","D2","batch4","","4519","tol_tohand","","","","tol_peg_2","4519","4519","0","[[0,0,0],[2,0],[1]]","11","[[0,0,0],[1,2],[3]]","4","0","","","","","","7","","","","","","","","",""
"","","","","","single-stim-button","85","310519","0.0-2.0-22.10-1.10","62c44d672834a5c5ce7362f1","D2","batch4","","1202","tol_toboard","","","","tol_peg_1","1202","1202","0","[[3,0,0],[2,0],[1]]","11","[[0,0,0],[1,2],[3]]","4","0","","","","","","7","","","","","","","","",""
"","","","","","single-stim-button","86","312984","0.0-2.0-22.11-0.11","62c44d672834a5c5ce7362f1","D2","batch4","","2464","tol_tohand","","","","tol_peg_2","2464","2464","0","[[3,0,0],[0,0],[1]]","12","[[0,0,0],[1,2],[3]]","4","0","","","","","","7","","","","","","","","",""
"","","","","","single-stim-button","87","314480","0.0-2.0-22.11-1.11","62c44d672834a5c5ce7362f1","D2","batch4","","1494","tol_toboard","","","","tol_peg_1","1494","1494","0","[[3,2,0],[0,0],[1]]","12","[[0,0,0],[1,2],[3]]","4","0","","","","","","7","","","","","","","","",""
"","","","","","single-stim-button","88","315274","0.0-2.0-22.12-0.12","62c44d672834a5c5ce7362f1","D2","batch4","","793","tol_tohand","","","","tol_peg_3","793","793","0","[[3,2,0],[0,0],[0]]","13","[[0,0,0],[1,2],[3]]","4","0","","","","","","7","","","","","","","","",""
"","","","","","single-stim-button","89","315976","0.0-2.0-22.12-1.12","62c44d672834a5c5ce7362f1","D2","batch4","","701","tol_toboard","","","","tol_peg_2","701","701","0","[[3,2,0],[1,0],[0]]","13","[[0,0,0],[1,2],[3]]","4","0","","","","","","7","","","","","","","","",""
"","","","","","single-stim-button","90","317496","0.0-2.0-22.13-0.13","62c44d672834a5c5ce7362f1","D2","batch4","","1519","tol_tohand","","","","tol_peg_1","1519","1519","0","[[3,0,0],[1,0],[0]]","14","[[0,0,0],[1,2],[3]]","4","0","","","","","","7","","","","","","","","",""
"","","","","","single-stim-button","91","318406","0.0-2.0-22.13-1.13","62c44d672834a5c5ce7362f1","D2","batch4","","909","tol_toboard","","","","tol_peg_2","909","909","0","[[3,0,0],[1,2],[0]]","14","[[0,0,0],[1,2],[3]]","4","0","","","","","","7","","","","","","","","",""
"","","","","","single-stim-button","92","319059","0.0-2.0-22.14-0.14","62c44d672834a5c5ce7362f1","D2","batch4","","653","tol_tohand","","","","tol_peg_1","653","653","0","[[0,0,0],[1,2],[0]]","15","[[0,0,0],[1,2],[3]]","4","0","","","","","","7","","","","","","","","",""
"","","","","","single-stim-button","93","320009","0.0-2.0-22.14-1.14","62c44d672834a5c5ce7362f1","D2","batch4","","949","tol_toboard","","","","tol_peg_3","949","949","0","[[0,0,0],[1,2],[3]]","15","[[0,0,0],[1,2],[3]]","4","0","","","","","","7","","","","","","","","",""
"","","","","","poldrack-single-stim","94","321012","0.0-2.0-23.0","62c44d672834a5c5ce7362f1","D2","batch4","","-1","tol_feedback","","","true","","1000","1000","500","","","","","","-1","none","true","12541","62444","","","","","","","","","",""
"","","","","","html-button-response","95","322287","0.0-2.0-24.0","62c44d672834a5c5ce7362f1","D2","batch4","","1274.7000000476837","tol_trial_num","<div class = centerbox><p class = center-block-text>problem <strong>6</strong> out of 25 problems</p></div>","0","","","","","","","","","","","","","","","","","","","","","","","","",""
"","","","","","single-stim-button","96","339480","0.0-2.0-25.0-0.0","62c44d672834a5c5ce7362f1","D2","batch4","","17192","tol_tohand","","","","tol_peg_2","17192","17192","0","[[0,0,0],[1,0],[3]]","1","[[1,0,0],[2,3],[0]]","5","0","","","","","","6","","","","","","","","",""
"","","","","","single-stim-button","97","347116","0.0-2.0-25.0-1.0","62c44d672834a5c5ce7362f1","D2","batch4","","7634","tol_toboard","","","","tol_peg_1","7634","7634","0","[[2,0,0],[1,0],[3]]","1","[[1,0,0],[2,3],[0]]","5","0","","","","","","6","","","","","","","","",""
"","","","","","single-stim-button","98","351742","0.0-2.0-25.1-0.1","62c44d672834a5c5ce7362f1","D2","batch4","","4624","tol_tohand","","","","tol_peg_2","4624","4624","0","[[2,0,0],[0,0],[3]]","2","[[1,0,0],[2,3],[0]]","5","0","","","","","","6","","","","","","","","",""
"","","","","","single-stim-button","99","353900","0.0-2.0-25.1-1.1","62c44d672834a5c5ce7362f1","D2","batch4","","2157","tol_toboard","","","","tol_peg_1","2157","2157","0","[[2,1,0],[0,0],[3]]","2","[[1,0,0],[2,3],[0]]","5","0","","","","","","6","","","","","","","","",""
"","","","","","single-stim-button","100","355712","0.0-2.0-25.2-0.2","62c44d672834a5c5ce7362f1","D2","batch4","","1811","tol_tohand","","","","tol_peg_3","1811","1811","0","[[2,1,0],[0,0],[0]]","3","[[1,0,0],[2,3],[0]]","5","0","","","","","","6","","","","","","","","",""
"","","","","","single-stim-button","101","358151","0.0-2.0-25.2-1.2","62c44d672834a5c5ce7362f1","D2","batch4","","2439","tol_toboard","","","","tol_peg_2","2439","2439","0","[[2,1,0],[3,0],[0]]","3","[[1,0,0],[2,3],[0]]","5","0","","","","","","6","","","","","","","","",""
"","","","","","single-stim-button","102","361940","0.0-2.0-25.3-0.3","62c44d672834a5c5ce7362f1","D2","batch4","","3788","tol_tohand","","","","tol_peg_1","3788","3788","0","[[2,0,0],[3,0],[0]]","4","[[1,0,0],[2,3],[0]]","5","0","","","","","","6","","","","","","","","",""
"","","","","","single-stim-button","103","363634","0.0-2.0-25.3-1.3","62c44d672834a5c5ce7362f1","D2","batch4","","1693","tol_toboard","","","","tol_peg_2","1693","1693","0","[[2,0,0],[3,1],[0]]","4","[[1,0,0],[2,3],[0]]","5","0","","","","","","6","","","","","","","","",""
"","","","","","single-stim-button","104","364312","0.0-2.0-25.4-0.4","62c44d672834a5c5ce7362f1","D2","batch4","","677","tol_tohand","","","","tol_peg_1","677","677","0","[[0,0,0],[3,1],[0]]","5","[[1,0,0],[2,3],[0]]","5","0","","","","","","6","","","","","","","","",""
"","","","","","single-stim-button","105","366364","0.0-2.0-25.4-1.4","62c44d672834a5c5ce7362f1","D2","batch4","","2050","tol_toboard","","","","tol_peg_3","2050","2050","0","[[0,0,0],[3,1],[2]]","5","[[1,0,0],[2,3],[0]]","5","0","","","","","","6","","","","","","","","",""
"","","","","","single-stim-button","106","367048","0.0-2.0-25.5-0.5","62c44d672834a5c5ce7362f1","D2","batch4","","684","tol_tohand","","","","tol_peg_2","684","684","0","[[0,0,0],[3,0],[2]]","6","[[1,0,0],[2,3],[0]]","5","0","","","","","","6","","","","","","","","",""
"","","","","","single-stim-button","107","368218","0.0-2.0-25.5-1.5","62c44d672834a5c5ce7362f1","D2","batch4","","1170","tol_toboard","","","","tol_peg_1","1170","1170","0","[[1,0,0],[3,0],[2]]","6","[[1,0,0],[2,3],[0]]","5","0","","","","","","6","","","","","","","","",""
"","","","","","single-stim-button","108","371168","0.0-2.0-25.6-0.6","62c44d672834a5c5ce7362f1","D2","batch4","","2950","tol_tohand","","","","tol_peg_2","2950","2950","0","[[1,0,0],[0,0],[2]]","7","[[1,0,0],[2,3],[0]]","5","0","","","","","","6","","","","","","","","",""
"","","","","","single-stim-button","109","374394","0.0-2.0-25.6-1.6","62c44d672834a5c5ce7362f1","D2","batch4","","3225","tol_toboard","","","","tol_peg_1","3225","3225","0","[[1,3,0],[0,0],[2]]","7","[[1,0,0],[2,3],[0]]","5","0","","","","","","6","","","","","","","","",""
"","","","","","single-stim-button","110","375168","0.0-2.0-25.7-0.7","62c44d672834a5c5ce7362f1","D2","batch4","","773","tol_tohand","","","","tol_peg_3","773","773","0","[[1,3,0],[0,0],[0]]","8","[[1,0,0],[2,3],[0]]","5","0","","","","","","6","","","","","","","","",""
"","","","","","single-stim-button","111","376152","0.0-2.0-25.7-1.7","62c44d672834a5c5ce7362f1","D2","batch4","","982","tol_toboard","","","","tol_peg_2","982","982","0","[[1,3,0],[2,0],[0]]","8","[[1,0,0],[2,3],[0]]","5","0","","","","","","6","","","","","","","","",""
"","","","","","single-stim-button","112","377840","0.0-2.0-25.8-0.8","62c44d672834a5c5ce7362f1","D2","batch4","","1687","tol_tohand","","","","tol_peg_1","1687","1687","0","[[1,0,0],[2,0],[0]]","9","[[1,0,0],[2,3],[0]]","5","0","","","","","","6","","","","","","","","",""
"","","","","","single-stim-button","113","378512","0.0-2.0-25.8-1.8","62c44d672834a5c5ce7362f1","D2","batch4","","672","tol_toboard","","","","tol_peg_2","672","672","0","[[1,0,0],[2,3],[0]]","9","[[1,0,0],[2,3],[0]]","5","0","","","","","","6","","","","","","","","",""
"","","","","","poldrack-single-stim","114","379517","0.0-2.0-26.0","62c44d672834a5c5ce7362f1","D2","batch4","","-1","tol_feedback","","","true","","1000","1000","500","","","","","","-1","none","true","17192","34186","","","","","","","","","",""
"","","","","","html-button-response","115","380980","0.0-2.0-27.0","62c44d672834a5c5ce7362f1","D2","batch4","","1462.1000000238419","tol_trial_num","<div class = centerbox><p class = center-block-text>problem <strong>7</strong> out of 25 problems</p></div>","0","","","","","","","","","","","","","","","","","","","","","","","","",""
"","","","","","single-stim-button","116","386388","0.0-2.0-28.0-0.0","62c44d672834a5c5ce7362f1","D2","batch4","","5408","tol_tohand","","","","tol_peg_3","5408","5408","0","[[2,1,0],[0,0],[0]]","1","[[1,2,0],[3,0],[0]]","6","0","","","","","","5","","","","","","","","",""
"","","","","","single-stim-button","117","391622","0.0-2.0-28.0-1.0","62c44d672834a5c5ce7362f1","D2","batch4","","5233","tol_toboard","","","","tol_peg_2","5233","5233","0","[[2,1,0],[3,0],[0]]","1","[[1,2,0],[3,0],[0]]","6","0","","","","","","5","","","","","","","","",""
"","","","","","single-stim-button","118","392980","0.0-2.0-28.1-0.1","62c44d672834a5c5ce7362f1","D2","batch4","","1358","tol_tohand","","","","tol_peg_1","1358","1358","0","[[2,0,0],[3,0],[0]]","2","[[1,2,0],[3,0],[0]]","6","0","","","","","","5","","","","","","","","",""
"","","","","","single-stim-button","119","393952","0.0-2.0-28.1-1.1","62c44d672834a5c5ce7362f1","D2","batch4","","970","tol_toboard","","","","tol_peg_3","970","970","0","[[2,0,0],[3,0],[1]]","2","[[1,2,0],[3,0],[0]]","6","0","","","","","","5","","","","","","","","",""
"","","","","","single-stim-button","120","394852","0.0-2.0-28.2-0.2","62c44d672834a5c5ce7362f1","D2","batch4","","900","tol_tohand","","","","tol_peg_1","900","900","0","[[0,0,0],[3,0],[1]]","3","[[1,2,0],[3,0],[0]]","6","0","","","","","","5","","","","","","","","",""
"","","","","","single-stim-button","121","395874","0.0-2.0-28.2-1.2","62c44d672834a5c5ce7362f1","D2","batch4","","1021","tol_toboard","","","","tol_peg_2","1021","1021","0","[[0,0,0],[3,2],[1]]","3","[[1,2,0],[3,0],[0]]","6","0","","","","","","5","","","","","","","","",""
"","","","","","single-stim-button","122","396512","0.0-2.0-28.3-0.3","62c44d672834a5c5ce7362f1","D2","batch4","","637","tol_tohand","","","","tol_peg_3","637","637","0","[[0,0,0],[3,2],[0]]","4","[[1,2,0],[3,0],[0]]","6","0","","","","","","5","","","","","","","","",""
"","","","","","single-stim-button","123","397326","0.0-2.0-28.3-1.3","62c44d672834a5c5ce7362f1","D2","batch4","","813","tol_toboard","","","","tol_peg_1","813","813","0","[[1,0,0],[3,2],[0]]","4","[[1,2,0],[3,0],[0]]","6","0","","","","","","5","","","","","","","","",""
"","","","","","single-stim-button","124","398364","0.0-2.0-28.4-0.4","62c44d672834a5c5ce7362f1","D2","batch4","","1038","tol_tohand","","","","tol_peg_2","1038","1038","0","[[1,0,0],[3,0],[0]]","5","[[1,2,0],[3,0],[0]]","6","0","","","","","","5","","","","","","","","",""
"","","","","","single-stim-button","125","398971","0.0-2.0-28.4-1.4","62c44d672834a5c5ce7362f1","D2","batch4","","605","tol_toboard","","","","tol_peg_1","605","605","0","[[1,2,0],[3,0],[0]]","5","[[1,2,0],[3,0],[0]]","6","0","","","","","","5","","","","","","","","",""
"","","","","","poldrack-single-stim","126","399973","0.0-2.0-29.0","62c44d672834a5c5ce7362f1","D2","batch4","","-1","tol_feedback","","","true","","1000","1000","500","","","","","","-1","none","true","5408","9341","","","","","","","","","",""
"","","","","","html-button-response","127","401066","0.0-2.0-30.0","62c44d672834a5c5ce7362f1","D2","batch4","","1092.1000000238419","tol_trial_num","<div class = centerbox><p class = center-block-text>problem <strong>8</strong> out of 25 problems</p></div>","0","","","","","","","","","","","","","","","","","","","","","","","","",""
"","","","","","single-stim-button","128","404166","0.0-2.0-31.0-0.0","62c44d672834a5c5ce7362f1","D2","batch4","","3100","tol_tohand","","","","tol_peg_3","3100","3100","0","[[0,0,0],[2,3],[0]]","1","[[1,2,0],[3,0],[0]]","7","0","","","","","","4","","","","","","","","",""
"","","","","","single-stim-button","129","405022","0.0-2.0-31.0-1.0","62c44d672834a5c5ce7362f1","D2","batch4","","855","tol_toboard","","","","tol_peg_1","855","855","0","[[1,0,0],[2,3],[0]]","1","[[1,2,0],[3,0],[0]]","7","0","","","","","","4","","","","","","","","",""
"","","","","","single-stim-button","130","410430","0.0-2.0-31.1-0.1","62c44d672834a5c5ce7362f1","D2","batch4","","5407","tol_tohand","","","","tol_peg_2","5407","5407","0","[[1,0,0],[2,0],[0]]","2","[[1,2,0],[3,0],[0]]","7","0","","","","","","4","","","","","","","","",""
"","","","","","single-stim-button","131","411262","0.0-2.0-31.1-1.1","62c44d672834a5c5ce7362f1","D2","batch4","","831","tol_toboard","","","","tol_peg_3","831","831","0","[[1,0,0],[2,0],[3]]","2","[[1,2,0],[3,0],[0]]","7","0","","","","","","4","","","","","","","","",""
"","","","","","single-stim-button","132","411960","0.0-2.0-31.2-0.2","62c44d672834a5c5ce7362f1","D2","batch4","","698","tol_tohand","","","","tol_peg_2","698","698","0","[[1,0,0],[0,0],[3]]","3","[[1,2,0],[3,0],[0]]","7","0","","","","","","4","","","","","","","","",""
"","","","","","single-stim-button","133","412730","0.0-2.0-31.2-1.2","62c44d672834a5c5ce7362f1","D2","batch4","","770","tol_toboard","","","","tol_peg_1","770","770","0","[[1,2,0],[0,0],[3]]","3","[[1,2,0],[3,0],[0]]","7","0","","","","","","4","","","","","","","","",""
"","","","","","single-stim-button","134","413664","0.0-2.0-31.3-0.3","62c44d672834a5c5ce7362f1","D2","batch4","","932","tol_tohand","","","","tol_peg_3","932","932","0","[[1,2,0],[0,0],[0]]","4","[[1,2,0],[3,0],[0]]","7","0","","","","","","4","","","","","","","","",""
"","","","","","single-stim-button","135","414196","0.0-2.0-31.3-1.3","62c44d672834a5c5ce7362f1","D2","batch4","","532","tol_toboard","","","","tol_peg_2","532","532","0","[[1,2,0],[3,0],[0]]","4","[[1,2,0],[3,0],[0]]","7","0","","","","","","4","","","","","","","","",""
"","","","","","poldrack-single-stim","136","415198","0.0-2.0-32.0","62c44d672834a5c5ce7362f1","D2","batch4","","-1","tol_feedback","","","true","","1000","1000","500","","","","","","-1","none","true","3100","10137","","","","","","","","","",""
"","","","","","html-button-response","137","416184","0.0-2.0-33.0","62c44d672834a5c5ce7362f1","D2","batch4","","984.8000000715256","tol_trial_num","<div class = centerbox><p class = center-block-text>problem <strong>9</strong> out of 25 problems</p></div>","0","","","","","","","","","","","","","","","","","","","","","","","","",""
"","","","","","single-stim-button","138","421330","0.0-2.0-34.0-0.0","62c44d672834a5c5ce7362f1","D2","batch4","","5144","tol_tohand","","","","tol_peg_1","5144","5144","0","[[3,0,0],[0,0],[1]]","1","[[2,1,0],[3,0],[0]]","8","0","","","","","","6","","","","","","","","",""
"","","","","","single-stim-button","139","422436","0.0-2.0-34.0-1.0","62c44d672834a5c5ce7362f1","D2","batch4","","1104","tol_toboard","","","","tol_peg_2","1104","1104","0","[[3,0,0],[2,0],[1]]","1","[[2,1,0],[3,0],[0]]","8","0","","","","","","6","","","","","","","","",""
"","","","","","single-stim-button","140","427814","0.0-2.0-34.1-0.1","62c44d672834a5c5ce7362f1","D2","batch4","","5377","tol_tohand","","","","tol_peg_1","5377","5377","0","[[0,0,0],[2,0],[1]]","2","[[2,1,0],[3,0],[0]]","8","0","","","","","","6","","","","","","","","",""
"","","","","","single-stim-button","141","437014","0.0-2.0-34.1-1.1","62c44d672834a5c5ce7362f1","D2","batch4","","9200","tol_toboard","","","","tol_peg_1","9200","9200","0","[[3,0,0],[2,0],[1]]","2","[[2,1,0],[3,0],[0]]","8","0","","","","","","6","","","","","","","","",""
"","","","","","single-stim-button","142","438602","0.0-2.0-34.2-0.2","62c44d672834a5c5ce7362f1","D2","batch4","","1587","tol_tohand","","","","tol_peg_3","1587","1587","0","[[3,0,0],[2,0],[0]]","3","[[2,1,0],[3,0],[0]]","8","0","","","","","","6","","","","","","","","",""
"","","","","","single-stim-button","143","439310","0.0-2.0-34.2-1.2","62c44d672834a5c5ce7362f1","D2","batch4","","707","tol_toboard","","","","tol_peg_1","707","707","0","[[3,1,0],[2,0],[0]]","3","[[2,1,0],[3,0],[0]]","8","0","","","","","","6","","","","","","","","",""
"","","","","","single-stim-button","144","440544","0.0-2.0-34.3-0.3","62c44d672834a5c5ce7362f1","D2","batch4","","1233","tol_tohand","","","","tol_peg_2","1233","1233","0","[[3,1,0],[0,0],[0]]","4","[[2,1,0],[3,0],[0]]","8","0","","","","","","6","","","","","","","","",""
"","","","","","single-stim-button","145","441532","0.0-2.0-34.3-1.3","62c44d672834a5c5ce7362f1","D2","batch4","","987","tol_toboard","","","","tol_peg_3","987","987","0","[[3,1,0],[0,0],[2]]","4","[[2,1,0],[3,0],[0]]","8","0","","","","","","6","","","","","","","","",""
"","","","","","single-stim-button","146","442697","0.0-2.0-34.4-0.4","62c44d672834a5c5ce7362f1","D2","batch4","","1165","tol_tohand","","","","tol_peg_1","1165","1165","0","[[3,0,0],[0,0],[2]]","5","[[2,1,0],[3,0],[0]]","8","0","","","","","","6","","","","","","","","",""
"","","","","","single-stim-button","147","446398","0.0-2.0-34.4-1.4","62c44d672834a5c5ce7362f1","D2","batch4","","3700","tol_toboard","","","","tol_peg_2","3700","3700","0","[[3,0,0],[1,0],[2]]","5","[[2,1,0],[3,0],[0]]","8","0","","","","","","6","","","","","","","","",""
"","","","","","single-stim-button","148","450066","0.0-2.0-34.5-0.5","62c44d672834a5c5ce7362f1","D2","batch4","","3667","tol_tohand","","","","tol_peg_1","3667","3667","0","[[0,0,0],[1,0],[2]]","6","[[2,1,0],[3,0],[0]]","8","0","","","","","","6","","","","","","","","",""
"","","","","","single-stim-button","149","450800","0.0-2.0-34.5-1.5","62c44d672834a5c5ce7362f1","D2","batch4","","733","tol_toboard","","","","tol_peg_2","733","733","0","[[0,0,0],[1,3],[2]]","6","[[2,1,0],[3,0],[0]]","8","0","","","","","","6","","","","","","","","",""
"","","","","","single-stim-button","150","460424","0.0-2.0-34.6-0.6","62c44d672834a5c5ce7362f1","D2","batch4","","9623","tol_tohand","","","","tol_peg_3","9623","9623","0","[[0,0,0],[1,3],[0]]","7","[[2,1,0],[3,0],[0]]","8","0","","","","","","6","","","","","","","","",""
"","","","","","single-stim-button","151","462804","0.0-2.0-34.6-1.6","62c44d672834a5c5ce7362f1","D2","batch4","","2378","tol_toboard","","","","tol_peg_1","2378","2378","0","[[2,0,0],[1,3],[0]]","7","[[2,1,0],[3,0],[0]]","8","0","","","","","","6","","","","","","","","",""
"","","","","","single-stim-button","152","463400","0.0-2.0-34.7-0.7","62c44d672834a5c5ce7362f1","D2","batch4","","594","tol_tohand","","","","tol_peg_2","594","594","0","[[2,0,0],[1,0],[0]]","8","[[2,1,0],[3,0],[0]]","8","0","","","","","","6","","","","","","","","",""
"","","","","","single-stim-button","153","464176","0.0-2.0-34.7-1.7","62c44d672834a5c5ce7362f1","D2","batch4","","776","tol_toboard","","","","tol_peg_3","776","776","0","[[2,0,0],[1,0],[3]]","8","[[2,1,0],[3,0],[0]]","8","0","","","","","","6","","","","","","","","",""
"","","","","","single-stim-button","154","472266","0.0-2.0-34.8-0.8","62c44d672834a5c5ce7362f1","D2","batch4","","8089","tol_tohand","","","","tol_peg_2","8089","8089","0","[[2,0,0],[0,0],[3]]","9","[[2,1,0],[3,0],[0]]","8","0","","","","","","6","","","","","","","","",""
"","","","","","single-stim-button","155","473246","0.0-2.0-34.8-1.8","62c44d672834a5c5ce7362f1","D2","batch4","","980","tol_toboard","","","","tol_peg_1","980","980","0","[[2,1,0],[0,0],[3]]","9","[[2,1,0],[3,0],[0]]","8","0","","","","","","6","","","","","","","","",""
"","","","","","single-stim-button","156","474152","0.0-2.0-34.9-0.9","62c44d672834a5c5ce7362f1","D2","batch4","","905","tol_tohand","","","","tol_peg_3","905","905","0","[[2,1,0],[0,0],[0]]","10","[[2,1,0],[3,0],[0]]","8","0","","","","","","6","","","","","","","","",""
"","","","","","single-stim-button","157","474876","0.0-2.0-34.9-1.9","62c44d672834a5c5ce7362f1","D2","batch4","","723","tol_toboard","","","","tol_peg_2","723","723","0","[[2,1,0],[3,0],[0]]","10","[[2,1,0],[3,0],[0]]","8","0","","","","","","6","","","","","","","","",""
"","","","","","poldrack-single-stim","158","475877","0.0-2.0-35.0","62c44d672834a5c5ce7362f1","D2","batch4","","-1","tol_feedback","","","true","","1000","1000","500","","","","","","-1","none","true","5144","37384","","","","","","","","","",""
"","","","","","html-button-response","159","477154","0.0-2.0-36.0","62c44d672834a5c5ce7362f1","D2","batch4","","1276.1000000238419","tol_trial_num","<div class = centerbox><p class = center-block-text>problem <strong>10</strong> out of 25 problems</p></div>","0","","","","","","","","","","","","","","","","","","","","","","","","",""
"","","","","","single-stim-button","160","484008","0.0-2.0-37.0-0.0","62c44d672834a5c5ce7362f1","D2","batch4","","6854","tol_tohand","","","","tol_peg_3","6854","6854","0","[[3,0,0],[1,0],[0]]","1","[[3,0,0],[2,1],[0]]","9","0","","","","","","3","","","","","","","","",""
"","","","","","single-stim-button","161","484917","0.0-2.0-37.0-1.0","62c44d672834a5c5ce7362f1","D2","batch4","","906","tol_toboard","","","","tol_peg_1","906","906","0","[[3,2,0],[1,0],[0]]","1","[[3,0,0],[2,1],[0]]","9","0","","","","","","3","","","","","","","","",""
"","","","","","single-stim-button","162","488796","0.0-2.0-37.1-0.1","62c44d672834a5c5ce7362f1","D2","batch4","","3878","tol_tohand","","","","tol_peg_2","3878","3878","0","[[3,2,0],[0,0],[0]]","2","[[3,0,0],[2,1],[0]]","9","0","","","","","","3","","","","","","","","",""
"","","","","","single-stim-button","163","490102","0.0-2.0-37.1-1.1","62c44d672834a5c5ce7362f1","D2","batch4","","1305","tol_toboard","","","","tol_peg_3","1305","1305","0","[[3,2,0],[0,0],[1]]","2","[[3,0,0],[2,1],[0]]","9","0","","","","","","3","","","","","","","","",""
"","","","","","single-stim-button","164","491400","0.0-2.0-37.2-0.2","62c44d672834a5c5ce7362f1","D2","batch4","","1297","tol_tohand","","","","tol_peg_1","1297","1297","0","[[3,0,0],[0,0],[1]]","3","[[3,0,0],[2,1],[0]]","9","0","","","","","","3","","","","","","","","",""
"","","","","","single-stim-button","165","492222","0.0-2.0-37.2-1.2","62c44d672834a5c5ce7362f1","D2","batch4","","821","tol_toboard","","","","tol_peg_2","821","821","0","[[3,0,0],[2,0],[1]]","3","[[3,0,0],[2,1],[0]]","9","0","","","","","","3","","","","","","","","",""
"","","","","","single-stim-button","166","493002","0.0-2.0-37.3-0.3","62c44d672834a5c5ce7362f1","D2","batch4","","779","tol_tohand","","","","tol_peg_3","779","779","0","[[3,0,0],[2,0],[0]]","4","[[3,0,0],[2,1],[0]]","9","0","","","","","","3","","","","","","","","",""
"","","","","","single-stim-button","167","493806","0.0-2.0-37.3-1.3","62c44d672834a5c5ce7362f1","D2","batch4","","803","tol_toboard","","","","tol_peg_2","803","803","0","[[3,0,0],[2,1],[0]]","4","[[3,0,0],[2,1],[0]]","9","0","","","","","","3","","","","","","","","",""
"","","","","","poldrack-single-stim","168","494809","0.0-2.0-38.0","62c44d672834a5c5ce7362f1","D2","batch4","","-1","tol_feedback","","","true","","1000","1000","500","","","","","","-1","none","true","6854","12808","","","","","","","","","",""
"","","","","","html-button-response","169","496010","0.0-2.0-39.0","62c44d672834a5c5ce7362f1","D2","batch4","","1200.9000000953674","tol_trial_num","<div class = centerbox><p class = center-block-text>problem <strong>11</strong> out of 25 problems</p></div>","0","","","","","","","","","","","","","","","","","","","","","","","","",""
"","","","","","single-stim-button","170","506984","0.0-2.0-40.0-0.0","62c44d672834a5c5ce7362f1","D2","batch4","","10973","tol_tohand","","","","tol_peg_1","10973","10973","0","[[1,0,0],[3,0],[0]]","1","[[2,0,0],[1,3],[0]]","10","0","","","","","","6","","","","","","","","",""
"","","","","","single-stim-button","171","508278","0.0-2.0-40.0-1.0","62c44d672834a5c5ce7362f1","D2","batch4","","1294","tol_toboard","","","","tol_peg_2","1294","1294","0","[[1,0,0],[3,2],[0]]","1","[[2,0,0],[1,3],[0]]","10","0","","","","","","6","","","","","","","","",""
"","","","","","single-stim-button","172","509003","0.0-2.0-40.1-0.1","62c44d672834a5c5ce7362f1","D2","batch4","","723","tol_tohand","","","","tol_peg_1","723","723","0","[[0,0,0],[3,2],[0]]","2","[[2,0,0],[1,3],[0]]","10","0","","","","","","6","","","","","","","","",""
"","","","","","single-stim-button","173","509820","0.0-2.0-40.1-1.1","62c44d672834a5c5ce7362f1","D2","batch4","","816","tol_toboard","","","","tol_peg_3","816","816","0","[[0,0,0],[3,2],[1]]","2","[[2,0,0],[1,3],[0]]","10","0","","","","","","6","","","","","","","","",""
"","","","","","single-stim-button","174","510389","0.0-2.0-40.2-0.2","62c44d672834a5c5ce7362f1","D2","batch4","","568","tol_tohand","","","","tol_peg_2","568","568","0","[[0,0,0],[3,0],[1]]","3","[[2,0,0],[1,3],[0]]","10","0","","","","","","6","","","","","","","","",""
"","","","","","single-stim-button","175","511072","0.0-2.0-40.2-1.2","62c44d672834a5c5ce7362f1","D2","batch4","","682","tol_toboard","","","","tol_peg_1","682","682","0","[[2,0,0],[3,0],[1]]","3","[[2,0,0],[1,3],[0]]","10","0","","","","","","6","","","","","","","","",""
"","","","","","single-stim-button","176","513350","0.0-2.0-40.3-0.3","62c44d672834a5c5ce7362f1","D2","batch4","","2277","tol_tohand","","","","tol_peg_2","2277","2277","0","[[2,0,0],[0,0],[1]]","4","[[2,0,0],[1,3],[0]]","10","0","","","","","","6","","","","","","","","",""
"","","","","","single-stim-button","177","513973","0.0-2.0-40.3-1.3","62c44d672834a5c5ce7362f1","D2","batch4","","622","tol_toboard","","","","tol_peg_1","622","622","0","[[2,3,0],[0,0],[1]]","4","[[2,0,0],[1,3],[0]]","10","0","","","","","","6","","","","","","","","",""
"","","","","","single-stim-button","178","514573","0.0-2.0-40.4-0.4","62c44d672834a5c5ce7362f1","D2","batch4","","598","tol_tohand","","","","tol_peg_3","598","598","0","[[2,3,0],[0,0],[0]]","5","[[2,0,0],[1,3],[0]]","10","0","","","","","","6","","","","","","","","",""
"","","","","","single-stim-button","179","515246","0.0-2.0-40.4-1.4","62c44d672834a5c5ce7362f1","D2","batch4","","673","tol_toboard","","","","tol_peg_2","673","673","0","[[2,3,0],[1,0],[0]]","5","[[2,0,0],[1,3],[0]]","10","0","","","","","","6","","","","","","","","",""
"","","","","","single-stim-button","180","515991","0.0-2.0-40.5-0.5","62c44d672834a5c5ce7362f1","D2","batch4","","743","tol_tohand","","","","tol_peg_1","743","743","0","[[2,0,0],[1,0],[0]]","6","[[2,0,0],[1,3],[0]]","10","0","","","","","","6","","","","","","","","",""
"","","","","","single-stim-button","181","516682","0.0-2.0-40.5-1.5","62c44d672834a5c5ce7362f1","D2","batch4","","691","tol_toboard","","","","tol_peg_2","691","691","0","[[2,0,0],[1,3],[0]]","6","[[2,0,0],[1,3],[0]]","10","0","","","","","","6","","","","","","","","",""
"","","","","","poldrack-single-stim","182","517684","0.0-2.0-41.0","62c44d672834a5c5ce7362f1","D2","batch4","","-1","tol_feedback","","","true","","1000","1000","500","","","","","","-1","none","true","10973","15882","","","","","","","","","",""
"","","","","","html-button-response","183","518960","0.0-2.0-42.0","62c44d672834a5c5ce7362f1","D2","batch4","","1275.7999999523163","tol_trial_num","<div class = centerbox><p class = center-block-text>problem <strong>12</strong> out of 25 problems</p></div>","0","","","","","","","","","","","","","","","","","","","","","","","","",""
"","","","","","single-stim-button","184","528002","0.0-2.0-43.0-0.0","62c44d672834a5c5ce7362f1","D2","batch4","","9041","tol_tohand","","","","tol_peg_1","9041","9041","0","[[1,0,0],[3,0],[0]]","1","[[2,3,0],[0,0],[1]]","11","0","","","","","","4","","","","","","","","",""
"","","","","","single-stim-button","185","528659","0.0-2.0-43.0-1.0","62c44d672834a5c5ce7362f1","D2","batch4","","655","tol_toboard","","","","tol_peg_2","655","655","0","[[1,0,0],[3,2],[0]]","1","[[2,3,0],[0,0],[1]]","11","0","","","","","","4","","","","","","","","",""
"","","","","","single-stim-button","186","529658","0.0-2.0-43.1-0.1","62c44d672834a5c5ce7362f1","D2","batch4","","999","tol_tohand","","","","tol_peg_1","999","999","0","[[0,0,0],[3,2],[0]]","2","[[2,3,0],[0,0],[1]]","11","0","","","","","","4","","","","","","","","",""
"","","","","","single-stim-button","187","530492","0.0-2.0-43.1-1.1","62c44d672834a5c5ce7362f1","D2","batch4","","833","tol_toboard","","","","tol_peg_3","833","833","0","[[0,0,0],[3,2],[1]]","2","[[2,3,0],[0,0],[1]]","11","0","","","","","","4","","","","","","","","",""
"","","","","","single-stim-button","188","533690","0.0-2.0-43.2-0.2","62c44d672834a5c5ce7362f1","D2","batch4","","3197","tol_tohand","","","","tol_peg_2","3197","3197","0","[[0,0,0],[3,0],[1]]","3","[[2,3,0],[0,0],[1]]","11","0","","","","","","4","","","","","","","","",""
"","","","","","single-stim-button","189","541436","0.0-2.0-43.2-1.2","62c44d672834a5c5ce7362f1","D2","batch4","","7745","tol_toboard","","","","tol_peg_1","7745","7745","0","[[2,0,0],[3,0],[1]]","3","[[2,3,0],[0,0],[1]]","11","0","","","","","","4","","","","","","","","",""
"","","","","","single-stim-button","190","546948","0.0-2.0-43.3-0.3","62c44d672834a5c5ce7362f1","D2","batch4","","5511","tol_tohand","","","","tol_peg_2","5511","5511","0","[[2,0,0],[0,0],[1]]","4","[[2,3,0],[0,0],[1]]","11","0","","","","","","4","","","","","","","","",""
"","","","","","single-stim-button","191","547912","0.0-2.0-43.3-1.3","62c44d672834a5c5ce7362f1","D2","batch4","","963","tol_toboard","","","","tol_peg_1","963","963","0","[[2,3,0],[0,0],[1]]","4","[[2,3,0],[0,0],[1]]","11","0","","","","","","4","","","","","","","","",""
"","","","","","poldrack-single-stim","192","548924","0.0-2.0-44.0","62c44d672834a5c5ce7362f1","D2","batch4","","-1","tol_feedback","","","true","","1000","1000","500","","","","","","-1","none","true","9041","18748","","","","","","","","","",""
"","","","","","html-button-response","193","550122","0.0-2.0-45.0","62c44d672834a5c5ce7362f1","D2","batch4","","1197.2000000476837","tol_trial_num","<div class = centerbox><p class = center-block-text>problem <strong>13</strong> out of 25 problems</p></div>","0","","","","","","","","","","","","","","","","","","","","","","","","",""
"","","","","","single-stim-button","194","558514","0.0-2.0-46.0-0.0","62c44d672834a5c5ce7362f1","D2","batch4","","8392","tol_tohand","","","","tol_peg_1","8392","8392","0","[[1,0,0],[3,0],[0]]","1","[[0,0,0],[2,3],[1]]","12","0","","","","","","4","","","","","","","","",""
"","","","","","single-stim-button","195","561344","0.0-2.0-46.0-1.0","62c44d672834a5c5ce7362f1","D2","batch4","","2829","tol_toboard","","","","tol_peg_2","2829","2829","0","[[1,0,0],[3,2],[0]]","1","[[0,0,0],[2,3],[1]]","12","0","","","","","","4","","","","","","","","",""
"","","","","","single-stim-button","196","562022","0.0-2.0-46.1-0.1","62c44d672834a5c5ce7362f1","D2","batch4","","676","tol_tohand","","","","tol_peg_1","676","676","0","[[0,0,0],[3,2],[0]]","2","[[0,0,0],[2,3],[1]]","12","0","","","","","","4","","","","","","","","",""
"","","","","","single-stim-button","197","562712","0.0-2.0-46.1-1.1","62c44d672834a5c5ce7362f1","D2","batch4","","690","tol_toboard","","","","tol_peg_3","690","690","0","[[0,0,0],[3,2],[1]]","2","[[0,0,0],[2,3],[1]]","12","0","","","","","","4","","","","","","","","",""
"","","","","","single-stim-button","198","564090","0.0-2.0-46.2-0.2","62c44d672834a5c5ce7362f1","D2","batch4","","1378","tol_tohand","","","","tol_peg_2","1378","1378","0","[[0,0,0],[3,0],[1]]","3","[[0,0,0],[2,3],[1]]","12","0","","","","","","4","","","","","","","","",""
"","","","","","single-stim-button","199","564942","0.0-2.0-46.2-1.2","62c44d672834a5c5ce7362f1","D2","batch4","","851","tol_toboard","","","","tol_peg_1","851","851","0","[[2,0,0],[3,0],[1]]","3","[[0,0,0],[2,3],[1]]","12","0","","","","","","4","","","","","","","","",""
"","","","","","single-stim-button","200","570712","0.0-2.0-46.3-0.3","62c44d672834a5c5ce7362f1","D2","batch4","","5769","tol_tohand","","","","tol_peg_2","5769","5769","0","[[2,0,0],[0,0],[1]]","4","[[0,0,0],[2,3],[1]]","12","0","","","","","","4","","","","","","","","",""
"","","","","","single-stim-button","201","574166","0.0-2.0-46.3-1.3","62c44d672834a5c5ce7362f1","D2","batch4","","3453","tol_toboard","","","","tol_peg_1","3453","3453","0","[[2,3,0],[0,0],[1]]","4","[[0,0,0],[2,3],[1]]","12","0","","","","","","4","","","","","","","","",""
"","","","","","single-stim-button","202","581290","0.0-2.0-46.4-0.4","62c44d672834a5c5ce7362f1","D2","batch4","","7123","tol_tohand","","","","tol_peg_3","7123","7123","0","[[2,3,0],[0,0],[0]]","5","[[0,0,0],[2,3],[1]]","12","0","","","","","","4","","","","","","","","",""
"","","","","","single-stim-button","203","583972","0.0-2.0-46.4-1.4","62c44d672834a5c5ce7362f1","D2","batch4","","2682","tol_toboard","","","","tol_peg_2","2682","2682","0","[[2,3,0],[1,0],[0]]","5","[[0,0,0],[2,3],[1]]","12","0","","","","","","4","","","","","","","","",""
"","","","","","single-stim-button","204","586770","0.0-2.0-46.5-0.5","62c44d672834a5c5ce7362f1","D2","batch4","","2796","tol_tohand","","","","tol_peg_1","2796","2796","0","[[2,0,0],[1,0],[0]]","6","[[0,0,0],[2,3],[1]]","12","0","","","","","","4","","","","","","","","",""
"","","","","","single-stim-button","205","587726","0.0-2.0-46.5-1.5","62c44d672834a5c5ce7362f1","D2","batch4","","956","tol_toboard","","","","tol_peg_3","956","956","0","[[2,0,0],[1,0],[3]]","6","[[0,0,0],[2,3],[1]]","12","0","","","","","","4","","","","","","","","",""
"","","","","","single-stim-button","206","599460","0.0-2.0-46.6-0.6","62c44d672834a5c5ce7362f1","D2","batch4","","11733","tol_tohand","","","","tol_peg_1","11733","11733","0","[[0,0,0],[1,0],[3]]","7","[[0,0,0],[2,3],[1]]","12","0","","","","","","4","","","","","","","","",""
"","","","","","single-stim-button","207","606940","0.0-2.0-46.6-1.6","62c44d672834a5c5ce7362f1","D2","batch4","","7478","tol_toboard","","","","tol_peg_2","7478","7478","0","[[0,0,0],[1,2],[3]]","7","[[0,0,0],[2,3],[1]]","12","0","","","","","","4","","","","","","","","",""
"","","","","","single-stim-button","208","607750","0.0-2.0-46.7-0.7","62c44d672834a5c5ce7362f1","D2","batch4","","809","tol_tohand","","","","tol_peg_3","809","809","0","[[0,0,0],[1,2],[0]]","8","[[0,0,0],[2,3],[1]]","12","0","","","","","","4","","","","","","","","",""
"","","","","","single-stim-button","209","610720","0.0-2.0-46.7-1.7","62c44d672834a5c5ce7362f1","D2","batch4","","2969","tol_toboard","","","","tol_peg_1","2969","2969","0","[[3,0,0],[1,2],[0]]","8","[[0,0,0],[2,3],[1]]","12","0","","","","","","4","","","","","","","","",""
"","","","","","single-stim-button","210","611584","0.0-2.0-46.8-0.8","62c44d672834a5c5ce7362f1","D2","batch4","","864","tol_tohand","","","","tol_peg_2","864","864","0","[[3,0,0],[1,0],[0]]","9","[[0,0,0],[2,3],[1]]","12","0","","","","","","4","","","","","","","","",""
"","","","","","single-stim-button","211","612136","0.0-2.0-46.8-1.8","62c44d672834a5c5ce7362f1","D2","batch4","","550","tol_toboard","","","","tol_peg_1","550","550","0","[[3,2,0],[1,0],[0]]","9","[[0,0,0],[2,3],[1]]","12","0","","","","","","4","","","","","","","","",""
"","","","","","single-stim-button","212","612994","0.0-2.0-46.9-0.9","62c44d672834a5c5ce7362f1","D2","batch4","","858","tol_tohand","","","","tol_peg_2","858","858","0","[[3,2,0],[0,0],[0]]","10","[[0,0,0],[2,3],[1]]","12","0","","","","","","4","","","","","","","","",""
"","","","","","single-stim-button","213","613824","0.0-2.0-46.9-1.9","62c44d672834a5c5ce7362f1","D2","batch4","","828","tol_toboard","","","","tol_peg_1","828","828","0","[[3,2,1],[0,0],[0]]","10","[[0,0,0],[2,3],[1]]","12","0","","","","","","4","","","","","","","","",""
"","","","","","single-stim-button","214","615028","0.0-2.0-46.10-0.10","62c44d672834a5c5ce7362f1","D2","batch4","","1203","tol_tohand","","","","tol_peg_1","1203","1203","0","[[3,2,0],[0,0],[0]]","11","[[0,0,0],[2,3],[1]]","12","0","","","","","","4","","","","","","","","",""
"","","","","","single-stim-button","215","615874","0.0-2.0-46.10-1.10","62c44d672834a5c5ce7362f1","D2","batch4","","846","tol_toboard","","","","tol_peg_3","846","846","0","[[3,2,0],[0,0],[1]]","11","[[0,0,0],[2,3],[1]]","12","0","","","","","","4","","","","","","","","",""
"","","","","","single-stim-button","216","616433","0.0-2.0-46.11-0.11","62c44d672834a5c5ce7362f1","D2","batch4","","558","tol_tohand","","","","tol_peg_1","558","558","0","[[3,0,0],[0,0],[1]]","12","[[0,0,0],[2,3],[1]]","12","0","","","","","","4","","","","","","","","",""
"","","","","","single-stim-button","217","617068","0.0-2.0-46.11-1.11","62c44d672834a5c5ce7362f1","D2","batch4","","634","tol_toboard","","","","tol_peg_2","634","634","0","[[3,0,0],[2,0],[1]]","12","[[0,0,0],[2,3],[1]]","12","0","","","","","","4","","","","","","","","",""
"","","","","","single-stim-button","218","617602","0.0-2.0-46.12-0.12","62c44d672834a5c5ce7362f1","D2","batch4","","533","tol_tohand","","","","tol_peg_1","533","533","0","[[0,0,0],[2,0],[1]]","13","[[0,0,0],[2,3],[1]]","12","0","","","","","","4","","","","","","","","",""
"","","","","","single-stim-button","219","618154","0.0-2.0-46.12-1.12","62c44d672834a5c5ce7362f1","D2","batch4","","550","tol_toboard","","","","tol_peg_2","550","550","0","[[0,0,0],[2,3],[1]]","13","[[0,0,0],[2,3],[1]]","12","0","","","","","","4","","","","","","","","",""
"","","","","","poldrack-single-stim","220","619155","0.0-2.0-47.0","62c44d672834a5c5ce7362f1","D2","batch4","","-1","tol_feedback","","","true","","1000","1000","500","","","","","","-1","none","true","8392","42692","","","","","","","","","",""
"","","","","","html-button-response","221","623244","0.0-2.0-48.0","62c44d672834a5c5ce7362f1","D2","batch4","","4087.8000000715256","attention_check","<p class = block-text>How many balls are in your board<br></p>","1","true","","","","","","","","","","","","","","","","","","","","","","","",""
"","","","","","html-button-response","222","624560","0.0-2.0-49.0","62c44d672834a5c5ce7362f1","D2","batch4","","1314","tol_trial_num","<div class = centerbox><p class = center-block-text>problem <strong>14</strong> out of 25 problems</p></div>","0","","","","","","","","","","","","","","","","","","","","","","","","",""
"","","","","","single-stim-button","223","631328","0.0-2.0-50.0-0.0","62c44d672834a5c5ce7362f1","D2","batch4","","6767","tol_tohand","","","","tol_peg_2","6767","6767","0","[[2,1,0],[0,0],[0]]","1","[[1,2,0],[3,0],[0]]","13","0","","","","","","4","","","","","","","","",""
"","","","","","single-stim-button","224","632317","0.0-2.0-50.0-1.0","62c44d672834a5c5ce7362f1","D2","batch4","","989","tol_toboard","","","","tol_peg_3","989","989","0","[[2,1,0],[0,0],[3]]","1","[[1,2,0],[3,0],[0]]","13","0","","","","","","4","","","","","","","","",""
"","","","","","single-stim-button","225","633086","0.0-2.0-50.1-0.1","62c44d672834a5c5ce7362f1","D2","batch4","","768","tol_tohand","","","","tol_peg_1","768","768","0","[[2,0,0],[0,0],[3]]","2","[[1,2,0],[3,0],[0]]","13","0","","","","","","4","","","","","","","","",""
"","","","","","single-stim-button","226","633976","0.0-2.0-50.1-1.1","62c44d672834a5c5ce7362f1","D2","batch4","","888","tol_toboard","","","","tol_peg_2","888","888","0","[[2,0,0],[1,0],[3]]","2","[[1,2,0],[3,0],[0]]","13","0","","","","","","4","","","","","","","","",""
"","","","","","single-stim-button","227","636592","0.0-2.0-50.2-0.2","62c44d672834a5c5ce7362f1","D2","batch4","","2615","tol_tohand","","","","tol_peg_1","2615","2615","0","[[0,0,0],[1,0],[3]]","3","[[1,2,0],[3,0],[0]]","13","0","","","","","","4","","","","","","","","",""
"","","","","","single-stim-button","228","637286","0.0-2.0-50.2-1.2","62c44d672834a5c5ce7362f1","D2","batch4","","693","tol_toboard","","","","tol_peg_2","693","693","0","[[0,0,0],[1,2],[3]]","3","[[1,2,0],[3,0],[0]]","13","0","","","","","","4","","","","","","","","",""
"","","","","","single-stim-button","229","646732","0.0-2.0-50.3-0.3","62c44d672834a5c5ce7362f1","D2","batch4","","9445","tol_tohand","","","","tol_peg_3","9445","9445","0","[[0,0,0],[1,2],[0]]","4","[[1,2,0],[3,0],[0]]","13","0","","","","","","4","","","","","","","","",""
"","","","","","single-stim-button","230","647398","0.0-2.0-50.3-1.3","62c44d672834a5c5ce7362f1","D2","batch4","","666","tol_toboard","","","","tol_peg_1","666","666","0","[[3,0,0],[1,2],[0]]","4","[[1,2,0],[3,0],[0]]","13","0","","","","","","4","","","","","","","","",""
"","","","","","single-stim-button","231","648023","0.0-2.0-50.4-0.4","62c44d672834a5c5ce7362f1","D2","batch4","","625","tol_tohand","","","","tol_peg_2","625","625","0","[[3,0,0],[1,0],[0]]","5","[[1,2,0],[3,0],[0]]","13","0","","","","","","4","","","","","","","","",""
"","","","","","single-stim-button","232","648672","0.0-2.0-50.4-1.4","62c44d672834a5c5ce7362f1","D2","batch4","","648","tol_toboard","","","","tol_peg_3","648","648","0","[[3,0,0],[1,0],[2]]","5","[[1,2,0],[3,0],[0]]","13","0","","","","","","4","","","","","","","","",""
"","","","","","single-stim-button","233","656755","0.0-2.0-50.5-0.5","62c44d672834a5c5ce7362f1","D2","batch4","","8082","tol_tohand","","","","tol_peg_3","8082","8082","0","[[3,0,0],[1,0],[0]]","6","[[1,2,0],[3,0],[0]]","13","0","","","","","","4","","","","","","","","",""
"","","","","","single-stim-button","234","657988","0.0-2.0-50.5-1.5","62c44d672834a5c5ce7362f1","D2","batch4","","1232","tol_toboard","","","","tol_peg_2","1232","1232","0","[[3,0,0],[1,2],[0]]","6","[[1,2,0],[3,0],[0]]","13","0","","","","","","4","","","","","","","","",""
"","","","","","single-stim-button","235","658966","0.0-2.0-50.6-0.6","62c44d672834a5c5ce7362f1","D2","batch4","","978","tol_tohand","","","","tol_peg_1","978","978","0","[[0,0,0],[1,2],[0]]","7","[[1,2,0],[3,0],[0]]","13","0","","","","","","4","","","","","","","","",""
"","","","","","single-stim-button","236","659924","0.0-2.0-50.6-1.6","62c44d672834a5c5ce7362f1","D2","batch4","","957","tol_toboard","","","","tol_peg_3","957","957","0","[[0,0,0],[1,2],[3]]","7","[[1,2,0],[3,0],[0]]","13","0","","","","","","4","","","","","","","","",""
"","","","","","single-stim-button","237","669100","0.0-2.0-50.7-0.7","62c44d672834a5c5ce7362f1","D2","batch4","","9175","tol_tohand","","","","tol_peg_2","9175","9175","0","[[0,0,0],[1,0],[3]]","8","[[1,2,0],[3,0],[0]]","13","0","","","","","","4","","","","","","","","",""
"","","","","","single-stim-button","238","673152","0.0-2.0-50.7-1.7","62c44d672834a5c5ce7362f1","D2","batch4","","4051","tol_toboard","","","","tol_peg_1","4051","4051","0","[[2,0,0],[1,0],[3]]","8","[[1,2,0],[3,0],[0]]","13","0","","","","","","4","","","","","","","","",""
"","","","","","single-stim-button","239","674178","0.0-2.0-50.8-0.8","62c44d672834a5c5ce7362f1","D2","batch4","","1025","tol_tohand","","","","tol_peg_3","1025","1025","0","[[2,0,0],[1,0],[0]]","9","[[1,2,0],[3,0],[0]]","13","0","","","","","","4","","","","","","","","",""
"","","","","","single-stim-button","240","676807","0.0-2.0-50.8-1.8","62c44d672834a5c5ce7362f1","D2","batch4","","2627","tol_toboard","","","","tol_peg_1","2627","2627","0","[[2,3,0],[1,0],[0]]","9","[[1,2,0],[3,0],[0]]","13","0","","","","","","4","","","","","","","","",""
"","","","","","single-stim-button","241","679146","0.0-2.0-50.9-0.9","62c44d672834a5c5ce7362f1","D2","batch4","","2338","tol_tohand","","","","tol_peg_2","2338","2338","0","[[2,3,0],[0,0],[0]]","10","[[1,2,0],[3,0],[0]]","13","0","","","","","","4","","","","","","","","",""
"","","","","","single-stim-button","242","681693","0.0-2.0-50.9-1.9","62c44d672834a5c5ce7362f1","D2","batch4","","2545","tol_toboard","","","","tol_peg_3","2545","2545","0","[[2,3,0],[0,0],[1]]","10","[[1,2,0],[3,0],[0]]","13","0","","","","","","4","","","","","","","","",""
"","","","","","single-stim-button","243","682527","0.0-2.0-50.10-0.10","62c44d672834a5c5ce7362f1","D2","batch4","","832","tol_tohand","","","","tol_peg_1","832","832","0","[[2,0,0],[0,0],[1]]","11","[[1,2,0],[3,0],[0]]","13","0","","","","","","4","","","","","","","","",""
"","","","","","single-stim-button","244","683479","0.0-2.0-50.10-1.10","62c44d672834a5c5ce7362f1","D2","batch4","","952","tol_toboard","","","","tol_peg_2","952","952","0","[[2,0,0],[3,0],[1]]","11","[[1,2,0],[3,0],[0]]","13","0","","","","","","4","","","","","","","","",""
"","","","","","single-stim-button","245","686709","0.0-2.0-50.11-0.11","62c44d672834a5c5ce7362f1","D2","batch4","","3228","tol_tohand","","","","tol_peg_1","3228","3228","0","[[0,0,0],[3,0],[1]]","12","[[1,2,0],[3,0],[0]]","13","0","","","","","","4","","","","","","","","",""
"","","","","","single-stim-button","246","687499","0.0-2.0-50.11-1.11","62c44d672834a5c5ce7362f1","D2","batch4","","788","tol_toboard","","","","tol_peg_2","788","788","0","[[0,0,0],[3,2],[1]]","12","[[1,2,0],[3,0],[0]]","13","0","","","","","","4","","","","","","","","",""
"","","","","","single-stim-button","247","688015","0.0-2.0-50.12-0.12","62c44d672834a5c5ce7362f1","D2","batch4","","515","tol_tohand","","","","tol_peg_3","515","515","0","[[0,0,0],[3,2],[0]]","13","[[1,2,0],[3,0],[0]]","13","0","","","","","","4","","","","","","","","",""
"","","","","","single-stim-button","248","688666","0.0-2.0-50.12-1.12","62c44d672834a5c5ce7362f1","D2","batch4","","651","tol_toboard","","","","tol_peg_1","651","651","0","[[1,0,0],[3,2],[0]]","13","[[1,2,0],[3,0],[0]]","13","0","","","","","","4","","","","","","","","",""
"","","","","","single-stim-button","249","689412","0.0-2.0-50.13-0.13","62c44d672834a5c5ce7362f1","D2","batch4","","745","tol_tohand","","","","tol_peg_2","745","745","0","[[1,0,0],[3,0],[0]]","14","[[1,2,0],[3,0],[0]]","13","0","","","","","","4","","","","","","","","",""
"","","","","","single-stim-button","250","690111","0.0-2.0-50.13-1.13","62c44d672834a5c5ce7362f1","D2","batch4","","698","tol_toboard","","","","tol_peg_1","698","698","0","[[1,2,0],[3,0],[0]]","14","[[1,2,0],[3,0],[0]]","13","0","","","","","","4","","","","","","","","",""
"","","","","","poldrack-single-stim","251","691127","0.0-2.0-51.0","62c44d672834a5c5ce7362f1","D2","batch4","","-1","tol_feedback","","","true","","1000","1000","500","","","","","","-1","none","true","6767","47138","","","","","","","","","",""
"","","","","","html-button-response","252","692599","0.0-2.0-52.0","62c44d672834a5c5ce7362f1","D2","batch4","","1470.2999999523163","tol_trial_num","<div class = centerbox><p class = center-block-text>problem <strong>15</strong> out of 25 problems</p></div>","0","","","","","","","","","","","","","","","","","","","","","","","","",""
"","","","","","single-stim-button","253","698186","0.0-2.0-53.0-0.0","62c44d672834a5c5ce7362f1","D2","batch4","","5587","tol_tohand","","","","tol_peg_1","5587","5587","0","[[1,0,0],[3,0],[0]]","1","[[2,0,0],[3,0],[1]]","14","0","","","","","","3","","","","","","","","",""
"","","","","","single-stim-button","254","698958","0.0-2.0-53.0-1.0","62c44d672834a5c5ce7362f1","D2","batch4","","771","tol_toboard","","","","tol_peg_2","771","771","0","[[1,0,0],[3,2],[0]]","1","[[2,0,0],[3,0],[1]]","14","0","","","","","","3","","","","","","","","",""
"","","","","","single-stim-button","255","699624","0.0-2.0-53.1-0.1","62c44d672834a5c5ce7362f1","D2","batch4","","665","tol_tohand","","","","tol_peg_1","665","665","0","[[0,0,0],[3,2],[0]]","2","[[2,0,0],[3,0],[1]]","14","0","","","","","","3","","","","","","","","",""
"","","","","","single-stim-button","256","700448","0.0-2.0-53.1-1.1","62c44d672834a5c5ce7362f1","D2","batch4","","823","tol_toboard","","","","tol_peg_3","823","823","0","[[0,0,0],[3,2],[1]]","2","[[2,0,0],[3,0],[1]]","14","0","","","","","","3","","","","","","","","",""
"","","","","","single-stim-button","257","701019","0.0-2.0-53.2-0.2","62c44d672834a5c5ce7362f1","D2","batch4","","569","tol_tohand","","","","tol_peg_2","569","569","0","[[0,0,0],[3,0],[1]]","3","[[2,0,0],[3,0],[1]]","14","0","","","","","","3","","","","","","","","",""
"","","","","","single-stim-button","258","701685","0.0-2.0-53.2-1.2","62c44d672834a5c5ce7362f1","D2","batch4","","665","tol_toboard","","","","tol_peg_1","665","665","0","[[2,0,0],[3,0],[1]]","3","[[2,0,0],[3,0],[1]]","14","0","","","","","","3","","","","","","","","",""
"","","","","","poldrack-single-stim","259","702687","0.0-2.0-54.0","62c44d672834a5c5ce7362f1","D2","batch4","","-1","tol_feedback","","","true","","1000","1000","500","","","","","","-1","none","true","5587","6821","","","","","","","","","",""
"","","","","","html-button-response","260","703762","0.0-2.0-55.0","62c44d672834a5c5ce7362f1","D2","batch4","","1074.8999999761581","tol_trial_num","<div class = centerbox><p class = center-block-text>problem <strong>16</strong> out of 25 problems</p></div>","0","","","","","","","","","","","","","","","","","","","","","","","","",""
"","","","","","single-stim-button","261","712605","0.0-2.0-56.0-0.0","62c44d672834a5c5ce7362f1","D2","batch4","","8841","tol_tohand","","","","tol_peg_3","8841","8841","0","[[0,0,0],[2,3],[0]]","1","[[2,3,0],[1,0],[0]]","15","0","","","","","","7","","","","","","","","",""
"","","","","","single-stim-button","262","714026","0.0-2.0-56.0-1.0","62c44d672834a5c5ce7362f1","D2","batch4","","1420","tol_toboard","","","","tol_peg_1","1420","1420","0","[[1,0,0],[2,3],[0]]","1","[[2,3,0],[1,0],[0]]","15","0","","","","","","7","","","","","","","","",""
"","","","","","single-stim-button","263","719654","0.0-2.0-56.1-0.1","62c44d672834a5c5ce7362f1","D2","batch4","","5627","tol_tohand","","","","tol_peg_2","5627","5627","0","[[1,0,0],[2,0],[0]]","2","[[2,3,0],[1,0],[0]]","15","0","","","","","","7","","","","","","","","",""
"","","","","","single-stim-button","264","724379","0.0-2.0-56.1-1.1","62c44d672834a5c5ce7362f1","D2","batch4","","4724","tol_toboard","","","","tol_peg_1","4724","4724","0","[[1,3,0],[2,0],[0]]","2","[[2,3,0],[1,0],[0]]","15","0","","","","","","7","","","","","","","","",""
"","","","","","single-stim-button","265","728303","0.0-2.0-56.2-0.2","62c44d672834a5c5ce7362f1","D2","batch4","","3923","tol_tohand","","","","tol_peg_2","3923","3923","0","[[1,3,0],[0,0],[0]]","3","[[2,3,0],[1,0],[0]]","15","0","","","","","","7","","","","","","","","",""
"","","","","","single-stim-button","266","729057","0.0-2.0-56.2-1.2","62c44d672834a5c5ce7362f1","D2","batch4","","752","tol_toboard","","","","tol_peg_1","752","752","0","[[1,3,2],[0,0],[0]]","3","[[2,3,0],[1,0],[0]]","15","0","","","","","","7","","","","","","","","",""
"","","","","","single-stim-button","267","732200","0.0-2.0-56.3-0.3","62c44d672834a5c5ce7362f1","D2","batch4","","3143","tol_tohand","","","","tol_peg_1","3143","3143","0","[[1,3,0],[0,0],[0]]","4","[[2,3,0],[1,0],[0]]","15","0","","","","","","7","","","","","","","","",""
"","","","","","single-stim-button","268","733217","0.0-2.0-56.3-1.3","62c44d672834a5c5ce7362f1","D2","batch4","","1016","tol_toboard","","","","tol_peg_3","1016","1016","0","[[1,3,0],[0,0],[2]]","4","[[2,3,0],[1,0],[0]]","15","0","","","","","","7","","","","","","","","",""
"","","","","","single-stim-button","269","736203","0.0-2.0-56.4-0.4","62c44d672834a5c5ce7362f1","D2","batch4","","2985","tol_tohand","","","","tol_peg_1","2985","2985","0","[[1,0,0],[0,0],[2]]","5","[[2,3,0],[1,0],[0]]","15","0","","","","","","7","","","","","","","","",""
"","","","","","single-stim-button","270","738613","0.0-2.0-56.4-1.4","62c44d672834a5c5ce7362f1","D2","batch4","","2409","tol_toboard","","","","tol_peg_2","2409","2409","0","[[1,0,0],[3,0],[2]]","5","[[2,3,0],[1,0],[0]]","15","0","","","","","","7","","","","","","","","",""
"","","","","","single-stim-button","271","739375","0.0-2.0-56.5-0.5","62c44d672834a5c5ce7362f1","D2","batch4","","761","tol_tohand","","","","tol_peg_1","761","761","0","[[0,0,0],[3,0],[2]]","6","[[2,3,0],[1,0],[0]]","15","0","","","","","","7","","","","","","","","",""
"","","","","","single-stim-button","272","740147","0.0-2.0-56.5-1.5","62c44d672834a5c5ce7362f1","D2","batch4","","771","tol_toboard","","","","tol_peg_2","771","771","0","[[0,0,0],[3,1],[2]]","6","[[2,3,0],[1,0],[0]]","15","0","","","","","","7","","","","","","","","",""
"","","","","","single-stim-button","273","742580","0.0-2.0-56.6-0.6","62c44d672834a5c5ce7362f1","D2","batch4","","2432","tol_tohand","","","","tol_peg_3","2432","2432","0","[[0,0,0],[3,1],[0]]","7","[[2,3,0],[1,0],[0]]","15","0","","","","","","7","","","","","","","","",""
"","","","","","single-stim-button","274","743542","0.0-2.0-56.6-1.6","62c44d672834a5c5ce7362f1","D2","batch4","","961","tol_toboard","","","","tol_peg_1","961","961","0","[[2,0,0],[3,1],[0]]","7","[[2,3,0],[1,0],[0]]","15","0","","","","","","7","","","","","","","","",""
"","","","","","single-stim-button","275","744625","0.0-2.0-56.7-0.7","62c44d672834a5c5ce7362f1","D2","batch4","","1082","tol_tohand","","","","tol_peg_2","1082","1082","0","[[2,0,0],[3,0],[0]]","8","[[2,3,0],[1,0],[0]]","15","0","","","","","","7","","","","","","","","",""
"","","","","","single-stim-button","276","745343","0.0-2.0-56.7-1.7","62c44d672834a5c5ce7362f1","D2","batch4","","718","tol_toboard","","","","tol_peg_3","718","718","0","[[2,0,0],[3,0],[1]]","8","[[2,3,0],[1,0],[0]]","15","0","","","","","","7","","","","","","","","",""
"","","","","","single-stim-button","277","745873","0.0-2.0-56.8-0.8","62c44d672834a5c5ce7362f1","D2","batch4","","528","tol_tohand","","","","tol_peg_2","528","528","0","[[2,0,0],[0,0],[1]]","9","[[2,3,0],[1,0],[0]]","15","0","","","","","","7","","","","","","","","",""
"","","","","","single-stim-button","278","746488","0.0-2.0-56.8-1.8","62c44d672834a5c5ce7362f1","D2","batch4","","615","tol_toboard","","","","tol_peg_1","615","615","0","[[2,3,0],[0,0],[1]]","9","[[2,3,0],[1,0],[0]]","15","0","","","","","","7","","","","","","","","",""
"","","","","","single-stim-button","279","747205","0.0-2.0-56.9-0.9","62c44d672834a5c5ce7362f1","D2","batch4","","716","tol_tohand","","","","tol_peg_3","716","716","0","[[2,3,0],[0,0],[0]]","10","[[2,3,0],[1,0],[0]]","15","0","","","","","","7","","","","","","","","",""
"","","","","","single-stim-button","280","747722","0.0-2.0-56.9-1.9","62c44d672834a5c5ce7362f1","D2","batch4","","516","tol_toboard","","","","tol_peg_2","516","516","0","[[2,3,0],[1,0],[0]]","10","[[2,3,0],[1,0],[0]]","15","0","","","","","","7","","","","","","","","",""
"","","","","","poldrack-single-stim","281","748724","0.0-2.0-57.0","62c44d672834a5c5ce7362f1","D2","batch4","","-1","tol_feedback","","","true","","1000","1000","500","","","","","","-1","none","true","8841","30038","","","","","","","","","",""
"","","","","","html-button-response","282","750432","0.0-2.0-58.0","62c44d672834a5c5ce7362f1","D2","batch4","","1707.5","tol_trial_num","<div class = centerbox><p class = center-block-text>problem <strong>17</strong> out of 25 problems</p></div>","0","","","","","","","","","","","","","","","","","","","","","","","","",""
"","","","","","single-stim-button","283","760634","0.0-2.0-59.0-0.0","62c44d672834a5c5ce7362f1","D2","batch4","","10201","tol_tohand","","","","tol_peg_1","10201","10201","0","[[1,0,0],[3,0],[0]]","1","[[3,1,0],[2,0],[0]]","16","0","","","","","","5","","","","","","","","",""
"","","","","","single-stim-button","284","763233","0.0-2.0-59.0-1.0","62c44d672834a5c5ce7362f1","D2","batch4","","2597","tol_toboard","","","","tol_peg_3","2597","2597","0","[[1,0,0],[3,0],[2]]","1","[[3,1,0],[2,0],[0]]","16","0","","","","","","5","","","","","","","","",""
"","","","","","single-stim-button","285","770266","0.0-2.0-59.1-0.1","62c44d672834a5c5ce7362f1","D2","batch4","","7033","tol_tohand","","","","tol_peg_2","7033","7033","0","[[1,0,0],[0,0],[2]]","2","[[3,1,0],[2,0],[0]]","16","0","","","","","","5","","","","","","","","",""
"","","","","","single-stim-button","286","770943","0.0-2.0-59.1-1.1","62c44d672834a5c5ce7362f1","D2","batch4","","676","tol_toboard","","","","tol_peg_1","676","676","0","[[1,3,0],[0,0],[2]]","2","[[3,1,0],[2,0],[0]]","16","0","","","","","","5","","","","","","","","",""
"","","","","","single-stim-button","287","781171","0.0-2.0-59.2-0.2","62c44d672834a5c5ce7362f1","D2","batch4","","10227","tol_tohand","","","","tol_peg_3","10227","10227","0","[[1,3,0],[0,0],[0]]","3","[[3,1,0],[2,0],[0]]","16","0","","","","","","5","","","","","","","","",""
"","","","","","single-stim-button","288","781731","0.0-2.0-59.2-1.2","62c44d672834a5c5ce7362f1","D2","batch4","","558","tol_toboard","","","","tol_peg_2","558","558","0","[[1,3,0],[2,0],[0]]","3","[[3,1,0],[2,0],[0]]","16","0","","","","","","5","","","","","","","","",""
"","","","","","single-stim-button","289","782257","0.0-2.0-59.3-0.3","62c44d672834a5c5ce7362f1","D2","batch4","","525","tol_tohand","","","","tol_peg_1","525","525","0","[[1,0,0],[2,0],[0]]","4","[[3,1,0],[2,0],[0]]","16","0","","","","","","5","","","","","","","","",""
"","","","","","single-stim-button","290","782845","0.0-2.0-59.3-1.3","62c44d672834a5c5ce7362f1","D2","batch4","","587","tol_toboard","","","","tol_peg_3","587","587","0","[[1,0,0],[2,0],[3]]","4","[[3,1,0],[2,0],[0]]","16","0","","","","","","5","","","","","","","","",""
"","","","","","single-stim-button","291","783758","0.0-2.0-59.4-0.4","62c44d672834a5c5ce7362f1","D2","batch4","","913","tol_tohand","","","","tol_peg_1","913","913","0","[[0,0,0],[2,0],[3]]","5","[[3,1,0],[2,0],[0]]","16","0","","","","","","5","","","","","","","","",""
"","","","","","single-stim-button","292","786724","0.0-2.0-59.4-1.4","62c44d672834a5c5ce7362f1","D2","batch4","","2965","tol_toboard","","","","tol_peg_2","2965","2965","0","[[0,0,0],[2,1],[3]]","5","[[3,1,0],[2,0],[0]]","16","0","","","","","","5","","","","","","","","",""
"","","","","","single-stim-button","293","787297","0.0-2.0-59.5-0.5","62c44d672834a5c5ce7362f1","D2","batch4","","571","tol_tohand","","","","tol_peg_3","571","571","0","[[0,0,0],[2,1],[0]]","6","[[3,1,0],[2,0],[0]]","16","0","","","","","","5","","","","","","","","",""
"","","","","","single-stim-button","294","787977","0.0-2.0-59.5-1.5","62c44d672834a5c5ce7362f1","D2","batch4","","680","tol_toboard","","","","tol_peg_1","680","680","0","[[3,0,0],[2,1],[0]]","6","[[3,1,0],[2,0],[0]]","16","0","","","","","","5","","","","","","","","",""
"","","","","","single-stim-button","295","788497","0.0-2.0-59.6-0.6","62c44d672834a5c5ce7362f1","D2","batch4","","518","tol_tohand","","","","tol_peg_2","518","518","0","[[3,0,0],[2,0],[0]]","7","[[3,1,0],[2,0],[0]]","16","0","","","","","","5","","","","","","","","",""
"","","","","","single-stim-button","296","789013","0.0-2.0-59.6-1.6","62c44d672834a5c5ce7362f1","D2","batch4","","514","tol_toboard","","","","tol_peg_1","514","514","0","[[3,1,0],[2,0],[0]]","7","[[3,1,0],[2,0],[0]]","16","0","","","","","","5","","","","","","","","",""
"","","","","","poldrack-single-stim","297","790015","0.0-2.0-60.0","62c44d672834a5c5ce7362f1","D2","batch4","","-1","tol_feedback","","","true","","1000","1000","500","","","","","","-1","none","true","10201","29988","","","","","","","","","",""
"","","","","","html-button-response","298","790948","0.0-2.0-61.0","62c44d672834a5c5ce7362f1","D2","batch4","","932.2000000476837","tol_trial_num","<div class = centerbox><p class = center-block-text>problem <strong>18</strong> out of 25 problems</p></div>","0","","","","","","","","","","","","","","","","","","","","","","","","",""
"","","","","","single-stim-button","299","794836","0.0-2.0-62.0-0.0","62c44d672834a5c5ce7362f1","D2","batch4","","3887","tol_tohand","","","","tol_peg_1","3887","3887","0","[[1,0,0],[3,0],[0]]","1","[[3,0,0],[2,0],[1]]","17","0","","","","","","5","","","","","","","","",""
"","","","","","single-stim-button","300","797867","0.0-2.0-62.0-1.0","62c44d672834a5c5ce7362f1","D2","batch4","","3030","tol_toboard","","","","tol_peg_3","3030","3030","0","[[1,0,0],[3,0],[2]]","1","[[3,0,0],[2,0],[1]]","17","0","","","","","","5","","","","","","","","",""
"","","","","","single-stim-button","301","806129","0.0-2.0-62.1-0.1","62c44d672834a5c5ce7362f1","D2","batch4","","8261","tol_tohand","","","","tol_peg_1","8261","8261","0","[[0,0,0],[3,0],[2]]","2","[[3,0,0],[2,0],[1]]","17","0","","","","","","5","","","","","","","","",""
"","","","","","single-stim-button","302","816173","0.0-2.0-62.1-1.1","62c44d672834a5c5ce7362f1","D2","batch4","","10043","tol_toboard","","","","tol_peg_1","10043","10043","0","[[1,0,0],[3,0],[2]]","2","[[3,0,0],[2,0],[1]]","17","0","","","","","","5","","","","","","","","",""
"","","","","","single-stim-button","303","816730","0.0-2.0-62.2-0.2","62c44d672834a5c5ce7362f1","D2","batch4","","556","tol_tohand","","","","tol_peg_2","556","556","0","[[1,0,0],[0,0],[2]]","3","[[3,0,0],[2,0],[1]]","17","0","","","","","","5","","","","","","","","",""
"","","","","","single-stim-button","304","817300","0.0-2.0-62.2-1.2","62c44d672834a5c5ce7362f1","D2","batch4","","569","tol_toboard","","","","tol_peg_1","569","569","0","[[1,3,0],[0,0],[2]]","3","[[3,0,0],[2,0],[1]]","17","0","","","","","","5","","","","","","","","",""
"","","","","","single-stim-button","305","818300","0.0-2.0-62.3-0.3","62c44d672834a5c5ce7362f1","D2","batch4","","999","tol_tohand","","","","tol_peg_3","999","999","0","[[1,3,0],[0,0],[0]]","4","[[3,0,0],[2,0],[1]]","17","0","","","","","","5","","","","","","","","",""
"","","","","","single-stim-button","306","819163","0.0-2.0-62.3-1.3","62c44d672834a5c5ce7362f1","D2","batch4","","862","tol_toboard","","","","tol_peg_2","862","862","0","[[1,3,0],[2,0],[0]]","4","[[3,0,0],[2,0],[1]]","17","0","","","","","","5","","","","","","","","",""
"","","","","","single-stim-button","307","824469","0.0-2.0-62.4-0.4","62c44d672834a5c5ce7362f1","D2","batch4","","5304","tol_tohand","","","","tol_peg_1","5304","5304","0","[[1,0,0],[2,0],[0]]","5","[[3,0,0],[2,0],[1]]","17","0","","","","","","5","","","","","","","","",""
"","","","","","single-stim-button","308","825225","0.0-2.0-62.4-1.4","62c44d672834a5c5ce7362f1","D2","batch4","","756","tol_toboard","","","","tol_peg_2","756","756","0","[[1,0,0],[2,3],[0]]","5","[[3,0,0],[2,0],[1]]","17","0","","","","","","5","","","","","","","","",""
"","","","","","single-stim-button","309","825887","0.0-2.0-62.5-0.5","62c44d672834a5c5ce7362f1","D2","batch4","","661","tol_tohand","","","","tol_peg_1","661","661","0","[[0,0,0],[2,3],[0]]","6","[[3,0,0],[2,0],[1]]","17","0","","","","","","5","","","","","","","","",""
"","","","","","single-stim-button","310","826771","0.0-2.0-62.5-1.5","62c44d672834a5c5ce7362f1","D2","batch4","","883","tol_toboard","","","","tol_peg_3","883","883","0","[[0,0,0],[2,3],[1]]","6","[[3,0,0],[2,0],[1]]","17","0","","","","","","5","","","","","","","","",""
"","","","","","single-stim-button","311","827377","0.0-2.0-62.6-0.6","62c44d672834a5c5ce7362f1","D2","batch4","","605","tol_tohand","","","","tol_peg_2","605","605","0","[[0,0,0],[2,0],[1]]","7","[[3,0,0],[2,0],[1]]","17","0","","","","","","5","","","","","","","","",""
"","","","","","single-stim-button","312","827973","0.0-2.0-62.6-1.6","62c44d672834a5c5ce7362f1","D2","batch4","","595","tol_toboard","","","","tol_peg_1","595","595","0","[[3,0,0],[2,0],[1]]","7","[[3,0,0],[2,0],[1]]","17","0","","","","","","5","","","","","","","","",""
"","","","","","poldrack-single-stim","313","828976","0.0-2.0-63.0","62c44d672834a5c5ce7362f1","D2","batch4","","-1","tol_feedback","","","true","","1000","1000","500","","","","","","-1","none","true","3887","20273","","","","","","","","","",""
"","","","","","html-button-response","314","830026","0.0-2.0-64.0","62c44d672834a5c5ce7362f1","D2","batch4","","1049.6000000238419","tol_trial_num","<div class = centerbox><p class = center-block-text>problem <strong>19</strong> out of 25 problems</p></div>","0","","","","","","","","","","","","","","","","","","","","","","","","",""
"","","","","","single-stim-button","315","841082","0.0-2.0-65.0-0.0","62c44d672834a5c5ce7362f1","D2","batch4","","11055","tol_tohand","","","","tol_peg_1","11055","11055","0","[[1,0,0],[3,0],[0]]","1","[[0,0,0],[1,2],[3]]","18","0","","","","","","7","","","","","","","","",""
"","","","","","single-stim-button","316","845108","0.0-2.0-65.0-1.0","62c44d672834a5c5ce7362f1","D2","batch4","","4025","tol_toboard","","","","tol_peg_2","4025","4025","0","[[1,0,0],[3,2],[0]]","1","[[0,0,0],[1,2],[3]]","18","0","","","","","","7","","","","","","","","",""
"","","","","","single-stim-button","317","850066","0.0-2.0-65.1-0.1","62c44d672834a5c5ce7362f1","D2","batch4","","4958","tol_tohand","","","","tol_peg_1","4958","4958","0","[[0,0,0],[3,2],[0]]","2","[[0,0,0],[1,2],[3]]","18","0","","","","","","7","","","","","","","","",""
"","","","","","single-stim-button","318","851280","0.0-2.0-65.1-1.1","62c44d672834a5c5ce7362f1","D2","batch4","","1213","tol_toboard","","","","tol_peg_3","1213","1213","0","[[0,0,0],[3,2],[1]]","2","[[0,0,0],[1,2],[3]]","18","0","","","","","","7","","","","","","","","",""
"","","","","","single-stim-button","319","854581","0.0-2.0-65.2-0.2","62c44d672834a5c5ce7362f1","D2","batch4","","3299","tol_tohand","","","","tol_peg_2","3299","3299","0","[[0,0,0],[3,0],[1]]","3","[[0,0,0],[1,2],[3]]","18","0","","","","","","7","","","","","","","","",""
"","","","","","single-stim-button","320","857810","0.0-2.0-65.2-1.2","62c44d672834a5c5ce7362f1","D2","batch4","","3228","tol_toboard","","","","tol_peg_1","3228","3228","0","[[2,0,0],[3,0],[1]]","3","[[0,0,0],[1,2],[3]]","18","0","","","","","","7","","","","","","","","",""
"","","","","","single-stim-button","321","865272","0.0-2.0-65.3-0.3","62c44d672834a5c5ce7362f1","D2","batch4","","7459","tol_tohand","","","","tol_peg_3","7459","7459","0","[[2,0,0],[3,0],[0]]","4","[[0,0,0],[1,2],[3]]","18","0","","","","","","7","","","","","","","","",""
"","","","","","single-stim-button","322","867244","0.0-2.0-65.3-1.3","62c44d672834a5c5ce7362f1","D2","batch4","","1972","tol_toboard","","","","tol_peg_3","1972","1972","0","[[2,0,0],[3,0],[1]]","4","[[0,0,0],[1,2],[3]]","18","0","","","","","","7","","","","","","","","",""
"","","","","","single-stim-button","323","872378","0.0-2.0-65.4-0.4","62c44d672834a5c5ce7362f1","D2","batch4","","5134","tol_tohand","","","","tol_peg_3","5134","5134","0","[[2,0,0],[3,0],[0]]","5","[[0,0,0],[1,2],[3]]","18","0","","","","","","7","","","","","","","","",""
"","","","","","single-stim-button","324","873920","0.0-2.0-65.4-1.4","62c44d672834a5c5ce7362f1","D2","batch4","","1540","tol_toboard","","","","tol_peg_1","1540","1540","0","[[2,1,0],[3,0],[0]]","5","[[0,0,0],[1,2],[3]]","18","0","","","","","","7","","","","","","","","",""
"","","","","","single-stim-button","325","874399","0.0-2.0-65.5-0.5","62c44d672834a5c5ce7362f1","D2","batch4","","479","tol_tohand","","","","tol_peg_2","479","479","0","[[2,1,0],[0,0],[0]]","6","[[0,0,0],[1,2],[3]]","18","0","","","","","","7","","","","","","","","",""
"","","","","","single-stim-button","326","875058","0.0-2.0-65.5-1.5","62c44d672834a5c5ce7362f1","D2","batch4","","658","tol_toboard","","","","tol_peg_3","658","658","0","[[2,1,0],[0,0],[3]]","6","[[0,0,0],[1,2],[3]]","18","0","","","","","","7","","","","","","","","",""
"","","","","","single-stim-button","327","877208","0.0-2.0-65.6-0.6","62c44d672834a5c5ce7362f1","D2","batch4","","2149","tol_tohand","","","","tol_peg_1","2149","2149","0","[[2,0,0],[0,0],[3]]","7","[[0,0,0],[1,2],[3]]","18","0","","","","","","7","","","","","","","","",""
"","","","","","single-stim-button","328","878636","0.0-2.0-65.6-1.6","62c44d672834a5c5ce7362f1","D2","batch4","","1427","tol_toboard","","","","tol_peg_2","1427","1427","0","[[2,0,0],[1,0],[3]]","7","[[0,0,0],[1,2],[3]]","18","0","","","","","","7","","","","","","","","",""
"","","","","","single-stim-button","329","884592","0.0-2.0-65.7-0.7","62c44d672834a5c5ce7362f1","D2","batch4","","5956","tol_tohand","","","","tol_peg_3","5956","5956","0","[[2,0,0],[1,0],[0]]","8","[[0,0,0],[1,2],[3]]","18","0","","","","","","7","","","","","","","","",""
"","","","","","single-stim-button","330","885246","0.0-2.0-65.7-1.7","62c44d672834a5c5ce7362f1","D2","batch4","","653","tol_toboard","","","","tol_peg_2","653","653","0","[[2,0,0],[1,3],[0]]","8","[[0,0,0],[1,2],[3]]","18","0","","","","","","7","","","","","","","","",""
"","","","","","single-stim-button","331","885772","0.0-2.0-65.8-0.8","62c44d672834a5c5ce7362f1","D2","batch4","","525","tol_tohand","","","","tol_peg_1","525","525","0","[[0,0,0],[1,3],[0]]","9","[[0,0,0],[1,2],[3]]","18","0","","","","","","7","","","","","","","","",""
"","","","","","single-stim-button","332","886424","0.0-2.0-65.8-1.8","62c44d672834a5c5ce7362f1","D2","batch4","","652","tol_toboard","","","","tol_peg_3","652","652","0","[[0,0,0],[1,3],[2]]","9","[[0,0,0],[1,2],[3]]","18","0","","","","","","7","","","","","","","","",""
"","","","","","single-stim-button","333","890262","0.0-2.0-65.9-0.9","62c44d672834a5c5ce7362f1","D2","batch4","","3837","tol_tohand","","","","tol_peg_2","3837","3837","0","[[0,0,0],[1,0],[2]]","10","[[0,0,0],[1,2],[3]]","18","0","","","","","","7","","","","","","","","",""
"","","","","","single-stim-button","334","891168","0.0-2.0-65.9-1.9","62c44d672834a5c5ce7362f1","D2","batch4","","905","tol_toboard","","","","tol_peg_1","905","905","0","[[3,0,0],[1,0],[2]]","10","[[0,0,0],[1,2],[3]]","18","0","","","","","","7","","","","","","","","",""
"","","","","","single-stim-button","335","895750","0.0-2.0-65.10-0.10","62c44d672834a5c5ce7362f1","D2","batch4","","4581","tol_tohand","","","","tol_peg_3","4581","4581","0","[[3,0,0],[1,0],[0]]","11","[[0,0,0],[1,2],[3]]","18","0","","","","","","7","","","","","","","","",""
"","","","","","single-stim-button","336","896320","0.0-2.0-65.10-1.10","62c44d672834a5c5ce7362f1","D2","batch4","","569","tol_toboard","","","","tol_peg_2","569","569","0","[[3,0,0],[1,2],[0]]","11","[[0,0,0],[1,2],[3]]","18","0","","","","","","7","","","","","","","","",""
"","","","","","single-stim-button","337","896898","0.0-2.0-65.11-0.11","62c44d672834a5c5ce7362f1","D2","batch4","","577","tol_tohand","","","","tol_peg_1","577","577","0","[[0,0,0],[1,2],[0]]","12","[[0,0,0],[1,2],[3]]","18","0","","","","","","7","","","","","","","","",""
"","","","","","single-stim-button","338","897602","0.0-2.0-65.11-1.11","62c44d672834a5c5ce7362f1","D2","batch4","","704","tol_toboard","","","","tol_peg_3","704","704","0","[[0,0,0],[1,2],[3]]","12","[[0,0,0],[1,2],[3]]","18","0","","","","","","7","","","","","","","","",""
"","","","","","poldrack-single-stim","339","898608","0.0-2.0-66.0","62c44d672834a5c5ce7362f1","D2","batch4","","-1","tol_feedback","","","true","","1000","1000","500","","","","","","-1","none","true","11055","50009","","","","","","","","","",""
"","","","","","html-button-response","340","899536","0.0-2.0-67.0","62c44d672834a5c5ce7362f1","D2","batch4","","927","tol_trial_num","<div class = centerbox><p class = center-block-text>problem <strong>20</strong> out of 25 problems</p></div>","0","","","","","","","","","","","","","","","","","","","","","","","","",""
"","","","","","single-stim-button","341","904908","0.0-2.0-68.0-0.0","62c44d672834a5c5ce7362f1","D2","batch4","","5371","tol_tohand","","","","tol_peg_1","5371","5371","0","[[1,0,0],[3,0],[0]]","1","[[2,1,0],[0,0],[3]]","19","0","","","","","","5","","","","","","","","",""
"","","","","","single-stim-button","342","908264","0.0-2.0-68.0-1.0","62c44d672834a5c5ce7362f1","D2","batch4","","3355","tol_toboard","","","","tol_peg_3","3355","3355","0","[[1,0,0],[3,0],[2]]","1","[[2,1,0],[0,0],[3]]","19","0","","","","","","5","","","","","","","","",""
"","","","","","single-stim-button","343","909331","0.0-2.0-68.1-0.1","62c44d672834a5c5ce7362f1","D2","batch4","","1065","tol_tohand","","","","tol_peg_1","1065","1065","0","[[0,0,0],[3,0],[2]]","2","[[2,1,0],[0,0],[3]]","19","0","","","","","","5","","","","","","","","",""
"","","","","","single-stim-button","344","911522","0.0-2.0-68.1-1.1","62c44d672834a5c5ce7362f1","D2","batch4","","2190","tol_toboard","","","","tol_peg_2","2190","2190","0","[[0,0,0],[3,1],[2]]","2","[[2,1,0],[0,0],[3]]","19","0","","","","","","5","","","","","","","","",""
"","","","","","single-stim-button","345","912658","0.0-2.0-68.2-0.2","62c44d672834a5c5ce7362f1","D2","batch4","","1136","tol_tohand","","","","tol_peg_3","1136","1136","0","[[0,0,0],[3,1],[0]]","3","[[2,1,0],[0,0],[3]]","19","0","","","","","","5","","","","","","","","",""
"","","","","","single-stim-button","346","913416","0.0-2.0-68.2-1.2","62c44d672834a5c5ce7362f1","D2","batch4","","756","tol_toboard","","","","tol_peg_1","756","756","0","[[2,0,0],[3,1],[0]]","3","[[2,1,0],[0,0],[3]]","19","0","","","","","","5","","","","","","","","",""
"","","","","","single-stim-button","347","914540","0.0-2.0-68.3-0.3","62c44d672834a5c5ce7362f1","D2","batch4","","1124","tol_tohand","","","","tol_peg_2","1124","1124","0","[[2,0,0],[3,0],[0]]","4","[[2,1,0],[0,0],[3]]","19","0","","","","","","5","","","","","","","","",""
"","","","","","single-stim-button","348","915202","0.0-2.0-68.3-1.3","62c44d672834a5c5ce7362f1","D2","batch4","","661","tol_toboard","","","","tol_peg_1","661","661","0","[[2,1,0],[3,0],[0]]","4","[[2,1,0],[0,0],[3]]","19","0","","","","","","5","","","","","","","","",""
"","","","","","single-stim-button","349","915802","0.0-2.0-68.4-0.4","62c44d672834a5c5ce7362f1","D2","batch4","","599","tol_tohand","","","","tol_peg_2","599","599","0","[[2,1,0],[0,0],[0]]","5","[[2,1,0],[0,0],[3]]","19","0","","","","","","5","","","","","","","","",""
"","","","","","single-stim-button","350","916586","0.0-2.0-68.4-1.4","62c44d672834a5c5ce7362f1","D2","batch4","","782","tol_toboard","","","","tol_peg_3","782","782","0","[[2,1,0],[0,0],[3]]","5","[[2,1,0],[0,0],[3]]","19","0","","","","","","5","","","","","","","","",""
"","","","","","poldrack-single-stim","351","917594","0.0-2.0-69.0","62c44d672834a5c5ce7362f1","D2","batch4","","-1","tol_feedback","","","true","","1000","1000","500","","","","","","-1","none","true","5371","9295","","","","","","","","","",""
"","","","","","html-button-response","352","918620","0.0-2.0-70.0","62c44d672834a5c5ce7362f1","D2","batch4","","1025.1000000238419","tol_trial_num","<div class = centerbox><p class = center-block-text>problem <strong>21</strong> out of 25 problems</p></div>","0","","","","","","","","","","","","","","","","","","","","","","","","",""
"","","","","","single-stim-button","353","922244","0.0-2.0-71.0-0.0","62c44d672834a5c5ce7362f1","D2","batch4","","3624","tol_tohand","","","","tol_peg_1","3624","3624","0","[[1,0,0],[3,0],[0]]","1","[[3,2,0],[0,0],[1]]","20","0","","","","","","6","","","","","","","","",""
"","","","","","single-stim-button","354","923724","0.0-2.0-71.0-1.0","62c44d672834a5c5ce7362f1","D2","batch4","","1478","tol_toboard","","","","tol_peg_3","1478","1478","0","[[1,0,0],[3,0],[2]]","1","[[3,2,0],[0,0],[1]]","20","0","","","","","","6","","","","","","","","",""
"","","","","","single-stim-button","355","931062","0.0-2.0-71.1-0.1","62c44d672834a5c5ce7362f1","D2","batch4","","7338","tol_tohand","","","","tol_peg_1","7338","7338","0","[[0,0,0],[3,0],[2]]","2","[[3,2,0],[0,0],[1]]","20","0","","","","","","6","","","","","","","","",""
