"success","timeout","failed_images","failed_audio","failed_video","trial_type","trial_index","time_elapsed","internal_node_id","subject_id","study_id","session_id","view_history","rt","task","stimulus","response","correct","mouse_click","stim_duration","block_duration","timing_post_trial","current_position","tol_num_moves_made","tol_target","tol_problem_id","tol_rt","key_press","possible_responses","tol_correct","preplanning","tol_rt_per_trial","tol_min_moves","answer","item","fiar_detect_rt","fiar_detect_correct","total_correct_fiar_detect","post_trial_gap","choices","spm_correct","spm_rt"
"true","false","[]","[]","[]","preload","0","27434","0.0-0.0","62c41fe598ab94de4d4f021e","B2","batch2","","","","","","","","","","","","","","","","","","","","","","","","","","","","","",""
"true","","","","","fullscreen","1","81115","0.0-1.0-0.0","62c41fe598ab94de4d4f021e","B2","batch2","","","","","","","","","","","","","","","","","","","","","","","","","","","","","",""
"true","","","","","fullscreen","2","83315","0.0-2.0-0.0","62c41fe598ab94de4d4f021e","B2","batch2","","","","","","","","","","","","","","","","","","","","","","","","","","","","","",""
"","","","","","instructions","3","238432","0.0-2.0-1.0-0.0-0.0","62c41fe598ab94de4d4f021e","B2","batch2","[{""page_index"":0,""viewing_time"":32564.600000023842},{""page_index"":1,""viewing_time"":9095.799999982119},{""page_index"":2,""viewing_time"":11016},{""page_index"":3,""viewing_time"":17415.90000000596},{""page_index"":4,""viewing_time"":16551.69999998808},{""page_index"":5,""viewing_time"":30232},{""page_index"":6,""viewing_time"":38239.60000002384}]","155116","tol-instructions","","","","","","","","","","","","","","","","","","","","","","","","","","",""
"","","","","","html-button-response","4","240825","0.0-2.0-1.0-1.0-0.0","62c41fe598ab94de4d4f021e","B2","batch2","","2391","tol_enter_quiz","<p class=block-text> Let's answer a few questions <br>","0","","","","","","","","","","","","","","","","","","","","","","","","",""
"","","","","","html-button-response","5","262656","0.0-2.0-1.0-1.0-1.0","62c41fe598ab94de4d4f021e","B2","batch2","","21830.399999976158","tol_quiz","<p class = block-text>True or False: You can only move the ball on top of a peg. <br></p>","0","true","","","","","","","","","","","","","","","","","","","","","","","",""
"","","","","","html-button-response","6","263784","0.0-2.0-1.0-1.0-2.0","62c41fe598ab94de4d4f021e","B2","batch2","","1126.4000000059605","tol_quiz_feedback","<p class = block-text>Correct! You can only move the ball on top of a peg.</p>","0","","","","","","","","","","","","","","","","","","","","","","","","",""
"","","","","","html-button-response","7","268536","0.0-2.0-1.0-1.0-3.0","62c41fe598ab94de4d4f021e","B2","batch2","","4751.299999982119","tol_quiz","<p class = block-text>True or False: You should try to match your board with the target board with fewest moves possible. <br></p>","0","true","","","","","","","","","","","","","","","","","","","","","","","",""
"","","","","","html-button-response","8","269152","0.0-2.0-1.0-1.0-4.0","62c41fe598ab94de4d4f021e","B2","batch2","","614.8000000119209","tol_quiz_feedback","<p class = block-text>Correct! </p>","0","","","","","","","","","","","","","","","","","","","","","","","","",""
"","","","","","html-button-response","9","271768","0.0-2.0-2.0","62c41fe598ab94de4d4f021e","B2","batch2","","2614.699999988079","","<p class=block-text> Now that you've understood the game, let's practice a few easier examples before we start!<br> <br>","0","","","","","","","","","","","","","","","","","","","","","","","","",""
"","","","","","single-stim-button","10","273609","0.0-2.0-3.0-0.0","62c41fe598ab94de4d4f021e","B2","batch2","","1839","tol_practice","","","","tol_peg_2","1839","1839","0","[[1,2,0],[0,0],[0]]","1","[[1,2,0],[0,0],[3]]","practice","1839","","","","","","","","","","","","","","",""
"","","","","","single-stim-button","11","274336","0.0-2.0-3.0-1.0","62c41fe598ab94de4d4f021e","B2","batch2","","726","tol_practice","","","","tol_peg_3","726","726","0","[[1,2,0],[0,0],[3]]","1","[[1,2,0],[0,0],[3]]","practice","726","","","","","","","","","","","","","","",""
"","","","","","poldrack-single-stim","12","275338","0.0-2.0-4.0","62c41fe598ab94de4d4f021e","B2","batch2","","-1","tol_feedback","","","true","","1000","1000","500","","","","","","-1","none","true","","0","","","","","","","","","",""
"","","","","","single-stim-button","13","279688","0.0-2.0-5.0-0.0","62c41fe598ab94de4d4f021e","B2","batch2","","4349","tol_practice","","","","tol_peg_1","4349","4349","0","[[1,0,0],[3,0],[0]]","2","[[0,0,0],[3,1],[2]]","practice","4349","","","","","","","","","","","","","","",""
"","","","","","single-stim-button","14","280640","0.0-2.0-5.0-1.0","62c41fe598ab94de4d4f021e","B2","batch2","","951","tol_practice","","","","tol_peg_3","951","951","0","[[1,0,0],[3,0],[2]]","2","[[0,0,0],[3,1],[2]]","practice","951","","","","","","","","","","","","","","",""
"","","","","","single-stim-button","15","281312","0.0-2.0-5.1-0.1","62c41fe598ab94de4d4f021e","B2","batch2","","671","tol_practice","","","","tol_peg_1","671","671","0","[[0,0,0],[3,0],[2]]","3","[[0,0,0],[3,1],[2]]","practice","671","","","","","","","","","","","","","","",""
"","","","","","single-stim-button","16","281880","0.0-2.0-5.1-1.1","62c41fe598ab94de4d4f021e","B2","batch2","","568","tol_practice","","","","tol_peg_2","568","568","0","[[0,0,0],[3,1],[2]]","3","[[0,0,0],[3,1],[2]]","practice","568","","","","","","","","","","","","","","",""
"","","","","","poldrack-single-stim","17","282893","0.0-2.0-6.0","62c41fe598ab94de4d4f021e","B2","batch2","","-1","tol_feedback","","","true","","1000","1000","500","","","","","","-1","none","true","","0","","","","","","","","","",""
"","","","","","single-stim-button","18","284832","0.0-2.0-7.0-0.0","62c41fe598ab94de4d4f021e","B2","batch2","","1938","tol_practice","","","","tol_peg_2","1938","1938","0","[[1,2,0],[0,0],[0]]","4","[[1,0,0],[2,0],[3]]","practice","1938","","","","","","","","","","","","","","",""
"","","","","","single-stim-button","19","285496","0.0-2.0-7.0-1.0","62c41fe598ab94de4d4f021e","B2","batch2","","663","tol_practice","","","","tol_peg_3","663","663","0","[[1,2,0],[0,0],[3]]","4","[[1,0,0],[2,0],[3]]","practice","663","","","","","","","","","","","","","","",""
"","","","","","single-stim-button","20","286376","0.0-2.0-7.1-0.1","62c41fe598ab94de4d4f021e","B2","batch2","","880","tol_practice","","","","tol_peg_1","880","880","0","[[1,0,0],[0,0],[3]]","5","[[1,0,0],[2,0],[3]]","practice","880","","","","","","","","","","","","","","",""
"","","","","","single-stim-button","21","287288","0.0-2.0-7.1-1.1","62c41fe598ab94de4d4f021e","B2","batch2","","912","tol_practice","","","","tol_peg_2","912","912","0","[[1,0,0],[2,0],[3]]","5","[[1,0,0],[2,0],[3]]","practice","912","","","","","","","","","","","","","","",""
"","","","","","poldrack-single-stim","22","288294","0.0-2.0-8.0","62c41fe598ab94de4d4f021e","B2","batch2","","-1","tol_feedback","","","true","","1000","1000","500","","","","","","-1","none","true","","0","","","","","","","","","",""
"","","","","","html-button-response","23","295864","0.0-2.0-9.0","62c41fe598ab94de4d4f021e","B2","batch2","","7568.5","tol_instruction","<div class = centerbox><p class = center-block-text>Great job! You are done with practice trials<br>You are about to start official trials.<br> <br> Problem <strong>1</strong> out of 25 problems</p></div>","0","","","","","","","","","","","","","","","","","","","","","","","","",""
"","","","","","single-stim-button","24","299648","0.0-2.0-10.0-0.0","62c41fe598ab94de4d4f021e","B2","batch2","","2782","tol_tohand","","","","tol_peg_1","2782","2782","0","[[1,0,0],[3,0],[0]]","1","[[1,3,0],[2,0],[0]]","0","0","","","","","","3","","","","","","","","",""
"","","","","","single-stim-button","25","300440","0.0-2.0-10.0-1.0","62c41fe598ab94de4d4f021e","B2","batch2","","791","tol_toboard","","","","tol_peg_3","791","791","0","[[1,0,0],[3,0],[2]]","1","[[1,3,0],[2,0],[0]]","0","0","","","","","","3","","","","","","","","",""
"","","","","","single-stim-button","26","301824","0.0-2.0-10.1-0.1","62c41fe598ab94de4d4f021e","B2","batch2","","1384","tol_tohand","","","","tol_peg_2","1384","1384","0","[[1,0,0],[0,0],[2]]","2","[[1,3,0],[2,0],[0]]","0","0","","","","","","3","","","","","","","","",""
"","","","","","single-stim-button","27","302472","0.0-2.0-10.1-1.1","62c41fe598ab94de4d4f021e","B2","batch2","","648","tol_toboard","","","","tol_peg_1","648","648","0","[[1,3,0],[0,0],[2]]","2","[[1,3,0],[2,0],[0]]","0","0","","","","","","3","","","","","","","","",""
"","","","","","single-stim-button","28","305984","0.0-2.0-10.2-0.2","62c41fe598ab94de4d4f021e","B2","batch2","","3512","tol_tohand","","","","tol_peg_3","3512","3512","0","[[1,3,0],[0,0],[0]]","3","[[1,3,0],[2,0],[0]]","0","0","","","","","","3","","","","","","","","",""
"","","","","","single-stim-button","29","306616","0.0-2.0-10.2-1.2","62c41fe598ab94de4d4f021e","B2","batch2","","631","tol_toboard","","","","tol_peg_2","631","631","0","[[1,3,0],[2,0],[0]]","3","[[1,3,0],[2,0],[0]]","0","0","","","","","","3","","","","","","","","",""
"","","","","","poldrack-single-stim","30","307623","0.0-2.0-11.0","62c41fe598ab94de4d4f021e","B2","batch2","","-1","tol_feedback","","","true","","1000","1000","500","","","","","","-1","none","true","2782","7678","","","","","","","","","",""
"","","","","","html-button-response","31","308688","0.0-2.0-12.0","62c41fe598ab94de4d4f021e","B2","batch2","","1063.7000000178814","tol_trial_num","<div class = centerbox><p class = center-block-text>problem <strong>2</strong> out of 25 problems</p></div>","0","","","","","","","","","","","","","","","","","","","","","","","","",""
"","","","","","single-stim-button","32","317568","0.0-2.0-13.0-0.0","62c41fe598ab94de4d4f021e","B2","batch2","","8880","tol_tohand","","","","tol_peg_2","8880","8880","0","[[1,2,0],[0,0],[0]]","1","[[2,1,3],[0,0],[0]]","1","0","","","","","","5","","","","","","","","",""
"","","","","","single-stim-button","33","318232","0.0-2.0-13.0-1.0","62c41fe598ab94de4d4f021e","B2","batch2","","662","tol_toboard","","","","tol_peg_3","662","662","0","[[1,2,0],[0,0],[3]]","1","[[2,1,3],[0,0],[0]]","1","0","","","","","","5","","","","","","","","",""
"","","","","","single-stim-button","34","320056","0.0-2.0-13.1-0.1","62c41fe598ab94de4d4f021e","B2","batch2","","1824","tol_tohand","","","","tol_peg_1","1824","1824","0","[[1,0,0],[0,0],[3]]","2","[[2,1,3],[0,0],[0]]","1","0","","","","","","5","","","","","","","","",""
"","","","","","single-stim-button","35","321384","0.0-2.0-13.1-1.1","62c41fe598ab94de4d4f021e","B2","batch2","","1327","tol_toboard","","","","tol_peg_2","1327","1327","0","[[1,0,0],[2,0],[3]]","2","[[2,1,3],[0,0],[0]]","1","0","","","","","","5","","","","","","","","",""
"","","","","","single-stim-button","36","322752","0.0-2.0-13.2-0.2","62c41fe598ab94de4d4f021e","B2","batch2","","1367","tol_tohand","","","","tol_peg_1","1367","1367","0","[[0,0,0],[2,0],[3]]","3","[[2,1,3],[0,0],[0]]","1","0","","","","","","5","","","","","","","","",""
"","","","","","single-stim-button","37","326912","0.0-2.0-13.2-1.2","62c41fe598ab94de4d4f021e","B2","batch2","","4159","tol_toboard","","","","tol_peg_2","4159","4159","0","[[0,0,0],[2,1],[3]]","3","[[2,1,3],[0,0],[0]]","1","0","","","","","","5","","","","","","","","",""
"","","","","","single-stim-button","38","329896","0.0-2.0-13.3-0.3","62c41fe598ab94de4d4f021e","B2","batch2","","2983","tol_tohand","","","","tol_peg_2","2983","2983","0","[[0,0,0],[2,0],[3]]","4","[[2,1,3],[0,0],[0]]","1","0","","","","","","5","","","","","","","","",""
"","","","","","single-stim-button","39","332592","0.0-2.0-13.3-1.3","62c41fe598ab94de4d4f021e","B2","batch2","","2696","tol_toboard","","","","tol_peg_1","2696","2696","0","[[1,0,0],[2,0],[3]]","4","[[2,1,3],[0,0],[0]]","1","0","","","","","","5","","","","","","","","",""
"","","","","","single-stim-button","40","334448","0.0-2.0-13.4-0.4","62c41fe598ab94de4d4f021e","B2","batch2","","1855","tol_tohand","","","","tol_peg_2","1855","1855","0","[[1,0,0],[0,0],[3]]","5","[[2,1,3],[0,0],[0]]","1","0","","","","","","5","","","","","","","","",""
"","","","","","single-stim-button","41","336760","0.0-2.0-13.4-1.4","62c41fe598ab94de4d4f021e","B2","batch2","","2311","tol_toboard","","","","tol_peg_2","2311","2311","0","[[1,0,0],[2,0],[3]]","5","[[2,1,3],[0,0],[0]]","1","0","","","","","","5","","","","","","","","",""
"","","","","","single-stim-button","42","337320","0.0-2.0-13.5-0.5","62c41fe598ab94de4d4f021e","B2","batch2","","559","tol_tohand","","","","tol_peg_3","559","559","0","[[1,0,0],[2,0],[0]]","6","[[2,1,3],[0,0],[0]]","1","0","","","","","","5","","","","","","","","",""
"","","","","","single-stim-button","43","337936","0.0-2.0-13.5-1.5","62c41fe598ab94de4d4f021e","B2","batch2","","615","tol_toboard","","","","tol_peg_2","615","615","0","[[1,0,0],[2,3],[0]]","6","[[2,1,3],[0,0],[0]]","1","0","","","","","","5","","","","","","","","",""
"","","","","","single-stim-button","44","338688","0.0-2.0-13.6-0.6","62c41fe598ab94de4d4f021e","B2","batch2","","752","tol_tohand","","","","tol_peg_1","752","752","0","[[0,0,0],[2,3],[0]]","7","[[2,1,3],[0,0],[0]]","1","0","","","","","","5","","","","","","","","",""
"","","","","","single-stim-button","45","339624","0.0-2.0-13.6-1.6","62c41fe598ab94de4d4f021e","B2","batch2","","935","tol_toboard","","","","tol_peg_3","935","935","0","[[0,0,0],[2,3],[1]]","7","[[2,1,3],[0,0],[0]]","1","0","","","","","","5","","","","","","","","",""
"","","","","","single-stim-button","46","342848","0.0-2.0-13.7-0.7","62c41fe598ab94de4d4f021e","B2","batch2","","3223","tol_tohand","","","","tol_peg_2","3223","3223","0","[[0,0,0],[2,0],[1]]","8","[[2,1,3],[0,0],[0]]","1","0","","","","","","5","","","","","","","","",""
"","","","","","single-stim-button","47","344536","0.0-2.0-13.7-1.7","62c41fe598ab94de4d4f021e","B2","batch2","","1687","tol_toboard","","","","tol_peg_2","1687","1687","0","[[0,0,0],[2,3],[1]]","8","[[2,1,3],[0,0],[0]]","1","0","","","","","","5","","","","","","","","",""
"","","","","","single-stim-button","48","347440","0.0-2.0-13.8-0.8","62c41fe598ab94de4d4f021e","B2","batch2","","2903","tol_tohand","","","","tol_peg_2","2903","2903","0","[[0,0,0],[2,0],[1]]","9","[[2,1,3],[0,0],[0]]","1","0","","","","","","5","","","","","","","","",""
"","","","","","single-stim-button","49","349456","0.0-2.0-13.8-1.8","62c41fe598ab94de4d4f021e","B2","batch2","","2015","tol_toboard","","","","tol_peg_1","2015","2015","0","[[3,0,0],[2,0],[1]]","9","[[2,1,3],[0,0],[0]]","1","0","","","","","","5","","","","","","","","",""
"","","","","","single-stim-button","50","350943","0.0-2.0-13.9-0.9","62c41fe598ab94de4d4f021e","B2","batch2","","1487","tol_tohand","","","","tol_peg_3","1487","1487","0","[[3,0,0],[2,0],[0]]","10","[[2,1,3],[0,0],[0]]","1","0","","","","","","5","","","","","","","","",""
"","","","","","single-stim-button","51","351736","0.0-2.0-13.9-1.9","62c41fe598ab94de4d4f021e","B2","batch2","","791","tol_toboard","","","","tol_peg_1","791","791","0","[[3,1,0],[2,0],[0]]","10","[[2,1,3],[0,0],[0]]","1","0","","","","","","5","","","","","","","","",""
"","","","","","single-stim-button","52","352167","0.0-2.0-13.10-0.10","62c41fe598ab94de4d4f021e","B2","batch2","","431","tol_tohand","","","","tol_peg_2","431","431","0","[[3,1,0],[0,0],[0]]","11","[[2,1,3],[0,0],[0]]","1","0","","","","","","5","","","","","","","","",""
"","","","","","single-stim-button","53","352632","0.0-2.0-13.10-1.10","62c41fe598ab94de4d4f021e","B2","batch2","","463","tol_toboard","","","","tol_peg_3","463","463","0","[[3,1,0],[0,0],[2]]","11","[[2,1,3],[0,0],[0]]","1","0","","","","","","5","","","","","","","","",""
"","","","","","single-stim-button","54","353712","0.0-2.0-13.11-0.11","62c41fe598ab94de4d4f021e","B2","batch2","","1079","tol_tohand","","","","tol_peg_1","1079","1079","0","[[3,0,0],[0,0],[2]]","12","[[2,1,3],[0,0],[0]]","1","0","","","","","","5","","","","","","","","",""
"","","","","","single-stim-button","55","354888","0.0-2.0-13.11-1.11","62c41fe598ab94de4d4f021e","B2","batch2","","1175","tol_toboard","","","","tol_peg_2","1175","1175","0","[[3,0,0],[1,0],[2]]","12","[[2,1,3],[0,0],[0]]","1","0","","","","","","5","","","","","","","","",""
"","","","","","single-stim-button","56","358448","0.0-2.0-13.12-0.12","62c41fe598ab94de4d4f021e","B2","batch2","","3559","tol_tohand","","","","tol_peg_3","3559","3559","0","[[3,0,0],[1,0],[0]]","13","[[2,1,3],[0,0],[0]]","1","0","","","","","","5","","","","","","","","",""
"","","","","","single-stim-button","57","359096","0.0-2.0-13.12-1.12","62c41fe598ab94de4d4f021e","B2","batch2","","647","tol_toboard","","","","tol_peg_2","647","647","0","[[3,0,0],[1,2],[0]]","13","[[2,1,3],[0,0],[0]]","1","0","","","","","","5","","","","","","","","",""
"","","","","","single-stim-button","58","360183","0.0-2.0-13.13-0.13","62c41fe598ab94de4d4f021e","B2","batch2","","1087","tol_tohand","","","","tol_peg_1","1087","1087","0","[[0,0,0],[1,2],[0]]","14","[[2,1,3],[0,0],[0]]","1","0","","","","","","5","","","","","","","","",""
"","","","","","single-stim-button","59","362152","0.0-2.0-13.13-1.13","62c41fe598ab94de4d4f021e","B2","batch2","","1968","tol_toboard","","","","tol_peg_3","1968","1968","0","[[0,0,0],[1,2],[3]]","14","[[2,1,3],[0,0],[0]]","1","0","","","","","","5","","","","","","","","",""
"","","","","","single-stim-button","60","362711","0.0-2.0-13.14-0.14","62c41fe598ab94de4d4f021e","B2","batch2","","559","tol_tohand","","","","tol_peg_2","559","559","0","[[0,0,0],[1,0],[3]]","15","[[2,1,3],[0,0],[0]]","1","0","","","","","","5","","","","","","","","",""
"","","","","","single-stim-button","61","363215","0.0-2.0-13.14-1.14","62c41fe598ab94de4d4f021e","B2","batch2","","503","tol_toboard","","","","tol_peg_1","503","503","0","[[2,0,0],[1,0],[3]]","15","[[2,1,3],[0,0],[0]]","1","0","","","","","","5","","","","","","","","",""
"","","","","","single-stim-button","62","365167","0.0-2.0-13.15-0.15","62c41fe598ab94de4d4f021e","B2","batch2","","1951","tol_tohand","","","","tol_peg_2","1951","1951","0","[[2,0,0],[0,0],[3]]","16","[[2,1,3],[0,0],[0]]","1","0","","","","","","5","","","","","","","","",""
"","","","","","single-stim-button","63","365711","0.0-2.0-13.15-1.15","62c41fe598ab94de4d4f021e","B2","batch2","","543","tol_toboard","","","","tol_peg_1","543","543","0","[[2,1,0],[0,0],[3]]","16","[[2,1,3],[0,0],[0]]","1","0","","","","","","5","","","","","","","","",""
"","","","","","single-stim-button","64","366384","0.0-2.0-13.16-0.16","62c41fe598ab94de4d4f021e","B2","batch2","","672","tol_tohand","","","","tol_peg_3","672","672","0","[[2,1,0],[0,0],[0]]","17","[[2,1,3],[0,0],[0]]","1","0","","","","","","5","","","","","","","","",""
"","","","","","single-stim-button","65","366936","0.0-2.0-13.16-1.16","62c41fe598ab94de4d4f021e","B2","batch2","","552","tol_toboard","","","","tol_peg_1","552","552","0","[[2,1,3],[0,0],[0]]","17","[[2,1,3],[0,0],[0]]","1","0","","","","","","5","","","","","","","","",""
"","","","","","poldrack-single-stim","66","367937","0.0-2.0-14.0","62c41fe598ab94de4d4f021e","B2","batch2","","-1","tol_feedback","","","true","","1000","1000","500","","","","","","-1","none","true","8880","35171","","","","","","","","","",""
"","","","","","html-button-response","67","368815","0.0-2.0-15.0","62c41fe598ab94de4d4f021e","B2","batch2","","877.2000000178814","tol_trial_num","<div class = centerbox><p class = center-block-text>problem <strong>3</strong> out of 25 problems</p></div>","0","","","","","","","","","","","","","","","","","","","","","","","","",""
"","","","","","single-stim-button","68","371728","0.0-2.0-16.0-0.0","62c41fe598ab94de4d4f021e","B2","batch2","","2912","tol_tohand","","","","tol_peg_1","2912","2912","0","[[2,0,0],[0,0],[1]]","1","[[1,2,0],[3,0],[0]]","2","0","","","","","","4","","","","","","","","",""
"","","","","","single-stim-button","69","372311","0.0-2.0-16.0-1.0","62c41fe598ab94de4d4f021e","B2","batch2","","583","tol_toboard","","","","tol_peg_2","583","583","0","[[2,0,0],[3,0],[1]]","1","[[1,2,0],[3,0],[0]]","2","0","","","","","","4","","","","","","","","",""
"","","","","","single-stim-button","70","374231","0.0-2.0-16.1-0.1","62c41fe598ab94de4d4f021e","B2","batch2","","1919","tol_tohand","","","","tol_peg_1","1919","1919","0","[[0,0,0],[3,0],[1]]","2","[[1,2,0],[3,0],[0]]","2","0","","","","","","4","","","","","","","","",""
"","","","","","single-stim-button","71","374687","0.0-2.0-16.1-1.1","62c41fe598ab94de4d4f021e","B2","batch2","","455","tol_toboard","","","","tol_peg_2","455","455","0","[[0,0,0],[3,2],[1]]","2","[[1,2,0],[3,0],[0]]","2","0","","","","","","4","","","","","","","","",""
"","","","","","single-stim-button","72","375352","0.0-2.0-16.2-0.2","62c41fe598ab94de4d4f021e","B2","batch2","","665","tol_tohand","","","","tol_peg_3","665","665","0","[[0,0,0],[3,2],[0]]","3","[[1,2,0],[3,0],[0]]","2","0","","","","","","4","","","","","","","","",""
"","","","","","single-stim-button","73","376343","0.0-2.0-16.2-1.2","62c41fe598ab94de4d4f021e","B2","batch2","","991","tol_toboard","","","","tol_peg_1","991","991","0","[[1,0,0],[3,2],[0]]","3","[[1,2,0],[3,0],[0]]","2","0","","","","","","4","","","","","","","","",""
"","","","","","single-stim-button","74","377255","0.0-2.0-16.3-0.3","62c41fe598ab94de4d4f021e","B2","batch2","","911","tol_tohand","","","","tol_peg_2","911","911","0","[[1,0,0],[3,0],[0]]","4","[[1,2,0],[3,0],[0]]","2","0","","","","","","4","","","","","","","","",""
"","","","","","single-stim-button","75","377719","0.0-2.0-16.3-1.3","62c41fe598ab94de4d4f021e","B2","batch2","","463","tol_toboard","","","","tol_peg_1","463","463","0","[[1,2,0],[3,0],[0]]","4","[[1,2,0],[3,0],[0]]","2","0","","","","","","4","","","","","","","","",""
"","","","","","poldrack-single-stim","76","378721","0.0-2.0-17.0","62c41fe598ab94de4d4f021e","B2","batch2","","-1","tol_feedback","","","true","","1000","1000","500","","","","","","-1","none","true","2912","6407","","","","","","","","","",""
"","","","","","html-button-response","77","379751","0.0-2.0-18.0","62c41fe598ab94de4d4f021e","B2","batch2","","1029.2999999821186","tol_trial_num","<div class = centerbox><p class = center-block-text>problem <strong>4</strong> out of 25 problems</p></div>","0","","","","","","","","","","","","","","","","","","","","","","","","",""
"","","","","","single-stim-button","78","383479","0.0-2.0-19.0-0.0","62c41fe598ab94de4d4f021e","B2","batch2","","3727","tol_tohand","","","","tol_peg_2","3727","3727","0","[[3,0,0],[2,0],[0]]","1","[[3,0,0],[1,0],[2]]","3","0","","","","","","3","","","","","","","","",""
"","","","","","single-stim-button","79","384367","0.0-2.0-19.0-1.0","62c41fe598ab94de4d4f021e","B2","batch2","","887","tol_toboard","","","","tol_peg_1","887","887","0","[[3,1,0],[2,0],[0]]","1","[[3,0,0],[1,0],[2]]","3","0","","","","","","3","","","","","","","","",""
"","","","","","single-stim-button","80","384943","0.0-2.0-19.1-0.1","62c41fe598ab94de4d4f021e","B2","batch2","","575","tol_tohand","","","","tol_peg_2","575","575","0","[[3,1,0],[0,0],[0]]","2","[[3,0,0],[1,0],[2]]","3","0","","","","","","3","","","","","","","","",""
"","","","","","single-stim-button","81","385495","0.0-2.0-19.1-1.1","62c41fe598ab94de4d4f021e","B2","batch2","","551","tol_toboard","","","","tol_peg_3","551","551","0","[[3,1,0],[0,0],[2]]","2","[[3,0,0],[1,0],[2]]","3","0","","","","","","3","","","","","","","","",""
"","","","","","single-stim-button","82","386047","0.0-2.0-19.2-0.2","62c41fe598ab94de4d4f021e","B2","batch2","","551","tol_tohand","","","","tol_peg_1","551","551","0","[[3,0,0],[0,0],[2]]","3","[[3,0,0],[1,0],[2]]","3","0","","","","","","3","","","","","","","","",""
"","","","","","single-stim-button","83","386583","0.0-2.0-19.2-1.2","62c41fe598ab94de4d4f021e","B2","batch2","","536","tol_toboard","","","","tol_peg_2","536","536","0","[[3,0,0],[1,0],[2]]","3","[[3,0,0],[1,0],[2]]","3","0","","","","","","3","","","","","","","","",""
"","","","","","poldrack-single-stim","84","387586","0.0-2.0-20.0","62c41fe598ab94de4d4f021e","B2","batch2","","-1","tol_feedback","","","true","","1000","1000","500","","","","","","-1","none","true","3727","4853","","","","","","","","","",""
"","","","","","html-button-response","85","388335","0.0-2.0-21.0","62c41fe598ab94de4d4f021e","B2","batch2","","748.1999999880791","tol_trial_num","<div class = centerbox><p class = center-block-text>problem <strong>5</strong> out of 25 problems</p></div>","0","","","","","","","","","","","","","","","","","","","","","","","","",""
"","","","","","single-stim-button","86","393463","0.0-2.0-22.0-0.0","62c41fe598ab94de4d4f021e","B2","batch2","","5128","tol_tohand","","","","tol_peg_1","5128","5128","0","[[0,0,0],[2,0],[3]]","1","[[0,0,0],[1,2],[3]]","4","0","","","","","","7","","","","","","","","",""
"","","","","","single-stim-button","87","395087","0.0-2.0-22.0-1.0","62c41fe598ab94de4d4f021e","B2","batch2","","1623","tol_toboard","","","","tol_peg_1","1623","1623","0","[[1,0,0],[2,0],[3]]","1","[[0,0,0],[1,2],[3]]","4","0","","","","","","7","","","","","","","","",""
"","","","","","single-stim-button","88","398823","0.0-2.0-22.1-0.1","62c41fe598ab94de4d4f021e","B2","batch2","","3736","tol_tohand","","","","tol_peg_2","3736","3736","0","[[1,0,0],[0,0],[3]]","2","[[0,0,0],[1,2],[3]]","4","0","","","","","","7","","","","","","","","",""
"","","","","","single-stim-button","89","402335","0.0-2.0-22.1-1.1","62c41fe598ab94de4d4f021e","B2","batch2","","3511","tol_toboard","","","","tol_peg_1","3511","3511","0","[[1,2,0],[0,0],[3]]","2","[[0,0,0],[1,2],[3]]","4","0","","","","","","7","","","","","","","","",""
"","","","","","single-stim-button","90","409783","0.0-2.0-22.2-0.2","62c41fe598ab94de4d4f021e","B2","batch2","","7447","tol_tohand","","","","tol_peg_3","7447","7447","0","[[1,2,0],[0,0],[0]]","3","[[0,0,0],[1,2],[3]]","4","0","","","","","","7","","","","","","","","",""
"","","","","","single-stim-button","91","411487","0.0-2.0-22.2-1.2","62c41fe598ab94de4d4f021e","B2","batch2","","1703","tol_toboard","","","","tol_peg_2","1703","1703","0","[[1,2,0],[3,0],[0]]","3","[[0,0,0],[1,2],[3]]","4","0","","","","","","7","","","","","","","","",""
"","","","","","single-stim-button","92","411991","0.0-2.0-22.3-0.3","62c41fe598ab94de4d4f021e","B2","batch2","","504","tol_tohand","","","","tol_peg_1","504","504","0","[[1,0,0],[3,0],[0]]","4","[[0,0,0],[1,2],[3]]","4","0","","","","","","7","","","","","","","","",""
"","","","","","single-stim-button","93","414615","0.0-2.0-22.3-1.3","62c41fe598ab94de4d4f021e","B2","batch2","","2624","tol_toboard","","","","tol_peg_3","2624","2624","0","[[1,0,0],[3,0],[2]]","4","[[0,0,0],[1,2],[3]]","4","0","","","","","","7","","","","","","","","",""
"","","","","","single-stim-button","94","415367","0.0-2.0-22.4-0.4","62c41fe598ab94de4d4f021e","B2","batch2","","752","tol_tohand","","","","tol_peg_2","752","752","0","[[1,0,0],[0,0],[2]]","5","[[0,0,0],[1,2],[3]]","4","0","","","","","","7","","","","","","","","",""
"","","","","","single-stim-button","95","417895","0.0-2.0-22.4-1.4","62c41fe598ab94de4d4f021e","B2","batch2","","2528","tol_toboard","","","","tol_peg_2","2528","2528","0","[[1,0,0],[3,0],[2]]","5","[[0,0,0],[1,2],[3]]","4","0","","","","","","7","","","","","","","","",""
"","","","","","single-stim-button","96","420487","0.0-2.0-22.5-0.5","62c41fe598ab94de4d4f021e","B2","batch2","","2592","tol_tohand","","","","tol_peg_3","2592","2592","0","[[1,0,0],[3,0],[0]]","6","[[0,0,0],[1,2],[3]]","4","0","","","","","","7","","","","","","","","",""
"","","","","","single-stim-button","97","421391","0.0-2.0-22.5-1.5","62c41fe598ab94de4d4f021e","B2","batch2","","903","tol_toboard","","","","tol_peg_2","903","903","0","[[1,0,0],[3,2],[0]]","6","[[0,0,0],[1,2],[3]]","4","0","","","","","","7","","","","","","","","",""
"","","","","","single-stim-button","98","421927","0.0-2.0-22.6-0.6","62c41fe598ab94de4d4f021e","B2","batch2","","536","tol_tohand","","","","tol_peg_1","536","536","0","[[0,0,0],[3,2],[0]]","7","[[0,0,0],[1,2],[3]]","4","0","","","","","","7","","","","","","","","",""
"","","","","","single-stim-button","99","422575","0.0-2.0-22.6-1.6","62c41fe598ab94de4d4f021e","B2","batch2","","648","tol_toboard","","","","tol_peg_3","648","648","0","[[0,0,0],[3,2],[1]]","7","[[0,0,0],[1,2],[3]]","4","0","","","","","","7","","","","","","","","",""
"","","","","","single-stim-button","100","423111","0.0-2.0-22.7-0.7","62c41fe598ab94de4d4f021e","B2","batch2","","536","tol_tohand","","","","tol_peg_2","536","536","0","[[0,0,0],[3,0],[1]]","8","[[0,0,0],[1,2],[3]]","4","0","","","","","","7","","","","","","","","",""
"","","","","","single-stim-button","101","423791","0.0-2.0-22.7-1.7","62c41fe598ab94de4d4f021e","B2","batch2","","680","tol_toboard","","","","tol_peg_1","680","680","0","[[2,0,0],[3,0],[1]]","8","[[0,0,0],[1,2],[3]]","4","0","","","","","","7","","","","","","","","",""
"","","","","","single-stim-button","102","424727","0.0-2.0-22.8-0.8","62c41fe598ab94de4d4f021e","B2","batch2","","936","tol_tohand","","","","tol_peg_2","936","936","0","[[2,0,0],[0,0],[1]]","9","[[0,0,0],[1,2],[3]]","4","0","","","","","","7","","","","","","","","",""
"","","","","","single-stim-button","103","425359","0.0-2.0-22.8-1.8","62c41fe598ab94de4d4f021e","B2","batch2","","632","tol_toboard","","","","tol_peg_1","632","632","0","[[2,3,0],[0,0],[1]]","9","[[0,0,0],[1,2],[3]]","4","0","","","","","","7","","","","","","","","",""
"","","","","","single-stim-button","104","425944","0.0-2.0-22.9-0.9","62c41fe598ab94de4d4f021e","B2","batch2","","584","tol_tohand","","","","tol_peg_3","584","584","0","[[2,3,0],[0,0],[0]]","10","[[0,0,0],[1,2],[3]]","4","0","","","","","","7","","","","","","","","",""
"","","","","","single-stim-button","105","426439","0.0-2.0-22.9-1.9","62c41fe598ab94de4d4f021e","B2","batch2","","495","tol_toboard","","","","tol_peg_2","495","495","0","[[2,3,0],[1,0],[0]]","10","[[0,0,0],[1,2],[3]]","4","0","","","","","","7","","","","","","","","",""
"","","","","","single-stim-button","106","427031","0.0-2.0-22.10-0.10","62c41fe598ab94de4d4f021e","B2","batch2","","592","tol_tohand","","","","tol_peg_1","592","592","0","[[2,0,0],[1,0],[0]]","11","[[0,0,0],[1,2],[3]]","4","0","","","","","","7","","","","","","","","",""
"","","","","","single-stim-button","107","427623","0.0-2.0-22.10-1.10","62c41fe598ab94de4d4f021e","B2","batch2","","592","tol_toboard","","","","tol_peg_3","592","592","0","[[2,0,0],[1,0],[3]]","11","[[0,0,0],[1,2],[3]]","4","0","","","","","","7","","","","","","","","",""
"","","","","","single-stim-button","108","428303","0.0-2.0-22.11-0.11","62c41fe598ab94de4d4f021e","B2","batch2","","680","tol_tohand","","","","tol_peg_1","680","680","0","[[0,0,0],[1,0],[3]]","12","[[0,0,0],[1,2],[3]]","4","0","","","","","","7","","","","","","","","",""
"","","","","","single-stim-button","109","428839","0.0-2.0-22.11-1.11","62c41fe598ab94de4d4f021e","B2","batch2","","536","tol_toboard","","","","tol_peg_2","536","536","0","[[0,0,0],[1,2],[3]]","12","[[0,0,0],[1,2],[3]]","4","0","","","","","","7","","","","","","","","",""
"","","","","","poldrack-single-stim","110","429841","0.0-2.0-23.0","62c41fe598ab94de4d4f021e","B2","batch2","","-1","tol_feedback","","","true","","1000","1000","500","","","","","","-1","none","true","5128","24023","","","","","","","","","",""
"","","","","","html-button-response","111","430783","0.0-2.0-24.0","62c41fe598ab94de4d4f021e","B2","batch2","","941.3000000119209","tol_trial_num","<div class = centerbox><p class = center-block-text>problem <strong>6</strong> out of 25 problems</p></div>","0","","","","","","","","","","","","","","","","","","","","","","","","",""
"","","","","","single-stim-button","112","435927","0.0-2.0-25.0-0.0","62c41fe598ab94de4d4f021e","B2","batch2","","5144","tol_tohand","","","","tol_peg_2","5144","5144","0","[[0,0,0],[1,0],[3]]","1","[[1,0,0],[2,3],[0]]","5","0","","","","","","6","","","","","","","","",""
"","","","","","single-stim-button","113","436439","0.0-2.0-25.0-1.0","62c41fe598ab94de4d4f021e","B2","batch2","","512","tol_toboard","","","","tol_peg_1","512","512","0","[[2,0,0],[1,0],[3]]","1","[[1,0,0],[2,3],[0]]","5","0","","","","","","6","","","","","","","","",""
"","","","","","single-stim-button","114","442711","0.0-2.0-25.1-0.1","62c41fe598ab94de4d4f021e","B2","batch2","","6271","tol_tohand","","","","tol_peg_1","6271","6271","0","[[0,0,0],[1,0],[3]]","2","[[1,0,0],[2,3],[0]]","5","0","","","","","","6","","","","","","","","",""
"","","","","","single-stim-button","115","443215","0.0-2.0-25.1-1.1","62c41fe598ab94de4d4f021e","B2","batch2","","504","tol_toboard","","","","tol_peg_2","504","504","0","[[0,0,0],[1,2],[3]]","2","[[1,0,0],[2,3],[0]]","5","0","","","","","","6","","","","","","","","",""
"","","","","","single-stim-button","116","443655","0.0-2.0-25.2-0.2","62c41fe598ab94de4d4f021e","B2","batch2","","440","tol_tohand","","","","tol_peg_3","440","440","0","[[0,0,0],[1,2],[0]]","3","[[1,0,0],[2,3],[0]]","5","0","","","","","","6","","","","","","","","",""
"","","","","","single-stim-button","117","444239","0.0-2.0-25.2-1.2","62c41fe598ab94de4d4f021e","B2","batch2","","582","tol_toboard","","","","tol_peg_1","582","582","0","[[3,0,0],[1,2],[0]]","3","[[1,0,0],[2,3],[0]]","5","0","","","","","","6","","","","","","","","",""
"","","","","","single-stim-button","118","446847","0.0-2.0-25.3-0.3","62c41fe598ab94de4d4f021e","B2","batch2","","2607","tol_tohand","","","","tol_peg_2","2607","2607","0","[[3,0,0],[1,0],[0]]","4","[[1,0,0],[2,3],[0]]","5","0","","","","","","6","","","","","","","","",""
"","","","","","single-stim-button","119","447631","0.0-2.0-25.3-1.3","62c41fe598ab94de4d4f021e","B2","batch2","","783","tol_toboard","","","","tol_peg_1","783","783","0","[[3,2,0],[1,0],[0]]","4","[[1,0,0],[2,3],[0]]","5","0","","","","","","6","","","","","","","","",""
"","","","","","single-stim-button","120","448031","0.0-2.0-25.4-0.4","62c41fe598ab94de4d4f021e","B2","batch2","","399","tol_tohand","","","","tol_peg_2","399","399","0","[[3,2,0],[0,0],[0]]","5","[[1,0,0],[2,3],[0]]","5","0","","","","","","6","","","","","","","","",""
"","","","","","single-stim-button","121","449287","0.0-2.0-25.4-1.4","62c41fe598ab94de4d4f021e","B2","batch2","","1255","tol_toboard","","","","tol_peg_3","1255","1255","0","[[3,2,0],[0,0],[1]]","5","[[1,0,0],[2,3],[0]]","5","0","","","","","","6","","","","","","","","",""
"","","","","","single-stim-button","122","449871","0.0-2.0-25.5-0.5","62c41fe598ab94de4d4f021e","B2","batch2","","584","tol_tohand","","","","tol_peg_1","584","584","0","[[3,0,0],[0,0],[1]]","6","[[1,0,0],[2,3],[0]]","5","0","","","","","","6","","","","","","","","",""
"","","","","","single-stim-button","123","450263","0.0-2.0-25.5-1.5","62c41fe598ab94de4d4f021e","B2","batch2","","391","tol_toboard","","","","tol_peg_2","391","391","0","[[3,0,0],[2,0],[1]]","6","[[1,0,0],[2,3],[0]]","5","0","","","","","","6","","","","","","","","",""
"","","","","","single-stim-button","124","450823","0.0-2.0-25.6-0.6","62c41fe598ab94de4d4f021e","B2","batch2","","560","tol_tohand","","","","tol_peg_1","560","560","0","[[0,0,0],[2,0],[1]]","7","[[1,0,0],[2,3],[0]]","5","0","","","","","","6","","","","","","","","",""
"","","","","","single-stim-button","125","451279","0.0-2.0-25.6-1.6","62c41fe598ab94de4d4f021e","B2","batch2","","455","tol_toboard","","","","tol_peg_2","455","455","0","[[0,0,0],[2,3],[1]]","7","[[1,0,0],[2,3],[0]]","5","0","","","","","","6","","","","","","","","",""
"","","","","","single-stim-button","126","451911","0.0-2.0-25.7-0.7","62c41fe598ab94de4d4f021e","B2","batch2","","631","tol_tohand","","","","tol_peg_3","631","631","0","[[0,0,0],[2,3],[0]]","8","[[1,0,0],[2,3],[0]]","5","0","","","","","","6","","","","","","","","",""
"","","","","","single-stim-button","127","452374","0.0-2.0-25.7-1.7","62c41fe598ab94de4d4f021e","B2","batch2","","463","tol_toboard","","","","tol_peg_1","463","463","0","[[1,0,0],[2,3],[0]]","8","[[1,0,0],[2,3],[0]]","5","0","","","","","","6","","","","","","","","",""
"","","","","","poldrack-single-stim","128","453390","0.0-2.0-26.0","62c41fe598ab94de4d4f021e","B2","batch2","","-1","tol_feedback","","","true","","1000","1000","500","","","","","","-1","none","true","5144","16636","","","","","","","","","",""
"","","","","","html-button-response","129","454199","0.0-2.0-27.0","62c41fe598ab94de4d4f021e","B2","batch2","","807.2000000178814","tol_trial_num","<div class = centerbox><p class = center-block-text>problem <strong>7</strong> out of 25 problems</p></div>","0","","","","","","","","","","","","","","","","","","","","","","","","",""
"","","","","","single-stim-button","130","459383","0.0-2.0-28.0-0.0","62c41fe598ab94de4d4f021e","B2","batch2","","5184","tol_tohand","","","","tol_peg_1","5184","5184","0","[[2,0,0],[0,0],[3]]","1","[[1,2,0],[3,0],[0]]","6","0","","","","","","5","","","","","","","","",""
"","","","","","single-stim-button","131","459927","0.0-2.0-28.0-1.0","62c41fe598ab94de4d4f021e","B2","batch2","","542","tol_toboard","","","","tol_peg_2","542","542","0","[[2,0,0],[1,0],[3]]","1","[[1,2,0],[3,0],[0]]","6","0","","","","","","5","","","","","","","","",""
"","","","","","single-stim-button","132","465719","0.0-2.0-28.1-0.1","62c41fe598ab94de4d4f021e","B2","batch2","","5791","tol_tohand","","","","tol_peg_2","5791","5791","0","[[2,0,0],[0,0],[3]]","2","[[1,2,0],[3,0],[0]]","6","0","","","","","","5","","","","","","","","",""
"","","","","","single-stim-button","133","466270","0.0-2.0-28.1-1.1","62c41fe598ab94de4d4f021e","B2","batch2","","551","tol_toboard","","","","tol_peg_1","551","551","0","[[2,1,0],[0,0],[3]]","2","[[1,2,0],[3,0],[0]]","6","0","","","","","","5","","","","","","","","",""
"","","","","","single-stim-button","134","466863","0.0-2.0-28.2-0.2","62c41fe598ab94de4d4f021e","B2","batch2","","592","tol_tohand","","","","tol_peg_3","592","592","0","[[2,1,0],[0,0],[0]]","3","[[1,2,0],[3,0],[0]]","6","0","","","","","","5","","","","","","","","",""
"","","","","","single-stim-button","135","467438","0.0-2.0-28.2-1.2","62c41fe598ab94de4d4f021e","B2","batch2","","575","tol_toboard","","","","tol_peg_2","575","575","0","[[2,1,0],[3,0],[0]]","3","[[1,2,0],[3,0],[0]]","6","0","","","","","","5","","","","","","","","",""
"","","","","","single-stim-button","136","468735","0.0-2.0-28.3-0.3","62c41fe598ab94de4d4f021e","B2","batch2","","1296","tol_tohand","","","","tol_peg_1","1296","1296","0","[[2,0,0],[3,0],[0]]","4","[[1,2,0],[3,0],[0]]","6","0","","","","","","5","","","","","","","","",""
"","","","","","single-stim-button","137","469351","0.0-2.0-28.3-1.3","62c41fe598ab94de4d4f021e","B2","batch2","","615","tol_toboard","","","","tol_peg_2","615","615","0","[[2,0,0],[3,1],[0]]","4","[[1,2,0],[3,0],[0]]","6","0","","","","","","5","","","","","","","","",""
"","","","","","single-stim-button","138","470263","0.0-2.0-28.4-0.4","62c41fe598ab94de4d4f021e","B2","batch2","","911","tol_tohand","","","","tol_peg_1","911","911","0","[[0,0,0],[3,1],[0]]","5","[[1,2,0],[3,0],[0]]","6","0","","","","","","5","","","","","","","","",""
"","","","","","single-stim-button","139","470894","0.0-2.0-28.4-1.4","62c41fe598ab94de4d4f021e","B2","batch2","","631","tol_toboard","","","","tol_peg_3","631","631","0","[[0,0,0],[3,1],[2]]","5","[[1,2,0],[3,0],[0]]","6","0","","","","","","5","","","","","","","","",""
"","","","","","single-stim-button","140","471383","0.0-2.0-28.5-0.5","62c41fe598ab94de4d4f021e","B2","batch2","","488","tol_tohand","","","","tol_peg_2","488","488","0","[[0,0,0],[3,0],[2]]","6","[[1,2,0],[3,0],[0]]","6","0","","","","","","5","","","","","","","","",""
"","","","","","single-stim-button","141","471998","0.0-2.0-28.5-1.5","62c41fe598ab94de4d4f021e","B2","batch2","","615","tol_toboard","","","","tol_peg_1","615","615","0","[[1,0,0],[3,0],[2]]","6","[[1,2,0],[3,0],[0]]","6","0","","","","","","5","","","","","","","","",""
"","","","","","single-stim-button","142","472630","0.0-2.0-28.6-0.6","62c41fe598ab94de4d4f021e","B2","batch2","","631","tol_tohand","","","","tol_peg_3","631","631","0","[[1,0,0],[3,0],[0]]","7","[[1,2,0],[3,0],[0]]","6","0","","","","","","5","","","","","","","","",""
"","","","","","single-stim-button","143","473303","0.0-2.0-28.6-1.6","62c41fe598ab94de4d4f021e","B2","batch2","","672","tol_toboard","","","","tol_peg_1","672","672","0","[[1,2,0],[3,0],[0]]","7","[[1,2,0],[3,0],[0]]","6","0","","","","","","5","","","","","","","","",""
"","","","","","poldrack-single-stim","144","474305","0.0-2.0-29.0","62c41fe598ab94de4d4f021e","B2","batch2","","-1","tol_feedback","","","true","","1000","1000","500","","","","","","-1","none","true","5184","14893","","","","","","","","","",""
"","","","","","html-button-response","145","475239","0.0-2.0-30.0","62c41fe598ab94de4d4f021e","B2","batch2","","932.5999999940395","tol_trial_num","<div class = centerbox><p class = center-block-text>problem <strong>8</strong> out of 25 problems</p></div>","0","","","","","","","","","","","","","","","","","","","","","","","","",""
"","","","","","single-stim-button","146","478950","0.0-2.0-31.0-0.0","62c41fe598ab94de4d4f021e","B2","batch2","","3711","tol_tohand","","","","tol_peg_2","3711","3711","0","[[0,0,0],[2,0],[1]]","1","[[1,2,0],[3,0],[0]]","7","0","","","","","","4","","","","","","","","",""
"","","","","","single-stim-button","147","479982","0.0-2.0-31.0-1.0","62c41fe598ab94de4d4f021e","B2","batch2","","1031","tol_toboard","","","","tol_peg_1","1031","1031","0","[[3,0,0],[2,0],[1]]","1","[[1,2,0],[3,0],[0]]","7","0","","","","","","4","","","","","","","","",""
"","","","","","single-stim-button","148","480535","0.0-2.0-31.1-0.1","62c41fe598ab94de4d4f021e","B2","batch2","","552","tol_tohand","","","","tol_peg_2","552","552","0","[[3,0,0],[0,0],[1]]","2","[[1,2,0],[3,0],[0]]","7","0","","","","","","4","","","","","","","","",""
"","","","","","single-stim-button","149","480958","0.0-2.0-31.1-1.1","62c41fe598ab94de4d4f021e","B2","batch2","","423","tol_toboard","","","","tol_peg_1","423","423","0","[[3,2,0],[0,0],[1]]","2","[[1,2,0],[3,0],[0]]","7","0","","","","","","4","","","","","","","","",""
"","","","","","single-stim-button","150","481510","0.0-2.0-31.2-0.2","62c41fe598ab94de4d4f021e","B2","batch2","","551","tol_tohand","","","","tol_peg_3","551","551","0","[[3,2,0],[0,0],[0]]","3","[[1,2,0],[3,0],[0]]","7","0","","","","","","4","","","","","","","","",""
"","","","","","single-stim-button","151","482022","0.0-2.0-31.2-1.2","62c41fe598ab94de4d4f021e","B2","batch2","","511","tol_toboard","","","","tol_peg_2","511","511","0","[[3,2,0],[1,0],[0]]","3","[[1,2,0],[3,0],[0]]","7","0","","","","","","4","","","","","","","","",""
"","","","","","single-stim-button","152","482662","0.0-2.0-31.3-0.3","62c41fe598ab94de4d4f021e","B2","batch2","","639","tol_tohand","","","","tol_peg_1","639","639","0","[[3,0,0],[1,0],[0]]","4","[[1,2,0],[3,0],[0]]","7","0","","","","","","4","","","","","","","","",""
"","","","","","single-stim-button","153","483206","0.0-2.0-31.3-1.3","62c41fe598ab94de4d4f021e","B2","batch2","","543","tol_toboard","","","","tol_peg_2","543","543","0","[[3,0,0],[1,2],[0]]","4","[[1,2,0],[3,0],[0]]","7","0","","","","","","4","","","","","","","","",""
"","","","","","single-stim-button","154","483662","0.0-2.0-31.4-0.4","62c41fe598ab94de4d4f021e","B2","batch2","","455","tol_tohand","","","","tol_peg_1","455","455","0","[[0,0,0],[1,2],[0]]","5","[[1,2,0],[3,0],[0]]","7","0","","","","","","4","","","","","","","","",""
"","","","","","single-stim-button","155","487447","0.0-2.0-31.4-1.4","62c41fe598ab94de4d4f021e","B2","batch2","","3784","tol_toboard","","","","tol_peg_1","3784","3784","0","[[3,0,0],[1,2],[0]]","5","[[1,2,0],[3,0],[0]]","7","0","","","","","","4","","","","","","","","",""
"","","","","","single-stim-button","156","488150","0.0-2.0-31.5-0.5","62c41fe598ab94de4d4f021e","B2","batch2","","703","tol_tohand","","","","tol_peg_2","703","703","0","[[3,0,0],[1,0],[0]]","6","[[1,2,0],[3,0],[0]]","7","0","","","","","","4","","","","","","","","",""
"","","","","","single-stim-button","157","488662","0.0-2.0-31.5-1.5","62c41fe598ab94de4d4f021e","B2","batch2","","511","tol_toboard","","","","tol_peg_3","511","511","0","[[3,0,0],[1,0],[2]]","6","[[1,2,0],[3,0],[0]]","7","0","","","","","","4","","","","","","","","",""
"","","","","","single-stim-button","158","490215","0.0-2.0-31.6-0.6","62c41fe598ab94de4d4f021e","B2","batch2","","1552","tol_tohand","","","","tol_peg_3","1552","1552","0","[[3,0,0],[1,0],[0]]","7","[[1,2,0],[3,0],[0]]","7","0","","","","","","4","","","","","","","","",""
"","","","","","single-stim-button","159","490702","0.0-2.0-31.6-1.6","62c41fe598ab94de4d4f021e","B2","batch2","","487","tol_toboard","","","","tol_peg_2","487","487","0","[[3,0,0],[1,2],[0]]","7","[[1,2,0],[3,0],[0]]","7","0","","","","","","4","","","","","","","","",""
"","","","","","single-stim-button","160","494495","0.0-2.0-31.7-0.7","62c41fe598ab94de4d4f021e","B2","batch2","","3792","tol_tohand","","","","tol_peg_1","3792","3792","0","[[0,0,0],[1,2],[0]]","8","[[1,2,0],[3,0],[0]]","7","0","","","","","","4","","","","","","","","",""
"","","","","","single-stim-button","161","495030","0.0-2.0-31.7-1.7","62c41fe598ab94de4d4f021e","B2","batch2","","535","tol_toboard","","","","tol_peg_3","535","535","0","[[0,0,0],[1,2],[3]]","8","[[1,2,0],[3,0],[0]]","7","0","","","","","","4","","","","","","","","",""
"","","","","","single-stim-button","162","496646","0.0-2.0-31.8-0.8","62c41fe598ab94de4d4f021e","B2","batch2","","1615","tol_tohand","","","","tol_peg_2","1615","1615","0","[[0,0,0],[1,0],[3]]","9","[[1,2,0],[3,0],[0]]","7","0","","","","","","4","","","","","","","","",""
"","","","","","single-stim-button","163","497606","0.0-2.0-31.8-1.8","62c41fe598ab94de4d4f021e","B2","batch2","","959","tol_toboard","","","","tol_peg_1","959","959","0","[[2,0,0],[1,0],[3]]","9","[[1,2,0],[3,0],[0]]","7","0","","","","","","4","","","","","","","","",""
"","","","","","single-stim-button","164","499775","0.0-2.0-31.9-0.9","62c41fe598ab94de4d4f021e","B2","batch2","","2168","tol_tohand","","","","tol_peg_2","2168","2168","0","[[2,0,0],[0,0],[3]]","10","[[1,2,0],[3,0],[0]]","7","0","","","","","","4","","","","","","","","",""
"","","","","","single-stim-button","165","500207","0.0-2.0-31.9-1.9","62c41fe598ab94de4d4f021e","B2","batch2","","431","tol_toboard","","","","tol_peg_1","431","431","0","[[2,1,0],[0,0],[3]]","10","[[1,2,0],[3,0],[0]]","7","0","","","","","","4","","","","","","","","",""
"","","","","","single-stim-button","166","500775","0.0-2.0-31.10-0.10","62c41fe598ab94de4d4f021e","B2","batch2","","568","tol_tohand","","","","tol_peg_3","568","568","0","[[2,1,0],[0,0],[0]]","11","[[1,2,0],[3,0],[0]]","7","0","","","","","","4","","","","","","","","",""
"","","","","","single-stim-button","167","501158","0.0-2.0-31.10-1.10","62c41fe598ab94de4d4f021e","B2","batch2","","383","tol_toboard","","","","tol_peg_2","383","383","0","[[2,1,0],[3,0],[0]]","11","[[1,2,0],[3,0],[0]]","7","0","","","","","","4","","","","","","","","",""
"","","","","","single-stim-button","168","501926","0.0-2.0-31.11-0.11","62c41fe598ab94de4d4f021e","B2","batch2","","767","tol_tohand","","","","tol_peg_1","767","767","0","[[2,0,0],[3,0],[0]]","12","[[1,2,0],[3,0],[0]]","7","0","","","","","","4","","","","","","","","",""
"","","","","","single-stim-button","169","504174","0.0-2.0-31.11-1.11","62c41fe598ab94de4d4f021e","B2","batch2","","2247","tol_toboard","","","","tol_peg_3","2247","2247","0","[[2,0,0],[3,0],[1]]","12","[[1,2,0],[3,0],[0]]","7","0","","","","","","4","","","","","","","","",""
"","","","","","single-stim-button","170","504935","0.0-2.0-31.12-0.12","62c41fe598ab94de4d4f021e","B2","batch2","","759","tol_tohand","","","","tol_peg_1","759","759","0","[[0,0,0],[3,0],[1]]","13","[[1,2,0],[3,0],[0]]","7","0","","","","","","4","","","","","","","","",""
"","","","","","single-stim-button","171","505262","0.0-2.0-31.12-1.12","62c41fe598ab94de4d4f021e","B2","batch2","","327","tol_toboard","","","","tol_peg_2","327","327","0","[[0,0,0],[3,2],[1]]","13","[[1,2,0],[3,0],[0]]","7","0","","","","","","4","","","","","","","","",""
"","","","","","single-stim-button","172","505710","0.0-2.0-31.13-0.13","62c41fe598ab94de4d4f021e","B2","batch2","","447","tol_tohand","","","","tol_peg_3","447","447","0","[[0,0,0],[3,2],[0]]","14","[[1,2,0],[3,0],[0]]","7","0","","","","","","4","","","","","","","","",""
"","","","","","single-stim-button","173","506343","0.0-2.0-31.13-1.13","62c41fe598ab94de4d4f021e","B2","batch2","","632","tol_toboard","","","","tol_peg_1","632","632","0","[[1,0,0],[3,2],[0]]","14","[[1,2,0],[3,0],[0]]","7","0","","","","","","4","","","","","","","","",""
"","","","","","single-stim-button","174","506718","0.0-2.0-31.14-0.14","62c41fe598ab94de4d4f021e","B2","batch2","","375","tol_tohand","","","","tol_peg_2","375","375","0","[[1,0,0],[3,0],[0]]","15","[[1,2,0],[3,0],[0]]","7","0","","","","","","4","","","","","","","","",""
"","","","","","single-stim-button","175","507398","0.0-2.0-31.14-1.14","62c41fe598ab94de4d4f021e","B2","batch2","","679","tol_toboard","","","","tol_peg_1","679","679","0","[[1,2,0],[3,0],[0]]","15","[[1,2,0],[3,0],[0]]","7","0","","","","","","4","","","","","","","","",""
"","","","","","poldrack-single-stim","176","508400","0.0-2.0-32.0","62c41fe598ab94de4d4f021e","B2","batch2","","-1","tol_feedback","","","true","","1000","1000","500","","","","","","-1","none","true","3711","18654","","","","","","","","","",""
"","","","","","html-button-response","177","509150","0.0-2.0-33.0","62c41fe598ab94de4d4f021e","B2","batch2","","749.5","tol_trial_num","<div class = centerbox><p class = center-block-text>problem <strong>9</strong> out of 25 problems</p></div>","0","","","","","","","","","","","","","","","","","","","","","","","","",""
"","","","","","single-stim-button","178","513783","0.0-2.0-34.0-0.0","62c41fe598ab94de4d4f021e","B2","batch2","","4632","tol_tohand","","","","tol_peg_1","4632","4632","0","[[3,0,0],[0,0],[1]]","1","[[2,1,0],[3,0],[0]]","8","0","","","","","","6","","","","","","","","",""
"","","","","","single-stim-button","179","514222","0.0-2.0-34.0-1.0","62c41fe598ab94de4d4f021e","B2","batch2","","439","tol_toboard","","","","tol_peg_2","439","439","0","[[3,0,0],[2,0],[1]]","1","[[2,1,0],[3,0],[0]]","8","0","","","","","","6","","","","","","","","",""
"","","","","","single-stim-button","180","514822","0.0-2.0-34.1-0.1","62c41fe598ab94de4d4f021e","B2","batch2","","599","tol_tohand","","","","tol_peg_3","599","599","0","[[3,0,0],[2,0],[0]]","2","[[2,1,0],[3,0],[0]]","8","0","","","","","","6","","","","","","","","",""
"","","","","","single-stim-button","181","518006","0.0-2.0-34.1-1.1","62c41fe598ab94de4d4f021e","B2","batch2","","3183","tol_toboard","","","","tol_peg_3","3183","3183","0","[[3,0,0],[2,0],[1]]","2","[[2,1,0],[3,0],[0]]","8","0","","","","","","6","","","","","","","","",""
"","","","","","single-stim-button","182","519487","0.0-2.0-34.2-0.2","62c41fe598ab94de4d4f021e","B2","batch2","","1479","tol_tohand","","","","tol_peg_1","1479","1479","0","[[0,0,0],[2,0],[1]]","3","[[2,1,0],[3,0],[0]]","8","0","","","","","","6","","","","","","","","",""
"","","","","","single-stim-button","183","521046","0.0-2.0-34.2-1.2","62c41fe598ab94de4d4f021e","B2","batch2","","1559","tol_toboard","","","","tol_peg_2","1559","1559","0","[[0,0,0],[2,3],[1]]","3","[[2,1,0],[3,0],[0]]","8","0","","","","","","6","","","","","","","","",""
"","","","","","single-stim-button","184","522190","0.0-2.0-34.3-0.3","62c41fe598ab94de4d4f021e","B2","batch2","","1143","tol_tohand","","","","tol_peg_2","1143","1143","0","[[0,0,0],[2,0],[1]]","4","[[2,1,0],[3,0],[0]]","8","0","","","","","","6","","","","","","","","",""
"","","","","","single-stim-button","185","524734","0.0-2.0-34.3-1.3","62c41fe598ab94de4d4f021e","B2","batch2","","2543","tol_toboard","","","","tol_peg_2","2543","2543","0","[[0,0,0],[2,3],[1]]","4","[[2,1,0],[3,0],[0]]","8","0","","","","","","6","","","","","","","","",""
"","","","","","single-stim-button","186","526766","0.0-2.0-34.4-0.4","62c41fe598ab94de4d4f021e","B2","batch2","","2031","tol_tohand","","","","tol_peg_2","2031","2031","0","[[0,0,0],[2,0],[1]]","5","[[2,1,0],[3,0],[0]]","8","0","","","","","","6","","","","","","","","",""
"","","","","","single-stim-button","187","527270","0.0-2.0-34.4-1.4","62c41fe598ab94de4d4f021e","B2","batch2","","503","tol_toboard","","","","tol_peg_1","503","503","0","[[3,0,0],[2,0],[1]]","5","[[2,1,0],[3,0],[0]]","8","0","","","","","","6","","","","","","","","",""
"","","","","","single-stim-button","188","528326","0.0-2.0-34.5-0.5","62c41fe598ab94de4d4f021e","B2","batch2","","1055","tol_tohand","","","","tol_peg_3","1055","1055","0","[[3,0,0],[2,0],[0]]","6","[[2,1,0],[3,0],[0]]","8","0","","","","","","6","","","","","","","","",""
"","","","","","single-stim-button","189","529894","0.0-2.0-34.5-1.5","62c41fe598ab94de4d4f021e","B2","batch2","","1567","tol_toboard","","","","tol_peg_2","1567","1567","0","[[3,0,0],[2,1],[0]]","6","[[2,1,0],[3,0],[0]]","8","0","","","","","","6","","","","","","","","",""
"","","","","","single-stim-button","190","530342","0.0-2.0-34.6-0.6","62c41fe598ab94de4d4f021e","B2","batch2","","447","tol_tohand","","","","tol_peg_1","447","447","0","[[0,0,0],[2,1],[0]]","7","[[2,1,0],[3,0],[0]]","8","0","","","","","","6","","","","","","","","",""
"","","","","","single-stim-button","191","531278","0.0-2.0-34.6-1.6","62c41fe598ab94de4d4f021e","B2","batch2","","935","tol_toboard","","","","tol_peg_3","935","935","0","[[0,0,0],[2,1],[3]]","7","[[2,1,0],[3,0],[0]]","8","0","","","","","","6","","","","","","","","",""
"","","","","","single-stim-button","192","535038","0.0-2.0-34.7-0.7","62c41fe598ab94de4d4f021e","B2","batch2","","3759","tol_tohand","","","","tol_peg_3","3759","3759","0","[[0,0,0],[2,1],[0]]","8","[[2,1,0],[3,0],[0]]","8","0","","","","","","6","","","","","","","","",""
"","","","","","single-stim-button","193","535878","0.0-2.0-34.7-1.7","62c41fe598ab94de4d4f021e","B2","batch2","","839","tol_toboard","","","","tol_peg_1","839","839","0","[[3,0,0],[2,1],[0]]","8","[[2,1,0],[3,0],[0]]","8","0","","","","","","6","","","","","","","","",""
"","","","","","single-stim-button","194","536582","0.0-2.0-34.8-0.8","62c41fe598ab94de4d4f021e","B2","batch2","","703","tol_tohand","","","","tol_peg_2","703","703","0","[[3,0,0],[2,0],[0]]","9","[[2,1,0],[3,0],[0]]","8","0","","","","","","6","","","","","","","","",""
"","","","","","single-stim-button","195","537182","0.0-2.0-34.8-1.8","62c41fe598ab94de4d4f021e","B2","batch2","","599","tol_toboard","","","","tol_peg_1","599","599","0","[[3,1,0],[2,0],[0]]","9","[[2,1,0],[3,0],[0]]","8","0","","","","","","6","","","","","","","","",""
"","","","","","single-stim-button","196","537534","0.0-2.0-34.9-0.9","62c41fe598ab94de4d4f021e","B2","batch2","","351","tol_tohand","","","","tol_peg_2","351","351","0","[[3,1,0],[0,0],[0]]","10","[[2,1,0],[3,0],[0]]","8","0","","","","","","6","","","","","","","","",""
"","","","","","single-stim-button","197","538030","0.0-2.0-34.9-1.9","62c41fe598ab94de4d4f021e","B2","batch2","","495","tol_toboard","","","","tol_peg_3","495","495","0","[[3,1,0],[0,0],[2]]","10","[[2,1,0],[3,0],[0]]","8","0","","","","","","6","","","","","","","","",""
"","","","","","single-stim-button","198","538902","0.0-2.0-34.10-0.10","62c41fe598ab94de4d4f021e","B2","batch2","","871","tol_tohand","","","","tol_peg_1","871","871","0","[[3,0,0],[0,0],[2]]","11","[[2,1,0],[3,0],[0]]","8","0","","","","","","6","","","","","","","","",""
"","","","","","single-stim-button","199","540686","0.0-2.0-34.10-1.10","62c41fe598ab94de4d4f021e","B2","batch2","","1783","tol_toboard","","","","tol_peg_2","1783","1783","0","[[3,0,0],[1,0],[2]]","11","[[2,1,0],[3,0],[0]]","8","0","","","","","","6","","","","","","","","",""
"","","","","","single-stim-button","200","541814","0.0-2.0-34.11-0.11","62c41fe598ab94de4d4f021e","B2","batch2","","1127","tol_tohand","","","","tol_peg_1","1127","1127","0","[[0,0,0],[1,0],[2]]","12","[[2,1,0],[3,0],[0]]","8","0","","","","","","6","","","","","","","","",""
"","","","","","single-stim-button","201","542470","0.0-2.0-34.11-1.11","62c41fe598ab94de4d4f021e","B2","batch2","","655","tol_toboard","","","","tol_peg_2","655","655","0","[[0,0,0],[1,3],[2]]","12","[[2,1,0],[3,0],[0]]","8","0","","","","","","6","","","","","","","","",""
"","","","","","single-stim-button","202","542886","0.0-2.0-34.12-0.12","62c41fe598ab94de4d4f021e","B2","batch2","","416","tol_tohand","","","","tol_peg_3","416","416","0","[[0,0,0],[1,3],[0]]","13","[[2,1,0],[3,0],[0]]","8","0","","","","","","6","","","","","","","","",""
"","","","","","single-stim-button","203","543414","0.0-2.0-34.12-1.12","62c41fe598ab94de4d4f021e","B2","batch2","","527","tol_toboard","","","","tol_peg_1","527","527","0","[[2,0,0],[1,3],[0]]","13","[[2,1,0],[3,0],[0]]","8","0","","","","","","6","","","","","","","","",""
"","","","","","single-stim-button","204","543782","0.0-2.0-34.13-0.13","62c41fe598ab94de4d4f021e","B2","batch2","","367","tol_tohand","","","","tol_peg_2","367","367","0","[[2,0,0],[1,0],[0]]","14","[[2,1,0],[3,0],[0]]","8","0","","","","","","6","","","","","","","","",""
"","","","","","single-stim-button","205","544182","0.0-2.0-34.13-1.13","62c41fe598ab94de4d4f021e","B2","batch2","","399","tol_toboard","","","","tol_peg_3","399","399","0","[[2,0,0],[1,0],[3]]","14","[[2,1,0],[3,0],[0]]","8","0","","","","","","6","","","","","","","","",""
"","","","","","single-stim-button","206","544702","0.0-2.0-34.14-0.14","62c41fe598ab94de4d4f021e","B2","batch2","","520","tol_tohand","","","","tol_peg_2","520","520","0","[[2,0,0],[0,0],[3]]","15","[[2,1,0],[3,0],[0]]","8","0","","","","","","6","","","","","","","","",""
"","","","","","single-stim-button","207","545863","0.0-2.0-34.14-1.14","62c41fe598ab94de4d4f021e","B2","batch2","","1161","tol_toboard","","","","tol_peg_1","1161","1161","0","[[2,1,0],[0,0],[3]]","15","[[2,1,0],[3,0],[0]]","8","0","","","","","","6","","","","","","","","",""
"","","","","","single-stim-button","208","546399","0.0-2.0-34.15-0.15","62c41fe598ab94de4d4f021e","B2","batch2","","535","tol_tohand","","","","tol_peg_3","535","535","0","[[2,1,0],[0,0],[0]]","16","[[2,1,0],[3,0],[0]]","8","0","","","","","","6","","","","","","","","",""
"","","","","","single-stim-button","209","546758","0.0-2.0-34.15-1.15","62c41fe598ab94de4d4f021e","B2","batch2","","359","tol_toboard","","","","tol_peg_2","359","359","0","[[2,1,0],[3,0],[0]]","16","[[2,1,0],[3,0],[0]]","8","0","","","","","","6","","","","","","","","",""
"","","","","","poldrack-single-stim","210","547759","0.0-2.0-35.0","62c41fe598ab94de4d4f021e","B2","batch2","","-1","tol_feedback","","","true","","1000","1000","500","","","","","","-1","none","true","4632","20035","","","","","","","","","",""
"","","","","","html-button-response","211","548406","0.0-2.0-36.0","62c41fe598ab94de4d4f021e","B2","batch2","","646.1999999880791","tol_trial_num","<div class = centerbox><p class = center-block-text>problem <strong>10</strong> out of 25 problems</p></div>","0","","","","","","","","","","","","","","","","","","","","","","","","",""
"","","","","","single-stim-button","212","551054","0.0-2.0-37.0-0.0","62c41fe598ab94de4d4f021e","B2","batch2","","2647","tol_tohand","","","","tol_peg_3","2647","2647","0","[[3,0,0],[1,0],[0]]","1","[[3,0,0],[2,1],[0]]","9","0","","","","","","3","","","","","","","","",""
"","","","","","single-stim-button","213","551430","0.0-2.0-37.0-1.0","62c41fe598ab94de4d4f021e","B2","batch2","","376","tol_toboard","","","","tol_peg_2","376","376","0","[[3,0,0],[1,2],[0]]","1","[[3,0,0],[2,1],[0]]","9","0","","","","","","3","","","","","","","","",""
"","","","","","single-stim-button","214","553702","0.0-2.0-37.1-0.1","62c41fe598ab94de4d4f021e","B2","batch2","","2272","tol_tohand","","","","tol_peg_2","2272","2272","0","[[3,0,0],[1,0],[0]]","2","[[3,0,0],[2,1],[0]]","9","0","","","","","","3","","","","","","","","",""
"","","","","","single-stim-button","215","554158","0.0-2.0-37.1-1.1","62c41fe598ab94de4d4f021e","B2","batch2","","456","tol_toboard","","","","tol_peg_3","456","456","0","[[3,0,0],[1,0],[2]]","2","[[3,0,0],[2,1],[0]]","9","0","","","","","","3","","","","","","","","",""
"","","","","","single-stim-button","216","554526","0.0-2.0-37.2-0.2","62c41fe598ab94de4d4f021e","B2","batch2","","368","tol_tohand","","","","tol_peg_2","368","368","0","[[3,0,0],[0,0],[2]]","3","[[3,0,0],[2,1],[0]]","9","0","","","","","","3","","","","","","","","",""
"","","","","","single-stim-button","217","554903","0.0-2.0-37.2-1.2","62c41fe598ab94de4d4f021e","B2","batch2","","376","tol_toboard","","","","tol_peg_1","376","376","0","[[3,1,0],[0,0],[2]]","3","[[3,0,0],[2,1],[0]]","9","0","","","","","","3","","","","","","","","",""
"","","","","","single-stim-button","218","555294","0.0-2.0-37.3-0.3","62c41fe598ab94de4d4f021e","B2","batch2","","391","tol_tohand","","","","tol_peg_3","391","391","0","[[3,1,0],[0,0],[0]]","4","[[3,0,0],[2,1],[0]]","9","0","","","","","","3","","","","","","","","",""
"","","","","","single-stim-button","219","555694","0.0-2.0-37.3-1.3","62c41fe598ab94de4d4f021e","B2","batch2","","400","tol_toboard","","","","tol_peg_2","400","400","0","[[3,1,0],[2,0],[0]]","4","[[3,0,0],[2,1],[0]]","9","0","","","","","","3","","","","","","","","",""
"","","","","","single-stim-button","220","556030","0.0-2.0-37.4-0.4","62c41fe598ab94de4d4f021e","B2","batch2","","335","tol_tohand","","","","tol_peg_1","335","335","0","[[3,0,0],[2,0],[0]]","5","[[3,0,0],[2,1],[0]]","9","0","","","","","","3","","","","","","","","",""
"","","","","","single-stim-button","221","556366","0.0-2.0-37.4-1.4","62c41fe598ab94de4d4f021e","B2","batch2","","335","tol_toboard","","","","tol_peg_2","335","335","0","[[3,0,0],[2,1],[0]]","5","[[3,0,0],[2,1],[0]]","9","0","","","","","","3","","","","","","","","",""
"","","","","","poldrack-single-stim","222","557368","0.0-2.0-38.0","62c41fe598ab94de4d4f021e","B2","batch2","","-1","tol_feedback","","","true","","1000","1000","500","","","","","","-1","none","true","2647","6013","","","","","","","","","",""
"","","","","","html-button-response","223","557974","0.0-2.0-39.0","62c41fe598ab94de4d4f021e","B2","batch2","","605.3000000119209","tol_trial_num","<div class = centerbox><p class = center-block-text>problem <strong>11</strong> out of 25 problems</p></div>","0","","","","","","","","","","","","","","","","","","","","","","","","",""
"","","","","","single-stim-button","224","569278","0.0-2.0-40.0-0.0","62c41fe598ab94de4d4f021e","B2","batch2","","11304","tol_tohand","","","","tol_peg_2","11304","11304","0","[[1,2,0],[0,0],[0]]","1","[[2,0,0],[1,3],[0]]","10","0","","","","","","6","","","","","","","","",""
"","","","","","single-stim-button","225","570134","0.0-2.0-40.0-1.0","62c41fe598ab94de4d4f021e","B2","batch2","","855","tol_toboard","","","","tol_peg_3","855","855","0","[[1,2,0],[0,0],[3]]","1","[[2,0,0],[1,3],[0]]","10","0","","","","","","6","","","","","","","","",""
"","","","","","single-stim-button","226","573943","0.0-2.0-40.1-0.1","62c41fe598ab94de4d4f021e","B2","batch2","","3809","tol_tohand","","","","tol_peg_1","3809","3809","0","[[1,0,0],[0,0],[3]]","2","[[2,0,0],[1,3],[0]]","10","0","","","","","","6","","","","","","","","",""
"","","","","","single-stim-button","227","574510","0.0-2.0-40.1-1.1","62c41fe598ab94de4d4f021e","B2","batch2","","567","tol_toboard","","","","tol_peg_2","567","567","0","[[1,0,0],[2,0],[3]]","2","[[2,0,0],[1,3],[0]]","10","0","","","","","","6","","","","","","","","",""
"","","","","","single-stim-button","228","580214","0.0-2.0-40.2-0.2","62c41fe598ab94de4d4f021e","B2","batch2","","5704","tol_tohand","","","","tol_peg_3","5704","5704","0","[[1,0,0],[2,0],[0]]","3","[[2,0,0],[1,3],[0]]","10","0","","","","","","6","","","","","","","","",""
"","","","","","single-stim-button","229","581462","0.0-2.0-40.2-1.2","62c41fe598ab94de4d4f021e","B2","batch2","","1247","tol_toboard","","","","tol_peg_1","1247","1247","0","[[1,3,0],[2,0],[0]]","3","[[2,0,0],[1,3],[0]]","10","0","","","","","","6","","","","","","","","",""
"","","","","","single-stim-button","230","581846","0.0-2.0-40.3-0.3","62c41fe598ab94de4d4f021e","B2","batch2","","384","tol_tohand","","","","tol_peg_2","384","384","0","[[1,3,0],[0,0],[0]]","4","[[2,0,0],[1,3],[0]]","10","0","","","","","","6","","","","","","","","",""
"","","","","","single-stim-button","231","582270","0.0-2.0-40.3-1.3","62c41fe598ab94de4d4f021e","B2","batch2","","423","tol_toboard","","","","tol_peg_3","423","423","0","[[1,3,0],[0,0],[2]]","4","[[2,0,0],[1,3],[0]]","10","0","","","","","","6","","","","","","","","",""
"","","","","","single-stim-button","232","588375","0.0-2.0-40.4-0.4","62c41fe598ab94de4d4f021e","B2","batch2","","6104","tol_tohand","","","","tol_peg_1","6104","6104","0","[[1,0,0],[0,0],[2]]","5","[[2,0,0],[1,3],[0]]","10","0","","","","","","6","","","","","","","","",""
"","","","","","single-stim-button","233","588654","0.0-2.0-40.4-1.4","62c41fe598ab94de4d4f021e","B2","batch2","","279","tol_toboard","","","","tol_peg_2","279","279","0","[[1,0,0],[3,0],[2]]","5","[[2,0,0],[1,3],[0]]","10","0","","","","","","6","","","","","","","","",""
"","","","","","single-stim-button","234","589190","0.0-2.0-40.5-0.5","62c41fe598ab94de4d4f021e","B2","batch2","","536","tol_tohand","","","","tol_peg_3","536","536","0","[[1,0,0],[3,0],[0]]","6","[[2,0,0],[1,3],[0]]","10","0","","","","","","6","","","","","","","","",""
"","","","","","single-stim-button","235","589630","0.0-2.0-40.5-1.5","62c41fe598ab94de4d4f021e","B2","batch2","","439","tol_toboard","","","","tol_peg_1","439","439","0","[[1,2,0],[3,0],[0]]","6","[[2,0,0],[1,3],[0]]","10","0","","","","","","6","","","","","","","","",""
"","","","","","single-stim-button","236","590534","0.0-2.0-40.6-0.6","62c41fe598ab94de4d4f021e","B2","batch2","","904","tol_tohand","","","","tol_peg_2","904","904","0","[[1,2,0],[0,0],[0]]","7","[[2,0,0],[1,3],[0]]","10","0","","","","","","6","","","","","","","","",""
"","","","","","single-stim-button","237","591030","0.0-2.0-40.6-1.6","62c41fe598ab94de4d4f021e","B2","batch2","","496","tol_toboard","","","","tol_peg_3","496","496","0","[[1,2,0],[0,0],[3]]","7","[[2,0,0],[1,3],[0]]","10","0","","","","","","6","","","","","","","","",""
"","","","","","single-stim-button","238","594366","0.0-2.0-40.7-0.7","62c41fe598ab94de4d4f021e","B2","batch2","","3336","tol_tohand","","","","tol_peg_1","3336","3336","0","[[1,0,0],[0,0],[3]]","8","[[2,0,0],[1,3],[0]]","10","0","","","","","","6","","","","","","","","",""
"","","","","","single-stim-button","239","594726","0.0-2.0-40.7-1.7","62c41fe598ab94de4d4f021e","B2","batch2","","360","tol_toboard","","","","tol_peg_2","360","360","0","[[1,0,0],[2,0],[3]]","8","[[2,0,0],[1,3],[0]]","10","0","","","","","","6","","","","","","","","",""
"","","","","","single-stim-button","240","595158","0.0-2.0-40.8-0.8","62c41fe598ab94de4d4f021e","B2","batch2","","432","tol_tohand","","","","tol_peg_1","432","432","0","[[0,0,0],[2,0],[3]]","9","[[2,0,0],[1,3],[0]]","10","0","","","","","","6","","","","","","","","",""
"","","","","","single-stim-button","241","595654","0.0-2.0-40.8-1.8","62c41fe598ab94de4d4f021e","B2","batch2","","495","tol_toboard","","","","tol_peg_2","495","495","0","[[0,0,0],[2,1],[3]]","9","[[2,0,0],[1,3],[0]]","10","0","","","","","","6","","","","","","","","",""
"","","","","","single-stim-button","242","596550","0.0-2.0-40.9-0.9","62c41fe598ab94de4d4f021e","B2","batch2","","896","tol_tohand","","","","tol_peg_3","896","896","0","[[0,0,0],[2,1],[0]]","10","[[2,0,0],[1,3],[0]]","10","0","","","","","","6","","","","","","","","",""
"","","","","","single-stim-button","243","596974","0.0-2.0-40.9-1.9","62c41fe598ab94de4d4f021e","B2","batch2","","423","tol_toboard","","","","tol_peg_1","423","423","0","[[3,0,0],[2,1],[0]]","10","[[2,0,0],[1,3],[0]]","10","0","","","","","","6","","","","","","","","",""
"","","","","","single-stim-button","244","598311","0.0-2.0-40.10-0.10","62c41fe598ab94de4d4f021e","B2","batch2","","1337","tol_tohand","","","","tol_peg_2","1337","1337","0","[[3,0,0],[2,0],[0]]","11","[[2,0,0],[1,3],[0]]","10","0","","","","","","6","","","","","","","","",""
"","","","","","single-stim-button","245","598830","0.0-2.0-40.10-1.10","62c41fe598ab94de4d4f021e","B2","batch2","","518","tol_toboard","","","","tol_peg_3","518","518","0","[[3,0,0],[2,0],[1]]","11","[[2,0,0],[1,3],[0]]","10","0","","","","","","6","","","","","","","","",""
"","","","","","single-stim-button","246","600118","0.0-2.0-40.11-0.11","62c41fe598ab94de4d4f021e","B2","batch2","","1288","tol_tohand","","","","tol_peg_2","1288","1288","0","[[3,0,0],[0,0],[1]]","12","[[2,0,0],[1,3],[0]]","10","0","","","","","","6","","","","","","","","",""
"","","","","","single-stim-button","247","600454","0.0-2.0-40.11-1.11","62c41fe598ab94de4d4f021e","B2","batch2","","336","tol_toboard","","","","tol_peg_1","336","336","0","[[3,2,0],[0,0],[1]]","12","[[2,0,0],[1,3],[0]]","10","0","","","","","","6","","","","","","","","",""
"","","","","","single-stim-button","248","602190","0.0-2.0-40.12-0.12","62c41fe598ab94de4d4f021e","B2","batch2","","1736","tol_tohand","","","","tol_peg_1","1736","1736","0","[[3,0,0],[0,0],[1]]","13","[[2,0,0],[1,3],[0]]","10","0","","","","","","6","","","","","","","","",""
"","","","","","single-stim-button","249","602566","0.0-2.0-40.12-1.12","62c41fe598ab94de4d4f021e","B2","batch2","","375","tol_toboard","","","","tol_peg_2","375","375","0","[[3,0,0],[2,0],[1]]","13","[[2,0,0],[1,3],[0]]","10","0","","","","","","6","","","","","","","","",""
"","","","","","single-stim-button","250","605782","0.0-2.0-40.13-0.13","62c41fe598ab94de4d4f021e","B2","batch2","","3216","tol_tohand","","","","tol_peg_3","3216","3216","0","[[3,0,0],[2,0],[0]]","14","[[2,0,0],[1,3],[0]]","10","0","","","","","","6","","","","","","","","",""
"","","","","","single-stim-button","251","606206","0.0-2.0-40.13-1.13","62c41fe598ab94de4d4f021e","B2","batch2","","423","tol_toboard","","","","tol_peg_2","423","423","0","[[3,0,0],[2,1],[0]]","14","[[2,0,0],[1,3],[0]]","10","0","","","","","","6","","","","","","","","",""
"","","","","","single-stim-button","252","606686","0.0-2.0-40.14-0.14","62c41fe598ab94de4d4f021e","B2","batch2","","479","tol_tohand","","","","tol_peg_2","479","479","0","[[3,0,0],[2,0],[0]]","15","[[2,0,0],[1,3],[0]]","10","0","","","","","","6","","","","","","","","",""
"","","","","","single-stim-button","253","607190","0.0-2.0-40.14-1.14","62c41fe598ab94de4d4f021e","B2","batch2","","504","tol_toboard","","","","tol_peg_1","504","504","0","[[3,1,0],[2,0],[0]]","15","[[2,0,0],[1,3],[0]]","10","0","","","","","","6","","","","","","","","",""
"","","","","","single-stim-button","254","607534","0.0-2.0-40.15-0.15","62c41fe598ab94de4d4f021e","B2","batch2","","343","tol_tohand","","","","tol_peg_2","343","343","0","[[3,1,0],[0,0],[0]]","16","[[2,0,0],[1,3],[0]]","10","0","","","","","","6","","","","","","","","",""
"","","","","","single-stim-button","255","607870","0.0-2.0-40.15-1.15","62c41fe598ab94de4d4f021e","B2","batch2","","336","tol_toboard","","","","tol_peg_3","336","336","0","[[3,1,0],[0,0],[2]]","16","[[2,0,0],[1,3],[0]]","10","0","","","","","","6","","","","","","","","",""
"","","","","","single-stim-button","256","610190","0.0-2.0-40.16-0.16","62c41fe598ab94de4d4f021e","B2","batch2","","2320","tol_tohand","","","","tol_peg_1","2320","2320","0","[[3,0,0],[0,0],[2]]","17","[[2,0,0],[1,3],[0]]","10","0","","","","","","6","","","","","","","","",""
"","","","","","single-stim-button","257","610614","0.0-2.0-40.16-1.16","62c41fe598ab94de4d4f021e","B2","batch2","","422","tol_toboard","","","","tol_peg_2","422","422","0","[[3,0,0],[1,0],[2]]","17","[[2,0,0],[1,3],[0]]","10","0","","","","","","6","","","","","","","","",""
"","","","","","single-stim-button","258","611014","0.0-2.0-40.17-0.17","62c41fe598ab94de4d4f021e","B2","batch2","","399","tol_tohand","","","","tol_peg_1","399","399","0","[[0,0,0],[1,0],[2]]","18","[[2,0,0],[1,3],[0]]","10","0","","","","","","6","","","","","","","","",""
"","","","","","single-stim-button","259","611518","0.0-2.0-40.17-1.17","62c41fe598ab94de4d4f021e","B2","batch2","","503","tol_toboard","","","","tol_peg_2","503","503","0","[[0,0,0],[1,3],[2]]","18","[[2,0,0],[1,3],[0]]","10","0","","","","","","6","","","","","","","","",""
"","","","","","single-stim-button","260","611950","0.0-2.0-40.18-0.18","62c41fe598ab94de4d4f021e","B2","batch2","","432","tol_tohand","","","","tol_peg_3","432","432","0","[[0,0,0],[1,3],[0]]","19","[[2,0,0],[1,3],[0]]","10","0","","","","","","6","","","","","","","","",""
"","","","","","single-stim-button","261","612446","0.0-2.0-40.18-1.18","62c41fe598ab94de4d4f021e","B2","batch2","","495","tol_toboard","","","","tol_peg_1","495","495","0","[[2,0,0],[1,3],[0]]","19","[[2,0,0],[1,3],[0]]","10","0","","","","","","6","","","","","","","","",""
"","","","","","poldrack-single-stim","262","613458","0.0-2.0-41.0","62c41fe598ab94de4d4f021e","B2","batch2","","-1","tol_feedback","","","true","","1000","1000","500","","","","","","-1","none","true","11304","44959","","","","","","","","","",""
"","","","","","html-button-response","263","614166","0.0-2.0-42.0","62c41fe598ab94de4d4f021e","B2","batch2","","706.9000000059605","tol_trial_num","<div class = centerbox><p class = center-block-text>problem <strong>12</strong> out of 25 problems</p></div>","0","","","","","","","","","","","","","","","","","","","","","","","","",""
"","","","","","single-stim-button","264","616686","0.0-2.0-43.0-0.0","62c41fe598ab94de4d4f021e","B2","batch2","","2520","tol_tohand","","","","tol_peg_1","2520","2520","0","[[1,0,0],[3,0],[0]]","1","[[2,3,0],[0,0],[1]]","11","0","","","","","","4","","","","","","","","",""
"","","","","","single-stim-button","265","617246","0.0-2.0-43.0-1.0","62c41fe598ab94de4d4f021e","B2","batch2","","558","tol_toboard","","","","tol_peg_3","558","558","0","[[1,0,0],[3,0],[2]]","1","[[2,3,0],[0,0],[1]]","11","0","","","","","","4","","","","","","","","",""
"","","","","","single-stim-button","266","621902","0.0-2.0-43.1-0.1","62c41fe598ab94de4d4f021e","B2","batch2","","4655","tol_tohand","","","","tol_peg_1","4655","4655","0","[[0,0,0],[3,0],[2]]","2","[[2,3,0],[0,0],[1]]","11","0","","","","","","4","","","","","","","","",""
"","","","","","single-stim-button","267","622254","0.0-2.0-43.1-1.1","62c41fe598ab94de4d4f021e","B2","batch2","","351","tol_toboard","","","","tol_peg_2","351","351","0","[[0,0,0],[3,1],[2]]","2","[[2,3,0],[0,0],[1]]","11","0","","","","","","4","","","","","","","","",""
"","","","","","single-stim-button","268","622941","0.0-2.0-43.2-0.2","62c41fe598ab94de4d4f021e","B2","batch2","","687","tol_tohand","","","","tol_peg_3","687","687","0","[[0,0,0],[3,1],[0]]","3","[[2,3,0],[0,0],[1]]","11","0","","","","","","4","","","","","","","","",""
"","","","","","single-stim-button","269","625205","0.0-2.0-43.2-1.2","62c41fe598ab94de4d4f021e","B2","batch2","","2263","tol_toboard","","","","tol_peg_1","2263","2263","0","[[2,0,0],[3,1],[0]]","3","[[2,3,0],[0,0],[1]]","11","0","","","","","","4","","","","","","","","",""
"","","","","","single-stim-button","270","629133","0.0-2.0-43.3-0.3","62c41fe598ab94de4d4f021e","B2","batch2","","3927","tol_tohand","","","","tol_peg_2","3927","3927","0","[[2,0,0],[3,0],[0]]","4","[[2,3,0],[0,0],[1]]","11","0","","","","","","4","","","","","","","","",""
"","","","","","single-stim-button","271","631397","0.0-2.0-43.3-1.3","62c41fe598ab94de4d4f021e","B2","batch2","","2263","tol_toboard","","","","tol_peg_3","2263","2263","0","[[2,0,0],[3,0],[1]]","4","[[2,3,0],[0,0],[1]]","11","0","","","","","","4","","","","","","","","",""
"","","","","","single-stim-button","272","634301","0.0-2.0-43.4-0.4","62c41fe598ab94de4d4f021e","B2","batch2","","2903","tol_tohand","","","","tol_peg_2","2903","2903","0","[[2,0,0],[0,0],[1]]","5","[[2,3,0],[0,0],[1]]","11","0","","","","","","4","","","","","","","","",""
"","","","","","single-stim-button","273","634661","0.0-2.0-43.4-1.4","62c41fe598ab94de4d4f021e","B2","batch2","","359","tol_toboard","","","","tol_peg_1","359","359","0","[[2,3,0],[0,0],[1]]","5","[[2,3,0],[0,0],[1]]","11","0","","","","","","4","","","","","","","","",""
"","","","","","poldrack-single-stim","274","635669","0.0-2.0-44.0","62c41fe598ab94de4d4f021e","B2","batch2","","-1","tol_feedback","","","true","","1000","1000","500","","","","","","-1","none","true","2520","14692","","","","","","","","","",""
"","","","","","html-button-response","275","636325","0.0-2.0-45.0","62c41fe598ab94de4d4f021e","B2","batch2","","655","tol_trial_num","<div class = centerbox><p class = center-block-text>problem <strong>13</strong> out of 25 problems</p></div>","0","","","","","","","","","","","","","","","","","","","","","","","","",""
"","","","","","single-stim-button","276","643757","0.0-2.0-46.0-0.0","62c41fe598ab94de4d4f021e","B2","batch2","","7431","tol_tohand","","","","tol_peg_1","7431","7431","0","[[1,0,0],[3,0],[0]]","1","[[0,0,0],[2,3],[1]]","12","0","","","","","","4","","","","","","","","",""
"","","","","","single-stim-button","277","644757","0.0-2.0-46.0-1.0","62c41fe598ab94de4d4f021e","B2","batch2","","999","tol_toboard","","","","tol_peg_3","999","999","0","[[1,0,0],[3,0],[2]]","1","[[0,0,0],[2,3],[1]]","12","0","","","","","","4","","","","","","","","",""
"","","","","","single-stim-button","278","648261","0.0-2.0-46.1-0.1","62c41fe598ab94de4d4f021e","B2","batch2","","3503","tol_tohand","","","","tol_peg_2","3503","3503","0","[[1,0,0],[0,0],[2]]","2","[[0,0,0],[2,3],[1]]","12","0","","","","","","4","","","","","","","","",""
"","","","","","single-stim-button","279","648605","0.0-2.0-46.1-1.1","62c41fe598ab94de4d4f021e","B2","batch2","","343","tol_toboard","","","","tol_peg_1","343","343","0","[[1,3,0],[0,0],[2]]","2","[[0,0,0],[2,3],[1]]","12","0","","","","","","4","","","","","","","","",""
"","","","","","single-stim-button","280","649821","0.0-2.0-46.2-0.2","62c41fe598ab94de4d4f021e","B2","batch2","","1215","tol_tohand","","","","tol_peg_3","1215","1215","0","[[1,3,0],[0,0],[0]]","3","[[0,0,0],[2,3],[1]]","12","0","","","","","","4","","","","","","","","",""
"","","","","","single-stim-button","281","650213","0.0-2.0-46.2-1.2","62c41fe598ab94de4d4f021e","B2","batch2","","391","tol_toboard","","","","tol_peg_2","391","391","0","[[1,3,0],[2,0],[0]]","3","[[0,0,0],[2,3],[1]]","12","0","","","","","","4","","","","","","","","",""
"","","","","","single-stim-button","282","650685","0.0-2.0-46.3-0.3","62c41fe598ab94de4d4f021e","B2","batch2","","471","tol_tohand","","","","tol_peg_1","471","471","0","[[1,0,0],[2,0],[0]]","4","[[0,0,0],[2,3],[1]]","12","0","","","","","","4","","","","","","","","",""
"","","","","","single-stim-button","283","652813","0.0-2.0-46.3-1.3","62c41fe598ab94de4d4f021e","B2","batch2","","2127","tol_toboard","","","","tol_peg_3","2127","2127","0","[[1,0,0],[2,0],[3]]","4","[[0,0,0],[2,3],[1]]","12","0","","","","","","4","","","","","","","","",""
"","","","","","single-stim-button","284","654062","0.0-2.0-46.4-0.4","62c41fe598ab94de4d4f021e","B2","batch2","","1248","tol_tohand","","","","tol_peg_3","1248","1248","0","[[1,0,0],[2,0],[0]]","5","[[0,0,0],[2,3],[1]]","12","0","","","","","","4","","","","","","","","",""
"","","","","","single-stim-button","285","654381","0.0-2.0-46.4-1.4","62c41fe598ab94de4d4f021e","B2","batch2","","319","tol_toboard","","","","tol_peg_2","319","319","0","[[1,0,0],[2,3],[0]]","5","[[0,0,0],[2,3],[1]]","12","0","","","","","","4","","","","","","","","",""
"","","","","","single-stim-button","286","654789","0.0-2.0-46.5-0.5","62c41fe598ab94de4d4f021e","B2","batch2","","407","tol_tohand","","","","tol_peg_1","407","407","0","[[0,0,0],[2,3],[0]]","6","[[0,0,0],[2,3],[1]]","12","0","","","","","","4","","","","","","","","",""
"","","","","","single-stim-button","287","655253","0.0-2.0-46.5-1.5","62c41fe598ab94de4d4f021e","B2","batch2","","463","tol_toboard","","","","tol_peg_3","463","463","0","[[0,0,0],[2,3],[1]]","6","[[0,0,0],[2,3],[1]]","12","0","","","","","","4","","","","","","","","",""
"","","","","","poldrack-single-stim","288","656256","0.0-2.0-47.0","62c41fe598ab94de4d4f021e","B2","batch2","","-1","tol_feedback","","","true","","1000","1000","500","","","","","","-1","none","true","7431","14275","","","","","","","","","",""
"","","","","","html-button-response","289","665005","0.0-2.0-48.0","62c41fe598ab94de4d4f021e","B2","batch2","","8748.299999982119","attention_check","<p class = block-text>How many balls are in your board<br></p>","1","true","","","","","","","","","","","","","","","","","","","","","","","",""
"","","","","","html-button-response","290","666485","0.0-2.0-49.0","62c41fe598ab94de4d4f021e","B2","batch2","","1479","tol_trial_num","<div class = centerbox><p class = center-block-text>problem <strong>14</strong> out of 25 problems</p></div>","0","","","","","","","","","","","","","","","","","","","","","","","","",""
"","","","","","single-stim-button","291","673277","0.0-2.0-50.0-0.0","62c41fe598ab94de4d4f021e","B2","batch2","","6791","tol_tohand","","","","tol_peg_1","6791","6791","0","[[2,0,0],[3,0],[0]]","1","[[1,2,0],[3,0],[0]]","13","0","","","","","","4","","","","","","","","",""
"","","","","","single-stim-button","292","673853","0.0-2.0-50.0-1.0","62c41fe598ab94de4d4f021e","B2","batch2","","575","tol_toboard","","","","tol_peg_3","575","575","0","[[2,0,0],[3,0],[1]]","1","[[1,2,0],[3,0],[0]]","13","0","","","","","","4","","","","","","","","",""
"","","","","","single-stim-button","293","674430","0.0-2.0-50.1-0.1","62c41fe598ab94de4d4f021e","B2","batch2","","576","tol_tohand","","","","tol_peg_1","576","576","0","[[0,0,0],[3,0],[1]]","2","[[1,2,0],[3,0],[0]]","13","0","","","","","","4","","","","","","","","",""
"","","","","","single-stim-button","294","675381","0.0-2.0-50.1-1.1","62c41fe598ab94de4d4f021e","B2","batch2","","951","tol_toboard","","","","tol_peg_2","951","951","0","[[0,0,0],[3,2],[1]]","2","[[1,2,0],[3,0],[0]]","13","0","","","","","","4","","","","","","","","",""
"","","","","","single-stim-button","295","676062","0.0-2.0-50.2-0.2","62c41fe598ab94de4d4f021e","B2","batch2","","680","tol_tohand","","","","tol_peg_3","680","680","0","[[0,0,0],[3,2],[0]]","3","[[1,2,0],[3,0],[0]]","13","0","","","","","","4","","","","","","","","",""
"","","","","","single-stim-button","296","676653","0.0-2.0-50.2-1.2","62c41fe598ab94de4d4f021e","B2","batch2","","591","tol_toboard","","","","tol_peg_1","591","591","0","[[1,0,0],[3,2],[0]]","3","[[1,2,0],[3,0],[0]]","13","0","","","","","","4","","","","","","","","",""
"","","","","","single-stim-button","297","677061","0.0-2.0-50.3-0.3","62c41fe598ab94de4d4f021e","B2","batch2","","408","tol_tohand","","","","tol_peg_2","408","408","0","[[1,0,0],[3,0],[0]]","4","[[1,2,0],[3,0],[0]]","13","0","","","","","","4","","","","","","","","",""
"","","","","","single-stim-button","298","677429","0.0-2.0-50.3-1.3","62c41fe598ab94de4d4f021e","B2","batch2","","368","tol_toboard","","","","tol_peg_1","368","368","0","[[1,2,0],[3,0],[0]]","4","[[1,2,0],[3,0],[0]]","13","0","","","","","","4","","","","","","","","",""
"","","","","","poldrack-single-stim","299","678433","0.0-2.0-51.0","62c41fe598ab94de4d4f021e","B2","batch2","","-1","tol_feedback","","","true","","1000","1000","500","","","","","","-1","none","true","6791","8455","","","","","","","","","",""
"","","","","","html-button-response","300","679190","0.0-2.0-52.0","62c41fe598ab94de4d4f021e","B2","batch2","","755.8000000119209","tol_trial_num","<div class = centerbox><p class = center-block-text>problem <strong>15</strong> out of 25 problems</p></div>","0","","","","","","","","","","","","","","","","","","","","","","","","",""
"","","","","","single-stim-button","301","683405","0.0-2.0-53.0-0.0","62c41fe598ab94de4d4f021e","B2","batch2","","4215","tol_tohand","","","","tol_peg_1","4215","4215","0","[[1,0,0],[3,0],[0]]","1","[[2,0,0],[3,0],[1]]","14","0","","","","","","3","","","","","","","","",""
"","","","","","single-stim-button","302","684350","0.0-2.0-53.0-1.0","62c41fe598ab94de4d4f021e","B2","batch2","","943","tol_toboard","","","","tol_peg_3","943","943","0","[[1,0,0],[3,0],[2]]","1","[[2,0,0],[3,0],[1]]","14","0","","","","","","3","","","","","","","","",""
"","","","","","single-stim-button","303","685462","0.0-2.0-53.1-0.1","62c41fe598ab94de4d4f021e","B2","batch2","","1112","tol_tohand","","","","tol_peg_1","1112","1112","0","[[0,0,0],[3,0],[2]]","2","[[2,0,0],[3,0],[1]]","14","0","","","","","","3","","","","","","","","",""
"","","","","","single-stim-button","304","685917","0.0-2.0-53.1-1.1","62c41fe598ab94de4d4f021e","B2","batch2","","455","tol_toboard","","","","tol_peg_2","455","455","0","[[0,0,0],[3,1],[2]]","2","[[2,0,0],[3,0],[1]]","14","0","","","","","","3","","","","","","","","",""
"","","","","","single-stim-button","305","686381","0.0-2.0-53.2-0.2","62c41fe598ab94de4d4f021e","B2","batch2","","464","tol_tohand","","","","tol_peg_3","464","464","0","[[0,0,0],[3,1],[0]]","3","[[2,0,0],[3,0],[1]]","14","0","","","","","","3","","","","","","","","",""
"","","","","","single-stim-button","306","686901","0.0-2.0-53.2-1.2","62c41fe598ab94de4d4f021e","B2","batch2","","520","tol_toboard","","","","tol_peg_1","520","520","0","[[2,0,0],[3,1],[0]]","3","[[2,0,0],[3,0],[1]]","14","0","","","","","","3","","","","","","","","",""
"","","","","","single-stim-button","307","687349","0.0-2.0-53.3-0.3","62c41fe598ab94de4d4f021e","B2","batch2","","448","tol_tohand","","","","tol_peg_2","448","448","0","[[2,0,0],[3,0],[0]]","4","[[2,0,0],[3,0],[1]]","14","0","","","","","","3","","","","","","","","",""
"","","","","","single-stim-button","308","687861","0.0-2.0-53.3-1.3","62c41fe598ab94de4d4f021e","B2","batch2","","512","tol_toboard","","","","tol_peg_3","512","512","0","[[2,0,0],[3,0],[1]]","4","[[2,0,0],[3,0],[1]]","14","0","","","","","","3","","","","","","","","",""
"","","","","","poldrack-single-stim","309","688875","0.0-2.0-54.0","62c41fe598ab94de4d4f021e","B2","batch2","","-1","tol_feedback","","","true","","1000","1000","500","","","","","","-1","none","true","4215","6239","","","","","","","","","",""
"","","","","","html-button-response","310","689557","0.0-2.0-55.0","62c41fe598ab94de4d4f021e","B2","batch2","","680.6999999880791","tol_trial_num","<div class = centerbox><p class = center-block-text>problem <strong>16</strong> out of 25 problems</p></div>","0","","","","","","","","","","","","","","","","","","","","","","","","",""
"","","","","","single-stim-button","311","694997","0.0-2.0-56.0-0.0","62c41fe598ab94de4d4f021e","B2","batch2","","5439","tol_tohand","","","","tol_peg_2","5439","5439","0","[[0,0,0],[2,0],[1]]","1","[[2,3,0],[1,0],[0]]","15","0","","","","","","7","","","","","","","","",""
"","","","","","single-stim-button","312","697661","0.0-2.0-56.0-1.0","62c41fe598ab94de4d4f021e","B2","batch2","","2664","tol_toboard","","","","tol_peg_2","2664","2664","0","[[0,0,0],[2,3],[1]]","1","[[2,3,0],[1,0],[0]]","15","0","","","","","","7","","","","","","","","",""
"","","","","","single-stim-button","313","709021","0.0-2.0-56.1-0.1","62c41fe598ab94de4d4f021e","B2","batch2","","11360","tol_tohand","","","","tol_peg_3","11360","11360","0","[[0,0,0],[2,3],[0]]","2","[[2,3,0],[1,0],[0]]","15","0","","","","","","7","","","","","","","","",""
"","","","","","single-stim-button","314","709413","0.0-2.0-56.1-1.1","62c41fe598ab94de4d4f021e","B2","batch2","","391","tol_toboard","","","","tol_peg_1","391","391","0","[[1,0,0],[2,3],[0]]","2","[[2,3,0],[1,0],[0]]","15","0","","","","","","7","","","","","","","","",""
"","","","","","single-stim-button","315","710261","0.0-2.0-56.2-0.2","62c41fe598ab94de4d4f021e","B2","batch2","","848","tol_tohand","","","","tol_peg_2","848","848","0","[[1,0,0],[2,0],[0]]","3","[[2,3,0],[1,0],[0]]","15","0","","","","","","7","","","","","","","","",""
"","","","","","single-stim-button","316","710701","0.0-2.0-56.2-1.2","62c41fe598ab94de4d4f021e","B2","batch2","","440","tol_toboard","","","","tol_peg_3","440","440","0","[[1,0,0],[2,0],[3]]","3","[[2,3,0],[1,0],[0]]","15","0","","","","","","7","","","","","","","","",""
"","","","","","single-stim-button","317","713470","0.0-2.0-56.3-0.3","62c41fe598ab94de4d4f021e","B2","batch2","","2768","tol_tohand","","","","tol_peg_2","2768","2768","0","[[1,0,0],[0,0],[3]]","4","[[2,3,0],[1,0],[0]]","15","0","","","","","","7","","","","","","","","",""
"","","","","","single-stim-button","318","714341","0.0-2.0-56.3-1.3","62c41fe598ab94de4d4f021e","B2","batch2","","870","tol_toboard","","","","tol_peg_1","870","870","0","[[1,2,0],[0,0],[3]]","4","[[2,3,0],[1,0],[0]]","15","0","","","","","","7","","","","","","","","",""
"","","","","","single-stim-button","319","715461","0.0-2.0-56.4-0.4","62c41fe598ab94de4d4f021e","B2","batch2","","1120","tol_tohand","","","","tol_peg_3","1120","1120","0","[[1,2,0],[0,0],[0]]","5","[[2,3,0],[1,0],[0]]","15","0","","","","","","7","","","","","","","","",""
"","","","","","single-stim-button","320","715765","0.0-2.0-56.4-1.4","62c41fe598ab94de4d4f021e","B2","batch2","","304","tol_toboard","","","","tol_peg_2","304","304","0","[[1,2,0],[3,0],[0]]","5","[[2,3,0],[1,0],[0]]","15","0","","","","","","7","","","","","","","","",""
"","","","","","single-stim-button","321","716181","0.0-2.0-56.5-0.5","62c41fe598ab94de4d4f021e","B2","batch2","","416","tol_tohand","","","","tol_peg_1","416","416","0","[[1,0,0],[3,0],[0]]","6","[[2,3,0],[1,0],[0]]","15","0","","","","","","7","","","","","","","","",""
"","","","","","single-stim-button","322","716701","0.0-2.0-56.5-1.5","62c41fe598ab94de4d4f021e","B2","batch2","","520","tol_toboard","","","","tol_peg_3","520","520","0","[[1,0,0],[3,0],[2]]","6","[[2,3,0],[1,0],[0]]","15","0","","","","","","7","","","","","","","","",""
"","","","","","single-stim-button","323","717342","0.0-2.0-56.6-0.6","62c41fe598ab94de4d4f021e","B2","batch2","","639","tol_tohand","","","","tol_peg_1","639","639","0","[[0,0,0],[3,0],[2]]","7","[[2,3,0],[1,0],[0]]","15","0","","","","","","7","","","","","","","","",""
"","","","","","single-stim-button","324","717837","0.0-2.0-56.6-1.6","62c41fe598ab94de4d4f021e","B2","batch2","","494","tol_toboard","","","","tol_peg_2","494","494","0","[[0,0,0],[3,1],[2]]","7","[[2,3,0],[1,0],[0]]","15","0","","","","","","7","","","","","","","","",""
"","","","","","single-stim-button","325","718285","0.0-2.0-56.7-0.7","62c41fe598ab94de4d4f021e","B2","batch2","","447","tol_tohand","","","","tol_peg_3","447","447","0","[[0,0,0],[3,1],[0]]","8","[[2,3,0],[1,0],[0]]","15","0","","","","","","7","","","","","","","","",""
"","","","","","single-stim-button","326","718941","0.0-2.0-56.7-1.7","62c41fe598ab94de4d4f021e","B2","batch2","","655","tol_toboard","","","","tol_peg_1","655","655","0","[[2,0,0],[3,1],[0]]","8","[[2,3,0],[1,0],[0]]","15","0","","","","","","7","","","","","","","","",""
"","","","","","single-stim-button","327","719333","0.0-2.0-56.8-0.8","62c41fe598ab94de4d4f021e","B2","batch2","","392","tol_tohand","","","","tol_peg_2","392","392","0","[[2,0,0],[3,0],[0]]","9","[[2,3,0],[1,0],[0]]","15","0","","","","","","7","","","","","","","","",""
"","","","","","single-stim-button","328","719821","0.0-2.0-56.8-1.8","62c41fe598ab94de4d4f021e","B2","batch2","","486","tol_toboard","","","","tol_peg_3","486","486","0","[[2,0,0],[3,0],[1]]","9","[[2,3,0],[1,0],[0]]","15","0","","","","","","7","","","","","","","","",""
"","","","","","single-stim-button","329","720317","0.0-2.0-56.9-0.9","62c41fe598ab94de4d4f021e","B2","batch2","","496","tol_tohand","","","","tol_peg_2","496","496","0","[[2,0,0],[0,0],[1]]","10","[[2,3,0],[1,0],[0]]","15","0","","","","","","7","","","","","","","","",""
"","","","","","single-stim-button","330","721549","0.0-2.0-56.9-1.9","62c41fe598ab94de4d4f021e","B2","batch2","","1232","tol_toboard","","","","tol_peg_1","1232","1232","0","[[2,3,0],[0,0],[1]]","10","[[2,3,0],[1,0],[0]]","15","0","","","","","","7","","","","","","","","",""
"","","","","","single-stim-button","331","722061","0.0-2.0-56.10-0.10","62c41fe598ab94de4d4f021e","B2","batch2","","511","tol_tohand","","","","tol_peg_3","511","511","0","[[2,3,0],[0,0],[0]]","11","[[2,3,0],[1,0],[0]]","15","0","","","","","","7","","","","","","","","",""
"","","","","","single-stim-button","332","722493","0.0-2.0-56.10-1.10","62c41fe598ab94de4d4f021e","B2","batch2","","431","tol_toboard","","","","tol_peg_2","431","431","0","[[2,3,0],[1,0],[0]]","11","[[2,3,0],[1,0],[0]]","15","0","","","","","","7","","","","","","","","",""
"","","","","","poldrack-single-stim","333","723506","0.0-2.0-57.0","62c41fe598ab94de4d4f021e","B2","batch2","","-1","tol_feedback","","","true","","1000","1000","500","","","","","","-1","none","true","5439","24436","","","","","","","","","",""
"","","","","","html-button-response","334","724469","0.0-2.0-58.0","62c41fe598ab94de4d4f021e","B2","batch2","","961.7000000178814","tol_trial_num","<div class = centerbox><p class = center-block-text>problem <strong>17</strong> out of 25 problems</p></div>","0","","","","","","","","","","","","","","","","","","","","","","","","",""
"","","","","","single-stim-button","335","727109","0.0-2.0-59.0-0.0","62c41fe598ab94de4d4f021e","B2","batch2","","2639","tol_tohand","","","","tol_peg_2","2639","2639","0","[[1,2,0],[0,0],[0]]","1","[[3,1,0],[2,0],[0]]","16","0","","","","","","5","","","","","","","","",""
"","","","","","single-stim-button","336","727469","0.0-2.0-59.0-1.0","62c41fe598ab94de4d4f021e","B2","batch2","","360","tol_toboard","","","","tol_peg_3","360","360","0","[[1,2,0],[0,0],[3]]","1","[[3,1,0],[2,0],[0]]","16","0","","","","","","5","","","","","","","","",""
"","","","","","single-stim-button","337","727893","0.0-2.0-59.1-0.1","62c41fe598ab94de4d4f021e","B2","batch2","","424","tol_tohand","","","","tol_peg_1","424","424","0","[[1,0,0],[0,0],[3]]","2","[[3,1,0],[2,0],[0]]","16","0","","","","","","5","","","","","","","","",""
"","","","","","single-stim-button","338","728293","0.0-2.0-59.1-1.1","62c41fe598ab94de4d4f021e","B2","batch2","","398","tol_toboard","","","","tol_peg_2","398","398","0","[[1,0,0],[2,0],[3]]","2","[[3,1,0],[2,0],[0]]","16","0","","","","","","5","","","","","","","","",""
"","","","","","single-stim-button","339","729157","0.0-2.0-59.2-0.2","62c41fe598ab94de4d4f021e","B2","batch2","","863","tol_tohand","","","","tol_peg_1","863","863","0","[[0,0,0],[2,0],[3]]","3","[[3,1,0],[2,0],[0]]","16","0","","","","","","5","","","","","","","","",""
"","","","","","single-stim-button","340","729509","0.0-2.0-59.2-1.2","62c41fe598ab94de4d4f021e","B2","batch2","","351","tol_toboard","","","","tol_peg_2","351","351","0","[[0,0,0],[2,1],[3]]","3","[[3,1,0],[2,0],[0]]","16","0","","","","","","5","","","","","","","","",""
"","","","","","single-stim-button","341","729909","0.0-2.0-59.3-0.3","62c41fe598ab94de4d4f021e","B2","batch2","","399","tol_tohand","","","","tol_peg_3","399","399","0","[[0,0,0],[2,1],[0]]","4","[[3,1,0],[2,0],[0]]","16","0","","","","","","5","","","","","","","","",""
"","","","","","single-stim-button","342","730597","0.0-2.0-59.3-1.3","62c41fe598ab94de4d4f021e","B2","batch2","","688","tol_toboard","","","","tol_peg_1","688","688","0","[[3,0,0],[2,1],[0]]","4","[[3,1,0],[2,0],[0]]","16","0","","","","","","5","","","","","","","","",""
"","","","","","single-stim-button","343","731180","0.0-2.0-59.4-0.4","62c41fe598ab94de4d4f021e","B2","batch2","","583","tol_tohand","","","","tol_peg_2","583","583","0","[[3,0,0],[2,0],[0]]","5","[[3,1,0],[2,0],[0]]","16","0","","","","","","5","","","","","","","","",""
"","","","","","single-stim-button","344","732741","0.0-2.0-59.4-1.4","62c41fe598ab94de4d4f021e","B2","batch2","","1559","tol_toboard","","","","tol_peg_1","1559","1559","0","[[3,1,0],[2,0],[0]]","5","[[3,1,0],[2,0],[0]]","16","0","","","","","","5","","","","","","","","",""
"","","","","","poldrack-single-stim","345","733753","0.0-2.0-60.0","62c41fe598ab94de4d4f021e","B2","batch2","","-1","tol_feedback","","","true","","1000","1000","500","","","","","","-1","none","true","2639","4908","","","","","","","","","",""
"","","","","","html-button-response","346","734357","0.0-2.0-61.0","62c41fe598ab94de4d4f021e","B2","batch2","","603.2000000178814","tol_trial_num","<div class = centerbox><p class = center-block-text>problem <strong>18</strong> out of 25 problems</p></div>","0","","","","","","","","","","","","","","","","","","","","","","","","",""
"","","","","","single-stim-button","347","738709","0.0-2.0-62.0-0.0","62c41fe598ab94de4d4f021e","B2","batch2","","4352","tol_tohand","","","","tol_peg_1","4352","4352","0","[[1,0,0],[3,0],[0]]","1","[[3,0,0],[2,0],[1]]","17","0","","","","","","5","","","","","","","","",""
"","","","","","single-stim-button","348","739077","0.0-2.0-62.0-1.0","62c41fe598ab94de4d4f021e","B2","batch2","","367","tol_toboard","","","","tol_peg_2","367","367","0","[[1,0,0],[3,2],[0]]","1","[[3,0,0],[2,0],[1]]","17","0","","","","","","5","","","","","","","","",""
"","","","","","single-stim-button","349","739549","0.0-2.0-62.1-0.1","62c41fe598ab94de4d4f021e","B2","batch2","","471","tol_tohand","","","","tol_peg_1","471","471","0","[[0,0,0],[3,2],[0]]","2","[[3,0,0],[2,0],[1]]","17","0","","","","","","5","","","","","","","","",""
"","","","","","single-stim-button","350","740077","0.0-2.0-62.1-1.1","62c41fe598ab94de4d4f021e","B2","batch2","","527","tol_toboard","","","","tol_peg_3","527","527","0","[[0,0,0],[3,2],[1]]","2","[[3,0,0],[2,0],[1]]","17","0","","","","","","5","","","","","","","","",""
"","","","","","single-stim-button","351","741829","0.0-2.0-62.2-0.2","62c41fe598ab94de4d4f021e","B2","batch2","","1751","tol_tohand","","","","tol_peg_2","1751","1751","0","[[0,0,0],[3,0],[1]]","3","[[3,0,0],[2,0],[1]]","17","0","","","","","","5","","","","","","","","",""
"","","","","","single-stim-button","352","742741","0.0-2.0-62.2-1.2","62c41fe598ab94de4d4f021e","B2","batch2","","912","tol_toboard","","","","tol_peg_1","912","912","0","[[2,0,0],[3,0],[1]]","3","[[3,0,0],[2,0],[1]]","17","0","","","","","","5","","","","","","","","",""
"","","","","","single-stim-button","353","748325","0.0-2.0-62.3-0.3","62c41fe598ab94de4d4f021e","B2","batch2","","5584","tol_tohand","","","","tol_peg_3","5584","5584","0","[[2,0,0],[3,0],[0]]","4","[[3,0,0],[2,0],[1]]","17","0","","","","","","5","","","","","","","","",""
"","","","","","single-stim-button","354","750285","0.0-2.0-62.3-1.3","62c41fe598ab94de4d4f021e","B2","batch2","","1960","tol_toboard","","","","tol_peg_2","1960","1960","0","[[2,0,0],[3,1],[0]]","4","[[3,0,0],[2,0],[1]]","17","0","","","","","","5","","","","","","","","",""
"","","","","","single-stim-button","355","750693","0.0-2.0-62.4-0.4","62c41fe598ab94de4d4f021e","B2","batch2","","408","tol_tohand","","","","tol_peg_1","408","408","0","[[0,0,0],[3,1],[0]]","5","[[3,0,0],[2,0],[1]]","17","0","","","","","","5","","","","","","","","",""
"","","","","","single-stim-button","356","751229","0.0-2.0-62.4-1.4","62c41fe598ab94de4d4f021e","B2","batch2","","536","tol_toboard","","","","tol_peg_3","536","536","0","[[0,0,0],[3,1],[2]]","5","[[3,0,0],[2,0],[1]]","17","0","","","","","","5","","","","","","","","",""
