"success","timeout","failed_images","failed_audio","failed_video","trial_type","trial_index","time_elapsed","internal_node_id","subject_id","study_id","session_id","view_history","rt","task","stimulus","response","correct","mouse_click","stim_duration","block_duration","timing_post_trial","current_position","tol_num_moves_made","tol_target","tol_problem_id","tol_rt","key_press","possible_responses","tol_correct","preplanning","tol_rt_per_trial","tol_min_moves","answer","item","fiar_detect_rt","fiar_detect_correct","total_correct_fiar_detect","post_trial_gap","choices","spm_correct","spm_rt"
"true","false","[]","[]","[]","preload","0","1050","0.0-0.0","62c9b08ae24d9a6320996a25","A3","batch1","","","","","","","","","","","","","","","","","","","","","","","","","","","","","",""
"true","","","","","fullscreen","1","180795","0.0-1.0-0.0","62c9b08ae24d9a6320996a25","A3","batch1","","","","","","","","","","","","","","","","","","","","","","","","","","","","","",""
"true","","","","","fullscreen","2","183039","0.0-2.0-0.0","62c9b08ae24d9a6320996a25","A3","batch1","","","","","","","","","","","","","","","","","","","","","","","","","","","","","",""
"","","","","","instructions","3","207773","0.0-2.0-1.0-0.0-0.0","62c9b08ae24d9a6320996a25","A3","batch1","[{""page_index"":0,""viewing_time"":11417},{""page_index"":1,""viewing_time"":2301},{""page_index"":2,""viewing_time"":3400},{""page_index"":3,""viewing_time"":2026},{""page_index"":4,""viewing_time"":2096},{""page_index"":5,""viewing_time"":1643},{""page_index"":6,""viewing_time"":1849}]","24732","tol-instructions","","","","","","","","","","","","","","","","","","","","","","","","","","",""
"","","","","","html-button-response","4","209471","0.0-2.0-1.0-1.0-0.0","62c9b08ae24d9a6320996a25","A3","batch1","","1699","tol_enter_quiz","<p class=block-text> Let's answer a few questions <br>","0","","","","","","","","","","","","","","","","","","","","","","","","",""
"","","","","","html-button-response","5","212651","0.0-2.0-1.0-1.0-1.0","62c9b08ae24d9a6320996a25","A3","batch1","","3179","tol_quiz","<p class = block-text>True or False: You can only move the ball on top of a peg. <br></p>","0","true","","","","","","","","","","","","","","","","","","","","","","","",""
"","","","","","html-button-response","6","213552","0.0-2.0-1.0-1.0-2.0","62c9b08ae24d9a6320996a25","A3","batch1","","898","tol_quiz_feedback","<p class = block-text>Correct! You can only move the ball on top of a peg.</p>","0","","","","","","","","","","","","","","","","","","","","","","","","",""
"","","","","","html-button-response","7","217059","0.0-2.0-1.0-1.0-3.0","62c9b08ae24d9a6320996a25","A3","batch1","","3507","tol_quiz","<p class = block-text>True or False: You should try to match your board with the target board with fewest moves possible. <br></p>","0","true","","","","","","","","","","","","","","","","","","","","","","","",""
"","","","","","html-button-response","8","218085","0.0-2.0-1.0-1.0-4.0","62c9b08ae24d9a6320996a25","A3","batch1","","1026","tol_quiz_feedback","<p class = block-text>Correct! </p>","0","","","","","","","","","","","","","","","","","","","","","","","","",""
"","","","","","html-button-response","9","220155","0.0-2.0-2.0","62c9b08ae24d9a6320996a25","A3","batch1","","2068","","<p class=block-text> Now that you've understood the game, let's practice a few easier examples before we start!<br> <br>","0","","","","","","","","","","","","","","","","","","","","","","","","",""
"","","","","","single-stim-button","10","225257","0.0-2.0-3.0-0.0","62c9b08ae24d9a6320996a25","A3","batch1","","5101","tol_practice","","","","tol_peg_2","5101","5101","0","[[1,2,0],[0,0],[0]]","1","[[1,2,0],[0,0],[3]]","practice","5101","","","","","","","","","","","","","","",""
"","","","","","single-stim-button","11","226836","0.0-2.0-3.0-1.0","62c9b08ae24d9a6320996a25","A3","batch1","","1578","tol_practice","","","","tol_peg_3","1578","1578","0","[[1,2,0],[0,0],[3]]","1","[[1,2,0],[0,0],[3]]","practice","1578","","","","","","","","","","","","","","",""
"","","","","","poldrack-single-stim","12","227849","0.0-2.0-4.0","62c9b08ae24d9a6320996a25","A3","batch1","","-1","tol_feedback","","","true","","1000","1000","500","","","","","","-1","none","true","","0","","","","","","","","","",""
"","","","","","single-stim-button","13","232731","0.0-2.0-5.0-0.0","62c9b08ae24d9a6320996a25","A3","batch1","","4881","tol_practice","","","","tol_peg_1","4881","4881","0","[[1,0,0],[3,0],[0]]","2","[[0,0,0],[3,1],[2]]","practice","4881","","","","","","","","","","","","","","",""
"","","","","","single-stim-button","14","233884","0.0-2.0-5.0-1.0","62c9b08ae24d9a6320996a25","A3","batch1","","1153","tol_practice","","","","tol_peg_3","1153","1153","0","[[1,0,0],[3,0],[2]]","2","[[0,0,0],[3,1],[2]]","practice","1153","","","","","","","","","","","","","","",""
"","","","","","single-stim-button","15","234792","0.0-2.0-5.1-0.1","62c9b08ae24d9a6320996a25","A3","batch1","","907","tol_practice","","","","tol_peg_1","907","907","0","[[0,0,0],[3,0],[2]]","3","[[0,0,0],[3,1],[2]]","practice","907","","","","","","","","","","","","","","",""
"","","","","","single-stim-button","16","235607","0.0-2.0-5.1-1.1","62c9b08ae24d9a6320996a25","A3","batch1","","814","tol_practice","","","","tol_peg_2","814","814","0","[[0,0,0],[3,1],[2]]","3","[[0,0,0],[3,1],[2]]","practice","814","","","","","","","","","","","","","","",""
"","","","","","poldrack-single-stim","17","236620","0.0-2.0-6.0","62c9b08ae24d9a6320996a25","A3","batch1","","-1","tol_feedback","","","true","","1000","1000","500","","","","","","-1","none","true","","0","","","","","","","","","",""
"","","","","","single-stim-button","18","240155","0.0-2.0-7.0-0.0","62c9b08ae24d9a6320996a25","A3","batch1","","3534","tol_practice","","","","tol_peg_2","3534","3534","0","[[1,2,0],[0,0],[0]]","4","[[1,0,0],[2,0],[3]]","practice","3534","","","","","","","","","","","","","","",""
"","","","","","single-stim-button","19","240892","0.0-2.0-7.0-1.0","62c9b08ae24d9a6320996a25","A3","batch1","","737","tol_practice","","","","tol_peg_3","737","737","0","[[1,2,0],[0,0],[3]]","4","[[1,0,0],[2,0],[3]]","practice","737","","","","","","","","","","","","","","",""
"","","","","","single-stim-button","20","241607","0.0-2.0-7.1-0.1","62c9b08ae24d9a6320996a25","A3","batch1","","715","tol_practice","","","","tol_peg_1","715","715","0","[[1,0,0],[0,0],[3]]","5","[[1,0,0],[2,0],[3]]","practice","715","","","","","","","","","","","","","","",""
"","","","","","single-stim-button","21","242316","0.0-2.0-7.1-1.1","62c9b08ae24d9a6320996a25","A3","batch1","","709","tol_practice","","","","tol_peg_2","709","709","0","[[1,0,0],[2,0],[3]]","5","[[1,0,0],[2,0],[3]]","practice","709","","","","","","","","","","","","","","",""
"","","","","","poldrack-single-stim","22","243319","0.0-2.0-8.0","62c9b08ae24d9a6320996a25","A3","batch1","","-1","tol_feedback","","","true","","1000","1000","500","","","","","","-1","none","true","","0","","","","","","","","","",""
"","","","","","html-button-response","23","245164","0.0-2.0-9.0","62c9b08ae24d9a6320996a25","A3","batch1","","1844","tol_instruction","<div class = centerbox><p class = center-block-text>Great job! You are done with practice trials<br>You are about to start official trials.<br> <br> Problem <strong>1</strong> out of 25 problems</p></div>","0","","","","","","","","","","","","","","","","","","","","","","","","",""
"","","","","","single-stim-button","24","249834","0.0-2.0-10.0-0.0","62c9b08ae24d9a6320996a25","A3","batch1","","3660","tol_tohand","","","","tol_peg_2","3660","3660","0","[[1,2,0],[0,0],[0]]","1","[[1,3,0],[2,0],[0]]","0","0","","","","","","3","","","","","","","","",""
"","","","","","single-stim-button","25","250543","0.0-2.0-10.0-1.0","62c9b08ae24d9a6320996a25","A3","batch1","","707","tol_toboard","","","","tol_peg_3","707","707","0","[[1,2,0],[0,0],[3]]","1","[[1,3,0],[2,0],[0]]","0","0","","","","","","3","","","","","","","","",""
"","","","","","single-stim-button","26","251230","0.0-2.0-10.1-0.1","62c9b08ae24d9a6320996a25","A3","batch1","","687","tol_tohand","","","","tol_peg_1","687","687","0","[[1,0,0],[0,0],[3]]","2","[[1,3,0],[2,0],[0]]","0","0","","","","","","3","","","","","","","","",""
"","","","","","single-stim-button","27","251888","0.0-2.0-10.1-1.1","62c9b08ae24d9a6320996a25","A3","batch1","","658","tol_toboard","","","","tol_peg_2","658","658","0","[[1,0,0],[2,0],[3]]","2","[[1,3,0],[2,0],[0]]","0","0","","","","","","3","","","","","","","","",""
"","","","","","single-stim-button","28","252533","0.0-2.0-10.2-0.2","62c9b08ae24d9a6320996a25","A3","batch1","","643","tol_tohand","","","","tol_peg_3","643","643","0","[[1,0,0],[2,0],[0]]","3","[[1,3,0],[2,0],[0]]","0","0","","","","","","3","","","","","","","","",""
"","","","","","single-stim-button","29","253334","0.0-2.0-10.2-1.2","62c9b08ae24d9a6320996a25","A3","batch1","","800","tol_toboard","","","","tol_peg_1","800","800","0","[[1,3,0],[2,0],[0]]","3","[[1,3,0],[2,0],[0]]","0","0","","","","","","3","","","","","","","","",""
"","","","","","poldrack-single-stim","30","254347","0.0-2.0-11.0","62c9b08ae24d9a6320996a25","A3","batch1","","-1","tol_feedback","","","true","","1000","1000","500","","","","","","-1","none","true","3660","4990","","","","","","","","","",""
"","","","","","html-button-response","31","255537","0.0-2.0-12.0","62c9b08ae24d9a6320996a25","A3","batch1","","1190","tol_trial_num","<div class = centerbox><p class = center-block-text>problem <strong>2</strong> out of 25 problems</p></div>","0","","","","","","","","","","","","","","","","","","","","","","","","",""
"","","","","","single-stim-button","32","261028","0.0-2.0-13.0-0.0","62c9b08ae24d9a6320996a25","A3","batch1","","5490","tol_tohand","","","","tol_peg_1","5490","5490","0","[[1,0,0],[3,0],[0]]","1","[[2,1,3],[0,0],[0]]","1","0","","","","","","5","","","","","","","","",""
"","","","","","single-stim-button","33","261843","0.0-2.0-13.0-1.0","62c9b08ae24d9a6320996a25","A3","batch1","","815","tol_toboard","","","","tol_peg_3","815","815","0","[[1,0,0],[3,0],[2]]","1","[[2,1,3],[0,0],[0]]","1","0","","","","","","5","","","","","","","","",""
"","","","","","single-stim-button","34","263268","0.0-2.0-13.1-0.1","62c9b08ae24d9a6320996a25","A3","batch1","","1424","tol_tohand","","","","tol_peg_1","1424","1424","0","[[0,0,0],[3,0],[2]]","2","[[2,1,3],[0,0],[0]]","1","0","","","","","","5","","","","","","","","",""
"","","","","","single-stim-button","35","263954","0.0-2.0-13.1-1.1","62c9b08ae24d9a6320996a25","A3","batch1","","686","tol_toboard","","","","tol_peg_2","686","686","0","[[0,0,0],[3,1],[2]]","2","[[2,1,3],[0,0],[0]]","1","0","","","","","","5","","","","","","","","",""
"","","","","","single-stim-button","36","264705","0.0-2.0-13.2-0.2","62c9b08ae24d9a6320996a25","A3","batch1","","751","tol_tohand","","","","tol_peg_3","751","751","0","[[0,0,0],[3,1],[0]]","3","[[2,1,3],[0,0],[0]]","1","0","","","","","","5","","","","","","","","",""
"","","","","","single-stim-button","37","266193","0.0-2.0-13.2-1.2","62c9b08ae24d9a6320996a25","A3","batch1","","1487","tol_toboard","","","","tol_peg_1","1487","1487","0","[[2,0,0],[3,1],[0]]","3","[[2,1,3],[0,0],[0]]","1","0","","","","","","5","","","","","","","","",""
"","","","","","single-stim-button","38","266852","0.0-2.0-13.3-0.3","62c9b08ae24d9a6320996a25","A3","batch1","","658","tol_tohand","","","","tol_peg_2","658","658","0","[[2,0,0],[3,0],[0]]","4","[[2,1,3],[0,0],[0]]","1","0","","","","","","5","","","","","","","","",""
"","","","","","single-stim-button","39","267448","0.0-2.0-13.3-1.3","62c9b08ae24d9a6320996a25","A3","batch1","","596","tol_toboard","","","","tol_peg_1","596","596","0","[[2,1,0],[3,0],[0]]","4","[[2,1,3],[0,0],[0]]","1","0","","","","","","5","","","","","","","","",""
"","","","","","single-stim-button","40","268141","0.0-2.0-13.4-0.4","62c9b08ae24d9a6320996a25","A3","batch1","","693","tol_tohand","","","","tol_peg_2","693","693","0","[[2,1,0],[0,0],[0]]","5","[[2,1,3],[0,0],[0]]","1","0","","","","","","5","","","","","","","","",""
"","","","","","single-stim-button","41","268871","0.0-2.0-13.4-1.4","62c9b08ae24d9a6320996a25","A3","batch1","","729","tol_toboard","","","","tol_peg_1","729","729","0","[[2,1,3],[0,0],[0]]","5","[[2,1,3],[0,0],[0]]","1","0","","","","","","5","","","","","","","","",""
"","","","","","poldrack-single-stim","42","269886","0.0-2.0-14.0","62c9b08ae24d9a6320996a25","A3","batch1","","-1","tol_feedback","","","true","","1000","1000","500","","","","","","-1","none","true","5490","9016","","","","","","","","","",""
"","","","","","html-button-response","43","271082","0.0-2.0-15.0","62c9b08ae24d9a6320996a25","A3","batch1","","1195","tol_trial_num","<div class = centerbox><p class = center-block-text>problem <strong>3</strong> out of 25 problems</p></div>","0","","","","","","","","","","","","","","","","","","","","","","","","",""
"","","","","","single-stim-button","44","275688","0.0-2.0-16.0-0.0","62c9b08ae24d9a6320996a25","A3","batch1","","4605","tol_tohand","","","","tol_peg_1","4605","4605","0","[[2,0,0],[0,0],[1]]","1","[[1,2,0],[3,0],[0]]","2","0","","","","","","4","","","","","","","","",""
"","","","","","single-stim-button","45","276376","0.0-2.0-16.0-1.0","62c9b08ae24d9a6320996a25","A3","batch1","","687","tol_toboard","","","","tol_peg_2","687","687","0","[[2,0,0],[3,0],[1]]","1","[[1,2,0],[3,0],[0]]","2","0","","","","","","4","","","","","","","","",""
"","","","","","single-stim-button","46","277169","0.0-2.0-16.1-0.1","62c9b08ae24d9a6320996a25","A3","batch1","","793","tol_tohand","","","","tol_peg_1","793","793","0","[[0,0,0],[3,0],[1]]","2","[[1,2,0],[3,0],[0]]","2","0","","","","","","4","","","","","","","","",""
"","","","","","single-stim-button","47","277884","0.0-2.0-16.1-1.1","62c9b08ae24d9a6320996a25","A3","batch1","","715","tol_toboard","","","","tol_peg_2","715","715","0","[[0,0,0],[3,2],[1]]","2","[[1,2,0],[3,0],[0]]","2","0","","","","","","4","","","","","","","","",""
"","","","","","single-stim-button","48","278635","0.0-2.0-16.2-0.2","62c9b08ae24d9a6320996a25","A3","batch1","","751","tol_tohand","","","","tol_peg_3","751","751","0","[[0,0,0],[3,2],[0]]","3","[[1,2,0],[3,0],[0]]","2","0","","","","","","4","","","","","","","","",""
"","","","","","single-stim-button","49","279556","0.0-2.0-16.2-1.2","62c9b08ae24d9a6320996a25","A3","batch1","","920","tol_toboard","","","","tol_peg_1","920","920","0","[[1,0,0],[3,2],[0]]","3","[[1,2,0],[3,0],[0]]","2","0","","","","","","4","","","","","","","","",""
"","","","","","single-stim-button","50","280307","0.0-2.0-16.3-0.3","62c9b08ae24d9a6320996a25","A3","batch1","","751","tol_tohand","","","","tol_peg_2","751","751","0","[[1,0,0],[3,0],[0]]","4","[[1,2,0],[3,0],[0]]","2","0","","","","","","4","","","","","","","","",""
"","","","","","single-stim-button","51","281023","0.0-2.0-16.3-1.3","62c9b08ae24d9a6320996a25","A3","batch1","","714","tol_toboard","","","","tol_peg_1","714","714","0","[[1,2,0],[3,0],[0]]","4","[[1,2,0],[3,0],[0]]","2","0","","","","","","4","","","","","","","","",""
"","","","","","poldrack-single-stim","52","282032","0.0-2.0-17.0","62c9b08ae24d9a6320996a25","A3","batch1","","-1","tol_feedback","","","true","","1000","1000","500","","","","","","-1","none","true","4605","6900","","","","","","","","","",""
"","","","","","html-button-response","53","283056","0.0-2.0-18.0","62c9b08ae24d9a6320996a25","A3","batch1","","1023","tol_trial_num","<div class = centerbox><p class = center-block-text>problem <strong>4</strong> out of 25 problems</p></div>","0","","","","","","","","","","","","","","","","","","","","","","","","",""
"","","","","","single-stim-button","54","287124","0.0-2.0-19.0-0.0","62c9b08ae24d9a6320996a25","A3","batch1","","4067","tol_tohand","","","","tol_peg_2","4067","4067","0","[[3,0,0],[2,0],[0]]","1","[[3,0,0],[1,0],[2]]","3","0","","","","","","3","","","","","","","","",""
"","","","","","single-stim-button","55","287804","0.0-2.0-19.0-1.0","62c9b08ae24d9a6320996a25","A3","batch1","","680","tol_toboard","","","","tol_peg_1","680","680","0","[[3,1,0],[2,0],[0]]","1","[[3,0,0],[1,0],[2]]","3","0","","","","","","3","","","","","","","","",""
"","","","","","single-stim-button","56","288400","0.0-2.0-19.1-0.1","62c9b08ae24d9a6320996a25","A3","batch1","","596","tol_tohand","","","","tol_peg_2","596","596","0","[[3,1,0],[0,0],[0]]","2","[[3,0,0],[1,0],[2]]","3","0","","","","","","3","","","","","","","","",""
"","","","","","single-stim-button","57","289136","0.0-2.0-19.1-1.1","62c9b08ae24d9a6320996a25","A3","batch1","","736","tol_toboard","","","","tol_peg_3","736","736","0","[[3,1,0],[0,0],[2]]","2","[[3,0,0],[1,0],[2]]","3","0","","","","","","3","","","","","","","","",""
"","","","","","single-stim-button","58","289937","0.0-2.0-19.2-0.2","62c9b08ae24d9a6320996a25","A3","batch1","","801","tol_tohand","","","","tol_peg_1","801","801","0","[[3,0,0],[0,0],[2]]","3","[[3,0,0],[1,0],[2]]","3","0","","","","","","3","","","","","","","","",""
"","","","","","single-stim-button","59","290568","0.0-2.0-19.2-1.2","62c9b08ae24d9a6320996a25","A3","batch1","","631","tol_toboard","","","","tol_peg_2","631","631","0","[[3,0,0],[1,0],[2]]","3","[[3,0,0],[1,0],[2]]","3","0","","","","","","3","","","","","","","","",""
"","","","","","poldrack-single-stim","60","291578","0.0-2.0-20.0","62c9b08ae24d9a6320996a25","A3","batch1","","-1","tol_feedback","","","true","","1000","1000","500","","","","","","-1","none","true","4067","5464","","","","","","","","","",""
"","","","","","html-button-response","61","292468","0.0-2.0-21.0","62c9b08ae24d9a6320996a25","A3","batch1","","890","tol_trial_num","<div class = centerbox><p class = center-block-text>problem <strong>5</strong> out of 25 problems</p></div>","0","","","","","","","","","","","","","","","","","","","","","","","","",""
"","","","","","single-stim-button","62","299242","0.0-2.0-22.0-0.0","62c9b08ae24d9a6320996a25","A3","batch1","","6774","tol_tohand","","","","tol_peg_3","6774","6774","0","[[1,0,0],[2,0],[0]]","1","[[0,0,0],[1,2],[3]]","4","0","","","","","","7","","","","","","","","",""
"","","","","","single-stim-button","63","306599","0.0-2.0-22.0-1.0","62c9b08ae24d9a6320996a25","A3","batch1","","7357","tol_toboard","","","","tol_peg_1","7357","7357","0","[[1,3,0],[2,0],[0]]","1","[[0,0,0],[1,2],[3]]","4","0","","","","","","7","","","","","","","","",""
"","","","","","single-stim-button","64","307214","0.0-2.0-22.1-0.1","62c9b08ae24d9a6320996a25","A3","batch1","","615","tol_tohand","","","","tol_peg_2","615","615","0","[[1,3,0],[0,0],[0]]","2","[[0,0,0],[1,2],[3]]","4","0","","","","","","7","","","","","","","","",""
"","","","","","single-stim-button","65","307965","0.0-2.0-22.1-1.1","62c9b08ae24d9a6320996a25","A3","batch1","","750","tol_toboard","","","","tol_peg_3","750","750","0","[[1,3,0],[0,0],[2]]","2","[[0,0,0],[1,2],[3]]","4","0","","","","","","7","","","","","","","","",""
"","","","","","single-stim-button","66","309029","0.0-2.0-22.2-0.2","62c9b08ae24d9a6320996a25","A3","batch1","","1064","tol_tohand","","","","tol_peg_1","1064","1064","0","[[1,0,0],[0,0],[2]]","3","[[0,0,0],[1,2],[3]]","4","0","","","","","","7","","","","","","","","",""
"","","","","","single-stim-button","67","310085","0.0-2.0-22.2-1.2","62c9b08ae24d9a6320996a25","A3","batch1","","1056","tol_toboard","","","","tol_peg_2","1056","1056","0","[[1,0,0],[3,0],[2]]","3","[[0,0,0],[1,2],[3]]","4","0","","","","","","7","","","","","","","","",""
"","","","","","single-stim-button","68","312934","0.0-2.0-22.3-0.3","62c9b08ae24d9a6320996a25","A3","batch1","","2849","tol_tohand","","","","tol_peg_1","2849","2849","0","[[0,0,0],[3,0],[2]]","4","[[0,0,0],[1,2],[3]]","4","0","","","","","","7","","","","","","","","",""
"","","","","","single-stim-button","69","315088","0.0-2.0-22.3-1.3","62c9b08ae24d9a6320996a25","A3","batch1","","2153","tol_toboard","","","","tol_peg_1","2153","2153","0","[[1,0,0],[3,0],[2]]","4","[[0,0,0],[1,2],[3]]","4","0","","","","","","7","","","","","","","","",""
"","","","","","single-stim-button","70","317710","0.0-2.0-22.4-0.4","62c9b08ae24d9a6320996a25","A3","batch1","","2622","tol_tohand","","","","tol_peg_2","2622","2622","0","[[1,0,0],[0,0],[2]]","5","[[0,0,0],[1,2],[3]]","4","0","","","","","","7","","","","","","","","",""
"","","","","","single-stim-button","71","318342","0.0-2.0-22.4-1.4","62c9b08ae24d9a6320996a25","A3","batch1","","630","tol_toboard","","","","tol_peg_1","630","630","0","[[1,3,0],[0,0],[2]]","5","[[0,0,0],[1,2],[3]]","4","0","","","","","","7","","","","","","","","",""
"","","","","","single-stim-button","72","319184","0.0-2.0-22.5-0.5","62c9b08ae24d9a6320996a25","A3","batch1","","841","tol_tohand","","","","tol_peg_3","841","841","0","[[1,3,0],[0,0],[0]]","6","[[0,0,0],[1,2],[3]]","4","0","","","","","","7","","","","","","","","",""
"","","","","","single-stim-button","73","319957","0.0-2.0-22.5-1.5","62c9b08ae24d9a6320996a25","A3","batch1","","772","tol_toboard","","","","tol_peg_2","772","772","0","[[1,3,0],[2,0],[0]]","6","[[0,0,0],[1,2],[3]]","4","0","","","","","","7","","","","","","","","",""
"","","","","","single-stim-button","74","320658","0.0-2.0-22.6-0.6","62c9b08ae24d9a6320996a25","A3","batch1","","700","tol_tohand","","","","tol_peg_1","700","700","0","[[1,0,0],[2,0],[0]]","7","[[0,0,0],[1,2],[3]]","4","0","","","","","","7","","","","","","","","",""
"","","","","","single-stim-button","75","321479","0.0-2.0-22.6-1.6","62c9b08ae24d9a6320996a25","A3","batch1","","821","tol_toboard","","","","tol_peg_3","821","821","0","[[1,0,0],[2,0],[3]]","7","[[0,0,0],[1,2],[3]]","4","0","","","","","","7","","","","","","","","",""
"","","","","","single-stim-button","76","322252","0.0-2.0-22.7-0.7","62c9b08ae24d9a6320996a25","A3","batch1","","773","tol_tohand","","","","tol_peg_1","773","773","0","[[0,0,0],[2,0],[3]]","8","[[0,0,0],[1,2],[3]]","4","0","","","","","","7","","","","","","","","",""
"","","","","","single-stim-button","77","325405","0.0-2.0-22.7-1.7","62c9b08ae24d9a6320996a25","A3","batch1","","3152","tol_toboard","","","","tol_peg_1","3152","3152","0","[[1,0,0],[2,0],[3]]","8","[[0,0,0],[1,2],[3]]","4","0","","","","","","7","","","","","","","","",""
"","","","","","single-stim-button","78","326136","0.0-2.0-22.8-0.8","62c9b08ae24d9a6320996a25","A3","batch1","","731","tol_tohand","","","","tol_peg_3","731","731","0","[[1,0,0],[2,0],[0]]","9","[[0,0,0],[1,2],[3]]","4","0","","","","","","7","","","","","","","","",""
"","","","","","single-stim-button","79","326943","0.0-2.0-22.8-1.8","62c9b08ae24d9a6320996a25","A3","batch1","","807","tol_toboard","","","","tol_peg_2","807","807","0","[[1,0,0],[2,3],[0]]","9","[[0,0,0],[1,2],[3]]","4","0","","","","","","7","","","","","","","","",""
"","","","","","single-stim-button","80","328346","0.0-2.0-22.9-0.9","62c9b08ae24d9a6320996a25","A3","batch1","","1403","tol_tohand","","","","tol_peg_2","1403","1403","0","[[1,0,0],[2,0],[0]]","10","[[0,0,0],[1,2],[3]]","4","0","","","","","","7","","","","","","","","",""
"","","","","","single-stim-button","81","329948","0.0-2.0-22.9-1.9","62c9b08ae24d9a6320996a25","A3","batch1","","1602","tol_toboard","","","","tol_peg_3","1602","1602","0","[[1,0,0],[2,0],[3]]","10","[[0,0,0],[1,2],[3]]","4","0","","","","","","7","","","","","","","","",""
"","","","","","single-stim-button","82","330656","0.0-2.0-22.10-0.10","62c9b08ae24d9a6320996a25","A3","batch1","","708","tol_tohand","","","","tol_peg_2","708","708","0","[[1,0,0],[0,0],[3]]","11","[[0,0,0],[1,2],[3]]","4","0","","","","","","7","","","","","","","","",""
"","","","","","single-stim-button","83","331294","0.0-2.0-22.10-1.10","62c9b08ae24d9a6320996a25","A3","batch1","","637","tol_toboard","","","","tol_peg_1","637","637","0","[[1,2,0],[0,0],[3]]","11","[[0,0,0],[1,2],[3]]","4","0","","","","","","7","","","","","","","","",""
"","","","","","single-stim-button","84","332009","0.0-2.0-22.11-0.11","62c9b08ae24d9a6320996a25","A3","batch1","","715","tol_tohand","","","","tol_peg_3","715","715","0","[[1,2,0],[0,0],[0]]","12","[[0,0,0],[1,2],[3]]","4","0","","","","","","7","","","","","","","","",""
"","","","","","single-stim-button","85","332726","0.0-2.0-22.11-1.11","62c9b08ae24d9a6320996a25","A3","batch1","","716","tol_toboard","","","","tol_peg_2","716","716","0","[[1,2,0],[3,0],[0]]","12","[[0,0,0],[1,2],[3]]","4","0","","","","","","7","","","","","","","","",""
"","","","","","single-stim-button","86","333440","0.0-2.0-22.12-0.12","62c9b08ae24d9a6320996a25","A3","batch1","","714","tol_tohand","","","","tol_peg_1","714","714","0","[[1,0,0],[3,0],[0]]","13","[[0,0,0],[1,2],[3]]","4","0","","","","","","7","","","","","","","","",""
"","","","","","single-stim-button","87","334135","0.0-2.0-22.12-1.12","62c9b08ae24d9a6320996a25","A3","batch1","","694","tol_toboard","","","","tol_peg_2","694","694","0","[[1,0,0],[3,2],[0]]","13","[[0,0,0],[1,2],[3]]","4","0","","","","","","7","","","","","","","","",""
"","","","","","single-stim-button","88","334958","0.0-2.0-22.13-0.13","62c9b08ae24d9a6320996a25","A3","batch1","","823","tol_tohand","","","","tol_peg_1","823","823","0","[[0,0,0],[3,2],[0]]","14","[[0,0,0],[1,2],[3]]","4","0","","","","","","7","","","","","","","","",""
"","","","","","single-stim-button","89","335758","0.0-2.0-22.13-1.13","62c9b08ae24d9a6320996a25","A3","batch1","","799","tol_toboard","","","","tol_peg_3","799","799","0","[[0,0,0],[3,2],[1]]","14","[[0,0,0],[1,2],[3]]","4","0","","","","","","7","","","","","","","","",""
"","","","","","single-stim-button","90","336488","0.0-2.0-22.14-0.14","62c9b08ae24d9a6320996a25","A3","batch1","","728","tol_tohand","","","","tol_peg_2","728","728","0","[[0,0,0],[3,0],[1]]","15","[[0,0,0],[1,2],[3]]","4","0","","","","","","7","","","","","","","","",""
"","","","","","single-stim-button","91","337225","0.0-2.0-22.14-1.14","62c9b08ae24d9a6320996a25","A3","batch1","","737","tol_toboard","","","","tol_peg_1","737","737","0","[[2,0,0],[3,0],[1]]","15","[[0,0,0],[1,2],[3]]","4","0","","","","","","7","","","","","","","","",""
"","","","","","single-stim-button","92","337919","0.0-2.0-22.15-0.15","62c9b08ae24d9a6320996a25","A3","batch1","","694","tol_tohand","","","","tol_peg_2","694","694","0","[[2,0,0],[0,0],[1]]","16","[[0,0,0],[1,2],[3]]","4","0","","","","","","7","","","","","","","","",""
"","","","","","single-stim-button","93","338585","0.0-2.0-22.15-1.15","62c9b08ae24d9a6320996a25","A3","batch1","","666","tol_toboard","","","","tol_peg_1","666","666","0","[[2,3,0],[0,0],[1]]","16","[[0,0,0],[1,2],[3]]","4","0","","","","","","7","","","","","","","","",""
"","","","","","single-stim-button","94","339323","0.0-2.0-22.16-0.16","62c9b08ae24d9a6320996a25","A3","batch1","","737","tol_tohand","","","","tol_peg_3","737","737","0","[[2,3,0],[0,0],[0]]","17","[[0,0,0],[1,2],[3]]","4","0","","","","","","7","","","","","","","","",""
"","","","","","single-stim-button","95","340016","0.0-2.0-22.16-1.16","62c9b08ae24d9a6320996a25","A3","batch1","","693","tol_toboard","","","","tol_peg_2","693","693","0","[[2,3,0],[1,0],[0]]","17","[[0,0,0],[1,2],[3]]","4","0","","","","","","7","","","","","","","","",""
"","","","","","single-stim-button","96","340719","0.0-2.0-22.17-0.17","62c9b08ae24d9a6320996a25","A3","batch1","","702","tol_tohand","","","","tol_peg_1","702","702","0","[[2,0,0],[1,0],[0]]","18","[[0,0,0],[1,2],[3]]","4","0","","","","","","7","","","","","","","","",""
"","","","","","single-stim-button","97","341484","0.0-2.0-22.17-1.17","62c9b08ae24d9a6320996a25","A3","batch1","","764","tol_toboard","","","","tol_peg_3","764","764","0","[[2,0,0],[1,0],[3]]","18","[[0,0,0],[1,2],[3]]","4","0","","","","","","7","","","","","","","","",""
"","","","","","single-stim-button","98","342207","0.0-2.0-22.18-0.18","62c9b08ae24d9a6320996a25","A3","batch1","","722","tol_tohand","","","","tol_peg_1","722","722","0","[[0,0,0],[1,0],[3]]","19","[[0,0,0],[1,2],[3]]","4","0","","","","","","7","","","","","","","","",""
"","","","","","single-stim-button","99","342902","0.0-2.0-22.18-1.18","62c9b08ae24d9a6320996a25","A3","batch1","","695","tol_toboard","","","","tol_peg_2","695","695","0","[[0,0,0],[1,2],[3]]","19","[[0,0,0],[1,2],[3]]","4","0","","","","","","7","","","","","","","","",""
"","","","","","poldrack-single-stim","100","343907","0.0-2.0-23.0","62c9b08ae24d9a6320996a25","A3","batch1","","-1","tol_feedback","","","true","","1000","1000","500","","","","","","-1","none","true","6774","24915","","","","","","","","","",""
"","","","","","html-button-response","101","345012","0.0-2.0-24.0","62c9b08ae24d9a6320996a25","A3","batch1","","1105","tol_trial_num","<div class = centerbox><p class = center-block-text>problem <strong>6</strong> out of 25 problems</p></div>","0","","","","","","","","","","","","","","","","","","","","","","","","",""
"","","","","","single-stim-button","102","350244","0.0-2.0-25.0-0.0","62c9b08ae24d9a6320996a25","A3","batch1","","5230","tol_tohand","","","","tol_peg_2","5230","5230","0","[[0,0,0],[1,0],[3]]","1","[[1,0,0],[2,3],[0]]","5","0","","","","","","6","","","","","","","","",""
"","","","","","single-stim-button","103","351228","0.0-2.0-25.0-1.0","62c9b08ae24d9a6320996a25","A3","batch1","","983","tol_toboard","","","","tol_peg_1","983","983","0","[[2,0,0],[1,0],[3]]","1","[[1,0,0],[2,3],[0]]","5","0","","","","","","6","","","","","","","","",""
"","","","","","single-stim-button","104","353603","0.0-2.0-25.1-0.1","62c9b08ae24d9a6320996a25","A3","batch1","","2374","tol_tohand","","","","tol_peg_2","2374","2374","0","[[2,0,0],[0,0],[3]]","2","[[1,0,0],[2,3],[0]]","5","0","","","","","","6","","","","","","","","",""
"","","","","","single-stim-button","105","354354","0.0-2.0-25.1-1.1","62c9b08ae24d9a6320996a25","A3","batch1","","751","tol_toboard","","","","tol_peg_1","751","751","0","[[2,1,0],[0,0],[3]]","2","[[1,0,0],[2,3],[0]]","5","0","","","","","","6","","","","","","","","",""
"","","","","","single-stim-button","106","355134","0.0-2.0-25.2-0.2","62c9b08ae24d9a6320996a25","A3","batch1","","780","tol_tohand","","","","tol_peg_3","780","780","0","[[2,1,0],[0,0],[0]]","3","[[1,0,0],[2,3],[0]]","5","0","","","","","","6","","","","","","","","",""
"","","","","","single-stim-button","107","355899","0.0-2.0-25.2-1.2","62c9b08ae24d9a6320996a25","A3","batch1","","765","tol_toboard","","","","tol_peg_2","765","765","0","[[2,1,0],[3,0],[0]]","3","[[1,0,0],[2,3],[0]]","5","0","","","","","","6","","","","","","","","",""
"","","","","","single-stim-button","108","356608","0.0-2.0-25.3-0.3","62c9b08ae24d9a6320996a25","A3","batch1","","709","tol_tohand","","","","tol_peg_1","709","709","0","[[2,0,0],[3,0],[0]]","4","[[1,0,0],[2,3],[0]]","5","0","","","","","","6","","","","","","","","",""
"","","","","","single-stim-button","109","357642","0.0-2.0-25.3-1.3","62c9b08ae24d9a6320996a25","A3","batch1","","1034","tol_toboard","","","","tol_peg_3","1034","1034","0","[[2,0,0],[3,0],[1]]","4","[[1,0,0],[2,3],[0]]","5","0","","","","","","6","","","","","","","","",""
"","","","","","single-stim-button","110","360924","0.0-2.0-25.4-0.4","62c9b08ae24d9a6320996a25","A3","batch1","","3281","tol_tohand","","","","tol_peg_2","3281","3281","0","[[2,0,0],[0,0],[1]]","5","[[1,0,0],[2,3],[0]]","5","0","","","","","","6","","","","","","","","",""
"","","","","","single-stim-button","111","361980","0.0-2.0-25.4-1.4","62c9b08ae24d9a6320996a25","A3","batch1","","1056","tol_toboard","","","","tol_peg_2","1056","1056","0","[[2,0,0],[3,0],[1]]","5","[[1,0,0],[2,3],[0]]","5","0","","","","","","6","","","","","","","","",""
"","","","","","single-stim-button","112","367104","0.0-2.0-25.5-0.5","62c9b08ae24d9a6320996a25","A3","batch1","","5123","tol_tohand","","","","tol_peg_3","5123","5123","0","[[2,0,0],[3,0],[0]]","6","[[1,0,0],[2,3],[0]]","5","0","","","","","","6","","","","","","","","",""
"","","","","","single-stim-button","113","367812","0.0-2.0-25.5-1.5","62c9b08ae24d9a6320996a25","A3","batch1","","708","tol_toboard","","","","tol_peg_1","708","708","0","[[2,1,0],[3,0],[0]]","6","[[1,0,0],[2,3],[0]]","5","0","","","","","","6","","","","","","","","",""
"","","","","","single-stim-button","114","368436","0.0-2.0-25.6-0.6","62c9b08ae24d9a6320996a25","A3","batch1","","624","tol_tohand","","","","tol_peg_2","624","624","0","[[2,1,0],[0,0],[0]]","7","[[1,0,0],[2,3],[0]]","5","0","","","","","","6","","","","","","","","",""
"","","","","","single-stim-button","115","369081","0.0-2.0-25.6-1.6","62c9b08ae24d9a6320996a25","A3","batch1","","645","tol_toboard","","","","tol_peg_3","645","645","0","[[2,1,0],[0,0],[3]]","7","[[1,0,0],[2,3],[0]]","5","0","","","","","","6","","","","","","","","",""
"","","","","","single-stim-button","116","369812","0.0-2.0-25.7-0.7","62c9b08ae24d9a6320996a25","A3","batch1","","730","tol_tohand","","","","tol_peg_1","730","730","0","[[2,0,0],[0,0],[3]]","8","[[1,0,0],[2,3],[0]]","5","0","","","","","","6","","","","","","","","",""
"","","","","","single-stim-button","117","370428","0.0-2.0-25.7-1.7","62c9b08ae24d9a6320996a25","A3","batch1","","616","tol_toboard","","","","tol_peg_2","616","616","0","[[2,0,0],[1,0],[3]]","8","[[1,0,0],[2,3],[0]]","5","0","","","","","","6","","","","","","","","",""
"","","","","","single-stim-button","118","371044","0.0-2.0-25.8-0.8","62c9b08ae24d9a6320996a25","A3","batch1","","616","tol_tohand","","","","tol_peg_1","616","616","0","[[0,0,0],[1,0],[3]]","9","[[1,0,0],[2,3],[0]]","5","0","","","","","","6","","","","","","","","",""
"","","","","","single-stim-button","119","371824","0.0-2.0-25.8-1.8","62c9b08ae24d9a6320996a25","A3","batch1","","780","tol_toboard","","","","tol_peg_2","780","780","0","[[0,0,0],[1,2],[3]]","9","[[1,0,0],[2,3],[0]]","5","0","","","","","","6","","","","","","","","",""
"","","","","","single-stim-button","120","372462","0.0-2.0-25.9-0.9","62c9b08ae24d9a6320996a25","A3","batch1","","638","tol_tohand","","","","tol_peg_3","638","638","0","[[0,0,0],[1,2],[0]]","10","[[1,0,0],[2,3],[0]]","5","0","","","","","","6","","","","","","","","",""
"","","","","","single-stim-button","121","373177","0.0-2.0-25.9-1.9","62c9b08ae24d9a6320996a25","A3","batch1","","715","tol_toboard","","","","tol_peg_1","715","715","0","[[3,0,0],[1,2],[0]]","10","[[1,0,0],[2,3],[0]]","5","0","","","","","","6","","","","","","","","",""
"","","","","","single-stim-button","122","373929","0.0-2.0-25.10-0.10","62c9b08ae24d9a6320996a25","A3","batch1","","750","tol_tohand","","","","tol_peg_2","750","750","0","[[3,0,0],[1,0],[0]]","11","[[1,0,0],[2,3],[0]]","5","0","","","","","","6","","","","","","","","",""
"","","","","","single-stim-button","123","374588","0.0-2.0-25.10-1.10","62c9b08ae24d9a6320996a25","A3","batch1","","659","tol_toboard","","","","tol_peg_3","659","659","0","[[3,0,0],[1,0],[2]]","11","[[1,0,0],[2,3],[0]]","5","0","","","","","","6","","","","","","","","",""
"","","","","","single-stim-button","124","382611","0.0-2.0-25.11-0.11","62c9b08ae24d9a6320996a25","A3","batch1","","8022","tol_tohand","","","","tol_peg_2","8022","8022","0","[[3,0,0],[0,0],[2]]","12","[[1,0,0],[2,3],[0]]","5","0","","","","","","6","","","","","","","","",""
"","","","","","single-stim-button","125","383249","0.0-2.0-25.11-1.11","62c9b08ae24d9a6320996a25","A3","batch1","","638","tol_toboard","","","","tol_peg_1","638","638","0","[[3,1,0],[0,0],[2]]","12","[[1,0,0],[2,3],[0]]","5","0","","","","","","6","","","","","","","","",""
"","","","","","single-stim-button","126","384128","0.0-2.0-25.12-0.12","62c9b08ae24d9a6320996a25","A3","batch1","","879","tol_tohand","","","","tol_peg_3","879","879","0","[[3,1,0],[0,0],[0]]","13","[[1,0,0],[2,3],[0]]","5","0","","","","","","6","","","","","","","","",""
"","","","","","single-stim-button","127","384823","0.0-2.0-25.12-1.12","62c9b08ae24d9a6320996a25","A3","batch1","","694","tol_toboard","","","","tol_peg_2","694","694","0","[[3,1,0],[2,0],[0]]","13","[[1,0,0],[2,3],[0]]","5","0","","","","","","6","","","","","","","","",""
"","","","","","single-stim-button","128","385495","0.0-2.0-25.13-0.13","62c9b08ae24d9a6320996a25","A3","batch1","","672","tol_tohand","","","","tol_peg_1","672","672","0","[[3,0,0],[2,0],[0]]","14","[[1,0,0],[2,3],[0]]","5","0","","","","","","6","","","","","","","","",""
"","","","","","single-stim-button","129","386190","0.0-2.0-25.13-1.13","62c9b08ae24d9a6320996a25","A3","batch1","","695","tol_toboard","","","","tol_peg_3","695","695","0","[[3,0,0],[2,0],[1]]","14","[[1,0,0],[2,3],[0]]","5","0","","","","","","6","","","","","","","","",""
"","","","","","single-stim-button","130","386870","0.0-2.0-25.14-0.14","62c9b08ae24d9a6320996a25","A3","batch1","","680","tol_tohand","","","","tol_peg_1","680","680","0","[[0,0,0],[2,0],[1]]","15","[[1,0,0],[2,3],[0]]","5","0","","","","","","6","","","","","","","","",""
"","","","","","single-stim-button","131","387594","0.0-2.0-25.14-1.14","62c9b08ae24d9a6320996a25","A3","batch1","","723","tol_toboard","","","","tol_peg_2","723","723","0","[[0,0,0],[2,3],[1]]","15","[[1,0,0],[2,3],[0]]","5","0","","","","","","6","","","","","","","","",""
"","","","","","single-stim-button","132","388231","0.0-2.0-25.15-0.15","62c9b08ae24d9a6320996a25","A3","batch1","","637","tol_tohand","","","","tol_peg_3","637","637","0","[[0,0,0],[2,3],[0]]","16","[[1,0,0],[2,3],[0]]","5","0","","","","","","6","","","","","","","","",""
"","","","","","single-stim-button","133","388976","0.0-2.0-25.15-1.15","62c9b08ae24d9a6320996a25","A3","batch1","","744","tol_toboard","","","","tol_peg_1","744","744","0","[[1,0,0],[2,3],[0]]","16","[[1,0,0],[2,3],[0]]","5","0","","","","","","6","","","","","","","","",""
"","","","","","poldrack-single-stim","134","389986","0.0-2.0-26.0","62c9b08ae24d9a6320996a25","A3","batch1","","-1","tol_feedback","","","true","","1000","1000","500","","","","","","-1","none","true","5230","31745","","","","","","","","","",""
"","","","","","html-button-response","135","391072","0.0-2.0-27.0","62c9b08ae24d9a6320996a25","A3","batch1","","1085","tol_trial_num","<div class = centerbox><p class = center-block-text>problem <strong>7</strong> out of 25 problems</p></div>","0","","","","","","","","","","","","","","","","","","","","","","","","",""
"","","","","","single-stim-button","136","395927","0.0-2.0-28.0-0.0","62c9b08ae24d9a6320996a25","A3","batch1","","4854","tol_tohand","","","","tol_peg_1","4854","4854","0","[[2,0,0],[0,0],[3]]","1","[[1,2,0],[3,0],[0]]","6","0","","","","","","5","","","","","","","","",""
"","","","","","single-stim-button","137","396551","0.0-2.0-28.0-1.0","62c9b08ae24d9a6320996a25","A3","batch1","","623","tol_toboard","","","","tol_peg_2","623","623","0","[[2,0,0],[1,0],[3]]","1","[[1,2,0],[3,0],[0]]","6","0","","","","","","5","","","","","","","","",""
"","","","","","single-stim-button","138","397111","0.0-2.0-28.1-0.1","62c9b08ae24d9a6320996a25","A3","batch1","","560","tol_tohand","","","","tol_peg_1","560","560","0","[[0,0,0],[1,0],[3]]","2","[[1,2,0],[3,0],[0]]","6","0","","","","","","5","","","","","","","","",""
"","","","","","single-stim-button","139","399394","0.0-2.0-28.1-1.1","62c9b08ae24d9a6320996a25","A3","batch1","","2281","tol_toboard","","","","tol_peg_1","2281","2281","0","[[2,0,0],[1,0],[3]]","2","[[1,2,0],[3,0],[0]]","6","0","","","","","","5","","","","","","","","",""
"","","","","","single-stim-button","140","400186","0.0-2.0-28.2-0.2","62c9b08ae24d9a6320996a25","A3","batch1","","792","tol_tohand","","","","tol_peg_3","792","792","0","[[2,0,0],[1,0],[0]]","3","[[1,2,0],[3,0],[0]]","6","0","","","","","","5","","","","","","","","",""
"","","","","","single-stim-button","141","400910","0.0-2.0-28.2-1.2","62c9b08ae24d9a6320996a25","A3","batch1","","723","tol_toboard","","","","tol_peg_2","723","723","0","[[2,0,0],[1,3],[0]]","3","[[1,2,0],[3,0],[0]]","6","0","","","","","","5","","","","","","","","",""
"","","","","","single-stim-button","142","401569","0.0-2.0-28.3-0.3","62c9b08ae24d9a6320996a25","A3","batch1","","659","tol_tohand","","","","tol_peg_1","659","659","0","[[0,0,0],[1,3],[0]]","4","[[1,2,0],[3,0],[0]]","6","0","","","","","","5","","","","","","","","",""
"","","","","","single-stim-button","143","402377","0.0-2.0-28.3-1.3","62c9b08ae24d9a6320996a25","A3","batch1","","808","tol_toboard","","","","tol_peg_3","808","808","0","[[0,0,0],[1,3],[2]]","4","[[1,2,0],[3,0],[0]]","6","0","","","","","","5","","","","","","","","",""
"","","","","","single-stim-button","144","403305","0.0-2.0-28.4-0.4","62c9b08ae24d9a6320996a25","A3","batch1","","927","tol_tohand","","","","tol_peg_2","927","927","0","[[0,0,0],[1,0],[2]]","5","[[1,2,0],[3,0],[0]]","6","0","","","","","","5","","","","","","","","",""
"","","","","","single-stim-button","145","404043","0.0-2.0-28.4-1.4","62c9b08ae24d9a6320996a25","A3","batch1","","738","tol_toboard","","","","tol_peg_1","738","738","0","[[3,0,0],[1,0],[2]]","5","[[1,2,0],[3,0],[0]]","6","0","","","","","","5","","","","","","","","",""
"","","","","","single-stim-button","146","404730","0.0-2.0-28.5-0.5","62c9b08ae24d9a6320996a25","A3","batch1","","687","tol_tohand","","","","tol_peg_3","687","687","0","[[3,0,0],[1,0],[0]]","6","[[1,2,0],[3,0],[0]]","6","0","","","","","","5","","","","","","","","",""
"","","","","","single-stim-button","147","405396","0.0-2.0-28.5-1.5","62c9b08ae24d9a6320996a25","A3","batch1","","666","tol_toboard","","","","tol_peg_2","666","666","0","[[3,0,0],[1,2],[0]]","6","[[1,2,0],[3,0],[0]]","6","0","","","","","","5","","","","","","","","",""
"","","","","","single-stim-button","148","406098","0.0-2.0-28.6-0.6","62c9b08ae24d9a6320996a25","A3","batch1","","701","tol_tohand","","","","tol_peg_1","701","701","0","[[0,0,0],[1,2],[0]]","7","[[1,2,0],[3,0],[0]]","6","0","","","","","","5","","","","","","","","",""
"","","","","","single-stim-button","149","406885","0.0-2.0-28.6-1.6","62c9b08ae24d9a6320996a25","A3","batch1","","787","tol_toboard","","","","tol_peg_3","787","787","0","[[0,0,0],[1,2],[3]]","7","[[1,2,0],[3,0],[0]]","6","0","","","","","","5","","","","","","","","",""
"","","","","","single-stim-button","150","413043","0.0-2.0-28.7-0.7","62c9b08ae24d9a6320996a25","A3","batch1","","6158","tol_tohand","","","","tol_peg_2","6158","6158","0","[[0,0,0],[1,0],[3]]","8","[[1,2,0],[3,0],[0]]","6","0","","","","","","5","","","","","","","","",""
"","","","","","single-stim-button","151","413638","0.0-2.0-28.7-1.7","62c9b08ae24d9a6320996a25","A3","batch1","","595","tol_toboard","","","","tol_peg_1","595","595","0","[[2,0,0],[1,0],[3]]","8","[[1,2,0],[3,0],[0]]","6","0","","","","","","5","","","","","","","","",""
"","","","","","single-stim-button","152","414326","0.0-2.0-28.8-0.8","62c9b08ae24d9a6320996a25","A3","batch1","","687","tol_tohand","","","","tol_peg_3","687","687","0","[[2,0,0],[1,0],[0]]","9","[[1,2,0],[3,0],[0]]","6","0","","","","","","5","","","","","","","","",""
"","","","","","single-stim-button","153","414928","0.0-2.0-28.8-1.8","62c9b08ae24d9a6320996a25","A3","batch1","","602","tol_toboard","","","","tol_peg_2","602","602","0","[[2,0,0],[1,3],[0]]","9","[[1,2,0],[3,0],[0]]","6","0","","","","","","5","","","","","","","","",""
"","","","","","single-stim-button","154","415531","0.0-2.0-28.9-0.9","62c9b08ae24d9a6320996a25","A3","batch1","","603","tol_tohand","","","","tol_peg_1","603","603","0","[[0,0,0],[1,3],[0]]","10","[[1,2,0],[3,0],[0]]","6","0","","","","","","5","","","","","","","","",""
"","","","","","single-stim-button","155","416247","0.0-2.0-28.9-1.9","62c9b08ae24d9a6320996a25","A3","batch1","","716","tol_toboard","","","","tol_peg_3","716","716","0","[[0,0,0],[1,3],[2]]","10","[[1,2,0],[3,0],[0]]","6","0","","","","","","5","","","","","","","","",""
"","","","","","single-stim-button","156","417551","0.0-2.0-28.10-0.10","62c9b08ae24d9a6320996a25","A3","batch1","","1304","tol_tohand","","","","tol_peg_2","1304","1304","0","[[0,0,0],[1,0],[2]]","11","[[1,2,0],[3,0],[0]]","6","0","","","","","","5","","","","","","","","",""
"","","","","","single-stim-button","157","418232","0.0-2.0-28.10-1.10","62c9b08ae24d9a6320996a25","A3","batch1","","679","tol_toboard","","","","tol_peg_1","679","679","0","[[3,0,0],[1,0],[2]]","11","[[1,2,0],[3,0],[0]]","6","0","","","","","","5","","","","","","","","",""
"","","","","","single-stim-button","158","418976","0.0-2.0-28.11-0.11","62c9b08ae24d9a6320996a25","A3","batch1","","743","tol_tohand","","","","tol_peg_2","743","743","0","[[3,0,0],[0,0],[2]]","12","[[1,2,0],[3,0],[0]]","6","0","","","","","","5","","","","","","","","",""
"","","","","","single-stim-button","159","420578","0.0-2.0-28.11-1.11","62c9b08ae24d9a6320996a25","A3","batch1","","1602","tol_toboard","","","","tol_peg_2","1602","1602","0","[[3,0,0],[1,0],[2]]","12","[[1,2,0],[3,0],[0]]","6","0","","","","","","5","","","","","","","","",""
"","","","","","single-stim-button","160","421520","0.0-2.0-28.12-0.12","62c9b08ae24d9a6320996a25","A3","batch1","","942","tol_tohand","","","","tol_peg_2","942","942","0","[[3,0,0],[0,0],[2]]","13","[[1,2,0],[3,0],[0]]","6","0","","","","","","5","","","","","","","","",""
"","","","","","single-stim-button","161","422130","0.0-2.0-28.12-1.12","62c9b08ae24d9a6320996a25","A3","batch1","","609","tol_toboard","","","","tol_peg_1","609","609","0","[[3,1,0],[0,0],[2]]","13","[[1,2,0],[3,0],[0]]","6","0","","","","","","5","","","","","","","","",""
"","","","","","single-stim-button","162","422803","0.0-2.0-28.13-0.13","62c9b08ae24d9a6320996a25","A3","batch1","","673","tol_tohand","","","","tol_peg_3","673","673","0","[[3,1,0],[0,0],[0]]","14","[[1,2,0],[3,0],[0]]","6","0","","","","","","5","","","","","","","","",""
"","","","","","single-stim-button","163","423385","0.0-2.0-28.13-1.13","62c9b08ae24d9a6320996a25","A3","batch1","","581","tol_toboard","","","","tol_peg_2","581","581","0","[[3,1,0],[2,0],[0]]","14","[[1,2,0],[3,0],[0]]","6","0","","","","","","5","","","","","","","","",""
"","","","","","single-stim-button","164","424200","0.0-2.0-28.14-0.14","62c9b08ae24d9a6320996a25","A3","batch1","","814","tol_tohand","","","","tol_peg_1","814","814","0","[[3,0,0],[2,0],[0]]","15","[[1,2,0],[3,0],[0]]","6","0","","","","","","5","","","","","","","","",""
"","","","","","single-stim-button","165","425142","0.0-2.0-28.14-1.14","62c9b08ae24d9a6320996a25","A3","batch1","","942","tol_toboard","","","","tol_peg_3","942","942","0","[[3,0,0],[2,0],[1]]","15","[[1,2,0],[3,0],[0]]","6","0","","","","","","5","","","","","","","","",""
"","","","","","single-stim-button","166","426333","0.0-2.0-28.15-0.15","62c9b08ae24d9a6320996a25","A3","batch1","","1190","tol_tohand","","","","tol_peg_3","1190","1190","0","[[3,0,0],[2,0],[0]]","16","[[1,2,0],[3,0],[0]]","6","0","","","","","","5","","","","","","","","",""
"","","","","","single-stim-button","167","426979","0.0-2.0-28.15-1.15","62c9b08ae24d9a6320996a25","A3","batch1","","646","tol_toboard","","","","tol_peg_2","646","646","0","[[3,0,0],[2,1],[0]]","16","[[1,2,0],[3,0],[0]]","6","0","","","","","","5","","","","","","","","",""
"","","","","","single-stim-button","168","431544","0.0-2.0-28.16-0.16","62c9b08ae24d9a6320996a25","A3","batch1","","4564","tol_tohand","","","","tol_peg_1","4564","4564","0","[[0,0,0],[2,1],[0]]","17","[[1,2,0],[3,0],[0]]","6","0","","","","","","5","","","","","","","","",""
"","","","","","single-stim-button","169","432372","0.0-2.0-28.16-1.16","62c9b08ae24d9a6320996a25","A3","batch1","","828","tol_toboard","","","","tol_peg_1","828","828","0","[[3,0,0],[2,1],[0]]","17","[[1,2,0],[3,0],[0]]","6","0","","","","","","5","","","","","","","","",""
"","","","","","single-stim-button","170","432933","0.0-2.0-28.17-0.17","62c9b08ae24d9a6320996a25","A3","batch1","","561","tol_tohand","","","","tol_peg_2","561","561","0","[[3,0,0],[2,0],[0]]","18","[[1,2,0],[3,0],[0]]","6","0","","","","","","5","","","","","","","","",""
"","","","","","single-stim-button","171","433344","0.0-2.0-28.17-1.17","62c9b08ae24d9a6320996a25","A3","batch1","","410","tol_toboard","","","","tol_peg_1","410","410","0","[[3,1,0],[2,0],[0]]","18","[[1,2,0],[3,0],[0]]","6","0","","","","","","5","","","","","","","","",""
"","","","","","single-stim-button","172","433889","0.0-2.0-28.18-0.18","62c9b08ae24d9a6320996a25","A3","batch1","","545","tol_tohand","","","","tol_peg_2","545","545","0","[[3,1,0],[0,0],[0]]","19","[[1,2,0],[3,0],[0]]","6","0","","","","","","5","","","","","","","","",""
"","","","","","single-stim-button","173","434484","0.0-2.0-28.18-1.18","62c9b08ae24d9a6320996a25","A3","batch1","","595","tol_toboard","","","","tol_peg_3","595","595","0","[[3,1,0],[0,0],[2]]","19","[[1,2,0],[3,0],[0]]","6","0","","","","","","5","","","","","","","","",""
"","","","","","single-stim-button","174","435067","0.0-2.0-28.19-0.19","62c9b08ae24d9a6320996a25","A3","batch1","","582","tol_tohand","","","","tol_peg_1","582","582","0","[[3,0,0],[0,0],[2]]","20","[[1,2,0],[3,0],[0]]","6","0","","","","","","5","","","","","","","","",""
"","","","","","single-stim-button","175","435648","0.0-2.0-28.19-1.19","62c9b08ae24d9a6320996a25","A3","batch1","","581","tol_toboard","","","","tol_peg_2","581","581","0","[[3,0,0],[1,0],[2]]","20","[[1,2,0],[3,0],[0]]","6","0","","","","","","5","","","","","","","","",""
"","","","","","single-stim-button","176","437761","0.0-2.0-28.20-0.20","62c9b08ae24d9a6320996a25","A3","batch1","","2112","tol_tohand","","","","tol_peg_3","2112","2112","0","[[3,0,0],[1,0],[0]]","21","[[1,2,0],[3,0],[0]]","6","0","","","","","","5","","","","","","","","",""
"","","","","","single-stim-button","177","438342","0.0-2.0-28.20-1.20","62c9b08ae24d9a6320996a25","A3","batch1","","580","tol_toboard","","","","tol_peg_2","580","580","0","[[3,0,0],[1,2],[0]]","21","[[1,2,0],[3,0],[0]]","6","0","","","","","","5","","","","","","","","",""
"","","","","","single-stim-button","178","439029","0.0-2.0-28.21-0.21","62c9b08ae24d9a6320996a25","A3","batch1","","687","tol_tohand","","","","tol_peg_1","687","687","0","[[0,0,0],[1,2],[0]]","22","[[1,2,0],[3,0],[0]]","6","0","","","","","","5","","","","","","","","",""
"","","","","","single-stim-button","179","440340","0.0-2.0-28.21-1.21","62c9b08ae24d9a6320996a25","A3","batch1","","1311","tol_toboard","","","","tol_peg_1","1311","1311","0","[[3,0,0],[1,2],[0]]","22","[[1,2,0],[3,0],[0]]","6","0","","","","","","5","","","","","","","","",""
"","","","","","single-stim-button","180","443034","0.0-2.0-28.22-0.22","62c9b08ae24d9a6320996a25","A3","batch1","","2694","tol_tohand","","","","tol_peg_2","2694","2694","0","[[3,0,0],[1,0],[0]]","23","[[1,2,0],[3,0],[0]]","6","0","","","","","","5","","","","","","","","",""
"","","","","","single-stim-button","181","443558","0.0-2.0-28.22-1.22","62c9b08ae24d9a6320996a25","A3","batch1","","524","tol_toboard","","","","tol_peg_1","524","524","0","[[3,2,0],[1,0],[0]]","23","[[1,2,0],[3,0],[0]]","6","0","","","","","","5","","","","","","","","",""
"","","","","","single-stim-button","182","444140","0.0-2.0-28.23-0.23","62c9b08ae24d9a6320996a25","A3","batch1","","581","tol_tohand","","","","tol_peg_2","581","581","0","[[3,2,0],[0,0],[0]]","24","[[1,2,0],[3,0],[0]]","6","0","","","","","","5","","","","","","","","",""
"","","","","","single-stim-button","183","444742","0.0-2.0-28.23-1.23","62c9b08ae24d9a6320996a25","A3","batch1","","602","tol_toboard","","","","tol_peg_3","602","602","0","[[3,2,0],[0,0],[1]]","24","[[1,2,0],[3,0],[0]]","6","0","","","","","","5","","","","","","","","",""
"","","","","","single-stim-button","184","445550","0.0-2.0-28.24-0.24","62c9b08ae24d9a6320996a25","A3","batch1","","808","tol_tohand","","","","tol_peg_1","808","808","0","[[3,0,0],[0,0],[1]]","25","[[1,2,0],[3,0],[0]]","6","0","","","","","","5","","","","","","","","",""
"","","","","","single-stim-button","185","446124","0.0-2.0-28.24-1.24","62c9b08ae24d9a6320996a25","A3","batch1","","573","tol_toboard","","","","tol_peg_2","573","573","0","[[3,0,0],[2,0],[1]]","25","[[1,2,0],[3,0],[0]]","6","0","","","","","","5","","","","","","","","",""
"","","","","","single-stim-button","186","446755","0.0-2.0-28.25-0.25","62c9b08ae24d9a6320996a25","A3","batch1","","631","tol_tohand","","","","tol_peg_1","631","631","0","[[0,0,0],[2,0],[1]]","26","[[1,2,0],[3,0],[0]]","6","0","","","","","","5","","","","","","","","",""
"","","","","","single-stim-button","187","447925","0.0-2.0-28.25-1.25","62c9b08ae24d9a6320996a25","A3","batch1","","1170","tol_toboard","","","","tol_peg_2","1170","1170","0","[[0,0,0],[2,3],[1]]","26","[[1,2,0],[3,0],[0]]","6","0","","","","","","5","","","","","","","","",""
"","","","","","single-stim-button","188","448528","0.0-2.0-28.26-0.26","62c9b08ae24d9a6320996a25","A3","batch1","","603","tol_tohand","","","","tol_peg_3","603","603","0","[[0,0,0],[2,3],[0]]","27","[[1,2,0],[3,0],[0]]","6","0","","","","","","5","","","","","","","","",""
"","","","","","single-stim-button","189","449194","0.0-2.0-28.26-1.26","62c9b08ae24d9a6320996a25","A3","batch1","","666","tol_toboard","","","","tol_peg_1","666","666","0","[[1,0,0],[2,3],[0]]","27","[[1,2,0],[3,0],[0]]","6","0","","","","","","5","","","","","","","","",""
"","","","","","single-stim-button","190","449867","0.0-2.0-28.27-0.27","62c9b08ae24d9a6320996a25","A3","batch1","","673","tol_tohand","","","","tol_peg_2","673","673","0","[[1,0,0],[2,0],[0]]","28","[[1,2,0],[3,0],[0]]","6","0","","","","","","5","","","","","","","","",""
"","","","","","single-stim-button","191","450520","0.0-2.0-28.27-1.27","62c9b08ae24d9a6320996a25","A3","batch1","","653","tol_toboard","","","","tol_peg_3","653","653","0","[[1,0,0],[2,0],[3]]","28","[[1,2,0],[3,0],[0]]","6","0","","","","","","5","","","","","","","","",""
"","","","","","single-stim-button","192","451171","0.0-2.0-28.28-0.28","62c9b08ae24d9a6320996a25","A3","batch1","","651","tol_tohand","","","","tol_peg_2","651","651","0","[[1,0,0],[0,0],[3]]","29","[[1,2,0],[3,0],[0]]","6","0","","","","","","5","","","","","","","","",""
"","","","","","single-stim-button","193","451888","0.0-2.0-28.28-1.28","62c9b08ae24d9a6320996a25","A3","batch1","","716","tol_toboard","","","","tol_peg_1","716","716","0","[[1,2,0],[0,0],[3]]","29","[[1,2,0],[3,0],[0]]","6","0","","","","","","5","","","","","","","","",""
"","","","","","single-stim-button","194","454802","0.0-2.0-28.29-0.29","62c9b08ae24d9a6320996a25","A3","batch1","","2914","tol_tohand","","","","tol_peg_3","2914","2914","0","[[1,2,0],[0,0],[0]]","30","[[1,2,0],[3,0],[0]]","6","0","","","","","","5","","","","","","","","",""
"","","","","","single-stim-button","195","455382","0.0-2.0-28.29-1.29","62c9b08ae24d9a6320996a25","A3","batch1","","579","tol_toboard","","","","tol_peg_2","579","579","0","[[1,2,0],[3,0],[0]]","30","[[1,2,0],[3,0],[0]]","6","0","","","","","","5","","","","","","","","",""
"","","","","","poldrack-single-stim","196","456385","0.0-2.0-29.0","62c9b08ae24d9a6320996a25","A3","batch1","","-1","tol_feedback","","","true","","1000","1000","500","","","","","","-1","none","true","4854","40900","","","","","","","","","",""
"","","","","","html-button-response","197","457523","0.0-2.0-30.0","62c9b08ae24d9a6320996a25","A3","batch1","","1138","tol_trial_num","<div class = centerbox><p class = center-block-text>problem <strong>8</strong> out of 25 problems</p></div>","0","","","","","","","","","","","","","","","","","","","","","","","","",""
"","","","","","single-stim-button","198","462336","0.0-2.0-31.0-0.0","62c9b08ae24d9a6320996a25","A3","batch1","","4812","tol_tohand","","","","tol_peg_3","4812","4812","0","[[0,0,0],[2,3],[0]]","1","[[1,2,0],[3,0],[0]]","7","0","","","","","","4","","","","","","","","",""
"","","","","","single-stim-button","199","463130","0.0-2.0-31.0-1.0","62c9b08ae24d9a6320996a25","A3","batch1","","794","tol_toboard","","","","tol_peg_1","794","794","0","[[1,0,0],[2,3],[0]]","1","[[1,2,0],[3,0],[0]]","7","0","","","","","","4","","","","","","","","",""
"","","","","","single-stim-button","200","463810","0.0-2.0-31.1-0.1","62c9b08ae24d9a6320996a25","A3","batch1","","680","tol_tohand","","","","tol_peg_2","680","680","0","[[1,0,0],[2,0],[0]]","2","[[1,2,0],[3,0],[0]]","7","0","","","","","","4","","","","","","","","",""
"","","","","","single-stim-button","201","464739","0.0-2.0-31.1-1.1","62c9b08ae24d9a6320996a25","A3","batch1","","928","tol_toboard","","","","tol_peg_3","928","928","0","[[1,0,0],[2,0],[3]]","2","[[1,2,0],[3,0],[0]]","7","0","","","","","","4","","","","","","","","",""
"","","","","","single-stim-button","202","465356","0.0-2.0-31.2-0.2","62c9b08ae24d9a6320996a25","A3","batch1","","617","tol_tohand","","","","tol_peg_2","617","617","0","[[1,0,0],[0,0],[3]]","3","[[1,2,0],[3,0],[0]]","7","0","","","","","","4","","","","","","","","",""
"","","","","","single-stim-button","203","466036","0.0-2.0-31.2-1.2","62c9b08ae24d9a6320996a25","A3","batch1","","680","tol_toboard","","","","tol_peg_1","680","680","0","[[1,2,0],[0,0],[3]]","3","[[1,2,0],[3,0],[0]]","7","0","","","","","","4","","","","","","","","",""
"","","","","","single-stim-button","204","467036","0.0-2.0-31.3-0.3","62c9b08ae24d9a6320996a25","A3","batch1","","1000","tol_tohand","","","","tol_peg_3","1000","1000","0","[[1,2,0],[0,0],[0]]","4","[[1,2,0],[3,0],[0]]","7","0","","","","","","4","","","","","","","","",""
"","","","","","single-stim-button","205","467744","0.0-2.0-31.3-1.3","62c9b08ae24d9a6320996a25","A3","batch1","","708","tol_toboard","","","","tol_peg_2","708","708","0","[[1,2,0],[3,0],[0]]","4","[[1,2,0],[3,0],[0]]","7","0","","","","","","4","","","","","","","","",""
"","","","","","poldrack-single-stim","206","468750","0.0-2.0-32.0","62c9b08ae24d9a6320996a25","A3","batch1","","-1","tol_feedback","","","true","","1000","1000","500","","","","","","-1","none","true","4812","7109","","","","","","","","","",""
"","","","","","html-button-response","207","469863","0.0-2.0-33.0","62c9b08ae24d9a6320996a25","A3","batch1","","1113","tol_trial_num","<div class = centerbox><p class = center-block-text>problem <strong>9</strong> out of 25 problems</p></div>","0","","","","","","","","","","","","","","","","","","","","","","","","",""
"","","","","","single-stim-button","208","475535","0.0-2.0-34.0-0.0","62c9b08ae24d9a6320996a25","A3","batch1","","5671","tol_tohand","","","","tol_peg_1","5671","5671","0","[[3,0,0],[0,0],[1]]","1","[[2,1,0],[3,0],[0]]","8","0","","","","","","6","","","","","","","","",""
"","","","","","single-stim-button","209","476172","0.0-2.0-34.0-1.0","62c9b08ae24d9a6320996a25","A3","batch1","","637","tol_toboard","","","","tol_peg_2","637","637","0","[[3,0,0],[2,0],[1]]","1","[[2,1,0],[3,0],[0]]","8","0","","","","","","6","","","","","","","","",""
"","","","","","single-stim-button","210","476760","0.0-2.0-34.1-0.1","62c9b08ae24d9a6320996a25","A3","batch1","","587","tol_tohand","","","","tol_peg_3","587","587","0","[[3,0,0],[2,0],[0]]","2","[[2,1,0],[3,0],[0]]","8","0","","","","","","6","","","","","","","","",""
"","","","","","single-stim-button","211","477334","0.0-2.0-34.1-1.1","62c9b08ae24d9a6320996a25","A3","batch1","","574","tol_toboard","","","","tol_peg_2","574","574","0","[[3,0,0],[2,1],[0]]","2","[[2,1,0],[3,0],[0]]","8","0","","","","","","6","","","","","","","","",""
"","","","","","single-stim-button","212","478008","0.0-2.0-34.2-0.2","62c9b08ae24d9a6320996a25","A3","batch1","","674","tol_tohand","","","","tol_peg_1","674","674","0","[[0,0,0],[2,1],[0]]","3","[[2,1,0],[3,0],[0]]","8","0","","","","","","6","","","","","","","","",""
"","","","","","single-stim-button","213","479078","0.0-2.0-34.2-1.2","62c9b08ae24d9a6320996a25","A3","batch1","","1070","tol_toboard","","","","tol_peg_3","1070","1070","0","[[0,0,0],[2,1],[3]]","3","[[2,1,0],[3,0],[0]]","8","0","","","","","","6","","","","","","","","",""
"","","","","","single-stim-button","214","480332","0.0-2.0-34.3-0.3","62c9b08ae24d9a6320996a25","A3","batch1","","1254","tol_tohand","","","","tol_peg_2","1254","1254","0","[[0,0,0],[2,0],[3]]","4","[[2,1,0],[3,0],[0]]","8","0","","","","","","6","","","","","","","","",""
"","","","","","single-stim-button","215","480977","0.0-2.0-34.3-1.3","62c9b08ae24d9a6320996a25","A3","batch1","","644","tol_toboard","","","","tol_peg_1","644","644","0","[[1,0,0],[2,0],[3]]","4","[[2,1,0],[3,0],[0]]","8","0","","","","","","6","","","","","","","","",""
"","","","","","single-stim-button","216","482375","0.0-2.0-34.4-0.4","62c9b08ae24d9a6320996a25","A3","batch1","","1397","tol_tohand","","","","tol_peg_3","1397","1397","0","[[1,0,0],[2,0],[0]]","5","[[2,1,0],[3,0],[0]]","8","0","","","","","","6","","","","","","","","",""
"","","","","","single-stim-button","217","483012","0.0-2.0-34.4-1.4","62c9b08ae24d9a6320996a25","A3","batch1","","636","tol_toboard","","","","tol_peg_2","636","636","0","[[1,0,0],[2,3],[0]]","5","[[2,1,0],[3,0],[0]]","8","0","","","","","","6","","","","","","","","",""
"","","","","","single-stim-button","218","483664","0.0-2.0-34.5-0.5","62c9b08ae24d9a6320996a25","A3","batch1","","652","tol_tohand","","","","tol_peg_1","652","652","0","[[0,0,0],[2,3],[0]]","6","[[2,1,0],[3,0],[0]]","8","0","","","","","","6","","","","","","","","",""
"","","","","","single-stim-button","219","484436","0.0-2.0-34.5-1.5","62c9b08ae24d9a6320996a25","A3","batch1","","772","tol_toboard","","","","tol_peg_3","772","772","0","[[0,0,0],[2,3],[1]]","6","[[2,1,0],[3,0],[0]]","8","0","","","","","","6","","","","","","","","",""
"","","","","","single-stim-button","220","485032","0.0-2.0-34.6-0.6","62c9b08ae24d9a6320996a25","A3","batch1","","596","tol_tohand","","","","tol_peg_2","596","596","0","[[0,0,0],[2,0],[1]]","7","[[2,1,0],[3,0],[0]]","8","0","","","","","","6","","","","","","","","",""
"","","","","","single-stim-button","221","486910","0.0-2.0-34.6-1.6","62c9b08ae24d9a6320996a25","A3","batch1","","1878","tol_toboard","","","","tol_peg_2","1878","1878","0","[[0,0,0],[2,3],[1]]","7","[[2,1,0],[3,0],[0]]","8","0","","","","","","6","","","","","","","","",""
"","","","","","single-stim-button","222","493354","0.0-2.0-34.7-0.7","62c9b08ae24d9a6320996a25","A3","batch1","","6443","tol_tohand","","","","tol_peg_2","6443","6443","0","[[0,0,0],[2,0],[1]]","8","[[2,1,0],[3,0],[0]]","8","0","","","","","","6","","","","","","","","",""
"","","","","","single-stim-button","223","494148","0.0-2.0-34.7-1.7","62c9b08ae24d9a6320996a25","A3","batch1","","793","tol_toboard","","","","tol_peg_1","793","793","0","[[3,0,0],[2,0],[1]]","8","[[2,1,0],[3,0],[0]]","8","0","","","","","","6","","","","","","","","",""
"","","","","","single-stim-button","224","494835","0.0-2.0-34.8-0.8","62c9b08ae24d9a6320996a25","A3","batch1","","686","tol_tohand","","","","tol_peg_3","686","686","0","[[3,0,0],[2,0],[0]]","9","[[2,1,0],[3,0],[0]]","8","0","","","","","","6","","","","","","","","",""
"","","","","","single-stim-button","225","495438","0.0-2.0-34.8-1.8","62c9b08ae24d9a6320996a25","A3","batch1","","603","tol_toboard","","","","tol_peg_1","603","603","0","[[3,1,0],[2,0],[0]]","9","[[2,1,0],[3,0],[0]]","8","0","","","","","","6","","","","","","","","",""
"","","","","","single-stim-button","226","496047","0.0-2.0-34.9-0.9","62c9b08ae24d9a6320996a25","A3","batch1","","609","tol_tohand","","","","tol_peg_2","609","609","0","[[3,1,0],[0,0],[0]]","10","[[2,1,0],[3,0],[0]]","8","0","","","","","","6","","","","","","","","",""
"","","","","","single-stim-button","227","496714","0.0-2.0-34.9-1.9","62c9b08ae24d9a6320996a25","A3","batch1","","666","tol_toboard","","","","tol_peg_3","666","666","0","[[3,1,0],[0,0],[2]]","10","[[2,1,0],[3,0],[0]]","8","0","","","","","","6","","","","","","","","",""
"","","","","","single-stim-button","228","498252","0.0-2.0-34.10-0.10","62c9b08ae24d9a6320996a25","A3","batch1","","1537","tol_tohand","","","","tol_peg_1","1537","1537","0","[[3,0,0],[0,0],[2]]","11","[[2,1,0],[3,0],[0]]","8","0","","","","","","6","","","","","","","","",""
"","","","","","single-stim-button","229","498889","0.0-2.0-34.10-1.10","62c9b08ae24d9a6320996a25","A3","batch1","","637","tol_toboard","","","","tol_peg_2","637","637","0","[[3,0,0],[1,0],[2]]","11","[[2,1,0],[3,0],[0]]","8","0","","","","","","6","","","","","","","","",""
"","","","","","single-stim-button","230","500003","0.0-2.0-34.11-0.11","62c9b08ae24d9a6320996a25","A3","batch1","","1113","tol_tohand","","","","tol_peg_1","1113","1113","0","[[0,0,0],[1,0],[2]]","12","[[2,1,0],[3,0],[0]]","8","0","","","","","","6","","","","","","","","",""
"","","","","","single-stim-button","231","500739","0.0-2.0-34.11-1.11","62c9b08ae24d9a6320996a25","A3","batch1","","736","tol_toboard","","","","tol_peg_2","736","736","0","[[0,0,0],[1,3],[2]]","12","[[2,1,0],[3,0],[0]]","8","0","","","","","","6","","","","","","","","",""
"","","","","","single-stim-button","232","501399","0.0-2.0-34.12-0.12","62c9b08ae24d9a6320996a25","A3","batch1","","658","tol_tohand","","","","tol_peg_3","658","658","0","[[0,0,0],[1,3],[0]]","13","[[2,1,0],[3,0],[0]]","8","0","","","","","","6","","","","","","","","",""
"","","","","","single-stim-button","233","502234","0.0-2.0-34.12-1.12","62c9b08ae24d9a6320996a25","A3","batch1","","835","tol_toboard","","","","tol_peg_1","835","835","0","[[2,0,0],[1,3],[0]]","13","[[2,1,0],[3,0],[0]]","8","0","","","","","","6","","","","","","","","",""
"","","","","","single-stim-button","234","502823","0.0-2.0-34.13-0.13","62c9b08ae24d9a6320996a25","A3","batch1","","589","tol_tohand","","","","tol_peg_2","589","589","0","[[2,0,0],[1,0],[0]]","14","[[2,1,0],[3,0],[0]]","8","0","","","","","","6","","","","","","","","",""
"","","","","","single-stim-button","235","503404","0.0-2.0-34.13-1.13","62c9b08ae24d9a6320996a25","A3","batch1","","580","tol_toboard","","","","tol_peg_3","580","580","0","[[2,0,0],[1,0],[3]]","14","[[2,1,0],[3,0],[0]]","8","0","","","","","","6","","","","","","","","",""
"","","","","","single-stim-button","236","503992","0.0-2.0-34.14-0.14","62c9b08ae24d9a6320996a25","A3","batch1","","587","tol_tohand","","","","tol_peg_2","587","587","0","[[2,0,0],[0,0],[3]]","15","[[2,1,0],[3,0],[0]]","8","0","","","","","","6","","","","","","","","",""
"","","","","","single-stim-button","237","504602","0.0-2.0-34.14-1.14","62c9b08ae24d9a6320996a25","A3","batch1","","610","tol_toboard","","","","tol_peg_1","610","610","0","[[2,1,0],[0,0],[3]]","15","[[2,1,0],[3,0],[0]]","8","0","","","","","","6","","","","","","","","",""
"","","","","","single-stim-button","238","505318","0.0-2.0-34.15-0.15","62c9b08ae24d9a6320996a25","A3","batch1","","716","tol_tohand","","","","tol_peg_3","716","716","0","[[2,1,0],[0,0],[0]]","16","[[2,1,0],[3,0],[0]]","8","0","","","","","","6","","","","","","","","",""
"","","","","","single-stim-button","239","506161","0.0-2.0-34.15-1.15","62c9b08ae24d9a6320996a25","A3","batch1","","842","tol_toboard","","","","tol_peg_2","842","842","0","[[2,1,0],[3,0],[0]]","16","[[2,1,0],[3,0],[0]]","8","0","","","","","","6","","","","","","","","",""
"","","","","","poldrack-single-stim","240","507164","0.0-2.0-35.0","62c9b08ae24d9a6320996a25","A3","batch1","","-1","tol_feedback","","","true","","1000","1000","500","","","","","","-1","none","true","5671","23769","","","","","","","","","",""
"","","","","","html-button-response","241","508253","0.0-2.0-36.0","62c9b08ae24d9a6320996a25","A3","batch1","","1089","tol_trial_num","<div class = centerbox><p class = center-block-text>problem <strong>10</strong> out of 25 problems</p></div>","0","","","","","","","","","","","","","","","","","","","","","","","","",""
"","","","","","single-stim-button","242","513703","0.0-2.0-37.0-0.0","62c9b08ae24d9a6320996a25","A3","batch1","","5449","tol_tohand","","","","tol_peg_2","5449","5449","0","[[3,0,0],[0,0],[2]]","1","[[3,0,0],[2,1],[0]]","9","0","","","","","","3","","","","","","","","",""
"","","","","","single-stim-button","243","514589","0.0-2.0-37.0-1.0","62c9b08ae24d9a6320996a25","A3","batch1","","885","tol_toboard","","","","tol_peg_1","885","885","0","[[3,1,0],[0,0],[2]]","1","[[3,0,0],[2,1],[0]]","9","0","","","","","","3","","","","","","","","",""
"","","","","","single-stim-button","244","515291","0.0-2.0-37.1-0.1","62c9b08ae24d9a6320996a25","A3","batch1","","702","tol_tohand","","","","tol_peg_3","702","702","0","[[3,1,0],[0,0],[0]]","2","[[3,0,0],[2,1],[0]]","9","0","","","","","","3","","","","","","","","",""
"","","","","","single-stim-button","245","515859","0.0-2.0-37.1-1.1","62c9b08ae24d9a6320996a25","A3","batch1","","567","tol_toboard","","","","tol_peg_2","567","567","0","[[3,1,0],[2,0],[0]]","2","[[3,0,0],[2,1],[0]]","9","0","","","","","","3","","","","","","","","",""
"","","","","","single-stim-button","246","516460","0.0-2.0-37.2-0.2","62c9b08ae24d9a6320996a25","A3","batch1","","601","tol_tohand","","","","tol_peg_1","601","601","0","[[3,0,0],[2,0],[0]]","3","[[3,0,0],[2,1],[0]]","9","0","","","","","","3","","","","","","","","",""
"","","","","","single-stim-button","247","517077","0.0-2.0-37.2-1.2","62c9b08ae24d9a6320996a25","A3","batch1","","617","tol_toboard","","","","tol_peg_2","617","617","0","[[3,0,0],[2,1],[0]]","3","[[3,0,0],[2,1],[0]]","9","0","","","","","","3","","","","","","","","",""
"","","","","","poldrack-single-stim","248","518078","0.0-2.0-38.0","62c9b08ae24d9a6320996a25","A3","batch1","","-1","tol_feedback","","","true","","1000","1000","500","","","","","","-1","none","true","5449","6752","","","","","","","","","",""
"","","","","","html-button-response","249","519217","0.0-2.0-39.0","62c9b08ae24d9a6320996a25","A3","batch1","","1139","tol_trial_num","<div class = centerbox><p class = center-block-text>problem <strong>11</strong> out of 25 problems</p></div>","0","","","","","","","","","","","","","","","","","","","","","","","","",""
"","","","","","single-stim-button","250","526201","0.0-2.0-40.0-0.0","62c9b08ae24d9a6320996a25","A3","batch1","","6982","tol_tohand","","","","tol_peg_2","6982","6982","0","[[1,2,0],[0,0],[0]]","1","[[2,0,0],[1,3],[0]]","10","0","","","","","","6","","","","","","","","",""
"","","","","","single-stim-button","251","526803","0.0-2.0-40.0-1.0","62c9b08ae24d9a6320996a25","A3","batch1","","602","tol_toboard","","","","tol_peg_3","602","602","0","[[1,2,0],[0,0],[3]]","1","[[2,0,0],[1,3],[0]]","10","0","","","","","","6","","","","","","","","",""
"","","","","","single-stim-button","252","527561","0.0-2.0-40.1-0.1","62c9b08ae24d9a6320996a25","A3","batch1","","758","tol_tohand","","","","tol_peg_1","758","758","0","[[1,0,0],[0,0],[3]]","2","[[2,0,0],[1,3],[0]]","10","0","","","","","","6","","","","","","","","",""
"","","","","","single-stim-button","253","528575","0.0-2.0-40.1-1.1","62c9b08ae24d9a6320996a25","A3","batch1","","1014","tol_toboard","","","","tol_peg_2","1014","1014","0","[[1,0,0],[2,0],[3]]","2","[[2,0,0],[1,3],[0]]","10","0","","","","","","6","","","","","","","","",""
"","","","","","single-stim-button","254","531100","0.0-2.0-40.2-0.2","62c9b08ae24d9a6320996a25","A3","batch1","","2525","tol_tohand","","","","tol_peg_3","2525","2525","0","[[1,0,0],[2,0],[0]]","3","[[2,0,0],[1,3],[0]]","10","0","","","","","","6","","","","","","","","",""
"","","","","","single-stim-button","255","531893","0.0-2.0-40.2-1.2","62c9b08ae24d9a6320996a25","A3","batch1","","792","tol_toboard","","","","tol_peg_2","792","792","0","[[1,0,0],[2,3],[0]]","3","[[2,0,0],[1,3],[0]]","10","0","","","","","","6","","","","","","","","",""
"","","","","","single-stim-button","256","532574","0.0-2.0-40.3-0.3","62c9b08ae24d9a6320996a25","A3","batch1","","680","tol_tohand","","","","tol_peg_1","680","680","0","[[0,0,0],[2,3],[0]]","4","[[2,0,0],[1,3],[0]]","10","0","","","","","","6","","","","","","","","",""
"","","","","","single-stim-button","257","533403","0.0-2.0-40.3-1.3","62c9b08ae24d9a6320996a25","A3","batch1","","829","tol_toboard","","","","tol_peg_3","829","829","0","[[0,0,0],[2,3],[1]]","4","[[2,0,0],[1,3],[0]]","10","0","","","","","","6","","","","","","","","",""
"","","","","","single-stim-button","258","534204","0.0-2.0-40.4-0.4","62c9b08ae24d9a6320996a25","A3","batch1","","801","tol_tohand","","","","tol_peg_2","801","801","0","[[0,0,0],[2,0],[1]]","5","[[2,0,0],[1,3],[0]]","10","0","","","","","","6","","","","","","","","",""
"","","","","","single-stim-button","259","534956","0.0-2.0-40.4-1.4","62c9b08ae24d9a6320996a25","A3","batch1","","752","tol_toboard","","","","tol_peg_1","752","752","0","[[3,0,0],[2,0],[1]]","5","[[2,0,0],[1,3],[0]]","10","0","","","","","","6","","","","","","","","",""
"","","","","","single-stim-button","260","537160","0.0-2.0-40.5-0.5","62c9b08ae24d9a6320996a25","A3","batch1","","2204","tol_tohand","","","","tol_peg_3","2204","2204","0","[[3,0,0],[2,0],[0]]","6","[[2,0,0],[1,3],[0]]","10","0","","","","","","6","","","","","","","","",""
"","","","","","single-stim-button","261","537982","0.0-2.0-40.5-1.5","62c9b08ae24d9a6320996a25","A3","batch1","","821","tol_toboard","","","","tol_peg_1","821","821","0","[[3,1,0],[2,0],[0]]","6","[[2,0,0],[1,3],[0]]","10","0","","","","","","6","","","","","","","","",""
"","","","","","single-stim-button","262","538591","0.0-2.0-40.6-0.6","62c9b08ae24d9a6320996a25","A3","batch1","","609","tol_tohand","","","","tol_peg_2","609","609","0","[[3,1,0],[0,0],[0]]","7","[[2,0,0],[1,3],[0]]","10","0","","","","","","6","","","","","","","","",""
"","","","","","single-stim-button","263","539272","0.0-2.0-40.6-1.6","62c9b08ae24d9a6320996a25","A3","batch1","","681","tol_toboard","","","","tol_peg_3","681","681","0","[[3,1,0],[0,0],[2]]","7","[[2,0,0],[1,3],[0]]","10","0","","","","","","6","","","","","","","","",""
"","","","","","single-stim-button","264","540215","0.0-2.0-40.7-0.7","62c9b08ae24d9a6320996a25","A3","batch1","","943","tol_tohand","","","","tol_peg_1","943","943","0","[[3,0,0],[0,0],[2]]","8","[[2,0,0],[1,3],[0]]","10","0","","","","","","6","","","","","","","","",""
"","","","","","single-stim-button","265","543482","0.0-2.0-40.7-1.7","62c9b08ae24d9a6320996a25","A3","batch1","","3267","tol_toboard","","","","tol_peg_1","3267","3267","0","[[3,1,0],[0,0],[2]]","8","[[2,0,0],[1,3],[0]]","10","0","","","","","","6","","","","","","","","",""
"","","","","","single-stim-button","266","544241","0.0-2.0-40.8-0.8","62c9b08ae24d9a6320996a25","A3","batch1","","759","tol_tohand","","","","tol_peg_1","759","759","0","[[3,0,0],[0,0],[2]]","9","[[2,0,0],[1,3],[0]]","10","0","","","","","","6","","","","","","","","",""
"","","","","","single-stim-button","267","544730","0.0-2.0-40.8-1.8","62c9b08ae24d9a6320996a25","A3","batch1","","489","tol_toboard","","","","tol_peg_2","489","489","0","[[3,0,0],[1,0],[2]]","9","[[2,0,0],[1,3],[0]]","10","0","","","","","","6","","","","","","","","",""
"","","","","","single-stim-button","268","545425","0.0-2.0-40.9-0.9","62c9b08ae24d9a6320996a25","A3","batch1","","695","tol_tohand","","","","tol_peg_3","695","695","0","[[3,0,0],[1,0],[0]]","10","[[2,0,0],[1,3],[0]]","10","0","","","","","","6","","","","","","","","",""
"","","","","","single-stim-button","269","546020","0.0-2.0-40.9-1.9","62c9b08ae24d9a6320996a25","A3","batch1","","594","tol_toboard","","","","tol_peg_2","594","594","0","[[3,0,0],[1,2],[0]]","10","[[2,0,0],[1,3],[0]]","10","0","","","","","","6","","","","","","","","",""
"","","","","","single-stim-button","270","546651","0.0-2.0-40.10-0.10","62c9b08ae24d9a6320996a25","A3","batch1","","631","tol_tohand","","","","tol_peg_1","631","631","0","[[0,0,0],[1,2],[0]]","11","[[2,0,0],[1,3],[0]]","10","0","","","","","","6","","","","","","","","",""
"","","","","","single-stim-button","271","547494","0.0-2.0-40.10-1.10","62c9b08ae24d9a6320996a25","A3","batch1","","843","tol_toboard","","","","tol_peg_3","843","843","0","[[0,0,0],[1,2],[3]]","11","[[2,0,0],[1,3],[0]]","10","0","","","","","","6","","","","","","","","",""
"","","","","","single-stim-button","272","548288","0.0-2.0-40.11-0.11","62c9b08ae24d9a6320996a25","A3","batch1","","794","tol_tohand","","","","tol_peg_2","794","794","0","[[0,0,0],[1,0],[3]]","12","[[2,0,0],[1,3],[0]]","10","0","","","","","","6","","","","","","","","",""
"","","","","","single-stim-button","273","548940","0.0-2.0-40.11-1.11","62c9b08ae24d9a6320996a25","A3","batch1","","652","tol_toboard","","","","tol_peg_1","652","652","0","[[2,0,0],[1,0],[3]]","12","[[2,0,0],[1,3],[0]]","10","0","","","","","","6","","","","","","","","",""
"","","","","","single-stim-button","274","549678","0.0-2.0-40.12-0.12","62c9b08ae24d9a6320996a25","A3","batch1","","737","tol_tohand","","","","tol_peg_3","737","737","0","[[2,0,0],[1,0],[0]]","13","[[2,0,0],[1,3],[0]]","10","0","","","","","","6","","","","","","","","",""
"","","","","","single-stim-button","275","550280","0.0-2.0-40.12-1.12","62c9b08ae24d9a6320996a25","A3","batch1","","602","tol_toboard","","","","tol_peg_2","602","602","0","[[2,0,0],[1,3],[0]]","13","[[2,0,0],[1,3],[0]]","10","0","","","","","","6","","","","","","","","",""
"","","","","","poldrack-single-stim","276","551287","0.0-2.0-41.0","62c9b08ae24d9a6320996a25","A3","batch1","","-1","tol_feedback","","","true","","1000","1000","500","","","","","","-1","none","true","6982","19118","","","","","","","","","",""
"","","","","","html-button-response","277","552393","0.0-2.0-42.0","62c9b08ae24d9a6320996a25","A3","batch1","","1106","tol_trial_num","<div class = centerbox><p class = center-block-text>problem <strong>12</strong> out of 25 problems</p></div>","0","","","","","","","","","","","","","","","","","","","","","","","","",""
"","","","","","single-stim-button","278","557078","0.0-2.0-43.0-0.0","62c9b08ae24d9a6320996a25","A3","batch1","","4685","tol_tohand","","","","tol_peg_1","4685","4685","0","[[1,0,0],[3,0],[0]]","1","[[2,3,0],[0,0],[1]]","11","0","","","","","","4","","","","","","","","",""
"","","","","","single-stim-button","279","557723","0.0-2.0-43.0-1.0","62c9b08ae24d9a6320996a25","A3","batch1","","645","tol_toboard","","","","tol_peg_2","645","645","0","[[1,0,0],[3,2],[0]]","1","[[2,3,0],[0,0],[1]]","11","0","","","","","","4","","","","","","","","",""
"","","","","","single-stim-button","280","558467","0.0-2.0-43.1-0.1","62c9b08ae24d9a6320996a25","A3","batch1","","744","tol_tohand","","","","tol_peg_1","744","744","0","[[0,0,0],[3,2],[0]]","2","[[2,3,0],[0,0],[1]]","11","0","","","","","","4","","","","","","","","",""
"","","","","","single-stim-button","281","559856","0.0-2.0-43.1-1.1","62c9b08ae24d9a6320996a25","A3","batch1","","1389","tol_toboard","","","","tol_peg_3","1389","1389","0","[[0,0,0],[3,2],[1]]","2","[[2,3,0],[0,0],[1]]","11","0","","","","","","4","","","","","","","","",""
"","","","","","single-stim-button","282","560537","0.0-2.0-43.2-0.2","62c9b08ae24d9a6320996a25","A3","batch1","","680","tol_tohand","","","","tol_peg_2","680","680","0","[[0,0,0],[3,0],[1]]","3","[[2,3,0],[0,0],[1]]","11","0","","","","","","4","","","","","","","","",""
"","","","","","single-stim-button","283","561344","0.0-2.0-43.2-1.2","62c9b08ae24d9a6320996a25","A3","batch1","","807","tol_toboard","","","","tol_peg_1","807","807","0","[[2,0,0],[3,0],[1]]","3","[[2,3,0],[0,0],[1]]","11","0","","","","","","4","","","","","","","","",""
"","","","","","single-stim-button","284","562103","0.0-2.0-43.3-0.3","62c9b08ae24d9a6320996a25","A3","batch1","","758","tol_tohand","","","","tol_peg_2","758","758","0","[[2,0,0],[0,0],[1]]","4","[[2,3,0],[0,0],[1]]","11","0","","","","","","4","","","","","","","","",""
"","","","","","single-stim-button","285","562713","0.0-2.0-43.3-1.3","62c9b08ae24d9a6320996a25","A3","batch1","","610","tol_toboard","","","","tol_peg_1","610","610","0","[[2,3,0],[0,0],[1]]","4","[[2,3,0],[0,0],[1]]","11","0","","","","","","4","","","","","","","","",""
"","","","","","poldrack-single-stim","286","563715","0.0-2.0-44.0","62c9b08ae24d9a6320996a25","A3","batch1","","-1","tol_feedback","","","true","","1000","1000","500","","","","","","-1","none","true","4685","6867","","","","","","","","","",""
"","","","","","html-button-response","287","564618","0.0-2.0-45.0","62c9b08ae24d9a6320996a25","A3","batch1","","902","tol_trial_num","<div class = centerbox><p class = center-block-text>problem <strong>13</strong> out of 25 problems</p></div>","0","","","","","","","","","","","","","","","","","","","","","","","","",""
"","","","","","single-stim-button","288","572502","0.0-2.0-46.0-0.0","62c9b08ae24d9a6320996a25","A3","batch1","","7883","tol_tohand","","","","tol_peg_1","7883","7883","0","[[1,0,0],[3,0],[0]]","1","[[0,0,0],[2,3],[1]]","12","0","","","","","","4","","","","","","","","",""
"","","","","","single-stim-button","289","573154","0.0-2.0-46.0-1.0","62c9b08ae24d9a6320996a25","A3","batch1","","652","tol_toboard","","","","tol_peg_2","652","652","0","[[1,0,0],[3,2],[0]]","1","[[0,0,0],[2,3],[1]]","12","0","","","","","","4","","","","","","","","",""
"","","","","","single-stim-button","290","574522","0.0-2.0-46.1-0.1","62c9b08ae24d9a6320996a25","A3","batch1","","1367","tol_tohand","","","","tol_peg_1","1367","1367","0","[[0,0,0],[3,2],[0]]","2","[[0,0,0],[2,3],[1]]","12","0","","","","","","4","","","","","","","","",""
"","","","","","single-stim-button","291","575238","0.0-2.0-46.1-1.1","62c9b08ae24d9a6320996a25","A3","batch1","","716","tol_toboard","","","","tol_peg_3","716","716","0","[[0,0,0],[3,2],[1]]","2","[[0,0,0],[2,3],[1]]","12","0","","","","","","4","","","","","","","","",""
"","","","","","single-stim-button","292","577946","0.0-2.0-46.2-0.2","62c9b08ae24d9a6320996a25","A3","batch1","","2707","tol_tohand","","","","tol_peg_2","2707","2707","0","[[0,0,0],[3,0],[1]]","3","[[0,0,0],[2,3],[1]]","12","0","","","","","","4","","","","","","","","",""
"","","","","","single-stim-button","293","578591","0.0-2.0-46.2-1.2","62c9b08ae24d9a6320996a25","A3","batch1","","645","tol_toboard","","","","tol_peg_1","645","645","0","[[2,0,0],[3,0],[1]]","3","[[0,0,0],[2,3],[1]]","12","0","","","","","","4","","","","","","","","",""
"","","","","","single-stim-button","294","579229","0.0-2.0-46.3-0.3","62c9b08ae24d9a6320996a25","A3","batch1","","637","tol_tohand","","","","tol_peg_2","637","637","0","[[2,0,0],[0,0],[1]]","4","[[0,0,0],[2,3],[1]]","12","0","","","","","","4","","","","","","","","",""
"","","","","","single-stim-button","295","579781","0.0-2.0-46.3-1.3","62c9b08ae24d9a6320996a25","A3","batch1","","552","tol_toboard","","","","tol_peg_1","552","552","0","[[2,3,0],[0,0],[1]]","4","[[0,0,0],[2,3],[1]]","12","0","","","","","","4","","","","","","","","",""
"","","","","","single-stim-button","296","582368","0.0-2.0-46.4-0.4","62c9b08ae24d9a6320996a25","A3","batch1","","2586","tol_tohand","","","","tol_peg_3","2586","2586","0","[[2,3,0],[0,0],[0]]","5","[[0,0,0],[2,3],[1]]","12","0","","","","","","4","","","","","","","","",""
"","","","","","single-stim-button","297","582893","0.0-2.0-46.4-1.4","62c9b08ae24d9a6320996a25","A3","batch1","","525","tol_toboard","","","","tol_peg_2","525","525","0","[[2,3,0],[1,0],[0]]","5","[[0,0,0],[2,3],[1]]","12","0","","","","","","4","","","","","","","","",""
"","","","","","single-stim-button","298","583488","0.0-2.0-46.5-0.5","62c9b08ae24d9a6320996a25","A3","batch1","","594","tol_tohand","","","","tol_peg_1","594","594","0","[[2,0,0],[1,0],[0]]","6","[[0,0,0],[2,3],[1]]","12","0","","","","","","4","","","","","","","","",""
"","","","","","single-stim-button","299","584162","0.0-2.0-46.5-1.5","62c9b08ae24d9a6320996a25","A3","batch1","","674","tol_toboard","","","","tol_peg_3","674","674","0","[[2,0,0],[1,0],[3]]","6","[[0,0,0],[2,3],[1]]","12","0","","","","","","4","","","","","","","","",""
"","","","","","single-stim-button","300","585416","0.0-2.0-46.6-0.6","62c9b08ae24d9a6320996a25","A3","batch1","","1254","tol_tohand","","","","tol_peg_1","1254","1254","0","[[0,0,0],[1,0],[3]]","7","[[0,0,0],[2,3],[1]]","12","0","","","","","","4","","","","","","","","",""
"","","","","","single-stim-button","301","588492","0.0-2.0-46.6-1.6","62c9b08ae24d9a6320996a25","A3","batch1","","3076","tol_toboard","","","","tol_peg_1","3076","3076","0","[[2,0,0],[1,0],[3]]","7","[[0,0,0],[2,3],[1]]","12","0","","","","","","4","","","","","","","","",""
"","","","","","single-stim-button","302","589187","0.0-2.0-46.7-0.7","62c9b08ae24d9a6320996a25","A3","batch1","","695","tol_tohand","","","","tol_peg_3","695","695","0","[[2,0,0],[1,0],[0]]","8","[[0,0,0],[2,3],[1]]","12","0","","","","","","4","","","","","","","","",""
"","","","","","single-stim-button","303","589704","0.0-2.0-46.7-1.7","62c9b08ae24d9a6320996a25","A3","batch1","","516","tol_toboard","","","","tol_peg_2","516","516","0","[[2,0,0],[1,3],[0]]","8","[[0,0,0],[2,3],[1]]","12","0","","","","","","4","","","","","","","","",""
"","","","","","single-stim-button","304","590300","0.0-2.0-46.8-0.8","62c9b08ae24d9a6320996a25","A3","batch1","","596","tol_tohand","","","","tol_peg_1","596","596","0","[[0,0,0],[1,3],[0]]","9","[[0,0,0],[2,3],[1]]","12","0","","","","","","4","","","","","","","","",""
"","","","","","single-stim-button","305","591016","0.0-2.0-46.8-1.8","62c9b08ae24d9a6320996a25","A3","batch1","","715","tol_toboard","","","","tol_peg_3","715","715","0","[[0,0,0],[1,3],[2]]","9","[[0,0,0],[2,3],[1]]","12","0","","","","","","4","","","","","","","","",""
"","","","","","single-stim-button","306","591732","0.0-2.0-46.9-0.9","62c9b08ae24d9a6320996a25","A3","batch1","","715","tol_tohand","","","","tol_peg_2","715","715","0","[[0,0,0],[1,0],[2]]","10","[[0,0,0],[2,3],[1]]","12","0","","","","","","4","","","","","","","","",""
"","","","","","single-stim-button","307","592576","0.0-2.0-46.9-1.9","62c9b08ae24d9a6320996a25","A3","batch1","","844","tol_toboard","","","","tol_peg_1","844","844","0","[[3,0,0],[1,0],[2]]","10","[[0,0,0],[2,3],[1]]","12","0","","","","","","4","","","","","","","","",""
"","","","","","single-stim-button","308","593745","0.0-2.0-46.10-0.10","62c9b08ae24d9a6320996a25","A3","batch1","","1169","tol_tohand","","","","tol_peg_3","1169","1169","0","[[3,0,0],[1,0],[0]]","11","[[0,0,0],[2,3],[1]]","12","0","","","","","","4","","","","","","","","",""
"","","","","","single-stim-button","309","594433","0.0-2.0-46.10-1.10","62c9b08ae24d9a6320996a25","A3","batch1","","687","tol_toboard","","","","tol_peg_1","687","687","0","[[3,2,0],[1,0],[0]]","11","[[0,0,0],[2,3],[1]]","12","0","","","","","","4","","","","","","","","",""
"","","","","","single-stim-button","310","595155","0.0-2.0-46.11-0.11","62c9b08ae24d9a6320996a25","A3","batch1","","722","tol_tohand","","","","tol_peg_2","722","722","0","[[3,2,0],[0,0],[0]]","12","[[0,0,0],[2,3],[1]]","12","0","","","","","","4","","","","","","","","",""
"","","","","","single-stim-button","311","595807","0.0-2.0-46.11-1.11","62c9b08ae24d9a6320996a25","A3","batch1","","651","tol_toboard","","","","tol_peg_3","651","651","0","[[3,2,0],[0,0],[1]]","12","[[0,0,0],[2,3],[1]]","12","0","","","","","","4","","","","","","","","",""
"","","","","","single-stim-button","312","596475","0.0-2.0-46.12-0.12","62c9b08ae24d9a6320996a25","A3","batch1","","667","tol_tohand","","","","tol_peg_1","667","667","0","[[3,0,0],[0,0],[1]]","13","[[0,0,0],[2,3],[1]]","12","0","","","","","","4","","","","","","","","",""
"","","","","","single-stim-button","313","596984","0.0-2.0-46.12-1.12","62c9b08ae24d9a6320996a25","A3","batch1","","509","tol_toboard","","","","tol_peg_2","509","509","0","[[3,0,0],[2,0],[1]]","13","[[0,0,0],[2,3],[1]]","12","0","","","","","","4","","","","","","","","",""
"","","","","","single-stim-button","314","597537","0.0-2.0-46.13-0.13","62c9b08ae24d9a6320996a25","A3","batch1","","553","tol_tohand","","","","tol_peg_1","553","553","0","[[0,0,0],[2,0],[1]]","14","[[0,0,0],[2,3],[1]]","12","0","","","","","","4","","","","","","","","",""
"","","","","","single-stim-button","315","598104","0.0-2.0-46.13-1.13","62c9b08ae24d9a6320996a25","A3","batch1","","567","tol_toboard","","","","tol_peg_2","567","567","0","[[0,0,0],[2,3],[1]]","14","[[0,0,0],[2,3],[1]]","12","0","","","","","","4","","","","","","","","",""
"","","","","","poldrack-single-stim","316","599106","0.0-2.0-47.0","62c9b08ae24d9a6320996a25","A3","batch1","","-1","tol_feedback","","","true","","1000","1000","500","","","","","","-1","none","true","7883","22145","","","","","","","","","",""
"","","","","","html-button-response","317","601470","0.0-2.0-48.0","62c9b08ae24d9a6320996a25","A3","batch1","","2363","attention_check","<p class = block-text>How many balls are in your board<br></p>","1","true","","","","","","","","","","","","","","","","","","","","","","","",""
"","","","","","html-button-response","318","602625","0.0-2.0-49.0","62c9b08ae24d9a6320996a25","A3","batch1","","1154","tol_trial_num","<div class = centerbox><p class = center-block-text>problem <strong>14</strong> out of 25 problems</p></div>","0","","","","","","","","","","","","","","","","","","","","","","","","",""
"","","","","","single-stim-button","319","606334","0.0-2.0-50.0-0.0","62c9b08ae24d9a6320996a25","A3","batch1","","3707","tol_tohand","","","","tol_peg_2","3707","3707","0","[[2,1,0],[0,0],[0]]","1","[[1,2,0],[3,0],[0]]","13","0","","","","","","4","","","","","","","","",""
"","","","","","single-stim-button","320","606929","0.0-2.0-50.0-1.0","62c9b08ae24d9a6320996a25","A3","batch1","","595","tol_toboard","","","","tol_peg_3","595","595","0","[[2,1,0],[0,0],[3]]","1","[[1,2,0],[3,0],[0]]","13","0","","","","","","4","","","","","","","","",""
"","","","","","single-stim-button","321","607645","0.0-2.0-50.1-0.1","62c9b08ae24d9a6320996a25","A3","batch1","","716","tol_tohand","","","","tol_peg_1","716","716","0","[[2,0,0],[0,0],[3]]","2","[[1,2,0],[3,0],[0]]","13","0","","","","","","4","","","","","","","","",""
"","","","","","single-stim-button","322","608298","0.0-2.0-50.1-1.1","62c9b08ae24d9a6320996a25","A3","batch1","","653","tol_toboard","","","","tol_peg_2","653","653","0","[[2,0,0],[1,0],[3]]","2","[[1,2,0],[3,0],[0]]","13","0","","","","","","4","","","","","","","","",""
"","","","","","single-stim-button","323","609447","0.0-2.0-50.2-0.2","62c9b08ae24d9a6320996a25","A3","batch1","","1148","tol_tohand","","","","tol_peg_1","1148","1148","0","[[0,0,0],[1,0],[3]]","3","[[1,2,0],[3,0],[0]]","13","0","","","","","","4","","","","","","","","",""
"","","","","","single-stim-button","324","610099","0.0-2.0-50.2-1.2","62c9b08ae24d9a6320996a25","A3","batch1","","651","tol_toboard","","","","tol_peg_2","651","651","0","[[0,0,0],[1,2],[3]]","3","[[1,2,0],[3,0],[0]]","13","0","","","","","","4","","","","","","","","",""
"","","","","","single-stim-button","325","610757","0.0-2.0-50.3-0.3","62c9b08ae24d9a6320996a25","A3","batch1","","658","tol_tohand","","","","tol_peg_3","658","658","0","[[0,0,0],[1,2],[0]]","4","[[1,2,0],[3,0],[0]]","13","0","","","","","","4","","","","","","","","",""
"","","","","","single-stim-button","326","611495","0.0-2.0-50.3-1.3","62c9b08ae24d9a6320996a25","A3","batch1","","737","tol_toboard","","","","tol_peg_1","737","737","0","[[3,0,0],[1,2],[0]]","4","[[1,2,0],[3,0],[0]]","13","0","","","","","","4","","","","","","","","",""
"","","","","","single-stim-button","327","612182","0.0-2.0-50.4-0.4","62c9b08ae24d9a6320996a25","A3","batch1","","685","tol_tohand","","","","tol_peg_2","685","685","0","[[3,0,0],[1,0],[0]]","5","[[1,2,0],[3,0],[0]]","13","0","","","","","","4","","","","","","","","",""
"","","","","","single-stim-button","328","612792","0.0-2.0-50.4-1.4","62c9b08ae24d9a6320996a25","A3","batch1","","610","tol_toboard","","","","tol_peg_3","610","610","0","[[3,0,0],[1,0],[2]]","5","[[1,2,0],[3,0],[0]]","13","0","","","","","","4","","","","","","","","",""
"","","","","","single-stim-button","329","613651","0.0-2.0-50.5-0.5","62c9b08ae24d9a6320996a25","A3","batch1","","858","tol_tohand","","","","tol_peg_1","858","858","0","[[0,0,0],[1,0],[2]]","6","[[1,2,0],[3,0],[0]]","13","0","","","","","","4","","","","","","","","",""
"","","","","","single-stim-button","330","615068","0.0-2.0-50.5-1.5","62c9b08ae24d9a6320996a25","A3","batch1","","1417","tol_toboard","","","","tol_peg_1","1417","1417","0","[[3,0,0],[1,0],[2]]","6","[[1,2,0],[3,0],[0]]","13","0","","","","","","4","","","","","","","","",""
"","","","","","single-stim-button","331","617529","0.0-2.0-50.6-0.6","62c9b08ae24d9a6320996a25","A3","batch1","","2461","tol_tohand","","","","tol_peg_2","2461","2461","0","[[3,0,0],[0,0],[2]]","7","[[1,2,0],[3,0],[0]]","13","0","","","","","","4","","","","","","","","",""
"","","","","","single-stim-button","332","618932","0.0-2.0-50.6-1.6","62c9b08ae24d9a6320996a25","A3","batch1","","1403","tol_toboard","","","","tol_peg_1","1403","1403","0","[[3,1,0],[0,0],[2]]","7","[[1,2,0],[3,0],[0]]","13","0","","","","","","4","","","","","","","","",""
"","","","","","single-stim-button","333","620237","0.0-2.0-50.7-0.7","62c9b08ae24d9a6320996a25","A3","batch1","","1305","tol_tohand","","","","tol_peg_3","1305","1305","0","[[3,1,0],[0,0],[0]]","8","[[1,2,0],[3,0],[0]]","13","0","","","","","","4","","","","","","","","",""
"","","","","","single-stim-button","334","620734","0.0-2.0-50.7-1.7","62c9b08ae24d9a6320996a25","A3","batch1","","496","tol_toboard","","","","tol_peg_2","496","496","0","[[3,1,0],[2,0],[0]]","8","[[1,2,0],[3,0],[0]]","13","0","","","","","","4","","","","","","","","",""
"","","","","","single-stim-button","335","621363","0.0-2.0-50.8-0.8","62c9b08ae24d9a6320996a25","A3","batch1","","629","tol_tohand","","","","tol_peg_1","629","629","0","[[3,0,0],[2,0],[0]]","9","[[1,2,0],[3,0],[0]]","13","0","","","","","","4","","","","","","","","",""
"","","","","","single-stim-button","336","621895","0.0-2.0-50.8-1.8","62c9b08ae24d9a6320996a25","A3","batch1","","531","tol_toboard","","","","tol_peg_2","531","531","0","[[3,0,0],[2,1],[0]]","9","[[1,2,0],[3,0],[0]]","13","0","","","","","","4","","","","","","","","",""
"","","","","","single-stim-button","337","622669","0.0-2.0-50.9-0.9","62c9b08ae24d9a6320996a25","A3","batch1","","773","tol_tohand","","","","tol_peg_1","773","773","0","[[0,0,0],[2,1],[0]]","10","[[1,2,0],[3,0],[0]]","13","0","","","","","","4","","","","","","","","",""
"","","","","","single-stim-button","338","623419","0.0-2.0-50.9-1.9","62c9b08ae24d9a6320996a25","A3","batch1","","750","tol_toboard","","","","tol_peg_3","750","750","0","[[0,0,0],[2,1],[3]]","10","[[1,2,0],[3,0],[0]]","13","0","","","","","","4","","","","","","","","",""
"","","","","","single-stim-button","339","624185","0.0-2.0-50.10-0.10","62c9b08ae24d9a6320996a25","A3","batch1","","765","tol_tohand","","","","tol_peg_2","765","765","0","[[0,0,0],[2,0],[3]]","11","[[1,2,0],[3,0],[0]]","13","0","","","","","","4","","","","","","","","",""
"","","","","","single-stim-button","340","624816","0.0-2.0-50.10-1.10","62c9b08ae24d9a6320996a25","A3","batch1","","631","tol_toboard","","","","tol_peg_1","631","631","0","[[1,0,0],[2,0],[3]]","11","[[1,2,0],[3,0],[0]]","13","0","","","","","","4","","","","","","","","",""
"","","","","","single-stim-button","341","625433","0.0-2.0-50.11-0.11","62c9b08ae24d9a6320996a25","A3","batch1","","617","tol_tohand","","","","tol_peg_2","617","617","0","[[1,0,0],[0,0],[3]]","12","[[1,2,0],[3,0],[0]]","13","0","","","","","","4","","","","","","","","",""
"","","","","","single-stim-button","342","626007","0.0-2.0-50.11-1.11","62c9b08ae24d9a6320996a25","A3","batch1","","573","tol_toboard","","","","tol_peg_1","573","573","0","[[1,2,0],[0,0],[3]]","12","[[1,2,0],[3,0],[0]]","13","0","","","","","","4","","","","","","","","",""
"","","","","","single-stim-button","343","626667","0.0-2.0-50.12-0.12","62c9b08ae24d9a6320996a25","A3","batch1","","659","tol_tohand","","","","tol_peg_3","659","659","0","[[1,2,0],[0,0],[0]]","13","[[1,2,0],[3,0],[0]]","13","0","","","","","","4","","","","","","","","",""
"","","","","","single-stim-button","344","627199","0.0-2.0-50.12-1.12","62c9b08ae24d9a6320996a25","A3","batch1","","532","tol_toboard","","","","tol_peg_2","532","532","0","[[1,2,0],[3,0],[0]]","13","[[1,2,0],[3,0],[0]]","13","0","","","","","","4","","","","","","","","",""
"","","","","","poldrack-single-stim","345","628207","0.0-2.0-51.0","62c9b08ae24d9a6320996a25","A3","batch1","","-1","tol_feedback","","","true","","1000","1000","500","","","","","","-1","none","true","3707","14981","","","","","","","","","",""
"","","","","","html-button-response","346","631076","0.0-2.0-52.0","62c9b08ae24d9a6320996a25","A3","batch1","","2869","tol_trial_num","<div class = centerbox><p class = center-block-text>problem <strong>15</strong> out of 25 problems</p></div>","0","","","","","","","","","","","","","","","","","","","","","","","","",""
"","","","","","single-stim-button","347","634542","0.0-2.0-53.0-0.0","62c9b08ae24d9a6320996a25","A3","batch1","","3465","tol_tohand","","","","tol_peg_1","3465","3465","0","[[1,0,0],[3,0],[0]]","1","[[2,0,0],[3,0],[1]]","14","0","","","","","","3","","","","","","","","",""
"","","","","","single-stim-button","348","635342","0.0-2.0-53.0-1.0","62c9b08ae24d9a6320996a25","A3","batch1","","800","tol_toboard","","","","tol_peg_2","800","800","0","[[1,0,0],[3,2],[0]]","1","[[2,0,0],[3,0],[1]]","14","0","","","","","","3","","","","","","","","",""
"","","","","","single-stim-button","349","636024","0.0-2.0-53.1-0.1","62c9b08ae24d9a6320996a25","A3","batch1","","680","tol_tohand","","","","tol_peg_1","680","680","0","[[0,0,0],[3,2],[0]]","2","[[2,0,0],[3,0],[1]]","14","0","","","","","","3","","","","","","","","",""
"","","","","","single-stim-button","350","636775","0.0-2.0-53.1-1.1","62c9b08ae24d9a6320996a25","A3","batch1","","751","tol_toboard","","","","tol_peg_3","751","751","0","[[0,0,0],[3,2],[1]]","2","[[2,0,0],[3,0],[1]]","14","0","","","","","","3","","","","","","","","",""
"","","","","","single-stim-button","351","637505","0.0-2.0-53.2-0.2","62c9b08ae24d9a6320996a25","A3","batch1","","730","tol_tohand","","","","tol_peg_2","730","730","0","[[0,0,0],[3,0],[1]]","3","[[2,0,0],[3,0],[1]]","14","0","","","","","","3","","","","","","","","",""
"","","","","","single-stim-button","352","638228","0.0-2.0-53.2-1.2","62c9b08ae24d9a6320996a25","A3","batch1","","723","tol_toboard","","","","tol_peg_1","723","723","0","[[2,0,0],[3,0],[1]]","3","[[2,0,0],[3,0],[1]]","14","0","","","","","","3","","","","","","","","",""
"","","","","","poldrack-single-stim","353","639243","0.0-2.0-54.0","62c9b08ae24d9a6320996a25","A3","batch1","","-1","tol_feedback","","","true","","1000","1000","500","","","","","","-1","none","true","3465","4875","","","","","","","","","",""
"","","","","","html-button-response","354","641156","0.0-2.0-55.0","62c9b08ae24d9a6320996a25","A3","batch1","","1911","tol_trial_num","<div class = centerbox><p class = center-block-text>problem <strong>16</strong> out of 25 problems</p></div>","0","","","","","","","","","","","","","","","","","","","","","","","","",""
"","","","","","single-stim-button","355","644013","0.0-2.0-56.0-0.0","62c9b08ae24d9a6320996a25","A3","batch1","","2856","tol_tohand","","","","tol_peg_3","2856","2856","0","[[0,0,0],[2,3],[0]]","1","[[2,3,0],[1,0],[0]]","15","0","","","","","","7","","","","","","","","",""
"","","","","","single-stim-button","356","644701","0.0-2.0-56.0-1.0","62c9b08ae24d9a6320996a25","A3","batch1","","688","tol_toboard","","","","tol_peg_1","688","688","0","[[1,0,0],[2,3],[0]]","1","[[2,3,0],[1,0],[0]]","15","0","","","","","","7","","","","","","","","",""
"","","","","","single-stim-button","357","645488","0.0-2.0-56.1-0.1","62c9b08ae24d9a6320996a25","A3","batch1","","787","tol_tohand","","","","tol_peg_2","787","787","0","[[1,0,0],[2,0],[0]]","2","[[2,3,0],[1,0],[0]]","15","0","","","","","","7","","","","","","","","",""
