"success","timeout","failed_images","failed_audio","failed_video","trial_type","trial_index","time_elapsed","internal_node_id","subject_id","study_id","session_id","view_history","rt","stimulus","response","task","correct","answer","item","fiar_detect_rt","fiar_detect_correct","total_correct_fiar_detect","post_trial_gap","choices","spm_correct","spm_rt","mouse_click","stim_duration","block_duration","timing_post_trial","current_position","tol_num_moves_made","tol_target","tol_problem_id","tol_rt","key_press","possible_responses","tol_correct","preplanning","tol_rt_per_trial","tol_min_moves"
"true","false","[]","[]","[]","preload","0","1068","0.0-0.0","62d04f92bfa53e94ef2fabaf","B2","batch2","","","","","","","","","","","","","","","","","","","","","","","","","","","","","",""
"true","","","","","fullscreen","1","22515","0.0-1.0-0.0","62d04f92bfa53e94ef2fabaf","B2","batch2","","","","","","","","","","","","","","","","","","","","","","","","","","","","","",""
"true","","","","","fullscreen","2","30567","0.0-2.0-0.0","62d04f92bfa53e94ef2fabaf","B2","batch2","","","","","","","","","","","","","","","","","","","","","","","","","","","","","",""
"","","","","","instructions","3","139406","0.0-2.0-1.0-0.0","62d04f92bfa53e94ef2fabaf","B2","batch2","[{""page_index"":0,""viewing_time"":96047},{""page_index"":1,""viewing_time"":12790}]","108838","","","","","","","","","","","","","","","","","","","","","","","","","","","",""
"","","","","","html-button-response","4","267566","0.0-2.0-1.0-1.0-0.0","62d04f92bfa53e94ef2fabaf","B2","batch2","","128160","<p class=block-text> Let's answer a few questions <br>","0","pattern_enter_quiz","","","","","","","","","","","","","","","","","","","","","","","","",""
"","","","","","html-button-response","5","273666","0.0-2.0-1.0-1.0-1.0","62d04f92bfa53e94ef2fabaf","B2","batch2","","6098","<p class = block-text>True or False: You will have as much time as you want to make each choice. <br></p>","0","pattern_quiz","false","","","","","","","","","","","","","","","","","","","","","","","",""
"","","","","","html-button-response","6","360386","0.0-2.0-1.0-1.0-2.0","62d04f92bfa53e94ef2fabaf","B2","batch2","","86719","<p class = block-text>Incorrect. Remember, You should make your choice as fast as you can.</p>","0","pattern_quiz_feedback","","","","","","","","","","","","","","","","","","","","","","","","",""
"","","","","","html-button-response","7","366192","0.0-2.0-1.0-1.0-3.0","62d04f92bfa53e94ef2fabaf","B2","batch2","","5804","<p class = block-text>True or False: You will look for 4 pieces in black or white color connected in a row either horizontally, vertically or diagonally. <br></p>","0","pattern_quiz","true","","","","","","","","","","","","","","","","","","","","","","","",""
"","","","","","html-button-response","8","367104","0.0-2.0-1.0-1.0-4.0","62d04f92bfa53e94ef2fabaf","B2","batch2","","911","<p class = block-text>Correct! </p>","0","pattern_quiz_feedback","","","","","","","","","","","","","","","","","","","","","","","","",""
"","","","","","html-button-response","9","372722","0.0-2.0-1.0-2.0-0.0","62d04f92bfa53e94ef2fabaf","B2","batch2","","5616","<p class = block-text>You made too many incorrect choices.</p><p class = block-text>You will now repeat the instruction and quiz</p>","0","","","","","","","","","","","","","","","","","","","","","","","","","",""
"","","","","","instructions","10","390735","0.0-2.0-1.1-0.1","62d04f92bfa53e94ef2fabaf","B2","batch2","[{""page_index"":0,""viewing_time"":1284},{""page_index"":1,""viewing_time"":1159},{""page_index"":0,""viewing_time"":1205},{""page_index"":1,""viewing_time"":14365}]","18013","","","","","","","","","","","","","","","","","","","","","","","","","","","",""
"","","","","","html-button-response","11","391919","0.0-2.0-1.1-1.1-0.1","62d04f92bfa53e94ef2fabaf","B2","batch2","","1183","<p class=block-text> Let's answer a few questions <br>","0","pattern_enter_quiz","","","","","","","","","","","","","","","","","","","","","","","","",""
"","","","","","html-button-response","12","393783","0.0-2.0-1.1-1.1-1.1","62d04f92bfa53e94ef2fabaf","B2","batch2","","1863","<p class = block-text>True or False: You will have as much time as you want to make each choice. <br></p>","1","pattern_quiz","true","","","","","","","","","","","","","","","","","","","","","","","",""
"","","","","","html-button-response","13","395199","0.0-2.0-1.1-1.1-2.1","62d04f92bfa53e94ef2fabaf","B2","batch2","","1416","<p class = block-text>Correct! You should make your choice <strong> as fast as you can</strong>.</p>","0","pattern_quiz_feedback","","","","","","","","","","","","","","","","","","","","","","","","",""
"","","","","","html-button-response","14","396445","0.0-2.0-1.1-1.1-3.1","62d04f92bfa53e94ef2fabaf","B2","batch2","","1246","<p class = block-text>True or False: You will look for 4 pieces in black or white color connected in a row either horizontally, vertically or diagonally. <br></p>","0","pattern_quiz","true","","","","","","","","","","","","","","","","","","","","","","","",""
"","","","","","html-button-response","15","397169","0.0-2.0-1.1-1.1-4.1","62d04f92bfa53e94ef2fabaf","B2","batch2","","724","<p class = block-text>Correct! </p>","0","pattern_quiz_feedback","","","","","","","","","","","","","","","","","","","","","","","","",""
"","","","","","html-button-response","16","402157","0.0-2.0-2.0","62d04f92bfa53e94ef2fabaf","B2","batch2","","4987","<p class=block-text> Now that you've understood the game, let's do a few practice trials before we start!<br> <br>","0","pattern_enter_practice","","","","","","","","","","","","","","","","","","","","","","","","",""
"","","","","","image-keyboard-response","17","403198","0.0-2.0-3.0-0.0","62d04f92bfa53e94ef2fabaf","B2","batch2","","1038","stim/prac_yes_16_ver_w1.png","f","pattern_practice","true","f","","","","","","","","","","","","","","","","","","","","","","",""
"","","","","","html-keyboard-response","18","404219","0.0-2.0-3.0-1.0","62d04f92bfa53e94ef2fabaf","B2","batch2","","null","<p style=""font-size:30px;color:green;"">Correct!</p>","null","pattern_feedback","","","","","","","","","","","","","","","","","","","","","","","","",""
"","","","","","image-keyboard-response","19","405021","0.0-2.0-3.0-0.1","62d04f92bfa53e94ef2fabaf","B2","batch2","","801","stim/prac_no_16_1.png","j","pattern_practice","true","j","","","","","","","","","","","","","","","","","","","","","","",""
"","","","","","html-keyboard-response","20","406038","0.0-2.0-3.0-1.1","62d04f92bfa53e94ef2fabaf","B2","batch2","","null","<p style=""font-size:30px;color:green;"">Correct!</p>","null","pattern_feedback","","","","","","","","","","","","","","","","","","","","","","","","",""
"","","","","","image-keyboard-response","21","406629","0.0-2.0-3.0-0.2","62d04f92bfa53e94ef2fabaf","B2","batch2","","591","stim/prac_yes_18_hor_w1.png","f","pattern_practice","true","f","","","","","","","","","","","","","","","","","","","","","","",""
"","","","","","html-keyboard-response","22","407645","0.0-2.0-3.0-1.2","62d04f92bfa53e94ef2fabaf","B2","batch2","","null","<p style=""font-size:30px;color:green;"">Correct!</p>","null","pattern_feedback","","","","","","","","","","","","","","","","","","","","","","","","",""
"","","","","","image-keyboard-response","23","408365","0.0-2.0-3.0-0.3","62d04f92bfa53e94ef2fabaf","B2","batch2","","720","stim/prac_no_18_1.png","j","pattern_practice","true","j","","","","","","","","","","","","","","","","","","","","","","",""
"","","","","","html-keyboard-response","24","409389","0.0-2.0-3.0-1.3","62d04f92bfa53e94ef2fabaf","B2","batch2","","null","<p style=""font-size:30px;color:green;"">Correct!</p>","null","pattern_feedback","","","","","","","","","","","","","","","","","","","","","","","","",""
"","","","","","image-keyboard-response","25","410165","0.0-2.0-3.0-0.4","62d04f92bfa53e94ef2fabaf","B2","batch2","","776","stim/prac_yes_20_dia_b1.png","j","pattern_practice","false","f","","","","","","","","","","","","","","","","","","","","","","",""
"","","","","","html-keyboard-response","26","411182","0.0-2.0-3.0-1.4","62d04f92bfa53e94ef2fabaf","B2","batch2","","null","<p style=""font-size:30px;color:red;"">Wrong.</p>","null","pattern_feedback","","","","","","","","","","","","","","","","","","","","","","","","",""
"","","","","","html-button-response","27","413817","0.0-2.0-4.0","62d04f92bfa53e94ef2fabaf","B2","batch2","","2633","<p class=block-text> Good job! You are done with practice trials!<br>
        You responded correctly on 80% of the trials.<br>
        Press the button below to start official trials. Now you won't see any feedback about your response</p>","0","pattern_enter_official_trials","","","","","","","","","","","","","","","","","","","","","","","","",""
"","","","","","html-keyboard-response","28","414620","0.0-2.0-5.0-0.0","62d04f92bfa53e94ef2fabaf","B2","batch2","","null","<p class=block-text>Trial 1 out of 78</p>","null","pattern_show_trial_num","","","","","","","","","","","","","","","","","","","","","","","","",""
"","","","","","image-keyboard-response","29","415221","0.0-2.0-5.0-1.0","62d04f92bfa53e94ef2fabaf","B2","batch2","","600","stim/yes_12_hor_w1_w.png","j","pattern_response","false","f","pattern_42","600","false","0","","","","","","","","","","","","","","","","","","",""
"","","","","","html-keyboard-response","30","416533","0.0-2.0-5.0-0.1","62d04f92bfa53e94ef2fabaf","B2","batch2","","null","<p class=block-text>Trial 2 out of 78</p>","null","pattern_show_trial_num","","","","","","","","","","","","","","","","","","","","","","","","",""
"","","","","","image-keyboard-response","31","417581","0.0-2.0-5.0-1.1","62d04f92bfa53e94ef2fabaf","B2","batch2","","1048","stim/yes_26_dia_w2_w.png","f","pattern_response","true","f","pattern_50","1048","true","1","","","","","","","","","","","","","","","","","","",""
"","","","","","html-keyboard-response","32","418899","0.0-2.0-5.0-0.2","62d04f92bfa53e94ef2fabaf","B2","batch2","","null","<p class=block-text>Trial 3 out of 78</p>","null","pattern_show_trial_num","","","","","","","","","","","","","","","","","","","","","","","","",""
"","","","","","image-keyboard-response","33","419461","0.0-2.0-5.0-1.2","62d04f92bfa53e94ef2fabaf","B2","batch2","","562","stim/yes_15_dia_b1u_b.png","f","pattern_response","true","f","pattern_44","562","true","2","","","","","","","","","","","","","","","","","","",""
"","","","","","html-keyboard-response","34","420777","0.0-2.0-5.0-0.3","62d04f92bfa53e94ef2fabaf","B2","batch2","","null","<p class=block-text>Trial 4 out of 78</p>","null","pattern_show_trial_num","","","","","","","","","","","","","","","","","","","","","","","","",""
"","","","","","image-keyboard-response","35","422469","0.0-2.0-5.0-1.3","62d04f92bfa53e94ef2fabaf","B2","batch2","","1692","stim/no_39_1_w.png","j","pattern_response","true","j","pattern_21","1692","true","3","","","","","","","","","","","","","","","","","","",""
"","","","","","html-keyboard-response","36","423792","0.0-2.0-5.0-0.4","62d04f92bfa53e94ef2fabaf","B2","batch2","","null","<p class=block-text>Trial 5 out of 78</p>","null","pattern_show_trial_num","","","","","","","","","","","","","","","","","","","","","","","","",""
"","","","","","image-keyboard-response","37","424774","0.0-2.0-5.0-1.4","62d04f92bfa53e94ef2fabaf","B2","batch2","","981","stim/yes_70_ver_b1.png","f","pattern_response","true","f","pattern_80","981","true","4","","","","","","","","","","","","","","","","","","",""
"","","","","","html-keyboard-response","38","426096","0.0-2.0-5.0-0.5","62d04f92bfa53e94ef2fabaf","B2","batch2","","null","<p class=block-text>Trial 6 out of 78</p>","null","pattern_show_trial_num","","","","","","","","","","","","","","","","","","","","","","","","",""
"","","","","","image-keyboard-response","39","426989","0.0-2.0-5.0-1.5","62d04f92bfa53e94ef2fabaf","B2","batch2","","892","stim/no_18_1_b.png","j","pattern_response","true","j","pattern_05","892","true","5","","","","","","","","","","","","","","","","","","",""
"","","","","","html-keyboard-response","40","428303","0.0-2.0-5.0-0.6","62d04f92bfa53e94ef2fabaf","B2","batch2","","null","<p class=block-text>Trial 7 out of 78</p>","null","pattern_show_trial_num","","","","","","","","","","","","","","","","","","","","","","","","",""
"","","","","","image-keyboard-response","41","428981","0.0-2.0-5.0-1.6","62d04f92bfa53e94ef2fabaf","B2","batch2","","678","stim/yes_17_ver_b1_b.png","f","pattern_response","true","f","pattern_46","678","true","6","","","","","","","","","","","","","","","","","","",""
"","","","","","html-keyboard-response","42","430295","0.0-2.0-5.0-0.7","62d04f92bfa53e94ef2fabaf","B2","batch2","","null","<p class=block-text>Trial 8 out of 78</p>","null","pattern_show_trial_num","","","","","","","","","","","","","","","","","","","","","","","","",""
"","","","","","image-keyboard-response","43","432261","0.0-2.0-5.0-1.7","62d04f92bfa53e94ef2fabaf","B2","batch2","","1966","stim/yes_42_dia_w1_w.png","j","pattern_response","false","f","pattern_64","1966","false","6","","","","","","","","","","","","","","","","","","",""
"","","","","","html-keyboard-response","44","433563","0.0-2.0-5.0-0.8","62d04f92bfa53e94ef2fabaf","B2","batch2","","null","<p class=block-text>Trial 9 out of 78</p>","null","pattern_show_trial_num","","","","","","","","","","","","","","","","","","","","","","","","",""
"","","","","","image-keyboard-response","45","436254","0.0-2.0-5.0-1.8","62d04f92bfa53e94ef2fabaf","B2","batch2","","2689","stim/no_33_1_b.png","j","pattern_response","true","j","pattern_15","2689","true","7","","","","","","","","","","","","","","","","","","",""
"","","","","","html-keyboard-response","46","437575","0.0-2.0-5.0-0.9","62d04f92bfa53e94ef2fabaf","B2","batch2","","null","<p class=block-text>Trial 10 out of 78</p>","null","pattern_show_trial_num","","","","","","","","","","","","","","","","","","","","","","","","",""
"","","","","","image-keyboard-response","47","441389","0.0-2.0-5.0-1.9","62d04f92bfa53e94ef2fabaf","B2","batch2","","3813","stim/no_49_2_b.png","j","pattern_response","true","j","pattern_29","3813","true","8","","","","","","","","","","","","","","","","","","",""
"","","","","","html-keyboard-response","48","442701","0.0-2.0-5.0-0.10","62d04f92bfa53e94ef2fabaf","B2","batch2","","null","<p class=block-text>Trial 11 out of 78</p>","null","pattern_show_trial_num","","","","","","","","","","","","","","","","","","","","","","","","",""
"","","","","","image-keyboard-response","49","448030","0.0-2.0-5.0-1.10","62d04f92bfa53e94ef2fabaf","B2","batch2","","5328","stim/no_37_2_w.png","j","pattern_response","true","j","pattern_19","5328","true","9","","","","","","","","","","","","","","","","","","",""
"","","","","","html-keyboard-response","50","449352","0.0-2.0-5.0-0.11","62d04f92bfa53e94ef2fabaf","B2","batch2","","null","<p class=block-text>Trial 12 out of 78</p>","null","pattern_show_trial_num","","","","","","","","","","","","","","","","","","","","","","","","",""
"","","","","","image-keyboard-response","51","450366","0.0-2.0-5.0-1.11","62d04f92bfa53e94ef2fabaf","B2","batch2","","1013","stim/yes_33_dia_w1_w.png","f","pattern_response","true","f","pattern_56","1013","true","10","","","","","","","","","","","","","","","","","","",""
"","","","","","html-keyboard-response","52","451679","0.0-2.0-5.0-0.12","62d04f92bfa53e94ef2fabaf","B2","batch2","","null","<p class=block-text>Trial 13 out of 78</p>","null","pattern_show_trial_num","","","","","","","","","","","","","","","","","","","","","","","","",""
"","","","","","image-keyboard-response","53","452542","0.0-2.0-5.0-1.12","62d04f92bfa53e94ef2fabaf","B2","batch2","","862","stim/yes_46_ver_b1_b.png","f","pattern_response","true","f","pattern_68","862","true","11","","","","","","","","","","","","","","","","","","",""
"","","","","","html-keyboard-response","54","453869","0.0-2.0-5.0-0.13","62d04f92bfa53e94ef2fabaf","B2","batch2","","null","<p class=block-text>Trial 14 out of 78</p>","null","pattern_show_trial_num","","","","","","","","","","","","","","","","","","","","","","","","",""
"","","","","","image-keyboard-response","55","454686","0.0-2.0-5.0-1.13","62d04f92bfa53e94ef2fabaf","B2","batch2","","817","stim/yes_39_hor_w1_w.png","f","pattern_response","true","f","pattern_62","817","true","12","","","","","","","","","","","","","","","","","","",""
"","","","","","html-keyboard-response","56","455992","0.0-2.0-5.0-0.14","62d04f92bfa53e94ef2fabaf","B2","batch2","","null","<p class=block-text>Trial 15 out of 78</p>","null","pattern_show_trial_num","","","","","","","","","","","","","","","","","","","","","","","","",""
"","","","","","image-keyboard-response","57","456718","0.0-2.0-5.0-1.14","62d04f92bfa53e94ef2fabaf","B2","batch2","","725","stim/yes_30_ver_b1_b.png","f","pattern_response","true","f","pattern_54","725","true","13","","","","","","","","","","","","","","","","","","",""
"","","","","","html-keyboard-response","58","458030","0.0-2.0-5.0-0.15","62d04f92bfa53e94ef2fabaf","B2","batch2","","null","<p class=block-text>Trial 16 out of 78</p>","null","pattern_show_trial_num","","","","","","","","","","","","","","","","","","","","","","","","",""
"","","","","","image-keyboard-response","59","463990","0.0-2.0-5.0-1.15","62d04f92bfa53e94ef2fabaf","B2","batch2","","5959","stim/no_53_1_b.png","j","pattern_response","true","j","pattern_33","5959","true","14","","","","","","","","","","","","","","","","","","",""
"","","","","","html-keyboard-response","60","465310","0.0-2.0-5.0-0.16","62d04f92bfa53e94ef2fabaf","B2","batch2","","null","<p class=block-text>Trial 17 out of 78</p>","null","pattern_show_trial_num","","","","","","","","","","","","","","","","","","","","","","","","",""
"","","","","","image-keyboard-response","61","466950","0.0-2.0-5.0-1.16","62d04f92bfa53e94ef2fabaf","B2","batch2","","1639","stim/yes_23_ver_b1.png","f","pattern_response","true","f","pattern_48","1639","true","15","","","","","","","","","","","","","","","","","","",""
"","","","","","html-keyboard-response","62","468265","0.0-2.0-5.0-0.17","62d04f92bfa53e94ef2fabaf","B2","batch2","","null","<p class=block-text>Trial 18 out of 78</p>","null","pattern_show_trial_num","","","","","","","","","","","","","","","","","","","","","","","","",""
"","","","","","image-keyboard-response","63","471230","0.0-2.0-5.0-1.17","62d04f92bfa53e94ef2fabaf","B2","batch2","","2964","stim/no_25_1_b.png","j","pattern_response","true","j","pattern_09","2964","true","16","","","","","","","","","","","","","","","","","","",""
"","","","","","html-keyboard-response","64","472552","0.0-2.0-5.0-0.18","62d04f92bfa53e94ef2fabaf","B2","batch2","","null","<p class=block-text>Trial 19 out of 78</p>","null","pattern_show_trial_num","","","","","","","","","","","","","","","","","","","","","","","","",""
"","","","","","image-keyboard-response","65","474822","0.0-2.0-5.0-1.18","62d04f92bfa53e94ef2fabaf","B2","batch2","","2269","stim/no_47_1_b.png","j","pattern_response","true","j","pattern_27","2269","true","17","","","","","","","","","","","","","","","","","","",""
"","","","","","html-keyboard-response","66","476129","0.0-2.0-5.0-0.19","62d04f92bfa53e94ef2fabaf","B2","batch2","","null","<p class=block-text>Trial 20 out of 78</p>","null","pattern_show_trial_num","","","","","","","","","","","","","","","","","","","","","","","","",""
"","","","","","image-keyboard-response","67","477598","0.0-2.0-5.0-1.19","62d04f92bfa53e94ef2fabaf","B2","batch2","","1468","stim/no_22_1_b.png","j","pattern_response","true","j","pattern_07","1468","true","18","","","","","","","","","","","","","","","","","","",""
"","","","","","html-keyboard-response","68","478903","0.0-2.0-5.0-0.20","62d04f92bfa53e94ef2fabaf","B2","batch2","","null","<p class=block-text>Trial 21 out of 78</p>","null","pattern_show_trial_num","","","","","","","","","","","","","","","","","","","","","","","","",""
"","","","","","image-keyboard-response","69","482334","0.0-2.0-5.0-1.20","62d04f92bfa53e94ef2fabaf","B2","batch2","","3429","stim/yes_58_dia_w1_w.png","j","pattern_response","false","f","pattern_76","3429","false","18","","","","","","","","","","","","","","","","","","",""
"","","","","","html-keyboard-response","70","483642","0.0-2.0-5.0-0.21","62d04f92bfa53e94ef2fabaf","B2","batch2","","null","<p class=block-text>Trial 22 out of 78</p>","null","pattern_show_trial_num","","","","","","","","","","","","","","","","","","","","","","","","",""
"","","","","","image-keyboard-response","71","487598","0.0-2.0-5.0-1.21","62d04f92bfa53e94ef2fabaf","B2","batch2","","3955","stim/no_43_2_b.png","j","pattern_response","true","j","pattern_23","3955","true","19","","","","","","","","","","","","","","","","","","",""
"","","","","","html-keyboard-response","72","488909","0.0-2.0-5.0-0.22","62d04f92bfa53e94ef2fabaf","B2","batch2","","null","<p class=block-text>Trial 23 out of 78</p>","null","pattern_show_trial_num","","","","","","","","","","","","","","","","","","","","","","","","",""
"","","","","","image-keyboard-response","73","490670","0.0-2.0-5.0-1.22","62d04f92bfa53e94ef2fabaf","B2","batch2","","1760","stim/yes_51_dia_b1.png","f","pattern_response","true","f","pattern_72","1760","true","20","","","","","","","","","","","","","","","","","","",""
"","","","","","html-keyboard-response","74","491985","0.0-2.0-5.0-0.23","62d04f92bfa53e94ef2fabaf","B2","batch2","","null","<p class=block-text>Trial 24 out of 78</p>","null","pattern_show_trial_num","","","","","","","","","","","","","","","","","","","","","","","","",""
"","","","","","image-keyboard-response","75","495158","0.0-2.0-5.0-1.23","62d04f92bfa53e94ef2fabaf","B2","batch2","","3171","stim/no_45_1_w.png","j","pattern_response","true","j","pattern_25","3171","true","21","","","","","","","","","","","","","","","","","","",""
"","","","","","html-keyboard-response","76","496473","0.0-2.0-5.0-0.24","62d04f92bfa53e94ef2fabaf","B2","batch2","","null","<p class=block-text>Trial 25 out of 78</p>","null","pattern_show_trial_num","","","","","","","","","","","","","","","","","","","","","","","","",""
"","","","","","image-keyboard-response","77","497430","0.0-2.0-5.0-1.24","62d04f92bfa53e94ef2fabaf","B2","batch2","","956","stim/no_15_1_w.png","j","pattern_response","true","j","pattern_03","956","true","22","","","","","","","","","","","","","","","","","","",""
"","","","","","html-keyboard-response","78","498746","0.0-2.0-5.0-0.25","62d04f92bfa53e94ef2fabaf","B2","batch2","","null","<p class=block-text>Trial 26 out of 78</p>","null","pattern_show_trial_num","","","","","","","","","","","","","","","","","","","","","","","","",""
"","","","","","image-keyboard-response","79","502566","0.0-2.0-5.0-1.25","62d04f92bfa53e94ef2fabaf","B2","batch2","","3819","stim/no_30_1_b.png","j","pattern_response","true","j","pattern_13","3819","true","23","","","","","","","","","","","","","","","","","","",""
"","","","","","html-keyboard-response","80","503885","0.0-2.0-5.0-0.26","62d04f92bfa53e94ef2fabaf","B2","batch2","","null","<p class=block-text>Trial 27 out of 78</p>","null","pattern_show_trial_num","","","","","","","","","","","","","","","","","","","","","","","","",""
"","","","","","image-keyboard-response","81","504814","0.0-2.0-5.0-1.26","62d04f92bfa53e94ef2fabaf","B2","batch2","","928","stim/yes_53_ver_b1_b.png","f","pattern_response","true","f","pattern_74","928","true","24","","","","","","","","","","","","","","","","","","",""
"","","","","","html-keyboard-response","82","506129","0.0-2.0-5.0-0.27","62d04f92bfa53e94ef2fabaf","B2","batch2","","null","<p class=block-text>Trial 28 out of 78</p>","null","pattern_show_trial_num","","","","","","","","","","","","","","","","","","","","","","","","",""
"","","","","","image-keyboard-response","83","511765","0.0-2.0-5.0-1.27","62d04f92bfa53e94ef2fabaf","B2","batch2","","5637","stim/yes_63_dia_b1.png","j","pattern_response","false","f","pattern_78","5637","false","24","","","","","","","","","","","","","","","","","","",""
"","","","","","html-keyboard-response","84","513092","0.0-2.0-5.0-0.28","62d04f92bfa53e94ef2fabaf","B2","batch2","","null","<p class=block-text>Trial 29 out of 78</p>","null","pattern_show_trial_num","","","","","","","","","","","","","","","","","","","","","","","","",""
"","","","","","image-keyboard-response","85","518142","0.0-2.0-5.0-1.28","62d04f92bfa53e94ef2fabaf","B2","batch2","","5047","stim/no_51_1.png","j","pattern_response","true","j","pattern_31","5047","true","25","","","","","","","","","","","","","","","","","","",""
"","","","","","html-keyboard-response","86","519458","0.0-2.0-5.0-0.29","62d04f92bfa53e94ef2fabaf","B2","batch2","","null","<p class=block-text>Trial 30 out of 78</p>","null","pattern_show_trial_num","","","","","","","","","","","","","","","","","","","","","","","","",""
"","","","","","image-keyboard-response","87","521869","0.0-2.0-5.0-1.29","62d04f92bfa53e94ef2fabaf","B2","batch2","","2410","stim/no_28_2.png","j","pattern_response","true","j","pattern_11","2410","true","26","","","","","","","","","","","","","","","","","","",""
"","","","","","html-keyboard-response","88","523193","0.0-2.0-5.0-0.30","62d04f92bfa53e94ef2fabaf","B2","batch2","","null","<p class=block-text>Trial 31 out of 78</p>","null","pattern_show_trial_num","","","","","","","","","","","","","","","","","","","","","","","","",""
"","","","","","image-keyboard-response","89","524078","0.0-2.0-5.0-1.30","62d04f92bfa53e94ef2fabaf","B2","batch2","","885","stim/yes_37_hor_w1_w.png","f","pattern_response","true","f","pattern_60","885","true","27","","","","","","","","","","","","","","","","","","",""
"","","","","","html-keyboard-response","90","525397","0.0-2.0-5.0-0.31","62d04f92bfa53e94ef2fabaf","B2","batch2","","null","<p class=block-text>Trial 32 out of 78</p>","null","pattern_show_trial_num","","","","","","","","","","","","","","","","","","","","","","","","",""
"","","","","","image-keyboard-response","91","526301","0.0-2.0-5.0-1.31","62d04f92bfa53e94ef2fabaf","B2","batch2","","903","stim/yes_36_ver_w1_w.png","f","pattern_response","true","f","pattern_58","903","true","28","","","","","","","","","","","","","","","","","","",""
"","","","","","html-keyboard-response","92","527618","0.0-2.0-5.0-0.32","62d04f92bfa53e94ef2fabaf","B2","batch2","","null","<p class=block-text>Trial 33 out of 78</p>","null","pattern_show_trial_num","","","","","","","","","","","","","","","","","","","","","","","","",""
"","","","","","image-keyboard-response","93","528358","0.0-2.0-5.0-1.32","62d04f92bfa53e94ef2fabaf","B2","batch2","","739","stim/no_12_1.png","j","pattern_response","true","j","pattern_01","739","true","29","","","","","","","","","","","","","","","","","","",""
"","","","","","html-keyboard-response","94","529675","0.0-2.0-5.0-0.33","62d04f92bfa53e94ef2fabaf","B2","batch2","","null","<p class=block-text>Trial 34 out of 78</p>","null","pattern_show_trial_num","","","","","","","","","","","","","","","","","","","","","","","","",""
"","","","","","image-keyboard-response","95","531605","0.0-2.0-5.0-1.33","62d04f92bfa53e94ef2fabaf","B2","batch2","","1930","stim/yes_44_ver_w1_w.png","f","pattern_response","true","f","pattern_66","1930","true","30","","","","","","","","","","","","","","","","","","",""
"","","","","","html-keyboard-response","96","532927","0.0-2.0-5.0-0.34","62d04f92bfa53e94ef2fabaf","B2","batch2","","null","<p class=block-text>Trial 35 out of 78</p>","null","pattern_show_trial_num","","","","","","","","","","","","","","","","","","","","","","","","",""
"","","","","","image-keyboard-response","97","533966","0.0-2.0-5.0-1.34","62d04f92bfa53e94ef2fabaf","B2","batch2","","1038","stim/yes_29_hor_b1_b.png","f","pattern_response","true","f","pattern_52","1038","true","31","","","","","","","","","","","","","","","","","","",""
"","","","","","html-keyboard-response","98","535281","0.0-2.0-5.0-0.35","62d04f92bfa53e94ef2fabaf","B2","batch2","","null","<p class=block-text>Trial 36 out of 78</p>","null","pattern_show_trial_num","","","","","","","","","","","","","","","","","","","","","","","","",""
"","","","","","image-keyboard-response","99","538446","0.0-2.0-5.0-1.35","62d04f92bfa53e94ef2fabaf","B2","batch2","","3164","stim/no_36_1_b.png","j","pattern_response","true","j","pattern_17","3164","true","32","","","","","","","","","","","","","","","","","","",""
"","","","","","html-keyboard-response","100","539759","0.0-2.0-5.0-0.36","62d04f92bfa53e94ef2fabaf","B2","batch2","","null","<p class=block-text>Trial 37 out of 78</p>","null","pattern_show_trial_num","","","","","","","","","","","","","","","","","","","","","","","","",""
"","","","","","image-keyboard-response","101","543782","0.0-2.0-5.0-1.36","62d04f92bfa53e94ef2fabaf","B2","batch2","","4021","stim/no_67_1.png","j","pattern_response","true","j","pattern_39","4021","true","33","","","","","","","","","","","","","","","","","","",""
"","","","","","html-keyboard-response","102","545099","0.0-2.0-5.0-0.37","62d04f92bfa53e94ef2fabaf","B2","batch2","","null","<p class=block-text>Trial 38 out of 78</p>","null","pattern_show_trial_num","","","","","","","","","","","","","","","","","","","","","","","","",""
"","","","","","image-keyboard-response","103","546158","0.0-2.0-5.0-1.37","62d04f92bfa53e94ef2fabaf","B2","batch2","","1057","stim/yes_49_hor_w1_b.png","f","pattern_response","true","f","pattern_70","1057","true","34","","","","","","","","","","","","","","","","","","",""
"","","","","","html-keyboard-response","104","547475","0.0-2.0-5.0-0.38","62d04f92bfa53e94ef2fabaf","B2","batch2","","null","<p class=block-text>Trial 39 out of 78</p>","null","pattern_show_trial_num","","","","","","","","","","","","","","","","","","","","","","","","",""
"","","","","","image-keyboard-response","105","551334","0.0-2.0-5.0-1.38","62d04f92bfa53e94ef2fabaf","B2","batch2","","3858","stim/no_58_1_w.png","j","pattern_response","true","j","pattern_35","3858","true","35","","","","","","","","","","","","","","","","","","",""
"","","","","","image-keyboard-response","106","553909","0.0-2.0-6.0","62d04f92bfa53e94ef2fabaf","B2","batch2","","2064","stim/empty_board.png","j","attention_check","true","j","","","","","500","[""f"",""j""]","","","","","","","","","","","","","","","","",""
"","","","","","html-keyboard-response","107","554721","0.0-2.0-7.0-0.0","62d04f92bfa53e94ef2fabaf","B2","batch2","","null","<p class=block-text>Trial 40 out of 78</p>","null","pattern_show_trial_num","","","","","","","","","","","","","","","","","","","","","","","","",""
"","","","","","image-keyboard-response","108","558165","0.0-2.0-7.0-1.0","62d04f92bfa53e94ef2fabaf","B2","batch2","","3442","stim/yes_14_hor_b1_w.png","f","pattern_response","true","f","pattern_43","3442","true","36","","","","","","","","","","","","","","","","","","",""
"","","","","","html-keyboard-response","109","559489","0.0-2.0-7.0-0.1","62d04f92bfa53e94ef2fabaf","B2","batch2","","null","<p class=block-text>Trial 41 out of 78</p>","null","pattern_show_trial_num","","","","","","","","","","","","","","","","","","","","","","","","",""
"","","","","","image-keyboard-response","110","561638","0.0-2.0-7.0-1.1","62d04f92bfa53e94ef2fabaf","B2","batch2","","2147","stim/yes_67_hor_b1.png","f","pattern_response","true","f","pattern_79","2147","true","37","","","","","","","","","","","","","","","","","","",""
"","","","","","html-keyboard-response","111","562962","0.0-2.0-7.0-0.2","62d04f92bfa53e94ef2fabaf","B2","batch2","","null","<p class=block-text>Trial 42 out of 78</p>","null","pattern_show_trial_num","","","","","","","","","","","","","","","","","","","","","","","","",""
"","","","","","image-keyboard-response","112","567038","0.0-2.0-7.0-1.2","62d04f92bfa53e94ef2fabaf","B2","batch2","","4075","stim/no_36_2_w.png","j","pattern_response","true","j","pattern_18","4075","true","38","","","","","","","","","","","","","","","","","","",""
"","","","","","html-keyboard-response","113","568345","0.0-2.0-7.0-0.3","62d04f92bfa53e94ef2fabaf","B2","batch2","","null","<p class=block-text>Trial 43 out of 78</p>","null","pattern_show_trial_num","","","","","","","","","","","","","","","","","","","","","","","","",""
"","","","","","image-keyboard-response","114","569614","0.0-2.0-7.0-1.3","62d04f92bfa53e94ef2fabaf","B2","batch2","","1269","stim/yes_31_hor_b1.png","f","pattern_response","true","f","pattern_55","1269","true","39","","","","","","","","","","","","","","","","","","",""
"","","","","","html-keyboard-response","115","570930","0.0-2.0-7.0-0.4","62d04f92bfa53e94ef2fabaf","B2","batch2","","null","<p class=block-text>Trial 44 out of 78</p>","null","pattern_show_trial_num","","","","","","","","","","","","","","","","","","","","","","","","",""
"","","","","","image-keyboard-response","116","573405","0.0-2.0-7.0-1.4","62d04f92bfa53e94ef2fabaf","B2","batch2","","2474","stim/no_44_1.png","j","pattern_response","true","j","pattern_24","2474","true","40","","","","","","","","","","","","","","","","","","",""
"","","","","","html-keyboard-response","117","574714","0.0-2.0-7.0-0.5","62d04f92bfa53e94ef2fabaf","B2","batch2","","null","<p class=block-text>Trial 45 out of 78</p>","null","pattern_show_trial_num","","","","","","","","","","","","","","","","","","","","","","","","",""
"","","","","","image-keyboard-response","118","577965","0.0-2.0-7.0-1.5","62d04f92bfa53e94ef2fabaf","B2","batch2","","3250","stim/no_48_1_w.png","j","pattern_response","true","j","pattern_28","3250","true","41","","","","","","","","","","","","","","","","","","",""
"","","","","","html-keyboard-response","119","579278","0.0-2.0-7.0-0.6","62d04f92bfa53e94ef2fabaf","B2","batch2","","null","<p class=block-text>Trial 46 out of 78</p>","null","pattern_show_trial_num","","","","","","","","","","","","","","","","","","","","","","","","",""
"","","","","","image-keyboard-response","120","583805","0.0-2.0-7.0-1.6","62d04f92bfa53e94ef2fabaf","B2","batch2","","4527","stim/no_70_2.png","j","pattern_response","true","j","pattern_40","4527","true","42","","","","","","","","","","","","","","","","","","",""
"","","","","","html-keyboard-response","121","585128","0.0-2.0-7.0-0.7","62d04f92bfa53e94ef2fabaf","B2","batch2","","null","<p class=block-text>Trial 47 out of 78</p>","null","pattern_show_trial_num","","","","","","","","","","","","","","","","","","","","","","","","",""
"","","","","","image-keyboard-response","122","585877","0.0-2.0-7.0-1.7","62d04f92bfa53e94ef2fabaf","B2","batch2","","749","stim/yes_25_hor_b1_b.png","f","pattern_response","true","f","pattern_49","749","true","43","","","","","","","","","","","","","","","","","","",""
"","","","","","html-keyboard-response","123","587196","0.0-2.0-7.0-0.8","62d04f92bfa53e94ef2fabaf","B2","batch2","","null","<p class=block-text>Trial 48 out of 78</p>","null","pattern_show_trial_num","","","","","","","","","","","","","","","","","","","","","","","","",""
"","","","","","image-keyboard-response","124","590325","0.0-2.0-7.0-1.8","62d04f92bfa53e94ef2fabaf","B2","batch2","","3127","stim/no_52_1.png","j","pattern_response","true","j","pattern_32","3127","true","44","","","","","","","","","","","","","","","","","","",""
"","","","","","html-keyboard-response","125","591647","0.0-2.0-7.0-0.9","62d04f92bfa53e94ef2fabaf","B2","batch2","","null","<p class=block-text>Trial 49 out of 78</p>","null","pattern_show_trial_num","","","","","","","","","","","","","","","","","","","","","","","","",""
"","","","","","image-keyboard-response","126","594829","0.0-2.0-7.0-1.9","62d04f92bfa53e94ef2fabaf","B2","batch2","","3181","stim/yes_37_dia_w1.png","j","pattern_response","false","f","pattern_59","3181","false","44","","","","","","","","","","","","","","","","","","",""
"","","","","","html-keyboard-response","127","596152","0.0-2.0-7.0-0.10","62d04f92bfa53e94ef2fabaf","B2","batch2","","null","<p class=block-text>Trial 50 out of 78</p>","null","pattern_show_trial_num","","","","","","","","","","","","","","","","","","","","","","","","",""
"","","","","","image-keyboard-response","128","598141","0.0-2.0-7.0-1.10","62d04f92bfa53e94ef2fabaf","B2","batch2","","1989","stim/yes_29_ver_w1.png","f","pattern_response","true","f","pattern_53","1989","true","45","","","","","","","","","","","","","","","","","","",""
"","","","","","html-keyboard-response","129","599464","0.0-2.0-7.0-0.11","62d04f92bfa53e94ef2fabaf","B2","batch2","","null","<p class=block-text>Trial 51 out of 78</p>","null","pattern_show_trial_num","","","","","","","","","","","","","","","","","","","","","","","","",""
"","","","","","image-keyboard-response","130","601517","0.0-2.0-7.0-1.11","62d04f92bfa53e94ef2fabaf","B2","batch2","","2053","stim/no_17_1_w.png","j","pattern_response","true","j","pattern_04","2053","true","46","","","","","","","","","","","","","","","","","","",""
"","","","","","html-keyboard-response","131","602841","0.0-2.0-7.0-0.12","62d04f92bfa53e94ef2fabaf","B2","batch2","","null","<p class=block-text>Trial 52 out of 78</p>","null","pattern_show_trial_num","","","","","","","","","","","","","","","","","","","","","","","","",""
"","","","","","image-keyboard-response","132","604181","0.0-2.0-7.0-1.12","62d04f92bfa53e94ef2fabaf","B2","batch2","","1338","stim/no_13_2_b.png","j","pattern_response","true","j","pattern_02","1338","true","47","","","","","","","","","","","","","","","","","","",""
"","","","","","html-keyboard-response","133","605500","0.0-2.0-7.0-0.13","62d04f92bfa53e94ef2fabaf","B2","batch2","","null","<p class=block-text>Trial 53 out of 78</p>","null","pattern_show_trial_num","","","","","","","","","","","","","","","","","","","","","","","","",""
"","","","","","image-keyboard-response","134","606478","0.0-2.0-7.0-1.13","62d04f92bfa53e94ef2fabaf","B2","batch2","","978","stim/yes_43_ver_w1_w.png","f","pattern_response","true","f","pattern_65","978","true","48","","","","","","","","","","","","","","","","","","",""
"","","","","","html-keyboard-response","135","607801","0.0-2.0-7.0-0.14","62d04f92bfa53e94ef2fabaf","B2","batch2","","null","<p class=block-text>Trial 54 out of 78</p>","null","pattern_show_trial_num","","","","","","","","","","","","","","","","","","","","","","","","",""
"","","","","","image-keyboard-response","136","612221","0.0-2.0-7.0-1.14","62d04f92bfa53e94ef2fabaf","B2","batch2","","4419","stim/no_55_1_w.png","j","pattern_response","true","j","pattern_34","4419","true","49","","","","","","","","","","","","","","","","","","",""
"","","","","","html-keyboard-response","137","613532","0.0-2.0-7.0-0.15","62d04f92bfa53e94ef2fabaf","B2","batch2","","null","<p class=block-text>Trial 55 out of 78</p>","null","pattern_show_trial_num","","","","","","","","","","","","","","","","","","","","","","","","",""
"","","","","","image-keyboard-response","138","614245","0.0-2.0-7.0-1.15","62d04f92bfa53e94ef2fabaf","B2","batch2","","712","stim/yes_28_ver_b1.png","f","pattern_response","true","f","pattern_51","712","true","50","","","","","","","","","","","","","","","","","","",""
"","","","","","html-keyboard-response","139","615553","0.0-2.0-7.0-0.16","62d04f92bfa53e94ef2fabaf","B2","batch2","","null","<p class=block-text>Trial 56 out of 78</p>","null","pattern_show_trial_num","","","","","","","","","","","","","","","","","","","","","","","","",""
"","","","","","image-keyboard-response","140","617213","0.0-2.0-7.0-1.16","62d04f92bfa53e94ef2fabaf","B2","batch2","","1660","stim/yes_35_dia_b1.png","f","pattern_response","true","f","pattern_57","1660","true","51","","","","","","","","","","","","","","","","","","",""
"","","","","","html-keyboard-response","141","618523","0.0-2.0-7.0-0.17","62d04f92bfa53e94ef2fabaf","B2","batch2","","null","<p class=block-text>Trial 57 out of 78</p>","null","pattern_show_trial_num","","","","","","","","","","","","","","","","","","","","","","","","",""
"","","","","","image-keyboard-response","142","621925","0.0-2.0-7.0-1.17","62d04f92bfa53e94ef2fabaf","B2","batch2","","3400","stim/no_34_1_b.png","j","pattern_response","true","j","pattern_16","3400","true","52","","","","","","","","","","","","","","","","","","",""
"","","","","","html-keyboard-response","143","623240","0.0-2.0-7.0-0.18","62d04f92bfa53e94ef2fabaf","B2","batch2","","null","<p class=block-text>Trial 58 out of 78</p>","null","pattern_show_trial_num","","","","","","","","","","","","","","","","","","","","","","","","",""
"","","","","","image-keyboard-response","144","628733","0.0-2.0-7.0-1.18","62d04f92bfa53e94ef2fabaf","B2","batch2","","5493","stim/no_46_1_b.png","j","pattern_response","true","j","pattern_26","5493","true","53","","","","","","","","","","","","","","","","","","",""
"","","","","","html-keyboard-response","145","630046","0.0-2.0-7.0-0.19","62d04f92bfa53e94ef2fabaf","B2","batch2","","null","<p class=block-text>Trial 59 out of 78</p>","null","pattern_show_trial_num","","","","","","","","","","","","","","","","","","","","","","","","",""
"","","","","","image-keyboard-response","146","630917","0.0-2.0-7.0-1.19","62d04f92bfa53e94ef2fabaf","B2","batch2","","871","stim/yes_22_ver_w1.png","f","pattern_response","true","f","pattern_47","871","true","54","","","","","","","","","","","","","","","","","","",""
"","","","","","html-keyboard-response","147","632228","0.0-2.0-7.0-0.20","62d04f92bfa53e94ef2fabaf","B2","batch2","","null","<p class=block-text>Trial 60 out of 78</p>","null","pattern_show_trial_num","","","","","","","","","","","","","","","","","","","","","","","","",""
"","","","","","image-keyboard-response","148","635462","0.0-2.0-7.0-1.20","62d04f92bfa53e94ef2fabaf","B2","batch2","","3231","stim/yes_48_dia_w1_w.png","f","pattern_response","true","f","pattern_69","3231","true","55","","","","","","","","","","","","","","","","","","",""
"","","","","","html-keyboard-response","149","636779","0.0-2.0-7.0-0.21","62d04f92bfa53e94ef2fabaf","B2","batch2","","null","<p class=block-text>Trial 61 out of 78</p>","null","pattern_show_trial_num","","","","","","","","","","","","","","","","","","","","","","","","",""
"","","","","","image-keyboard-response","150","638454","0.0-2.0-7.0-1.21","62d04f92bfa53e94ef2fabaf","B2","batch2","","1672","stim/no_20_1_w.png","j","pattern_response","true","j","pattern_06","1672","true","56","","","","","","","","","","","","","","","","","","",""
"","","","","","html-keyboard-response","151","639776","0.0-2.0-7.0-0.22","62d04f92bfa53e94ef2fabaf","B2","batch2","","null","<p class=block-text>Trial 62 out of 78</p>","null","pattern_show_trial_num","","","","","","","","","","","","","","","","","","","","","","","","",""
"","","","","","image-keyboard-response","152","641278","0.0-2.0-7.0-1.22","62d04f92bfa53e94ef2fabaf","B2","batch2","","1501","stim/yes_40_dia_b1_b.png","f","pattern_response","true","f","pattern_63","1501","true","57","","","","","","","","","","","","","","","","","","",""
"","","","","","html-keyboard-response","153","642585","0.0-2.0-7.0-0.23","62d04f92bfa53e94ef2fabaf","B2","batch2","","null","<p class=block-text>Trial 63 out of 78</p>","null","pattern_show_trial_num","","","","","","","","","","","","","","","","","","","","","","","","",""
"","","","","","image-keyboard-response","154","644206","0.0-2.0-7.0-1.23","62d04f92bfa53e94ef2fabaf","B2","batch2","","1621","stim/no_26_1_w.png","j","pattern_response","true","j","pattern_10","1621","true","58","","","","","","","","","","","","","","","","","","",""
"","","","","","html-keyboard-response","155","645521","0.0-2.0-7.0-0.24","62d04f92bfa53e94ef2fabaf","B2","batch2","","null","<p class=block-text>Trial 64 out of 78</p>","null","pattern_show_trial_num","","","","","","","","","","","","","","","","","","","","","","","","",""
"","","","","","image-keyboard-response","156","646998","0.0-2.0-7.0-1.24","62d04f92bfa53e94ef2fabaf","B2","batch2","","1476","stim/yes_52_ver_w1.png","f","pattern_response","true","f","pattern_73","1476","true","59","","","","","","","","","","","","","","","","","","",""
"","","","","","html-keyboard-response","157","648321","0.0-2.0-7.0-0.25","62d04f92bfa53e94ef2fabaf","B2","batch2","","null","<p class=block-text>Trial 65 out of 78</p>","null","pattern_show_trial_num","","","","","","","","","","","","","","","","","","","","","","","","",""
"","","","","","image-keyboard-response","158","650870","0.0-2.0-7.0-1.25","62d04f92bfa53e94ef2fabaf","B2","batch2","","2547","stim/yes_60_ver_b1_b.png","f","pattern_response","true","f","pattern_77","2547","true","60","","","","","","","","","","","","","","","","","","",""
"","","","","","html-keyboard-response","159","652173","0.0-2.0-7.0-0.26","62d04f92bfa53e94ef2fabaf","B2","batch2","","null","<p class=block-text>Trial 66 out of 78</p>","null","pattern_show_trial_num","","","","","","","","","","","","","","","","","","","","","","","","",""
"","","","","","image-keyboard-response","160","654614","0.0-2.0-7.0-1.26","62d04f92bfa53e94ef2fabaf","B2","batch2","","2440","stim/no_32_1_w.png","j","pattern_response","true","j","pattern_14","2440","true","61","","","","","","","","","","","","","","","","","","",""
"","","","","","html-keyboard-response","161","655929","0.0-2.0-7.0-0.27","62d04f92bfa53e94ef2fabaf","B2","batch2","","null","<p class=block-text>Trial 67 out of 78</p>","null","pattern_show_trial_num","","","","","","","","","","","","","","","","","","","","","","","","",""
"","","","","","image-keyboard-response","162","657062","0.0-2.0-7.0-1.27","62d04f92bfa53e94ef2fabaf","B2","batch2","","1131","stim/yes_17_dia_w1.png","f","pattern_response","true","f","pattern_45","1131","true","62","","","","","","","","","","","","","","","","","","",""
"","","","","","html-keyboard-response","163","658375","0.0-2.0-7.0-0.28","62d04f92bfa53e94ef2fabaf","B2","batch2","","null","<p class=block-text>Trial 68 out of 78</p>","null","pattern_show_trial_num","","","","","","","","","","","","","","","","","","","","","","","","",""
"","","","","","image-keyboard-response","164","659982","0.0-2.0-7.0-1.28","62d04f92bfa53e94ef2fabaf","B2","batch2","","1606","stim/yes_55_hor_w1_w.png","f","pattern_response","true","f","pattern_75","1606","true","63","","","","","","","","","","","","","","","","","","",""
"","","","","","html-keyboard-response","165","661300","0.0-2.0-7.0-0.29","62d04f92bfa53e94ef2fabaf","B2","batch2","","null","<p class=block-text>Trial 69 out of 78</p>","null","pattern_show_trial_num","","","","","","","","","","","","","","","","","","","","","","","","",""
"","","","","","image-keyboard-response","166","662822","0.0-2.0-7.0-1.29","62d04f92bfa53e94ef2fabaf","B2","batch2","","1521","stim/no_23_1.png","j","pattern_response","true","j","pattern_08","1521","true","64","","","","","","","","","","","","","","","","","","",""
"","","","","","html-keyboard-response","167","664137","0.0-2.0-7.0-0.30","62d04f92bfa53e94ef2fabaf","B2","batch2","","null","<p class=block-text>Trial 70 out of 78</p>","null","pattern_show_trial_num","","","","","","","","","","","","","","","","","","","","","","","","",""
"","","","","","image-keyboard-response","168","665750","0.0-2.0-7.0-1.30","62d04f92bfa53e94ef2fabaf","B2","batch2","","1612","stim/yes_45_hor_b2_b.png","f","pattern_response","true","f","pattern_67","1612","true","65","","","","","","","","","","","","","","","","","","",""
"","","","","","html-keyboard-response","169","667064","0.0-2.0-7.0-0.31","62d04f92bfa53e94ef2fabaf","B2","batch2","","null","<p class=block-text>Trial 71 out of 78</p>","null","pattern_show_trial_num","","","","","","","","","","","","","","","","","","","","","","","","",""
"","","","","","image-keyboard-response","170","669086","0.0-2.0-7.0-1.31","62d04f92bfa53e94ef2fabaf","B2","batch2","","2020","stim/no_29_1_b.png","j","pattern_response","true","j","pattern_12","2020","true","66","","","","","","","","","","","","","","","","","","",""
"","","","","","html-keyboard-response","171","670411","0.0-2.0-7.0-0.32","62d04f92bfa53e94ef2fabaf","B2","batch2","","null","<p class=block-text>Trial 72 out of 78</p>","null","pattern_show_trial_num","","","","","","","","","","","","","","","","","","","","","","","","",""
"","","","","","image-keyboard-response","172","673854","0.0-2.0-7.0-1.32","62d04f92bfa53e94ef2fabaf","B2","batch2","","3442","stim/no_42_1_w.png","j","pattern_response","true","j","pattern_22","3442","true","67","","","","","","","","","","","","","","","","","","",""
"","","","","","html-keyboard-response","173","675169","0.0-2.0-7.0-0.33","62d04f92bfa53e94ef2fabaf","B2","batch2","","null","<p class=block-text>Trial 73 out of 78</p>","null","pattern_show_trial_num","","","","","","","","","","","","","","","","","","","","","","","","",""
"","","","","","image-keyboard-response","174","677846","0.0-2.0-7.0-1.33","62d04f92bfa53e94ef2fabaf","B2","batch2","","2677","stim/yes_50_dia_w1.png","j","pattern_response","false","f","pattern_71","2677","false","67","","","","","","","","","","","","","","","","","","",""
"","","","","","html-keyboard-response","175","679162","0.0-2.0-7.0-0.34","62d04f92bfa53e94ef2fabaf","B2","batch2","","null","<p class=block-text>Trial 74 out of 78</p>","null","pattern_show_trial_num","","","","","","","","","","","","","","","","","","","","","","","","",""
"","","","","","image-keyboard-response","176","681894","0.0-2.0-7.0-1.34","62d04f92bfa53e94ef2fabaf","B2","batch2","","2732","stim/no_50_1.png","j","pattern_response","true","j","pattern_30","2732","true","68","","","","","","","","","","","","","","","","","","",""
"","","","","","html-keyboard-response","177","683207","0.0-2.0-7.0-0.35","62d04f92bfa53e94ef2fabaf","B2","batch2","","null","<p class=block-text>Trial 75 out of 78</p>","null","pattern_show_trial_num","","","","","","","","","","","","","","","","","","","","","","","","",""
"","","","","","image-keyboard-response","178","688102","0.0-2.0-7.0-1.35","62d04f92bfa53e94ef2fabaf","B2","batch2","","4894","stim/no_62_1_w.png","j","pattern_response","true","j","pattern_36","4894","true","69","","","","","","","","","","","","","","","","","","",""
"","","","","","html-keyboard-response","179","689427","0.0-2.0-7.0-0.36","62d04f92bfa53e94ef2fabaf","B2","batch2","","null","<p class=block-text>Trial 76 out of 78</p>","null","pattern_show_trial_num","","","","","","","","","","","","","","","","","","","","","","","","",""
"","","","","","image-keyboard-response","180","693094","0.0-2.0-7.0-1.36","62d04f92bfa53e94ef2fabaf","B2","batch2","","3666","stim/no_38_1_b.png","j","pattern_response","true","j","pattern_20","3666","true","70","","","","","","","","","","","","","","","","","","",""
"","","","","","html-keyboard-response","181","694414","0.0-2.0-7.0-0.37","62d04f92bfa53e94ef2fabaf","B2","batch2","","null","<p class=block-text>Trial 77 out of 78</p>","null","pattern_show_trial_num","","","","","","","","","","","","","","","","","","","","","","","","",""
"","","","","","image-keyboard-response","182","696254","0.0-2.0-7.0-1.37","62d04f92bfa53e94ef2fabaf","B2","batch2","","1838","stim/yes_38_hor_b1_b.png","f","pattern_response","true","f","pattern_61","1838","true","71","","","","","","","","","","","","","","","","","","",""
"","","","","","html-keyboard-response","183","697577","0.0-2.0-7.0-0.38","62d04f92bfa53e94ef2fabaf","B2","batch2","","null","<p class=block-text>Trial 78 out of 78</p>","null","pattern_show_trial_num","","","","","","","","","","","","","","","","","","","","","","","","",""
"","","","","","image-keyboard-response","184","704758","0.0-2.0-7.0-1.38","62d04f92bfa53e94ef2fabaf","B2","batch2","","7181","stim/no_65_1_b.png","j","pattern_response","true","j","pattern_38","7181","true","72","","","","","","","","","","","","","","","","","","",""
"","","","","","html-button-response","185","712270","0.0-2.0-8.0","62d04f92bfa53e94ef2fabaf","B2","batch2","","6997","<p class = block-text>This concludes the 4-in-a-row detection game.Thank you for your responses!<br>
            You responded correctly on 92% of the trials.<br>
            When you are ready, press ""Continue"" button to continue </p>","0","","","","","","","","","","","","","","","","","","","","","","","","","",""
"true","","","","","fullscreen","186","730415","0.0-3.0-0.0","62d04f92bfa53e94ef2fabaf","B2","batch2","","","","","spm_fullscreen","","","","","","","","","","","","","","","","","","","","","","","","",""
"","","","","","html-button-response","187","758334","0.0-3.0-1.0","62d04f92bfa53e94ef2fabaf","B2","batch2","","27918","<p class = block-text><b>Instructions</b> <br>This is a widely used intelligence test in research. <br>In this test, a figure with a missing piece will be presented.<br>Below the figure are alternative pieces to complete the figure, only one of which is correct.<br> Different figures might involve different principles for obtaining the missing piece<br>Your job is to select the most logical piece to complete the figure.</p>","0","","","","","","","","","","","","","","","","","","","","","","","","","",""
"","","","","","html-keyboard-response","188","759147","0.0-3.0-2.0-0.0","62d04f92bfa53e94ef2fabaf","B2","batch2","","null","<p class=block-text>Trial 1 out of 60</p>","null","spm_show_trial_num","","","","","","","","","","","","","","","","","","","","","","","","",""
"","","","","","image-button-response","189","768772","0.0-3.0-2.0-1.0","62d04f92bfa53e94ef2fabaf","B2","batch2","","9624","img/question_1_1.jpeg","5","spm_respsonse","0","4","mat_01","","","","","","0","9624","","","","","","","","","","","","","","",""
"","","","","","html-keyboard-response","190","769834","0.0-3.0-2.0-0.1","62d04f92bfa53e94ef2fabaf","B2","batch2","","null","<p class=block-text>Trial 2 out of 60</p>","null","spm_show_trial_num","","","","","","","","","","","","","","","","","","","","","","","","",""
"","","","","","image-button-response","191","772602","0.0-3.0-2.0-1.1","62d04f92bfa53e94ef2fabaf","B2","batch2","","2767","img/question_1_2.jpeg","4","spm_respsonse","1","5","mat_02","","","","","","1","2767","","","","","","","","","","","","","","",""
"","","","","","html-keyboard-response","192","773676","0.0-3.0-2.0-0.2","62d04f92bfa53e94ef2fabaf","B2","batch2","","null","<p class=block-text>Trial 3 out of 60</p>","null","spm_show_trial_num","","","","","","","","","","","","","","","","","","","","","","","","",""
"","","","","","image-button-response","193","777065","0.0-3.0-2.0-1.2","62d04f92bfa53e94ef2fabaf","B2","batch2","","3390","img/question_1_3.jpeg","0","spm_respsonse","1","1","mat_03","","","","","","1","3390","","","","","","","","","","","","","","",""
"","","","","","html-keyboard-response","194","778119","0.0-3.0-2.0-0.3","62d04f92bfa53e94ef2fabaf","B2","batch2","","null","<p class=block-text>Trial 4 out of 60</p>","null","spm_show_trial_num","","","","","","","","","","","","","","","","","","","","","","","","",""
"","","","","","image-button-response","195","783676","0.0-3.0-2.0-1.3","62d04f92bfa53e94ef2fabaf","B2","batch2","","5556","img/question_1_4.jpeg","1","spm_respsonse","1","2","mat_04","","","","","","1","5556","","","","","","","","","","","","","","",""
"","","","","","html-keyboard-response","196","784733","0.0-3.0-2.0-0.4","62d04f92bfa53e94ef2fabaf","B2","batch2","","null","<p class=block-text>Trial 5 out of 60</p>","null","spm_show_trial_num","","","","","","","","","","","","","","","","","","","","","","","","",""
"","","","","","image-button-response","197","789606","0.0-3.0-2.0-1.4","62d04f92bfa53e94ef2fabaf","B2","batch2","","4871","img/question_1_5.jpeg","5","spm_respsonse","1","6","mat_05","","","","","","1","4871","","","","","","","","","","","","","","",""
"","","","","","html-keyboard-response","198","790669","0.0-3.0-2.0-0.5","62d04f92bfa53e94ef2fabaf","B2","batch2","","null","<p class=block-text>Trial 6 out of 60</p>","null","spm_show_trial_num","","","","","","","","","","","","","","","","","","","","","","","","",""
"","","","","","image-button-response","199","797920","0.0-3.0-2.0-1.5","62d04f92bfa53e94ef2fabaf","B2","batch2","","7251","img/question_1_6.jpeg","2","spm_respsonse","1","3","mat_06","","","","","","1","7251","","","","","","","","","","","","","","",""
"","","","","","html-keyboard-response","200","798972","0.0-3.0-2.0-0.6","62d04f92bfa53e94ef2fabaf","B2","batch2","","null","<p class=block-text>Trial 7 out of 60</p>","null","spm_show_trial_num","","","","","","","","","","","","","","","","","","","","","","","","",""
"","","","","","image-button-response","201","804192","0.0-3.0-2.0-1.6","62d04f92bfa53e94ef2fabaf","B2","batch2","","5218","img/question_1_7.jpeg","5","spm_respsonse","1","6","mat_07","","","","","","1","5218","","","","","","","","","","","","","","",""
"","","","","","html-keyboard-response","202","805244","0.0-3.0-2.0-0.7","62d04f92bfa53e94ef2fabaf","B2","batch2","","null","<p class=block-text>Trial 8 out of 60</p>","null","spm_show_trial_num","","","","","","","","","","","","","","","","","","","","","","","","",""
"","","","","","image-button-response","203","812252","0.0-3.0-2.0-1.7","62d04f92bfa53e94ef2fabaf","B2","batch2","","7007","img/question_1_8.jpeg","1","spm_respsonse","1","2","mat_08","","","","","","1","7007","","","","","","","","","","","","","","",""
"","","","","","html-keyboard-response","204","813327","0.0-3.0-2.0-0.8","62d04f92bfa53e94ef2fabaf","B2","batch2","","null","<p class=block-text>Trial 9 out of 60</p>","null","spm_show_trial_num","","","","","","","","","","","","","","","","","","","","","","","","",""
"","","","","","image-button-response","205","819154","0.0-3.0-2.0-1.8","62d04f92bfa53e94ef2fabaf","B2","batch2","","5826","img/question_1_9.jpeg","0","spm_respsonse","1","1","mat_09","","","","","","1","5826","","","","","","","","","","","","","","",""
"","","","","","html-keyboard-response","206","820215","0.0-3.0-2.0-0.9","62d04f92bfa53e94ef2fabaf","B2","batch2","","null","<p class=block-text>Trial 10 out of 60</p>","null","spm_show_trial_num","","","","","","","","","","","","","","","","","","","","","","","","",""
"","","","","","image-button-response","207","829316","0.0-3.0-2.0-1.9","62d04f92bfa53e94ef2fabaf","B2","batch2","","9100","img/question_1_10.jpeg","2","spm_respsonse","1","3","mat_10","","","","","","1","9100","","","","","","","","","","","","","","",""
"","","","","","html-keyboard-response","208","830381","0.0-3.0-2.0-0.10","62d04f92bfa53e94ef2fabaf","B2","batch2","","null","<p class=block-text>Trial 11 out of 60</p>","null","spm_show_trial_num","","","","","","","","","","","","","","","","","","","","","","","","",""
"","","","","","image-button-response","209","843888","0.0-3.0-2.0-1.10","62d04f92bfa53e94ef2fabaf","B2","batch2","","13504","img/question_1_11.jpeg","3","spm_respsonse","1","4","mat_11","","","","","","1","13504","","","","","","","","","","","","","","",""
"","","","","","html-keyboard-response","210","844962","0.0-3.0-2.0-0.11","62d04f92bfa53e94ef2fabaf","B2","batch2","","null","<p class=block-text>Trial 12 out of 60</p>","null","spm_show_trial_num","","","","","","","","","","","","","","","","","","","","","","","","",""
"","","","","","image-button-response","211","856248","0.0-3.0-2.0-1.11","62d04f92bfa53e94ef2fabaf","B2","batch2","","11285","img/question_1_12.jpeg","4","spm_respsonse","1","5","mat_12","","","","","","1","11285","","","","","","","","","","","","","","",""
"","","","","","html-keyboard-response","212","857324","0.0-3.0-2.0-0.12","62d04f92bfa53e94ef2fabaf","B2","batch2","","null","<p class=block-text>Trial 13 out of 60</p>","null","spm_show_trial_num","","","","","","","","","","","","","","","","","","","","","","","","",""
"","","","","","image-button-response","213","859776","0.0-3.0-2.0-1.12","62d04f92bfa53e94ef2fabaf","B2","batch2","","2450","img/question_2_1.jpeg","1","spm_respsonse","1","2","mat_13","","","","","","1","2450","","","","","","","","","","","","","","",""
"","","","","","html-keyboard-response","214","860845","0.0-3.0-2.0-0.13","62d04f92bfa53e94ef2fabaf","B2","batch2","","null","<p class=block-text>Trial 14 out of 60</p>","null","spm_show_trial_num","","","","","","","","","","","","","","","","","","","","","","","","",""
"","","","","","image-button-response","215","866924","0.0-3.0-2.0-1.13","62d04f92bfa53e94ef2fabaf","B2","batch2","","6077","img/question_2_2.jpeg","5","spm_respsonse","1","6","mat_14","","","","","","1","6077","","","","","","","","","","","","","","",""
"","","","","","html-keyboard-response","216","867989","0.0-3.0-2.0-0.14","62d04f92bfa53e94ef2fabaf","B2","batch2","","null","<p class=block-text>Trial 15 out of 60</p>","null","spm_show_trial_num","","","","","","","","","","","","","","","","","","","","","","","","",""
"","","","","","image-button-response","217","871938","0.0-3.0-2.0-1.14","62d04f92bfa53e94ef2fabaf","B2","batch2","","3948","img/question_2_3.jpeg","0","spm_respsonse","1","1","mat_15","","","","","","1","3948","","","","","","","","","","","","","","",""
"","","","","","html-keyboard-response","218","873003","0.0-3.0-2.0-0.15","62d04f92bfa53e94ef2fabaf","B2","batch2","","null","<p class=block-text>Trial 16 out of 60</p>","null","spm_show_trial_num","","","","","","","","","","","","","","","","","","","","","","","","",""
"","","","","","image-button-response","219","878894","0.0-3.0-2.0-1.15","62d04f92bfa53e94ef2fabaf","B2","batch2","","5890","img/question_2_4.jpeg","1","spm_respsonse","1","2","mat_16","","","","","","1","5890","","","","","","","","","","","","","","",""
"","","","","","html-keyboard-response","220","879955","0.0-3.0-2.0-0.16","62d04f92bfa53e94ef2fabaf","B2","batch2","","null","<p class=block-text>Trial 17 out of 60</p>","null","spm_show_trial_num","","","","","","","","","","","","","","","","","","","","","","","","",""
"","","","","","image-button-response","221","884298","0.0-3.0-2.0-1.16","62d04f92bfa53e94ef2fabaf","B2","batch2","","4342","img/question_2_5.jpeg","0","spm_respsonse","1","1","mat_17","","","","","","1","4342","","","","","","","","","","","","","","",""
"","","","","","html-keyboard-response","222","885358","0.0-3.0-2.0-0.17","62d04f92bfa53e94ef2fabaf","B2","batch2","","null","<p class=block-text>Trial 18 out of 60</p>","null","spm_show_trial_num","","","","","","","","","","","","","","","","","","","","","","","","",""
"","","","","","image-button-response","223","890936","0.0-3.0-2.0-1.17","62d04f92bfa53e94ef2fabaf","B2","batch2","","5576","img/question_2_6.jpeg","2","spm_respsonse","1","3","mat_18","","","","","","1","5576","","","","","","","","","","","","","","",""
"","","","","","html-keyboard-response","224","891993","0.0-3.0-2.0-0.18","62d04f92bfa53e94ef2fabaf","B2","batch2","","null","<p class=block-text>Trial 19 out of 60</p>","null","spm_show_trial_num","","","","","","","","","","","","","","","","","","","","","","","","",""
"","","","","","image-button-response","225","899062","0.0-3.0-2.0-1.18","62d04f92bfa53e94ef2fabaf","B2","batch2","","7067","img/question_2_7.jpeg","4","spm_respsonse","1","5","mat_19","","","","","","1","7067","","","","","","","","","","","","","","",""
"","","","","","html-keyboard-response","226","900130","0.0-3.0-2.0-0.19","62d04f92bfa53e94ef2fabaf","B2","batch2","","null","<p class=block-text>Trial 20 out of 60</p>","null","spm_show_trial_num","","","","","","","","","","","","","","","","","","","","","","","","",""
"","","","","","image-button-response","227","908660","0.0-3.0-2.0-1.19","62d04f92bfa53e94ef2fabaf","B2","batch2","","8528","img/question_2_8.jpeg","5","spm_respsonse","1","6","mat_20","","","","","","1","8528","","","","","","","","","","","","","","",""
"","","","","","html-keyboard-response","228","909734","0.0-3.0-2.0-0.20","62d04f92bfa53e94ef2fabaf","B2","batch2","","null","<p class=block-text>Trial 21 out of 60</p>","null","spm_show_trial_num","","","","","","","","","","","","","","","","","","","","","","","","",""
"","","","","","image-button-response","229","915190","0.0-3.0-2.0-1.20","62d04f92bfa53e94ef2fabaf","B2","batch2","","5456","img/question_2_9.jpeg","3","spm_respsonse","1","4","mat_21","","","","","","1","5456","","","","","","","","","","","","","","",""
"","","","","","html-keyboard-response","230","916241","0.0-3.0-2.0-0.21","62d04f92bfa53e94ef2fabaf","B2","batch2","","null","<p class=block-text>Trial 22 out of 60</p>","null","spm_show_trial_num","","","","","","","","","","","","","","","","","","","","","","","","",""
"","","","","","image-button-response","231","921414","0.0-3.0-2.0-1.21","62d04f92bfa53e94ef2fabaf","B2","batch2","","5171","img/question_2_10.jpeg","2","spm_respsonse","1","3","mat_22","","","","","","1","5171","","","","","","","","","","","","","","",""
"","","","","","html-keyboard-response","232","922467","0.0-3.0-2.0-0.22","62d04f92bfa53e94ef2fabaf","B2","batch2","","null","<p class=block-text>Trial 23 out of 60</p>","null","spm_show_trial_num","","","","","","","","","","","","","","","","","","","","","","","","",""
"","","","","","image-button-response","233","928304","0.0-3.0-2.0-1.22","62d04f92bfa53e94ef2fabaf","B2","batch2","","5836","img/question_2_11.jpeg","3","spm_respsonse","1","4","mat_23","","","","","","1","5836","","","","","","","","","","","","","","",""
"","","","","","html-keyboard-response","234","929371","0.0-3.0-2.0-0.23","62d04f92bfa53e94ef2fabaf","B2","batch2","","null","<p class=block-text>Trial 24 out of 60</p>","null","spm_show_trial_num","","","","","","","","","","","","","","","","","","","","","","","","",""
"","","","","","image-button-response","235","953645","0.0-3.0-2.0-1.23","62d04f92bfa53e94ef2fabaf","B2","batch2","","24274","img/question_2_12.jpeg","4","spm_respsonse","1","5","mat_24","","","","","","1","24274","","","","","","","","","","","","","","",""
"","","","","","html-button-response","236","956035","0.0-3.0-3.0","62d04f92bfa53e94ef2fabaf","B2","batch2","","2123","<p class = block-text>Attention check: Please choose 1<br></p>","0","attention_check","true","","","","","","","","","","","","","","","","","","","","","","","",""
"","","","","","html-keyboard-response","237","956836","0.0-3.0-4.0-0.0","62d04f92bfa53e94ef2fabaf","B2","batch2","","null","<p class=block-text>Trial 25 out of 60</p>","null","spm_show_trial_num","","","","","","","","","","","","","","","","","","","","","","","","",""
"","","","","","image-button-response","238","962345","0.0-3.0-4.0-1.0","62d04f92bfa53e94ef2fabaf","B2","batch2","","5508","img/question_3_1.jpeg","7","spm_respsonse","1","8","mat_25","","","","","","1","5508","","","","","","","","","","","","","","",""
"","","","","","html-keyboard-response","239","963406","0.0-3.0-4.0-0.1","62d04f92bfa53e94ef2fabaf","B2","batch2","","null","<p class=block-text>Trial 26 out of 60</p>","null","spm_show_trial_num","","","","","","","","","","","","","","","","","","","","","","","","",""
"","","","","","image-button-response","240","969523","0.0-3.0-4.0-1.1","62d04f92bfa53e94ef2fabaf","B2","batch2","","6115","img/question_3_2.jpeg","1","spm_respsonse","1","2","mat_26","","","","","","1","6115","","","","","","","","","","","","","","",""
"","","","","","html-keyboard-response","241","970593","0.0-3.0-4.0-0.2","62d04f92bfa53e94ef2fabaf","B2","batch2","","null","<p class=block-text>Trial 27 out of 60</p>","null","spm_show_trial_num","","","","","","","","","","","","","","","","","","","","","","","","",""
"","","","","","image-button-response","242","978437","0.0-3.0-4.0-1.2","62d04f92bfa53e94ef2fabaf","B2","batch2","","7842","img/question_3_3.jpeg","2","spm_respsonse","1","3","mat_27","","","","","","1","7842","","","","","","","","","","","","","","",""
"","","","","","html-keyboard-response","243","979507","0.0-3.0-4.0-0.3","62d04f92bfa53e94ef2fabaf","B2","batch2","","null","<p class=block-text>Trial 28 out of 60</p>","null","spm_show_trial_num","","","","","","","","","","","","","","","","","","","","","","","","",""
"","","","","","image-button-response","244","987895","0.0-3.0-4.0-1.3","62d04f92bfa53e94ef2fabaf","B2","batch2","","8387","img/question_3_4.jpeg","7","spm_respsonse","1","8","mat_28","","","","","","1","8387","","","","","","","","","","","","","","",""
"","","","","","html-keyboard-response","245","988961","0.0-3.0-4.0-0.4","62d04f92bfa53e94ef2fabaf","B2","batch2","","null","<p class=block-text>Trial 29 out of 60</p>","null","spm_show_trial_num","","","","","","","","","","","","","","","","","","","","","","","","",""
"","","","","","image-button-response","246","1005578","0.0-3.0-4.0-1.4","62d04f92bfa53e94ef2fabaf","B2","batch2","","16614","img/question_3_5.jpeg","6","spm_respsonse","1","7","mat_29","","","","","","1","16614","","","","","","","","","","","","","","",""
"","","","","","html-keyboard-response","247","1006646","0.0-3.0-4.0-0.5","62d04f92bfa53e94ef2fabaf","B2","batch2","","null","<p class=block-text>Trial 30 out of 60</p>","null","spm_show_trial_num","","","","","","","","","","","","","","","","","","","","","","","","",""
"","","","","","image-button-response","248","1015300","0.0-3.0-4.0-1.5","62d04f92bfa53e94ef2fabaf","B2","batch2","","8652","img/question_3_6.jpeg","3","spm_respsonse","1","4","mat_30","","","","","","1","8652","","","","","","","","","","","","","","",""
"","","","","","html-keyboard-response","249","1016358","0.0-3.0-4.0-0.6","62d04f92bfa53e94ef2fabaf","B2","batch2","","null","<p class=block-text>Trial 31 out of 60</p>","null","spm_show_trial_num","","","","","","","","","","","","","","","","","","","","","","","","",""
"","","","","","image-button-response","250","1025794","0.0-3.0-4.0-1.6","62d04f92bfa53e94ef2fabaf","B2","batch2","","9435","img/question_3_7.jpeg","4","spm_respsonse","1","5","mat_31","","","","","","1","9435","","","","","","","","","","","","","","",""
"","","","","","html-keyboard-response","251","1026856","0.0-3.0-4.0-0.7","62d04f92bfa53e94ef2fabaf","B2","batch2","","null","<p class=block-text>Trial 32 out of 60</p>","null","spm_show_trial_num","","","","","","","","","","","","","","","","","","","","","","","","",""
"","","","","","image-button-response","252","1048244","0.0-3.0-4.0-1.7","62d04f92bfa53e94ef2fabaf","B2","batch2","","21388","img/question_3_8.jpeg","0","spm_respsonse","1","1","mat_32","","","","","","1","21388","","","","","","","","","","","","","","",""
"","","","","","html-keyboard-response","253","1049302","0.0-3.0-4.0-0.8","62d04f92bfa53e94ef2fabaf","B2","batch2","","null","<p class=block-text>Trial 33 out of 60</p>","null","spm_show_trial_num","","","","","","","","","","","","","","","","","","","","","","","","",""
"","","","","","image-button-response","254","1057396","0.0-3.0-4.0-1.8","62d04f92bfa53e94ef2fabaf","B2","batch2","","8093","img/question_3_9.jpeg","6","spm_respsonse","1","7","mat_33","","","","","","1","8093","","","","","","","","","","","","","","",""
"","","","","","html-keyboard-response","255","1058460","0.0-3.0-4.0-0.9","62d04f92bfa53e94ef2fabaf","B2","batch2","","null","<p class=block-text>Trial 34 out of 60</p>","null","spm_show_trial_num","","","","","","","","","","","","","","","","","","","","","","","","",""
"","","","","","image-button-response","256","1073478","0.0-3.0-4.0-1.9","62d04f92bfa53e94ef2fabaf","B2","batch2","","15016","img/question_3_10.jpeg","5","spm_respsonse","1","6","mat_34","","","","","","1","15016","","","","","","","","","","","","","","",""
"","","","","","html-keyboard-response","257","1074543","0.0-3.0-4.0-0.10","62d04f92bfa53e94ef2fabaf","B2","batch2","","null","<p class=block-text>Trial 35 out of 60</p>","null","spm_show_trial_num","","","","","","","","","","","","","","","","","","","","","","","","",""
"","","","","","image-button-response","258","1093196","0.0-3.0-4.0-1.10","62d04f92bfa53e94ef2fabaf","B2","batch2","","18650","img/question_3_11.jpeg","0","spm_respsonse","1","1","mat_35","","","","","","1","18650","","","","","","","","","","","","","","",""
"","","","","","html-keyboard-response","259","1094262","0.0-3.0-4.0-0.11","62d04f92bfa53e94ef2fabaf","B2","batch2","","null","<p class=block-text>Trial 36 out of 60</p>","null","spm_show_trial_num","","","","","","","","","","","","","","","","","","","","","","","","",""
"","","","","","image-button-response","260","1120730","0.0-3.0-4.0-1.11","62d04f92bfa53e94ef2fabaf","B2","batch2","","26466","img/question_3_12.jpeg","1","spm_respsonse","1","2","mat_36","","","","","","1","26466","","","","","","","","","","","","","","",""
"","","","","","html-keyboard-response","261","1121803","0.0-3.0-4.0-0.12","62d04f92bfa53e94ef2fabaf","B2","batch2","","null","<p class=block-text>Trial 37 out of 60</p>","null","spm_show_trial_num","","","","","","","","","","","","","","","","","","","","","","","","",""
"","","","","","image-button-response","262","1126196","0.0-3.0-4.0-1.12","62d04f92bfa53e94ef2fabaf","B2","batch2","","4392","img/question_4_1.jpeg","2","spm_respsonse","1","3","mat_37","","","","","","1","4392","","","","","","","","","","","","","","",""
"","","","","","html-keyboard-response","263","1127268","0.0-3.0-4.0-0.13","62d04f92bfa53e94ef2fabaf","B2","batch2","","null","<p class=block-text>Trial 38 out of 60</p>","null","spm_show_trial_num","","","","","","","","","","","","","","","","","","","","","","","","",""
"","","","","","image-button-response","264","1139031","0.0-3.0-4.0-1.13","62d04f92bfa53e94ef2fabaf","B2","batch2","","11764","img/question_4_2.jpeg","3","spm_respsonse","1","4","mat_38","","","","","","1","11764","","","","","","","","","","","","","","",""
"","","","","","html-keyboard-response","265","1140093","0.0-3.0-4.0-0.14","62d04f92bfa53e94ef2fabaf","B2","batch2","","null","<p class=block-text>Trial 39 out of 60</p>","null","spm_show_trial_num","","","","","","","","","","","","","","","","","","","","","","","","",""
"","","","","","image-button-response","266","1154323","0.0-3.0-4.0-1.14","62d04f92bfa53e94ef2fabaf","B2","batch2","","14229","img/question_4_3.jpeg","2","spm_respsonse","1","3","mat_39","","","","","","1","14229","","","","","","","","","","","","","","",""
"","","","","","html-keyboard-response","267","1155397","0.0-3.0-4.0-0.15","62d04f92bfa53e94ef2fabaf","B2","batch2","","null","<p class=block-text>Trial 40 out of 60</p>","null","spm_show_trial_num","","","","","","","","","","","","","","","","","","","","","","","","",""
"","","","","","image-button-response","268","1160951","0.0-3.0-4.0-1.15","62d04f92bfa53e94ef2fabaf","B2","batch2","","5552","img/question_4_4.jpeg","6","spm_respsonse","1","7","mat_40","","","","","","1","5552","","","","","","","","","","","","","","",""
"","","","","","html-keyboard-response","269","1162013","0.0-3.0-4.0-0.16","62d04f92bfa53e94ef2fabaf","B2","batch2","","null","<p class=block-text>Trial 41 out of 60</p>","null","spm_show_trial_num","","","","","","","","","","","","","","","","","","","","","","","","",""
"","","","","","image-button-response","270","1172703","0.0-3.0-4.0-1.16","62d04f92bfa53e94ef2fabaf","B2","batch2","","10688","img/question_4_5.jpeg","7","spm_respsonse","1","8","mat_41","","","","","","1","10688","","","","","","","","","","","","","","",""
"","","","","","html-keyboard-response","271","1173773","0.0-3.0-4.0-0.17","62d04f92bfa53e94ef2fabaf","B2","batch2","","null","<p class=block-text>Trial 42 out of 60</p>","null","spm_show_trial_num","","","","","","","","","","","","","","","","","","","","","","","","",""
"","","","","","image-button-response","272","1204394","0.0-3.0-4.0-1.17","62d04f92bfa53e94ef2fabaf","B2","batch2","","30619","img/question_4_6.jpeg","5","spm_respsonse","1","6","mat_42","","","","","","1","30619","","","","","","","","","","","","","","",""
"","","","","","html-keyboard-response","273","1205446","0.0-3.0-4.0-0.18","62d04f92bfa53e94ef2fabaf","B2","batch2","","null","<p class=block-text>Trial 43 out of 60</p>","null","spm_show_trial_num","","","","","","","","","","","","","","","","","","","","","","","","",""
"","","","","","image-button-response","274","1252108","0.0-3.0-4.0-1.18","62d04f92bfa53e94ef2fabaf","B2","batch2","","46661","img/question_4_7.jpeg","4","spm_respsonse","1","5","mat_43","","","","","","1","46661","","","","","","","","","","","","","","",""
"","","","","","html-keyboard-response","275","1253180","0.0-3.0-4.0-0.19","62d04f92bfa53e94ef2fabaf","B2","batch2","","null","<p class=block-text>Trial 44 out of 60</p>","null","spm_show_trial_num","","","","","","","","","","","","","","","","","","","","","","","","",""
"","","","","","image-button-response","276","1264242","0.0-3.0-4.0-1.19","62d04f92bfa53e94ef2fabaf","B2","batch2","","11061","img/question_4_8.jpeg","3","spm_respsonse","1","4","mat_44","","","","","","1","11061","","","","","","","","","","","","","","",""
"","","","","","html-keyboard-response","277","1265309","0.0-3.0-4.0-0.20","62d04f92bfa53e94ef2fabaf","B2","batch2","","null","<p class=block-text>Trial 45 out of 60</p>","null","spm_show_trial_num","","","","","","","","","","","","","","","","","","","","","","","","",""
"","","","","","image-button-response","278","1288036","0.0-3.0-4.0-1.20","62d04f92bfa53e94ef2fabaf","B2","batch2","","22726","img/question_4_9.jpeg","0","spm_respsonse","1","1","mat_45","","","","","","1","22726","","","","","","","","","","","","","","",""
"","","","","","html-keyboard-response","279","1289109","0.0-3.0-4.0-0.21","62d04f92bfa53e94ef2fabaf","B2","batch2","","null","<p class=block-text>Trial 46 out of 60</p>","null","spm_show_trial_num","","","","","","","","","","","","","","","","","","","","","","","","",""
"","","","","","image-button-response","280","1306564","0.0-3.0-4.0-1.21","62d04f92bfa53e94ef2fabaf","B2","batch2","","17454","img/question_4_10.jpeg","1","spm_respsonse","1","2","mat_46","","","","","","1","17454","","","","","","","","","","","","","","",""
"","","","","","html-keyboard-response","281","1307633","0.0-3.0-4.0-0.22","62d04f92bfa53e94ef2fabaf","B2","batch2","","null","<p class=block-text>Trial 47 out of 60</p>","null","spm_show_trial_num","","","","","","","","","","","","","","","","","","","","","","","","",""
"","","","","","image-button-response","282","1348981","0.0-3.0-4.0-1.22","62d04f92bfa53e94ef2fabaf","B2","batch2","","41347","img/question_4_11.jpeg","2","spm_respsonse","0","5","mat_47","","","","","","0","41347","","","","","","","","","","","","","","",""
"","","","","","html-keyboard-response","283","1350059","0.0-3.0-4.0-0.23","62d04f92bfa53e94ef2fabaf","B2","batch2","","null","<p class=block-text>Trial 48 out of 60</p>","null","spm_show_trial_num","","","","","","","","","","","","","","","","","","","","","","","","",""
"","","","","","image-button-response","284","1440292","0.0-3.0-4.0-1.23","62d04f92bfa53e94ef2fabaf","B2","batch2","","90230","img/question_4_12.jpeg","5","spm_respsonse","1","6","mat_48","","","","","","1","90230","","","","","","","","","","","","","","",""
"","","","","","html-keyboard-response","285","1441354","0.0-3.0-4.0-0.24","62d04f92bfa53e94ef2fabaf","B2","batch2","","null","<p class=block-text>Trial 49 out of 60</p>","null","spm_show_trial_num","","","","","","","","","","","","","","","","","","","","","","","","",""
"","","","","","image-button-response","286","1453408","0.0-3.0-4.0-1.24","62d04f92bfa53e94ef2fabaf","B2","batch2","","12053","img/question_5_1.jpeg","6","spm_respsonse","1","7","mat_49","","","","","","1","12053","","","","","","","","","","","","","","",""
"","","","","","html-keyboard-response","287","1454464","0.0-3.0-4.0-0.25","62d04f92bfa53e94ef2fabaf","B2","batch2","","null","<p class=block-text>Trial 50 out of 60</p>","null","spm_show_trial_num","","","","","","","","","","","","","","","","","","","","","","","","",""
"","","","","","image-button-response","288","1481833","0.0-3.0-4.0-1.25","62d04f92bfa53e94ef2fabaf","B2","batch2","","27369","img/question_5_2.jpeg","5","spm_respsonse","1","6","mat_50","","","","","","1","27369","","","","","","","","","","","","","","",""
"","","","","","html-keyboard-response","289","1482899","0.0-3.0-4.0-0.26","62d04f92bfa53e94ef2fabaf","B2","batch2","","null","<p class=block-text>Trial 51 out of 60</p>","null","spm_show_trial_num","","","","","","","","","","","","","","","","","","","","","","","","",""
"","","","","","image-button-response","290","1499057","0.0-3.0-4.0-1.26","62d04f92bfa53e94ef2fabaf","B2","batch2","","16157","img/question_5_3.jpeg","7","spm_respsonse","1","8","mat_51","","","","","","1","16157","","","","","","","","","","","","","","",""
"","","","","","html-keyboard-response","291","1500127","0.0-3.0-4.0-0.27","62d04f92bfa53e94ef2fabaf","B2","batch2","","null","<p class=block-text>Trial 52 out of 60</p>","null","spm_show_trial_num","","","","","","","","","","","","","","","","","","","","","","","","",""
"","","","","","image-button-response","292","1512743","0.0-3.0-4.0-1.27","62d04f92bfa53e94ef2fabaf","B2","batch2","","12615","img/question_5_4.jpeg","1","spm_respsonse","1","2","mat_52","","","","","","1","12615","","","","","","","","","","","","","","",""
"","","","","","html-keyboard-response","293","1513805","0.0-3.0-4.0-0.28","62d04f92bfa53e94ef2fabaf","B2","batch2","","null","<p class=block-text>Trial 53 out of 60</p>","null","spm_show_trial_num","","","","","","","","","","","","","","","","","","","","","","","","",""
"","","","","","image-button-response","294","1524875","0.0-3.0-4.0-1.28","62d04f92bfa53e94ef2fabaf","B2","batch2","","11069","img/question_5_5.jpeg","0","spm_respsonse","1","1","mat_53","","","","","","1","11069","","","","","","","","","","","","","","",""
"","","","","","html-keyboard-response","295","1525935","0.0-3.0-4.0-0.29","62d04f92bfa53e94ef2fabaf","B2","batch2","","null","<p class=block-text>Trial 54 out of 60</p>","null","spm_show_trial_num","","","","","","","","","","","","","","","","","","","","","","","","",""
"","","","","","image-button-response","296","1547790","0.0-3.0-4.0-1.29","62d04f92bfa53e94ef2fabaf","B2","batch2","","21854","img/question_5_6.jpeg","4","spm_respsonse","1","5","mat_54","","","","","","1","21854","","","","","","","","","","","","","","",""
"","","","","","html-keyboard-response","297","1548852","0.0-3.0-4.0-0.30","62d04f92bfa53e94ef2fabaf","B2","batch2","","null","<p class=block-text>Trial 55 out of 60</p>","null","spm_show_trial_num","","","","","","","","","","","","","","","","","","","","","","","","",""
"","","","","","image-button-response","298","1572832","0.0-3.0-4.0-1.30","62d04f92bfa53e94ef2fabaf","B2","batch2","","23979","img/question_5_7.jpeg","0","spm_respsonse","1","1","mat_55","","","","","","1","23979","","","","","","","","","","","","","","",""
"","","","","","html-keyboard-response","299","1573889","0.0-3.0-4.0-0.31","62d04f92bfa53e94ef2fabaf","B2","batch2","","null","<p class=block-text>Trial 56 out of 60</p>","null","spm_show_trial_num","","","","","","","","","","","","","","","","","","","","","","","","",""
"","","","","","image-button-response","300","1590322","0.0-3.0-4.0-1.31","62d04f92bfa53e94ef2fabaf","B2","batch2","","16432","img/question_5_8.jpeg","5","spm_respsonse","1","6","mat_56","","","","","","1","16432","","","","","","","","","","","","","","",""
"","","","","","html-keyboard-response","301","1591388","0.0-3.0-4.0-0.32","62d04f92bfa53e94ef2fabaf","B2","batch2","","null","<p class=block-text>Trial 57 out of 60</p>","null","spm_show_trial_num","","","","","","","","","","","","","","","","","","","","","","","","",""
"","","","","","image-button-response","302","1627581","0.0-3.0-4.0-1.32","62d04f92bfa53e94ef2fabaf","B2","batch2","","36193","img/question_5_9.jpeg","2","spm_respsonse","1","3","mat_57","","","","","","1","36193","","","","","","","","","","","","","","",""
"","","","","","html-keyboard-response","303","1628648","0.0-3.0-4.0-0.33","62d04f92bfa53e94ef2fabaf","B2","batch2","","null","<p class=block-text>Trial 58 out of 60</p>","null","spm_show_trial_num","","","","","","","","","","","","","","","","","","","","","","","","",""
"","","","","","image-button-response","304","1697324","0.0-3.0-4.0-1.33","62d04f92bfa53e94ef2fabaf","B2","batch2","","68674","img/question_5_10.jpeg","5","spm_respsonse","0","2","mat_58","","","","","","0","68674","","","","","","","","","","","","","","",""
"","","","","","html-keyboard-response","305","1698382","0.0-3.0-4.0-0.34","62d04f92bfa53e94ef2fabaf","B2","batch2","","null","<p class=block-text>Trial 59 out of 60</p>","null","spm_show_trial_num","","","","","","","","","","","","","","","","","","","","","","","","",""
"","","","","","image-button-response","306","1753592","0.0-3.0-4.0-1.34","62d04f92bfa53e94ef2fabaf","B2","batch2","","55208","img/question_5_11.jpeg","3","spm_respsonse","1","4","mat_59","","","","","","1","55208","","","","","","","","","","","","","","",""
"","","","","","html-keyboard-response","307","1754656","0.0-3.0-4.0-0.35","62d04f92bfa53e94ef2fabaf","B2","batch2","","null","<p class=block-text>Trial 60 out of 60</p>","null","spm_show_trial_num","","","","","","","","","","","","","","","","","","","","","","","","",""
"","","","","","image-button-response","308","1802116","0.0-3.0-4.0-1.35","62d04f92bfa53e94ef2fabaf","B2","batch2","","47458","img/question_5_12.jpeg","4","spm_respsonse","1","5","mat_60","","","","","","1","47458","","","","","","","","","","","","","","",""
"","","","","","html-button-response","309","1806142","0.0-3.0-5.0","62d04f92bfa53e94ef2fabaf","B2","batch2","","3761","<p class= block-text>This concludes the Standard Progressive Matrix game. Thank you for your responses!<br> When you are ready, click the button continue</p>","0","spm_goodbye","","","","","","","","","","","","","","","","","","","","","","","","",""
"true","","","","","fullscreen","310","1823294","0.0-4.0-0.0","62d04f92bfa53e94ef2fabaf","B2","batch2","","","","","","","","","","","","","","","","","","","","","","","","","","","","","",""
"","","","","","instructions","311","1893134","0.0-4.0-1.0-0.0-0.0","62d04f92bfa53e94ef2fabaf","B2","batch2","[{""page_index"":0,""viewing_time"":14076},{""page_index"":1,""viewing_time"":8339},{""page_index"":2,""viewing_time"":4412},{""page_index"":3,""viewing_time"":12444},{""page_index"":4,""viewing_time"":10494},{""page_index"":5,""viewing_time"":13291},{""page_index"":6,""viewing_time"":6782}]","69839","","","tol-instructions","","","","","","","","","","","","","","","","","","","","","","","","",""
"","","","","","html-button-response","312","1894646","0.0-4.0-1.0-1.0-0.0","62d04f92bfa53e94ef2fabaf","B2","batch2","","1512","<p class=block-text> Let's answer a few questions <br>","0","tol_enter_quiz","","","","","","","","","","","","","","","","","","","","","","","","",""
"","","","","","html-button-response","313","1901598","0.0-4.0-1.0-1.0-1.0","62d04f92bfa53e94ef2fabaf","B2","batch2","","6952","<p class = block-text>True or False: You can only move the ball on top of a peg. <br></p>","0","tol_quiz","true","","","","","","","","","","","","","","","","","","","","","","","",""
"","","","","","html-button-response","314","1903244","0.0-4.0-1.0-1.0-2.0","62d04f92bfa53e94ef2fabaf","B2","batch2","","1645","<p class = block-text>Correct! You can only move the ball on top of a peg.</p>","0","tol_quiz_feedback","","","","","","","","","","","","","","","","","","","","","","","","",""
"","","","","","html-button-response","315","1907202","0.0-4.0-1.0-1.0-3.0","62d04f92bfa53e94ef2fabaf","B2","batch2","","3957","<p class = block-text>True or False: You should try to match your board with the target board with fewest moves possible. <br></p>","0","tol_quiz","true","","","","","","","","","","","","","","","","","","","","","","","",""
"","","","","","html-button-response","316","1907934","0.0-4.0-1.0-1.0-4.0","62d04f92bfa53e94ef2fabaf","B2","batch2","","732","<p class = block-text>Correct! </p>","0","tol_quiz_feedback","","","","","","","","","","","","","","","","","","","","","","","","",""
"","","","","","html-button-response","317","1910362","0.0-4.0-2.0","62d04f92bfa53e94ef2fabaf","B2","batch2","","2427","<p class=block-text> Now that you've understood the game, let's practice a few easier examples before we start!<br> <br>","0","","","","","","","","","","","","","","","","","","","","","","","","","",""
"","","","","","single-stim-button","318","1912275","0.0-4.0-3.0-0.0","62d04f92bfa53e94ef2fabaf","B2","batch2","","1911","","","tol_practice","","","","","","","","","","","tol_peg_2","1911","1911","0","[[1,2,0],[0,0],[0]]","1","[[1,2,0],[0,0],[3]]","practice","1911","","","","","",""
"","","","","","single-stim-button","319","1913416","0.0-4.0-3.0-1.0","62d04f92bfa53e94ef2fabaf","B2","batch2","","1141","","","tol_practice","","","","","","","","","","","tol_peg_3","1141","1141","0","[[1,2,0],[0,0],[3]]","1","[[1,2,0],[0,0],[3]]","practice","1141","","","","","",""
"","","","","","poldrack-single-stim","320","1914418","0.0-4.0-4.0","62d04f92bfa53e94ef2fabaf","B2","batch2","","-1","","","tol_feedback","true","","","","","","","","","","","1000","1000","500","","","","","","-1","none","true","","0",""
"","","","","","single-stim-button","321","1918082","0.0-4.0-5.0-0.0","62d04f92bfa53e94ef2fabaf","B2","batch2","","3664","","","tol_practice","","","","","","","","","","","tol_peg_1","3664","3664","0","[[1,0,0],[3,0],[0]]","2","[[0,0,0],[3,1],[2]]","practice","3664","","","","","",""
"","","","","","single-stim-button","322","1919694","0.0-4.0-5.0-1.0","62d04f92bfa53e94ef2fabaf","B2","batch2","","1611","","","tol_practice","","","","","","","","","","","tol_peg_3","1611","1611","0","[[1,0,0],[3,0],[2]]","2","[[0,0,0],[3,1],[2]]","practice","1611","","","","","",""
"","","","","","single-stim-button","323","1920394","0.0-4.0-5.1-0.1","62d04f92bfa53e94ef2fabaf","B2","batch2","","699","","","tol_practice","","","","","","","","","","","tol_peg_1","699","699","0","[[0,0,0],[3,0],[2]]","3","[[0,0,0],[3,1],[2]]","practice","699","","","","","",""
"","","","","","single-stim-button","324","1921226","0.0-4.0-5.1-1.1","62d04f92bfa53e94ef2fabaf","B2","batch2","","831","","","tol_practice","","","","","","","","","","","tol_peg_2","831","831","0","[[0,0,0],[3,1],[2]]","3","[[0,0,0],[3,1],[2]]","practice","831","","","","","",""
"","","","","","poldrack-single-stim","325","1922232","0.0-4.0-6.0","62d04f92bfa53e94ef2fabaf","B2","batch2","","-1","","","tol_feedback","true","","","","","","","","","","","1000","1000","500","","","","","","-1","none","true","","0",""
"","","","","","single-stim-button","326","1925134","0.0-4.0-7.0-0.0","62d04f92bfa53e94ef2fabaf","B2","batch2","","2902","","","tol_practice","","","","","","","","","","","tol_peg_2","2902","2902","0","[[1,2,0],[0,0],[0]]","4","[[1,0,0],[2,0],[3]]","practice","2902","","","","","",""
"","","","","","single-stim-button","327","1926054","0.0-4.0-7.0-1.0","62d04f92bfa53e94ef2fabaf","B2","batch2","","919","","","tol_practice","","","","","","","","","","","tol_peg_3","919","919","0","[[1,2,0],[0,0],[3]]","4","[[1,0,0],[2,0],[3]]","practice","919","","","","","",""
"","","","","","single-stim-button","328","1927012","0.0-4.0-7.1-0.1","62d04f92bfa53e94ef2fabaf","B2","batch2","","957","","","tol_practice","","","","","","","","","","","tol_peg_1","957","957","0","[[1,0,0],[0,0],[3]]","5","[[1,0,0],[2,0],[3]]","practice","957","","","","","",""
"","","","","","single-stim-button","329","1927944","0.0-4.0-7.1-1.1","62d04f92bfa53e94ef2fabaf","B2","batch2","","931","","","tol_practice","","","","","","","","","","","tol_peg_2","931","931","0","[[1,0,0],[2,0],[3]]","5","[[1,0,0],[2,0],[3]]","practice","931","","","","","",""
"","","","","","poldrack-single-stim","330","1928954","0.0-4.0-8.0","62d04f92bfa53e94ef2fabaf","B2","batch2","","-1","","","tol_feedback","true","","","","","","","","","","","1000","1000","500","","","","","","-1","none","true","","0",""
"","","","","","html-button-response","331","1948509","0.0-4.0-9.0","62d04f92bfa53e94ef2fabaf","B2","batch2","","19556","<div class = centerbox><p class = center-block-text>Great job! You are done with practice trials<br>You are about to start official trials.<br> <br> Problem <strong>1</strong> out of 25 problems</p></div>","0","tol_instruction","","","","","","","","","","","","","","","","","","","","","","","","",""
"","","","","","single-stim-button","332","1959323","0.0-4.0-10.0-0.0","62d04f92bfa53e94ef2fabaf","B2","batch2","","9813","","","tol_tohand","","","","","","","","","","","tol_peg_2","9813","9813","0","[[1,2,0],[0,0],[0]]","1","[[1,3,0],[2,0],[0]]","0","0","","","","","","3"
"","","","","","single-stim-button","333","1960417","0.0-4.0-10.0-1.0","62d04f92bfa53e94ef2fabaf","B2","batch2","","1093","","","tol_toboard","","","","","","","","","","","tol_peg_3","1093","1093","0","[[1,2,0],[0,0],[3]]","1","[[1,3,0],[2,0],[0]]","0","0","","","","","","3"
"","","","","","single-stim-button","334","1961476","0.0-4.0-10.1-0.1","62d04f92bfa53e94ef2fabaf","B2","batch2","","1057","","","tol_tohand","","","","","","","","","","","tol_peg_1","1057","1057","0","[[1,0,0],[0,0],[3]]","2","[[1,3,0],[2,0],[0]]","0","0","","","","","","3"
"","","","","","single-stim-button","335","1962477","0.0-4.0-10.1-1.1","62d04f92bfa53e94ef2fabaf","B2","batch2","","1001","","","tol_toboard","","","","","","","","","","","tol_peg_2","1001","1001","0","[[1,0,0],[2,0],[3]]","2","[[1,3,0],[2,0],[0]]","0","0","","","","","","3"
"","","","","","single-stim-button","336","1963394","0.0-4.0-10.2-0.2","62d04f92bfa53e94ef2fabaf","B2","batch2","","915","","","tol_tohand","","","","","","","","","","","tol_peg_3","915","915","0","[[1,0,0],[2,0],[0]]","3","[[1,3,0],[2,0],[0]]","0","0","","","","","","3"
"","","","","","single-stim-button","337","1964421","0.0-4.0-10.2-1.2","62d04f92bfa53e94ef2fabaf","B2","batch2","","1027","","","tol_toboard","","","","","","","","","","","tol_peg_1","1027","1027","0","[[1,3,0],[2,0],[0]]","3","[[1,3,0],[2,0],[0]]","0","0","","","","","","3"
"","","","","","poldrack-single-stim","338","1965427","0.0-4.0-11.0","62d04f92bfa53e94ef2fabaf","B2","batch2","","-1","","","tol_feedback","true","","","","","","","","","","","1000","1000","500","","","","","","-1","none","true","9813","11785",""
"","","","","","html-button-response","339","1966361","0.0-4.0-12.0","62d04f92bfa53e94ef2fabaf","B2","batch2","","934","<div class = centerbox><p class = center-block-text>problem <strong>2</strong> out of 25 problems</p></div>","0","tol_trial_num","","","","","","","","","","","","","","","","","","","","","","","","",""
"","","","","","single-stim-button","340","1976742","0.0-4.0-13.0-0.0","62d04f92bfa53e94ef2fabaf","B2","batch2","","10379","","","tol_tohand","","","","","","","","","","","tol_peg_1","10379","10379","0","[[1,0,0],[3,0],[0]]","1","[[2,1,3],[0,0],[0]]","1","0","","","","","","5"
"","","","","","single-stim-button","341","1980976","0.0-4.0-13.0-1.0","62d04f92bfa53e94ef2fabaf","B2","batch2","","4233","","","tol_toboard","","","","","","","","","","","tol_peg_3","4233","4233","0","[[1,0,0],[3,0],[2]]","1","[[2,1,3],[0,0],[0]]","1","0","","","","","","5"
"","","","","","single-stim-button","342","1981891","0.0-4.0-13.1-0.1","62d04f92bfa53e94ef2fabaf","B2","batch2","","915","","","tol_tohand","","","","","","","","","","","tol_peg_1","915","915","0","[[0,0,0],[3,0],[2]]","2","[[2,1,3],[0,0],[0]]","1","0","","","","","","5"
"","","","","","single-stim-button","343","1982579","0.0-4.0-13.1-1.1","62d04f92bfa53e94ef2fabaf","B2","batch2","","687","","","tol_toboard","","","","","","","","","","","tol_peg_2","687","687","0","[[0,0,0],[3,1],[2]]","2","[[2,1,3],[0,0],[0]]","1","0","","","","","","5"
"","","","","","single-stim-button","344","1983446","0.0-4.0-13.2-0.2","62d04f92bfa53e94ef2fabaf","B2","batch2","","865","","","tol_tohand","","","","","","","","","","","tol_peg_3","865","865","0","[[0,0,0],[3,1],[0]]","3","[[2,1,3],[0,0],[0]]","1","0","","","","","","5"
"","","","","","single-stim-button","345","1984319","0.0-4.0-13.2-1.2","62d04f92bfa53e94ef2fabaf","B2","batch2","","873","","","tol_toboard","","","","","","","","","","","tol_peg_1","873","873","0","[[2,0,0],[3,1],[0]]","3","[[2,1,3],[0,0],[0]]","1","0","","","","","","5"
"","","","","","single-stim-button","346","1985062","0.0-4.0-13.3-0.3","62d04f92bfa53e94ef2fabaf","B2","batch2","","741","","","tol_tohand","","","","","","","","","","","tol_peg_2","741","741","0","[[2,0,0],[3,0],[0]]","4","[[2,1,3],[0,0],[0]]","1","0","","","","","","5"
"","","","","","single-stim-button","347","1985834","0.0-4.0-13.3-1.3","62d04f92bfa53e94ef2fabaf","B2","batch2","","771","","","tol_toboard","","","","","","","","","","","tol_peg_1","771","771","0","[[2,1,0],[3,0],[0]]","4","[[2,1,3],[0,0],[0]]","1","0","","","","","","5"
"","","","","","single-stim-button","348","1986549","0.0-4.0-13.4-0.4","62d04f92bfa53e94ef2fabaf","B2","batch2","","715","","","tol_tohand","","","","","","","","","","","tol_peg_2","715","715","0","[[2,1,0],[0,0],[0]]","5","[[2,1,3],[0,0],[0]]","1","0","","","","","","5"
"","","","","","single-stim-button","349","1987490","0.0-4.0-13.4-1.4","62d04f92bfa53e94ef2fabaf","B2","batch2","","939","","","tol_toboard","","","","","","","","","","","tol_peg_1","939","939","0","[[2,1,3],[0,0],[0]]","5","[[2,1,3],[0,0],[0]]","1","0","","","","","","5"
"","","","","","poldrack-single-stim","350","1988490","0.0-4.0-14.0","62d04f92bfa53e94ef2fabaf","B2","batch2","","-1","","","tol_feedback","true","","","","","","","","","","","1000","1000","500","","","","","","-1","none","true","10379","13615",""
"","","","","","html-button-response","351","1989505","0.0-4.0-15.0","62d04f92bfa53e94ef2fabaf","B2","batch2","","1014","<div class = centerbox><p class = center-block-text>problem <strong>3</strong> out of 25 problems</p></div>","0","tol_trial_num","","","","","","","","","","","","","","","","","","","","","","","","",""
"","","","","","single-stim-button","352","1993875","0.0-4.0-16.0-0.0","62d04f92bfa53e94ef2fabaf","B2","batch2","","4369","","","tol_tohand","","","","","","","","","","","tol_peg_1","4369","4369","0","[[2,0,0],[0,0],[1]]","1","[[1,2,0],[3,0],[0]]","2","0","","","","","","4"
"","","","","","single-stim-button","353","1994730","0.0-4.0-16.0-1.0","62d04f92bfa53e94ef2fabaf","B2","batch2","","853","","","tol_toboard","","","","","","","","","","","tol_peg_2","853","853","0","[[2,0,0],[3,0],[1]]","1","[[1,2,0],[3,0],[0]]","2","0","","","","","","4"
"","","","","","single-stim-button","354","1995360","0.0-4.0-16.1-0.1","62d04f92bfa53e94ef2fabaf","B2","batch2","","629","","","tol_tohand","","","","","","","","","","","tol_peg_1","629","629","0","[[0,0,0],[3,0],[1]]","2","[[1,2,0],[3,0],[0]]","2","0","","","","","","4"
"","","","","","single-stim-button","355","1996221","0.0-4.0-16.1-1.1","62d04f92bfa53e94ef2fabaf","B2","batch2","","861","","","tol_toboard","","","","","","","","","","","tol_peg_2","861","861","0","[[0,0,0],[3,2],[1]]","2","[[1,2,0],[3,0],[0]]","2","0","","","","","","4"
"","","","","","single-stim-button","356","1997002","0.0-4.0-16.2-0.2","62d04f92bfa53e94ef2fabaf","B2","batch2","","779","","","tol_tohand","","","","","","","","","","","tol_peg_3","779","779","0","[[0,0,0],[3,2],[0]]","3","[[1,2,0],[3,0],[0]]","2","0","","","","","","4"
"","","","","","single-stim-button","357","1998289","0.0-4.0-16.2-1.2","62d04f92bfa53e94ef2fabaf","B2","batch2","","1287","","","tol_toboard","","","","","","","","","","","tol_peg_1","1287","1287","0","[[1,0,0],[3,2],[0]]","3","[[1,2,0],[3,0],[0]]","2","0","","","","","","4"
"","","","","","single-stim-button","358","1998989","0.0-4.0-16.3-0.3","62d04f92bfa53e94ef2fabaf","B2","batch2","","699","","","tol_tohand","","","","","","","","","","","tol_peg_2","699","699","0","[[1,0,0],[3,0],[0]]","4","[[1,2,0],[3,0],[0]]","2","0","","","","","","4"
