"success","timeout","failed_images","failed_audio","failed_video","trial_type","trial_index","time_elapsed","internal_node_id","subject_id","study_id","session_id","view_history","rt","stimulus","response","task","correct","answer","item","fiar_detect_rt","fiar_detect_correct","total_correct_fiar_detect","post_trial_gap","choices","spm_correct","spm_rt","mouse_click","stim_duration","block_duration","timing_post_trial","current_position","tol_num_moves_made","tol_target","tol_problem_id","tol_rt","key_press","possible_responses","tol_correct","preplanning","tol_rt_per_trial","tol_min_moves"
"true","false","[]","[]","[]","preload","0","10920","0.0-0.0","62d2aee15e1dc6709bdcace0","C3","batch3","","","","","","","","","","","","","","","","","","","","","","","","","","","","","",""
"true","","","","","fullscreen","1","18026","0.0-1.0-0.0","62d2aee15e1dc6709bdcace0","C3","batch3","","","","","","","","","","","","","","","","","","","","","","","","","","","","","",""
"true","","","","","fullscreen","2","22872","0.0-2.0-0.0","62d2aee15e1dc6709bdcace0","C3","batch3","","","","","","","","","","","","","","","","","","","","","","","","","","","","","",""
"","","","","","instructions","3","77364","0.0-2.0-1.0-0.0","62d2aee15e1dc6709bdcace0","C3","batch3","[{""page_index"":0,""viewing_time"":45689.40000000596},{""page_index"":1,""viewing_time"":8797.89999999106}]","54488.20000000298","","","","","","","","","","","","","","","","","","","","","","","","","","","",""
"","","","","","html-button-response","4","78692","0.0-2.0-1.0-1.0-0.0","62d2aee15e1dc6709bdcace0","C3","batch3","","1324.4000000059605","<p class=block-text> Let's answer a few questions <br>","0","pattern_enter_quiz","","","","","","","","","","","","","","","","","","","","","","","","",""
"","","","","","html-button-response","5","83005","0.0-2.0-1.0-1.0-1.0","62d2aee15e1dc6709bdcace0","C3","batch3","","4307.70000000298","<p class = block-text>True or False: You will have as much time as you want to make each choice. <br></p>","0","pattern_quiz","false","","","","","","","","","","","","","","","","","","","","","","","",""
"","","","","","html-button-response","6","84895","0.0-2.0-1.0-1.0-2.0","62d2aee15e1dc6709bdcace0","C3","batch3","","1885.1000000089407","<p class = block-text>Incorrect. Remember, You should make your choice as fast as you can.</p>","0","pattern_quiz_feedback","","","","","","","","","","","","","","","","","","","","","","","","",""
"","","","","","html-button-response","7","89415","0.0-2.0-1.0-1.0-3.0","62d2aee15e1dc6709bdcace0","C3","batch3","","4516.70000000298","<p class = block-text>True or False: You will look for 4 pieces in black or white color connected in a row either horizontally, vertically or diagonally. <br></p>","0","pattern_quiz","true","","","","","","","","","","","","","","","","","","","","","","","",""
"","","","","","html-button-response","8","90365","0.0-2.0-1.0-1.0-4.0","62d2aee15e1dc6709bdcace0","C3","batch3","","946.5999999940395","<p class = block-text>Correct! </p>","0","pattern_quiz_feedback","","","","","","","","","","","","","","","","","","","","","","","","",""
"","","","","","html-button-response","9","92565","0.0-2.0-1.0-2.0-0.0","62d2aee15e1dc6709bdcace0","C3","batch3","","2194","<p class = block-text>You made too many incorrect choices.</p><p class = block-text>You will now repeat the instruction and quiz</p>","0","","","","","","","","","","","","","","","","","","","","","","","","","",""
"","","","","","instructions","10","94517","0.0-2.0-1.1-0.1","62d2aee15e1dc6709bdcace0","C3","batch3","[{""page_index"":0,""viewing_time"":1310.7000000029802},{""page_index"":1,""viewing_time"":638.5}]","1950","","","","","","","","","","","","","","","","","","","","","","","","","","","",""
"","","","","","html-button-response","11","95368","0.0-2.0-1.1-1.1-0.1","62d2aee15e1dc6709bdcace0","C3","batch3","","846.9000000059605","<p class=block-text> Let's answer a few questions <br>","0","pattern_enter_quiz","","","","","","","","","","","","","","","","","","","","","","","","",""
"","","","","","html-button-response","12","96852","0.0-2.0-1.1-1.1-1.1","62d2aee15e1dc6709bdcace0","C3","batch3","","1480.8999999910593","<p class = block-text>True or False: You will have as much time as you want to make each choice. <br></p>","1","pattern_quiz","true","","","","","","","","","","","","","","","","","","","","","","","",""
"","","","","","html-button-response","13","97799","0.0-2.0-1.1-1.1-2.1","62d2aee15e1dc6709bdcace0","C3","batch3","","944.5","<p class = block-text>Correct! You should make your choice <strong> as fast as you can</strong>.</p>","0","pattern_quiz_feedback","","","","","","","","","","","","","","","","","","","","","","","","",""
"","","","","","html-button-response","14","98509","0.0-2.0-1.1-1.1-3.1","62d2aee15e1dc6709bdcace0","C3","batch3","","706.5999999940395","<p class = block-text>True or False: You will look for 4 pieces in black or white color connected in a row either horizontally, vertically or diagonally. <br></p>","0","pattern_quiz","true","","","","","","","","","","","","","","","","","","","","","","","",""
"","","","","","html-button-response","15","99187","0.0-2.0-1.1-1.1-4.1","62d2aee15e1dc6709bdcace0","C3","batch3","","675.2000000029802","<p class = block-text>Correct! </p>","0","pattern_quiz_feedback","","","","","","","","","","","","","","","","","","","","","","","","",""
"","","","","","html-button-response","16","101555","0.0-2.0-2.0","62d2aee15e1dc6709bdcace0","C3","batch3","","2365.699999988079","<p class=block-text> Now that you've understood the game, let's do a few practice trials before we start!<br> <br>","0","pattern_enter_practice","","","","","","","","","","","","","","","","","","","","","","","","",""
"","","","","","image-keyboard-response","17","104673","0.0-2.0-3.0-0.0","62d2aee15e1dc6709bdcace0","C3","batch3","","3108.0999999940395","stim/prac_yes_20_dia_b1.png","f","pattern_practice","true","f","","","","","","","","","","","","","","","","","","","","","","",""
"","","","","","html-keyboard-response","18","105704","0.0-2.0-3.0-1.0","62d2aee15e1dc6709bdcace0","C3","batch3","","null","<p style=""font-size:30px;color:green;"">Correct!</p>","null","pattern_feedback","","","","","","","","","","","","","","","","","","","","","","","","",""
"","","","","","image-keyboard-response","19","106677","0.0-2.0-3.0-0.1","62d2aee15e1dc6709bdcace0","C3","batch3","","969.1999999880791","stim/prac_yes_16_ver_w1.png","j","pattern_practice","false","f","","","","","","","","","","","","","","","","","","","","","","",""
"","","","","","html-keyboard-response","20","107703","0.0-2.0-3.0-1.1","62d2aee15e1dc6709bdcace0","C3","batch3","","null","<p style=""font-size:30px;color:red;"">Wrong.</p>","null","pattern_feedback","","","","","","","","","","","","","","","","","","","","","","","","",""
"","","","","","image-keyboard-response","21","109885","0.0-2.0-3.0-0.2","62d2aee15e1dc6709bdcace0","C3","batch3","","2177.6000000089407","stim/prac_no_16_1.png","j","pattern_practice","true","j","","","","","","","","","","","","","","","","","","","","","","",""
"","","","","","html-keyboard-response","22","110904","0.0-2.0-3.0-1.2","62d2aee15e1dc6709bdcace0","C3","batch3","","null","<p style=""font-size:30px;color:green;"">Correct!</p>","null","pattern_feedback","","","","","","","","","","","","","","","","","","","","","","","","",""
"","","","","","image-keyboard-response","23","111872","0.0-2.0-3.0-0.3","62d2aee15e1dc6709bdcace0","C3","batch3","","963.2999999970198","stim/prac_yes_18_hor_w1.png","f","pattern_practice","true","f","","","","","","","","","","","","","","","","","","","","","","",""
"","","","","","html-keyboard-response","24","112887","0.0-2.0-3.0-1.3","62d2aee15e1dc6709bdcace0","C3","batch3","","null","<p style=""font-size:30px;color:green;"">Correct!</p>","null","pattern_feedback","","","","","","","","","","","","","","","","","","","","","","","","",""
"","","","","","image-keyboard-response","25","113905","0.0-2.0-3.0-0.4","62d2aee15e1dc6709bdcace0","C3","batch3","","1014.2000000029802","stim/prac_no_18_1.png","j","pattern_practice","true","j","","","","","","","","","","","","","","","","","","","","","","",""
"","","","","","html-keyboard-response","26","114919","0.0-2.0-3.0-1.4","62d2aee15e1dc6709bdcace0","C3","batch3","","null","<p style=""font-size:30px;color:green;"">Correct!</p>","null","pattern_feedback","","","","","","","","","","","","","","","","","","","","","","","","",""
"","","","","","html-button-response","27","116955","0.0-2.0-4.0","62d2aee15e1dc6709bdcace0","C3","batch3","","2032.4000000059605","<p class=block-text> Good job! You are done with practice trials!<br>
        You responded correctly on 80% of the trials.<br>
        Press the button below to start official trials. Now you won't see any feedback about your response</p>","0","pattern_enter_official_trials","","","","","","","","","","","","","","","","","","","","","","","","",""
"","","","","","html-keyboard-response","28","117769","0.0-2.0-5.0-0.0","62d2aee15e1dc6709bdcace0","C3","batch3","","null","<p class=block-text>Trial 1 out of 78</p>","null","pattern_show_trial_num","","","","","","","","","","","","","","","","","","","","","","","","",""
"","","","","","image-keyboard-response","29","120102","0.0-2.0-5.0-1.0","62d2aee15e1dc6709bdcace0","C3","batch3","","2329.5","stim/yes_49_hor_w1_b.png","j","pattern_response","false","f","pattern_70","2329.5","false","0","","","","","","","","","","","","","","","","","","",""
"","","","","","html-keyboard-response","30","121432","0.0-2.0-5.0-0.1","62d2aee15e1dc6709bdcace0","C3","batch3","","null","<p class=block-text>Trial 2 out of 78</p>","null","pattern_show_trial_num","","","","","","","","","","","","","","","","","","","","","","","","",""
"","","","","","image-keyboard-response","31","122980","0.0-2.0-5.0-1.1","62d2aee15e1dc6709bdcace0","C3","batch3","","1544.4000000059605","stim/no_39_1_w.png","j","pattern_response","true","j","pattern_21","1544.4000000059605","true","1","","","","","","","","","","","","","","","","","","",""
"","","","","","html-keyboard-response","32","124298","0.0-2.0-5.0-0.2","62d2aee15e1dc6709bdcace0","C3","batch3","","null","<p class=block-text>Trial 3 out of 78</p>","null","pattern_show_trial_num","","","","","","","","","","","","","","","","","","","","","","","","",""
"","","","","","image-keyboard-response","33","125993","0.0-2.0-5.0-1.2","62d2aee15e1dc6709bdcace0","C3","batch3","","1691.2000000029802","stim/yes_23_ver_b1.png","f","pattern_response","true","f","pattern_48","1691.2000000029802","true","2","","","","","","","","","","","","","","","","","","",""
"","","","","","html-keyboard-response","34","127314","0.0-2.0-5.0-0.3","62d2aee15e1dc6709bdcace0","C3","batch3","","null","<p class=block-text>Trial 4 out of 78</p>","null","pattern_show_trial_num","","","","","","","","","","","","","","","","","","","","","","","","",""
"","","","","","image-keyboard-response","35","128918","0.0-2.0-5.0-1.3","62d2aee15e1dc6709bdcace0","C3","batch3","","1598.2000000029802","stim/yes_51_dia_b1.png","j","pattern_response","false","f","pattern_72","1598.2000000029802","false","2","","","","","","","","","","","","","","","","","","",""
"","","","","","html-keyboard-response","36","130247","0.0-2.0-5.0-0.4","62d2aee15e1dc6709bdcace0","C3","batch3","","null","<p class=block-text>Trial 5 out of 78</p>","null","pattern_show_trial_num","","","","","","","","","","","","","","","","","","","","","","","","",""
"","","","","","image-keyboard-response","37","131412","0.0-2.0-5.0-1.4","62d2aee15e1dc6709bdcace0","C3","batch3","","1160.5","stim/yes_70_ver_b1.png","f","pattern_response","true","f","pattern_80","1160.5","true","3","","","","","","","","","","","","","","","","","","",""
"","","","","","html-keyboard-response","38","132730","0.0-2.0-5.0-0.5","62d2aee15e1dc6709bdcace0","C3","batch3","","null","<p class=block-text>Trial 6 out of 78</p>","null","pattern_show_trial_num","","","","","","","","","","","","","","","","","","","","","","","","",""
"","","","","","image-keyboard-response","39","134006","0.0-2.0-5.0-1.5","62d2aee15e1dc6709bdcace0","C3","batch3","","1270.8999999910593","stim/no_30_1_b.png","j","pattern_response","true","j","pattern_13","1270.8999999910593","true","4","","","","","","","","","","","","","","","","","","",""
"","","","","","html-keyboard-response","40","135329","0.0-2.0-5.0-0.6","62d2aee15e1dc6709bdcace0","C3","batch3","","null","<p class=block-text>Trial 7 out of 78</p>","null","pattern_show_trial_num","","","","","","","","","","","","","","","","","","","","","","","","",""
"","","","","","image-keyboard-response","41","137361","0.0-2.0-5.0-1.6","62d2aee15e1dc6709bdcace0","C3","batch3","","2025.8999999910593","stim/yes_44_ver_w1_w.png","j","pattern_response","false","f","pattern_66","2025.8999999910593","false","4","","","","","","","","","","","","","","","","","","",""
"","","","","","html-keyboard-response","42","138674","0.0-2.0-5.0-0.7","62d2aee15e1dc6709bdcace0","C3","batch3","","null","<p class=block-text>Trial 8 out of 78</p>","null","pattern_show_trial_num","","","","","","","","","","","","","","","","","","","","","","","","",""
"","","","","","image-keyboard-response","43","139382","0.0-2.0-5.0-1.7","62d2aee15e1dc6709bdcace0","C3","batch3","","704.0999999940395","stim/yes_39_hor_w1_w.png","f","pattern_response","true","f","pattern_62","704.0999999940395","true","5","","","","","","","","","","","","","","","","","","",""
"","","","","","html-keyboard-response","44","140711","0.0-2.0-5.0-0.8","62d2aee15e1dc6709bdcace0","C3","batch3","","null","<p class=block-text>Trial 9 out of 78</p>","null","pattern_show_trial_num","","","","","","","","","","","","","","","","","","","","","","","","",""
"","","","","","image-keyboard-response","45","142272","0.0-2.0-5.0-1.8","62d2aee15e1dc6709bdcace0","C3","batch3","","1556.5","stim/no_47_1_b.png","j","pattern_response","true","j","pattern_27","1556.5","true","6","","","","","","","","","","","","","","","","","","",""
"","","","","","html-keyboard-response","46","143595","0.0-2.0-5.0-0.9","62d2aee15e1dc6709bdcace0","C3","batch3","","null","<p class=block-text>Trial 10 out of 78</p>","null","pattern_show_trial_num","","","","","","","","","","","","","","","","","","","","","","","","",""
"","","","","","image-keyboard-response","47","144689","0.0-2.0-5.0-1.9","62d2aee15e1dc6709bdcace0","C3","batch3","","1088.5","stim/yes_29_hor_b1_b.png","f","pattern_response","true","f","pattern_52","1088.5","true","7","","","","","","","","","","","","","","","","","","",""
"","","","","","html-keyboard-response","48","146010","0.0-2.0-5.0-0.10","62d2aee15e1dc6709bdcace0","C3","batch3","","null","<p class=block-text>Trial 11 out of 78</p>","null","pattern_show_trial_num","","","","","","","","","","","","","","","","","","","","","","","","",""
"","","","","","image-keyboard-response","49","146834","0.0-2.0-5.0-1.10","62d2aee15e1dc6709bdcace0","C3","batch3","","818.9000000059605","stim/no_15_1_w.png","j","pattern_response","true","j","pattern_03","818.9000000059605","true","8","","","","","","","","","","","","","","","","","","",""
"","","","","","html-keyboard-response","50","148156","0.0-2.0-5.0-0.11","62d2aee15e1dc6709bdcace0","C3","batch3","","null","<p class=block-text>Trial 12 out of 78</p>","null","pattern_show_trial_num","","","","","","","","","","","","","","","","","","","","","","","","",""
"","","","","","image-keyboard-response","51","150804","0.0-2.0-5.0-1.11","62d2aee15e1dc6709bdcace0","C3","batch3","","2642.5999999940395","stim/no_49_2_b.png","j","pattern_response","true","j","pattern_29","2642.5999999940395","true","9","","","","","","","","","","","","","","","","","","",""
"","","","","","html-keyboard-response","52","152126","0.0-2.0-5.0-0.12","62d2aee15e1dc6709bdcace0","C3","batch3","","null","<p class=block-text>Trial 13 out of 78</p>","null","pattern_show_trial_num","","","","","","","","","","","","","","","","","","","","","","","","",""
"","","","","","image-keyboard-response","53","154221","0.0-2.0-5.0-1.12","62d2aee15e1dc6709bdcace0","C3","batch3","","2089.300000011921","stim/no_36_1_b.png","j","pattern_response","true","j","pattern_17","2089.300000011921","true","10","","","","","","","","","","","","","","","","","","",""
"","","","","","html-keyboard-response","54","155542","0.0-2.0-5.0-0.13","62d2aee15e1dc6709bdcace0","C3","batch3","","null","<p class=block-text>Trial 14 out of 78</p>","null","pattern_show_trial_num","","","","","","","","","","","","","","","","","","","","","","","","",""
"","","","","","image-keyboard-response","55","158073","0.0-2.0-5.0-1.13","62d2aee15e1dc6709bdcace0","C3","batch3","","2506.6000000089407","stim/no_37_2_w.png","j","pattern_response","true","j","pattern_19","2506.6000000089407","true","11","","","","","","","","","","","","","","","","","","",""
"","","","","","html-keyboard-response","56","159391","0.0-2.0-5.0-0.14","62d2aee15e1dc6709bdcace0","C3","batch3","","null","<p class=block-text>Trial 15 out of 78</p>","null","pattern_show_trial_num","","","","","","","","","","","","","","","","","","","","","","","","",""
"","","","","","image-keyboard-response","57","162834","0.0-2.0-5.0-1.14","62d2aee15e1dc6709bdcace0","C3","batch3","","3436.6000000089407","stim/no_53_1_b.png","j","pattern_response","true","j","pattern_33","3436.6000000089407","true","12","","","","","","","","","","","","","","","","","","",""
"","","","","","html-keyboard-response","58","164157","0.0-2.0-5.0-0.15","62d2aee15e1dc6709bdcace0","C3","batch3","","null","<p class=block-text>Trial 16 out of 78</p>","null","pattern_show_trial_num","","","","","","","","","","","","","","","","","","","","","","","","",""
"","","","","","image-keyboard-response","59","165243","0.0-2.0-5.0-1.15","62d2aee15e1dc6709bdcace0","C3","batch3","","1080.5","stim/yes_46_ver_b1_b.png","f","pattern_response","true","f","pattern_68","1080.5","true","13","","","","","","","","","","","","","","","","","","",""
"","","","","","html-keyboard-response","60","166573","0.0-2.0-5.0-0.16","62d2aee15e1dc6709bdcace0","C3","batch3","","null","<p class=block-text>Trial 17 out of 78</p>","null","pattern_show_trial_num","","","","","","","","","","","","","","","","","","","","","","","","",""
"","","","","","image-keyboard-response","61","167838","0.0-2.0-5.0-1.16","62d2aee15e1dc6709bdcace0","C3","batch3","","1261.2000000029802","stim/yes_12_hor_w1_w.png","f","pattern_response","true","f","pattern_42","1261.2000000029802","true","14","","","","","","","","","","","","","","","","","","",""
"","","","","","html-keyboard-response","62","169156","0.0-2.0-5.0-0.17","62d2aee15e1dc6709bdcace0","C3","batch3","","null","<p class=block-text>Trial 18 out of 78</p>","null","pattern_show_trial_num","","","","","","","","","","","","","","","","","","","","","","","","",""
"","","","","","image-keyboard-response","63","170171","0.0-2.0-5.0-1.17","62d2aee15e1dc6709bdcace0","C3","batch3","","1009","stim/yes_26_dia_w2_w.png","f","pattern_response","true","f","pattern_50","1009","true","15","","","","","","","","","","","","","","","","","","",""
"","","","","","html-keyboard-response","64","171489","0.0-2.0-5.0-0.18","62d2aee15e1dc6709bdcace0","C3","batch3","","null","<p class=block-text>Trial 19 out of 78</p>","null","pattern_show_trial_num","","","","","","","","","","","","","","","","","","","","","","","","",""
"","","","","","image-keyboard-response","65","174126","0.0-2.0-5.0-1.18","62d2aee15e1dc6709bdcace0","C3","batch3","","2632.5999999940395","stim/no_25_1_b.png","j","pattern_response","true","j","pattern_09","2632.5999999940395","true","16","","","","","","","","","","","","","","","","","","",""
"","","","","","html-keyboard-response","66","175456","0.0-2.0-5.0-0.19","62d2aee15e1dc6709bdcace0","C3","batch3","","null","<p class=block-text>Trial 20 out of 78</p>","null","pattern_show_trial_num","","","","","","","","","","","","","","","","","","","","","","","","",""
"","","","","","image-keyboard-response","67","176220","0.0-2.0-5.0-1.19","62d2aee15e1dc6709bdcace0","C3","batch3","","758.6000000089407","stim/yes_15_dia_b1u_b.png","f","pattern_response","true","f","pattern_44","758.6000000089407","true","17","","","","","","","","","","","","","","","","","","",""
"","","","","","html-keyboard-response","68","177538","0.0-2.0-5.0-0.20","62d2aee15e1dc6709bdcace0","C3","batch3","","null","<p class=block-text>Trial 21 out of 78</p>","null","pattern_show_trial_num","","","","","","","","","","","","","","","","","","","","","","","","",""
"","","","","","image-keyboard-response","69","178524","0.0-2.0-5.0-1.20","62d2aee15e1dc6709bdcace0","C3","batch3","","982.2999999970198","stim/yes_36_ver_w1_w.png","f","pattern_response","true","f","pattern_58","982.2999999970198","true","18","","","","","","","","","","","","","","","","","","",""
"","","","","","html-keyboard-response","70","179854","0.0-2.0-5.0-0.21","62d2aee15e1dc6709bdcace0","C3","batch3","","null","<p class=block-text>Trial 22 out of 78</p>","null","pattern_show_trial_num","","","","","","","","","","","","","","","","","","","","","","","","",""
"","","","","","image-keyboard-response","71","183026","0.0-2.0-5.0-1.21","62d2aee15e1dc6709bdcace0","C3","batch3","","3168.7999999970198","stim/no_67_1.png","j","pattern_response","true","j","pattern_39","3168.7999999970198","true","19","","","","","","","","","","","","","","","","","","",""
"","","","","","html-keyboard-response","72","184354","0.0-2.0-5.0-0.22","62d2aee15e1dc6709bdcace0","C3","batch3","","null","<p class=block-text>Trial 23 out of 78</p>","null","pattern_show_trial_num","","","","","","","","","","","","","","","","","","","","","","","","",""
"","","","","","image-keyboard-response","73","186726","0.0-2.0-5.0-1.22","62d2aee15e1dc6709bdcace0","C3","batch3","","2367","stim/no_28_2.png","j","pattern_response","true","j","pattern_11","2367","true","20","","","","","","","","","","","","","","","","","","",""
"","","","","","html-keyboard-response","74","188037","0.0-2.0-5.0-0.23","62d2aee15e1dc6709bdcace0","C3","batch3","","null","<p class=block-text>Trial 24 out of 78</p>","null","pattern_show_trial_num","","","","","","","","","","","","","","","","","","","","","","","","",""
"","","","","","image-keyboard-response","75","189103","0.0-2.0-5.0-1.23","62d2aee15e1dc6709bdcace0","C3","batch3","","1059.5","stim/no_22_1_b.png","j","pattern_response","true","j","pattern_07","1059.5","true","21","","","","","","","","","","","","","","","","","","",""
"","","","","","html-keyboard-response","76","190419","0.0-2.0-5.0-0.24","62d2aee15e1dc6709bdcace0","C3","batch3","","null","<p class=block-text>Trial 25 out of 78</p>","null","pattern_show_trial_num","","","","","","","","","","","","","","","","","","","","","","","","",""
"","","","","","image-keyboard-response","77","191414","0.0-2.0-5.0-1.24","62d2aee15e1dc6709bdcace0","C3","batch3","","990.7000000029802","stim/no_18_1_b.png","j","pattern_response","true","j","pattern_05","990.7000000029802","true","22","","","","","","","","","","","","","","","","","","",""
"","","","","","html-keyboard-response","78","192735","0.0-2.0-5.0-0.25","62d2aee15e1dc6709bdcace0","C3","batch3","","null","<p class=block-text>Trial 26 out of 78</p>","null","pattern_show_trial_num","","","","","","","","","","","","","","","","","","","","","","","","",""
"","","","","","image-keyboard-response","79","194265","0.0-2.0-5.0-1.25","62d2aee15e1dc6709bdcace0","C3","batch3","","1524.7999999970198","stim/yes_53_ver_b1_b.png","f","pattern_response","true","f","pattern_74","1524.7999999970198","true","23","","","","","","","","","","","","","","","","","","",""
"","","","","","html-keyboard-response","80","195584","0.0-2.0-5.0-0.26","62d2aee15e1dc6709bdcace0","C3","batch3","","null","<p class=block-text>Trial 27 out of 78</p>","null","pattern_show_trial_num","","","","","","","","","","","","","","","","","","","","","","","","",""
"","","","","","image-keyboard-response","81","197260","0.0-2.0-5.0-1.26","62d2aee15e1dc6709bdcace0","C3","batch3","","1670.3999999910593","stim/no_43_2_b.png","j","pattern_response","true","j","pattern_23","1670.3999999910593","true","24","","","","","","","","","","","","","","","","","","",""
"","","","","","html-keyboard-response","82","198583","0.0-2.0-5.0-0.27","62d2aee15e1dc6709bdcace0","C3","batch3","","null","<p class=block-text>Trial 28 out of 78</p>","null","pattern_show_trial_num","","","","","","","","","","","","","","","","","","","","","","","","",""
"","","","","","image-keyboard-response","83","199526","0.0-2.0-5.0-1.27","62d2aee15e1dc6709bdcace0","C3","batch3","","938.2000000029802","stim/yes_33_dia_w1_w.png","f","pattern_response","true","f","pattern_56","938.2000000029802","true","25","","","","","","","","","","","","","","","","","","",""
"","","","","","html-keyboard-response","84","200850","0.0-2.0-5.0-0.28","62d2aee15e1dc6709bdcace0","C3","batch3","","null","<p class=block-text>Trial 29 out of 78</p>","null","pattern_show_trial_num","","","","","","","","","","","","","","","","","","","","","","","","",""
"","","","","","image-keyboard-response","85","201647","0.0-2.0-5.0-1.28","62d2aee15e1dc6709bdcace0","C3","batch3","","792.0999999940395","stim/no_12_1.png","j","pattern_response","true","j","pattern_01","792.0999999940395","true","26","","","","","","","","","","","","","","","","","","",""
"","","","","","html-keyboard-response","86","202967","0.0-2.0-5.0-0.29","62d2aee15e1dc6709bdcace0","C3","batch3","","null","<p class=block-text>Trial 30 out of 78</p>","null","pattern_show_trial_num","","","","","","","","","","","","","","","","","","","","","","","","",""
"","","","","","image-keyboard-response","87","205464","0.0-2.0-5.0-1.29","62d2aee15e1dc6709bdcace0","C3","batch3","","2492.9000000059605","stim/no_45_1_w.png","j","pattern_response","true","j","pattern_25","2492.9000000059605","true","27","","","","","","","","","","","","","","","","","","",""
"","","","","","html-keyboard-response","88","206782","0.0-2.0-5.0-0.30","62d2aee15e1dc6709bdcace0","C3","batch3","","null","<p class=block-text>Trial 31 out of 78</p>","null","pattern_show_trial_num","","","","","","","","","","","","","","","","","","","","","","","","",""
"","","","","","image-keyboard-response","89","208498","0.0-2.0-5.0-1.30","62d2aee15e1dc6709bdcace0","C3","batch3","","1709.6000000089407","stim/no_33_1_b.png","j","pattern_response","true","j","pattern_15","1709.6000000089407","true","28","","","","","","","","","","","","","","","","","","",""
"","","","","","html-keyboard-response","90","209815","0.0-2.0-5.0-0.31","62d2aee15e1dc6709bdcace0","C3","batch3","","null","<p class=block-text>Trial 32 out of 78</p>","null","pattern_show_trial_num","","","","","","","","","","","","","","","","","","","","","","","","",""
"","","","","","image-keyboard-response","91","210698","0.0-2.0-5.0-1.31","62d2aee15e1dc6709bdcace0","C3","batch3","","877.2999999970198","stim/yes_30_ver_b1_b.png","f","pattern_response","true","f","pattern_54","877.2999999970198","true","29","","","","","","","","","","","","","","","","","","",""
"","","","","","html-keyboard-response","92","212014","0.0-2.0-5.0-0.32","62d2aee15e1dc6709bdcace0","C3","batch3","","null","<p class=block-text>Trial 33 out of 78</p>","null","pattern_show_trial_num","","","","","","","","","","","","","","","","","","","","","","","","",""
"","","","","","image-keyboard-response","93","215151","0.0-2.0-5.0-1.32","62d2aee15e1dc6709bdcace0","C3","batch3","","3131.7999999970198","stim/no_58_1_w.png","j","pattern_response","true","j","pattern_35","3131.7999999970198","true","30","","","","","","","","","","","","","","","","","","",""
"","","","","","html-keyboard-response","94","216481","0.0-2.0-5.0-0.33","62d2aee15e1dc6709bdcace0","C3","batch3","","null","<p class=block-text>Trial 34 out of 78</p>","null","pattern_show_trial_num","","","","","","","","","","","","","","","","","","","","","","","","",""
"","","","","","image-keyboard-response","95","219219","0.0-2.0-5.0-1.33","62d2aee15e1dc6709bdcace0","C3","batch3","","2733.0999999940395","stim/yes_42_dia_w1_w.png","f","pattern_response","true","f","pattern_64","2733.0999999940395","true","31","","","","","","","","","","","","","","","","","","",""
"","","","","","html-keyboard-response","96","220546","0.0-2.0-5.0-0.34","62d2aee15e1dc6709bdcace0","C3","batch3","","null","<p class=block-text>Trial 35 out of 78</p>","null","pattern_show_trial_num","","","","","","","","","","","","","","","","","","","","","","","","",""
"","","","","","image-keyboard-response","97","224033","0.0-2.0-5.0-1.34","62d2aee15e1dc6709bdcace0","C3","batch3","","3480.8999999910593","stim/yes_58_dia_w1_w.png","j","pattern_response","false","f","pattern_76","3480.8999999910593","false","31","","","","","","","","","","","","","","","","","","",""
"","","","","","html-keyboard-response","98","225362","0.0-2.0-5.0-0.35","62d2aee15e1dc6709bdcace0","C3","batch3","","null","<p class=block-text>Trial 36 out of 78</p>","null","pattern_show_trial_num","","","","","","","","","","","","","","","","","","","","","","","","",""
"","","","","","image-keyboard-response","99","226072","0.0-2.0-5.0-1.35","62d2aee15e1dc6709bdcace0","C3","batch3","","704.5","stim/yes_17_ver_b1_b.png","f","pattern_response","true","f","pattern_46","704.5","true","32","","","","","","","","","","","","","","","","","","",""
"","","","","","html-keyboard-response","100","227395","0.0-2.0-5.0-0.36","62d2aee15e1dc6709bdcace0","C3","batch3","","null","<p class=block-text>Trial 37 out of 78</p>","null","pattern_show_trial_num","","","","","","","","","","","","","","","","","","","","","","","","",""
"","","","","","image-keyboard-response","101","232126","0.0-2.0-5.0-1.36","62d2aee15e1dc6709bdcace0","C3","batch3","","4726.899999991059","stim/yes_63_dia_b1.png","j","pattern_response","false","f","pattern_78","4726.899999991059","false","32","","","","","","","","","","","","","","","","","","",""
"","","","","","html-keyboard-response","102","233446","0.0-2.0-5.0-0.37","62d2aee15e1dc6709bdcace0","C3","batch3","","null","<p class=block-text>Trial 38 out of 78</p>","null","pattern_show_trial_num","","","","","","","","","","","","","","","","","","","","","","","","",""
"","","","","","image-keyboard-response","103","235370","0.0-2.0-5.0-1.37","62d2aee15e1dc6709bdcace0","C3","batch3","","1919.300000011921","stim/no_51_1.png","j","pattern_response","true","j","pattern_31","1919.300000011921","true","33","","","","","","","","","","","","","","","","","","",""
"","","","","","html-keyboard-response","104","236693","0.0-2.0-5.0-0.38","62d2aee15e1dc6709bdcace0","C3","batch3","","null","<p class=block-text>Trial 39 out of 78</p>","null","pattern_show_trial_num","","","","","","","","","","","","","","","","","","","","","","","","",""
"","","","","","image-keyboard-response","105","237490","0.0-2.0-5.0-1.38","62d2aee15e1dc6709bdcace0","C3","batch3","","792.0999999940395","stim/yes_37_hor_w1_w.png","f","pattern_response","true","f","pattern_60","792.0999999940395","true","34","","","","","","","","","","","","","","","","","","",""
"","","","","","image-keyboard-response","106","240095","0.0-2.0-6.0","62d2aee15e1dc6709bdcace0","C3","batch3","","2094.5","stim/empty_board.png","j","attention_check","true","j","","","","","500","[""f"",""j""]","","","","","","","","","","","","","","","","",""
"","","","","","html-keyboard-response","107","240909","0.0-2.0-7.0-0.0","62d2aee15e1dc6709bdcace0","C3","batch3","","null","<p class=block-text>Trial 40 out of 78</p>","null","pattern_show_trial_num","","","","","","","","","","","","","","","","","","","","","","","","",""
"","","","","","image-keyboard-response","108","242546","0.0-2.0-7.0-1.0","62d2aee15e1dc6709bdcace0","C3","batch3","","1632.2000000029802","stim/no_20_1_w.png","j","pattern_response","true","j","pattern_06","1632.2000000029802","true","35","","","","","","","","","","","","","","","","","","",""
"","","","","","html-keyboard-response","109","243875","0.0-2.0-7.0-0.1","62d2aee15e1dc6709bdcace0","C3","batch3","","null","<p class=block-text>Trial 41 out of 78</p>","null","pattern_show_trial_num","","","","","","","","","","","","","","","","","","","","","","","","",""
"","","","","","image-keyboard-response","110","245455","0.0-2.0-7.0-1.1","62d2aee15e1dc6709bdcace0","C3","batch3","","1574.4000000059605","stim/no_34_1_b.png","j","pattern_response","true","j","pattern_16","1574.4000000059605","true","36","","","","","","","","","","","","","","","","","","",""
"","","","","","html-keyboard-response","111","246776","0.0-2.0-7.0-0.2","62d2aee15e1dc6709bdcace0","C3","batch3","","null","<p class=block-text>Trial 42 out of 78</p>","null","pattern_show_trial_num","","","","","","","","","","","","","","","","","","","","","","","","",""
"","","","","","image-keyboard-response","112","248717","0.0-2.0-7.0-1.2","62d2aee15e1dc6709bdcace0","C3","batch3","","1936.9000000059605","stim/no_36_2_w.png","j","pattern_response","true","j","pattern_18","1936.9000000059605","true","37","","","","","","","","","","","","","","","","","","",""
"","","","","","html-keyboard-response","113","250040","0.0-2.0-7.0-0.3","62d2aee15e1dc6709bdcace0","C3","batch3","","null","<p class=block-text>Trial 43 out of 78</p>","null","pattern_show_trial_num","","","","","","","","","","","","","","","","","","","","","","","","",""
"","","","","","image-keyboard-response","114","252070","0.0-2.0-7.0-1.3","62d2aee15e1dc6709bdcace0","C3","batch3","","2024.5","stim/yes_29_ver_w1.png","f","pattern_response","true","f","pattern_53","2024.5","true","38","","","","","","","","","","","","","","","","","","",""
"","","","","","html-keyboard-response","115","253390","0.0-2.0-7.0-0.4","62d2aee15e1dc6709bdcace0","C3","batch3","","null","<p class=block-text>Trial 44 out of 78</p>","null","pattern_show_trial_num","","","","","","","","","","","","","","","","","","","","","","","","",""
"","","","","","image-keyboard-response","116","254386","0.0-2.0-7.0-1.4","62d2aee15e1dc6709bdcace0","C3","batch3","","991.2000000029802","stim/yes_43_ver_w1_w.png","f","pattern_response","true","f","pattern_65","991.2000000029802","true","39","","","","","","","","","","","","","","","","","","",""
"","","","","","html-keyboard-response","117","255706","0.0-2.0-7.0-0.5","62d2aee15e1dc6709bdcace0","C3","batch3","","null","<p class=block-text>Trial 45 out of 78</p>","null","pattern_show_trial_num","","","","","","","","","","","","","","","","","","","","","","","","",""
"","","","","","image-keyboard-response","118","257479","0.0-2.0-7.0-1.5","62d2aee15e1dc6709bdcace0","C3","batch3","","1767.9000000059605","stim/no_46_1_b.png","j","pattern_response","true","j","pattern_26","1767.9000000059605","true","40","","","","","","","","","","","","","","","","","","",""
"","","","","","html-keyboard-response","119","258805","0.0-2.0-7.0-0.6","62d2aee15e1dc6709bdcace0","C3","batch3","","null","<p class=block-text>Trial 46 out of 78</p>","null","pattern_show_trial_num","","","","","","","","","","","","","","","","","","","","","","","","",""
"","","","","","image-keyboard-response","120","260287","0.0-2.0-7.0-1.6","62d2aee15e1dc6709bdcace0","C3","batch3","","1477.7000000029802","stim/yes_37_dia_w1.png","j","pattern_response","false","f","pattern_59","1477.7000000029802","false","40","","","","","","","","","","","","","","","","","","",""
"","","","","","html-keyboard-response","121","261605","0.0-2.0-7.0-0.7","62d2aee15e1dc6709bdcace0","C3","batch3","","null","<p class=block-text>Trial 47 out of 78</p>","null","pattern_show_trial_num","","","","","","","","","","","","","","","","","","","","","","","","",""
"","","","","","image-keyboard-response","122","264150","0.0-2.0-7.0-1.7","62d2aee15e1dc6709bdcace0","C3","batch3","","2540.1000000089407","stim/no_50_1.png","j","pattern_response","true","j","pattern_30","2540.1000000089407","true","41","","","","","","","","","","","","","","","","","","",""
"","","","","","html-keyboard-response","123","265471","0.0-2.0-7.0-0.8","62d2aee15e1dc6709bdcace0","C3","batch3","","null","<p class=block-text>Trial 48 out of 78</p>","null","pattern_show_trial_num","","","","","","","","","","","","","","","","","","","","","","","","",""
"","","","","","image-keyboard-response","124","267510","0.0-2.0-7.0-1.8","62d2aee15e1dc6709bdcace0","C3","batch3","","2033.4000000059605","stim/no_44_1.png","j","pattern_response","true","j","pattern_24","2033.4000000059605","true","42","","","","","","","","","","","","","","","","","","",""
"","","","","","html-keyboard-response","125","268837","0.0-2.0-7.0-0.9","62d2aee15e1dc6709bdcace0","C3","batch3","","null","<p class=block-text>Trial 49 out of 78</p>","null","pattern_show_trial_num","","","","","","","","","","","","","","","","","","","","","","","","",""
"","","","","","image-keyboard-response","126","271363","0.0-2.0-7.0-1.9","62d2aee15e1dc6709bdcace0","C3","batch3","","2521.7999999970198","stim/no_38_1_b.png","j","pattern_response","true","j","pattern_20","2521.7999999970198","true","43","","","","","","","","","","","","","","","","","","",""
"","","","","","html-keyboard-response","127","272687","0.0-2.0-7.0-0.10","62d2aee15e1dc6709bdcace0","C3","batch3","","null","<p class=block-text>Trial 50 out of 78</p>","null","pattern_show_trial_num","","","","","","","","","","","","","","","","","","","","","","","","",""
"","","","","","image-keyboard-response","128","275231","0.0-2.0-7.0-1.10","62d2aee15e1dc6709bdcace0","C3","batch3","","2538.800000011921","stim/no_52_1.png","j","pattern_response","true","j","pattern_32","2538.800000011921","true","44","","","","","","","","","","","","","","","","","","",""
"","","","","","html-keyboard-response","129","276553","0.0-2.0-7.0-0.11","62d2aee15e1dc6709bdcace0","C3","batch3","","null","<p class=block-text>Trial 51 out of 78</p>","null","pattern_show_trial_num","","","","","","","","","","","","","","","","","","","","","","","","",""
"","","","","","image-keyboard-response","130","279325","0.0-2.0-7.0-1.11","62d2aee15e1dc6709bdcace0","C3","batch3","","2767","stim/no_29_1_b.png","j","pattern_response","true","j","pattern_12","2767","true","45","","","","","","","","","","","","","","","","","","",""
"","","","","","html-keyboard-response","131","280652","0.0-2.0-7.0-0.12","62d2aee15e1dc6709bdcace0","C3","batch3","","null","<p class=block-text>Trial 52 out of 78</p>","null","pattern_show_trial_num","","","","","","","","","","","","","","","","","","","","","","","","",""
"","","","","","image-keyboard-response","132","282671","0.0-2.0-7.0-1.12","62d2aee15e1dc6709bdcace0","C3","batch3","","2013.5","stim/no_32_1_w.png","j","pattern_response","true","j","pattern_14","2013.5","true","46","","","","","","","","","","","","","","","","","","",""
"","","","","","html-keyboard-response","133","283984","0.0-2.0-7.0-0.13","62d2aee15e1dc6709bdcace0","C3","batch3","","null","<p class=block-text>Trial 53 out of 78</p>","null","pattern_show_trial_num","","","","","","","","","","","","","","","","","","","","","","","","",""
"","","","","","image-keyboard-response","134","288395","0.0-2.0-7.0-1.13","62d2aee15e1dc6709bdcace0","C3","batch3","","4405.79999999702","stim/no_70_2.png","j","pattern_response","true","j","pattern_40","4405.79999999702","true","47","","","","","","","","","","","","","","","","","","",""
"","","","","","html-keyboard-response","135","289716","0.0-2.0-7.0-0.14","62d2aee15e1dc6709bdcace0","C3","batch3","","null","<p class=block-text>Trial 54 out of 78</p>","null","pattern_show_trial_num","","","","","","","","","","","","","","","","","","","","","","","","",""
"","","","","","image-keyboard-response","136","290914","0.0-2.0-7.0-1.14","62d2aee15e1dc6709bdcace0","C3","batch3","","1192.0999999940395","stim/yes_60_ver_b1_b.png","f","pattern_response","true","f","pattern_77","1192.0999999940395","true","48","","","","","","","","","","","","","","","","","","",""
"","","","","","html-keyboard-response","137","292233","0.0-2.0-7.0-0.15","62d2aee15e1dc6709bdcace0","C3","batch3","","null","<p class=block-text>Trial 55 out of 78</p>","null","pattern_show_trial_num","","","","","","","","","","","","","","","","","","","","","","","","",""
"","","","","","image-keyboard-response","138","295331","0.0-2.0-7.0-1.15","62d2aee15e1dc6709bdcace0","C3","batch3","","3092.800000011921","stim/no_62_1_w.png","j","pattern_response","true","j","pattern_36","3092.800000011921","true","49","","","","","","","","","","","","","","","","","","",""
"","","","","","html-keyboard-response","139","296649","0.0-2.0-7.0-0.16","62d2aee15e1dc6709bdcace0","C3","batch3","","null","<p class=block-text>Trial 56 out of 78</p>","null","pattern_show_trial_num","","","","","","","","","","","","","","","","","","","","","","","","",""
"","","","","","image-keyboard-response","140","298033","0.0-2.0-7.0-1.16","62d2aee15e1dc6709bdcace0","C3","batch3","","1379.2000000029802","stim/yes_17_dia_w1.png","f","pattern_response","true","f","pattern_45","1379.2000000029802","true","50","","","","","","","","","","","","","","","","","","",""
"","","","","","html-keyboard-response","141","299348","0.0-2.0-7.0-0.17","62d2aee15e1dc6709bdcace0","C3","batch3","","null","<p class=block-text>Trial 57 out of 78</p>","null","pattern_show_trial_num","","","","","","","","","","","","","","","","","","","","","","","","",""
"","","","","","image-keyboard-response","142","302090","0.0-2.0-7.0-1.17","62d2aee15e1dc6709bdcace0","C3","batch3","","2737.7000000029802","stim/yes_67_hor_b1.png","f","pattern_response","true","f","pattern_79","2737.7000000029802","true","51","","","","","","","","","","","","","","","","","","",""
"","","","","","html-keyboard-response","143","303414","0.0-2.0-7.0-0.18","62d2aee15e1dc6709bdcace0","C3","batch3","","null","<p class=block-text>Trial 58 out of 78</p>","null","pattern_show_trial_num","","","","","","","","","","","","","","","","","","","","","","","","",""
"","","","","","image-keyboard-response","144","305638","0.0-2.0-7.0-1.18","62d2aee15e1dc6709bdcace0","C3","batch3","","2218.1000000089407","stim/no_42_1_w.png","j","pattern_response","true","j","pattern_22","2218.1000000089407","true","52","","","","","","","","","","","","","","","","","","",""
"","","","","","html-keyboard-response","145","306964","0.0-2.0-7.0-0.19","62d2aee15e1dc6709bdcace0","C3","batch3","","null","<p class=block-text>Trial 59 out of 78</p>","null","pattern_show_trial_num","","","","","","","","","","","","","","","","","","","","","","","","",""
"","","","","","image-keyboard-response","146","308943","0.0-2.0-7.0-1.19","62d2aee15e1dc6709bdcace0","C3","batch3","","1973.9000000059605","stim/yes_31_hor_b1.png","f","pattern_response","true","f","pattern_55","1973.9000000059605","true","53","","","","","","","","","","","","","","","","","","",""
"","","","","","html-keyboard-response","147","310264","0.0-2.0-7.0-0.20","62d2aee15e1dc6709bdcace0","C3","batch3","","null","<p class=block-text>Trial 60 out of 78</p>","null","pattern_show_trial_num","","","","","","","","","","","","","","","","","","","","","","","","",""
"","","","","","image-keyboard-response","148","311250","0.0-2.0-7.0-1.20","62d2aee15e1dc6709bdcace0","C3","batch3","","981.0999999940395","stim/yes_28_ver_b1.png","f","pattern_response","true","f","pattern_51","981.0999999940395","true","54","","","","","","","","","","","","","","","","","","",""
"","","","","","html-keyboard-response","149","312596","0.0-2.0-7.0-0.21","62d2aee15e1dc6709bdcace0","C3","batch3","","null","<p class=block-text>Trial 61 out of 78</p>","null","pattern_show_trial_num","","","","","","","","","","","","","","","","","","","","","","","","",""
"","","","","","image-keyboard-response","150","314058","0.0-2.0-7.0-1.21","62d2aee15e1dc6709bdcace0","C3","batch3","","1457.2999999970198","stim/yes_40_dia_b1_b.png","j","pattern_response","false","f","pattern_63","1457.2999999970198","false","54","","","","","","","","","","","","","","","","","","",""
"","","","","","html-keyboard-response","151","315378","0.0-2.0-7.0-0.22","62d2aee15e1dc6709bdcace0","C3","batch3","","null","<p class=block-text>Trial 62 out of 78</p>","null","pattern_show_trial_num","","","","","","","","","","","","","","","","","","","","","","","","",""
"","","","","","image-keyboard-response","152","316439","0.0-2.0-7.0-1.22","62d2aee15e1dc6709bdcace0","C3","batch3","","1056.699999988079","stim/yes_55_hor_w1_w.png","f","pattern_response","true","f","pattern_75","1056.699999988079","true","55","","","","","","","","","","","","","","","","","","",""
"","","","","","html-keyboard-response","153","317761","0.0-2.0-7.0-0.23","62d2aee15e1dc6709bdcace0","C3","batch3","","null","<p class=block-text>Trial 63 out of 78</p>","null","pattern_show_trial_num","","","","","","","","","","","","","","","","","","","","","","","","",""
"","","","","","image-keyboard-response","154","319631","0.0-2.0-7.0-1.23","62d2aee15e1dc6709bdcace0","C3","batch3","","1864.0999999940395","stim/yes_48_dia_w1_w.png","j","pattern_response","false","f","pattern_69","1864.0999999940395","false","55","","","","","","","","","","","","","","","","","","",""
"","","","","","html-keyboard-response","155","320961","0.0-2.0-7.0-0.24","62d2aee15e1dc6709bdcace0","C3","batch3","","null","<p class=block-text>Trial 64 out of 78</p>","null","pattern_show_trial_num","","","","","","","","","","","","","","","","","","","","","","","","",""
"","","","","","image-keyboard-response","156","324794","0.0-2.0-7.0-1.24","62d2aee15e1dc6709bdcace0","C3","batch3","","3828.8999999910593","stim/yes_50_dia_w1.png","j","pattern_response","false","f","pattern_71","3828.8999999910593","false","55","","","","","","","","","","","","","","","","","","",""
"","","","","","html-keyboard-response","157","326110","0.0-2.0-7.0-0.25","62d2aee15e1dc6709bdcace0","C3","batch3","","null","<p class=block-text>Trial 65 out of 78</p>","null","pattern_show_trial_num","","","","","","","","","","","","","","","","","","","","","","","","",""
"","","","","","image-keyboard-response","158","326995","0.0-2.0-7.0-1.25","62d2aee15e1dc6709bdcace0","C3","batch3","","879.0999999940395","stim/no_26_1_w.png","j","pattern_response","true","j","pattern_10","879.0999999940395","true","56","","","","","","","","","","","","","","","","","","",""
"","","","","","html-keyboard-response","159","328318","0.0-2.0-7.0-0.26","62d2aee15e1dc6709bdcace0","C3","batch3","","null","<p class=block-text>Trial 66 out of 78</p>","null","pattern_show_trial_num","","","","","","","","","","","","","","","","","","","","","","","","",""
"","","","","","image-keyboard-response","160","329800","0.0-2.0-7.0-1.26","62d2aee15e1dc6709bdcace0","C3","batch3","","1477.7000000029802","stim/yes_38_hor_b1_b.png","j","pattern_response","false","f","pattern_61","1477.7000000029802","false","56","","","","","","","","","","","","","","","","","","",""
"","","","","","html-keyboard-response","161","331125","0.0-2.0-7.0-0.27","62d2aee15e1dc6709bdcace0","C3","batch3","","null","<p class=block-text>Trial 67 out of 78</p>","null","pattern_show_trial_num","","","","","","","","","","","","","","","","","","","","","","","","",""
"","","","","","image-keyboard-response","162","332343","0.0-2.0-7.0-1.27","62d2aee15e1dc6709bdcace0","C3","batch3","","1213.5999999940395","stim/no_17_1_w.png","j","pattern_response","true","j","pattern_04","1213.5999999940395","true","57","","","","","","","","","","","","","","","","","","",""
"","","","","","html-keyboard-response","163","333659","0.0-2.0-7.0-0.28","62d2aee15e1dc6709bdcace0","C3","batch3","","null","<p class=block-text>Trial 68 out of 78</p>","null","pattern_show_trial_num","","","","","","","","","","","","","","","","","","","","","","","","",""
"","","","","","image-keyboard-response","164","335227","0.0-2.0-7.0-1.28","62d2aee15e1dc6709bdcace0","C3","batch3","","1562.6000000089407","stim/yes_45_hor_b2_b.png","f","pattern_response","true","f","pattern_67","1562.6000000089407","true","58","","","","","","","","","","","","","","","","","","",""
"","","","","","html-keyboard-response","165","336557","0.0-2.0-7.0-0.29","62d2aee15e1dc6709bdcace0","C3","batch3","","null","<p class=block-text>Trial 69 out of 78</p>","null","pattern_show_trial_num","","","","","","","","","","","","","","","","","","","","","","","","",""
"","","","","","image-keyboard-response","166","337366","0.0-2.0-7.0-1.29","62d2aee15e1dc6709bdcace0","C3","batch3","","804.8000000119209","stim/yes_14_hor_b1_w.png","f","pattern_response","true","f","pattern_43","804.8000000119209","true","59","","","","","","","","","","","","","","","","","","",""
"","","","","","html-keyboard-response","167","338691","0.0-2.0-7.0-0.30","62d2aee15e1dc6709bdcace0","C3","batch3","","null","<p class=block-text>Trial 70 out of 78</p>","null","pattern_show_trial_num","","","","","","","","","","","","","","","","","","","","","","","","",""
"","","","","","image-keyboard-response","168","339426","0.0-2.0-7.0-1.30","62d2aee15e1dc6709bdcace0","C3","batch3","","731.1000000089407","stim/no_13_2_b.png","j","pattern_response","true","j","pattern_02","731.1000000089407","true","60","","","","","","","","","","","","","","","","","","",""
"","","","","","html-keyboard-response","169","340757","0.0-2.0-7.0-0.31","62d2aee15e1dc6709bdcace0","C3","batch3","","null","<p class=block-text>Trial 71 out of 78</p>","null","pattern_show_trial_num","","","","","","","","","","","","","","","","","","","","","","","","",""
"","","","","","image-keyboard-response","170","343631","0.0-2.0-7.0-1.31","62d2aee15e1dc6709bdcace0","C3","batch3","","2869.6000000089407","stim/no_48_1_w.png","j","pattern_response","true","j","pattern_28","2869.6000000089407","true","61","","","","","","","","","","","","","","","","","","",""
"","","","","","html-keyboard-response","171","344956","0.0-2.0-7.0-0.32","62d2aee15e1dc6709bdcace0","C3","batch3","","null","<p class=block-text>Trial 72 out of 78</p>","null","pattern_show_trial_num","","","","","","","","","","","","","","","","","","","","","","","","",""
"","","","","","image-keyboard-response","172","345970","0.0-2.0-7.0-1.32","62d2aee15e1dc6709bdcace0","C3","batch3","","1007.3999999910593","stim/yes_25_hor_b1_b.png","f","pattern_response","true","f","pattern_49","1007.3999999910593","true","62","","","","","","","","","","","","","","","","","","",""
"","","","","","html-keyboard-response","173","347289","0.0-2.0-7.0-0.33","62d2aee15e1dc6709bdcace0","C3","batch3","","null","<p class=block-text>Trial 73 out of 78</p>","null","pattern_show_trial_num","","","","","","","","","","","","","","","","","","","","","","","","",""
"","","","","","image-keyboard-response","174","348493","0.0-2.0-7.0-1.33","62d2aee15e1dc6709bdcace0","C3","batch3","","1199.9000000059605","stim/no_23_1.png","j","pattern_response","true","j","pattern_08","1199.9000000059605","true","63","","","","","","","","","","","","","","","","","","",""
"","","","","","html-keyboard-response","175","349823","0.0-2.0-7.0-0.34","62d2aee15e1dc6709bdcace0","C3","batch3","","null","<p class=block-text>Trial 74 out of 78</p>","null","pattern_show_trial_num","","","","","","","","","","","","","","","","","","","","","","","","",""
"","","","","","image-keyboard-response","176","351779","0.0-2.0-7.0-1.34","62d2aee15e1dc6709bdcace0","C3","batch3","","1952.0999999940395","stim/yes_52_ver_w1.png","f","pattern_response","true","f","pattern_73","1952.0999999940395","true","64","","","","","","","","","","","","","","","","","","",""
"","","","","","html-keyboard-response","177","353104","0.0-2.0-7.0-0.35","62d2aee15e1dc6709bdcace0","C3","batch3","","null","<p class=block-text>Trial 75 out of 78</p>","null","pattern_show_trial_num","","","","","","","","","","","","","","","","","","","","","","","","",""
"","","","","","image-keyboard-response","178","355266","0.0-2.0-7.0-1.35","62d2aee15e1dc6709bdcace0","C3","batch3","","2157.3999999910593","stim/yes_35_dia_b1.png","f","pattern_response","true","f","pattern_57","2157.3999999910593","true","65","","","","","","","","","","","","","","","","","","",""
"","","","","","html-keyboard-response","179","356587","0.0-2.0-7.0-0.36","62d2aee15e1dc6709bdcace0","C3","batch3","","null","<p class=block-text>Trial 76 out of 78</p>","null","pattern_show_trial_num","","","","","","","","","","","","","","","","","","","","","","","","",""
"","","","","","image-keyboard-response","180","357522","0.0-2.0-7.0-1.36","62d2aee15e1dc6709bdcace0","C3","batch3","","928.8999999910593","stim/yes_22_ver_w1.png","f","pattern_response","true","f","pattern_47","928.8999999910593","true","66","","","","","","","","","","","","","","","","","","",""
"","","","","","html-keyboard-response","181","358837","0.0-2.0-7.0-0.37","62d2aee15e1dc6709bdcace0","C3","batch3","","null","<p class=block-text>Trial 77 out of 78</p>","null","pattern_show_trial_num","","","","","","","","","","","","","","","","","","","","","","","","",""
"","","","","","image-keyboard-response","182","361036","0.0-2.0-7.0-1.37","62d2aee15e1dc6709bdcace0","C3","batch3","","2195","stim/no_55_1_w.png","j","pattern_response","true","j","pattern_34","2195","true","67","","","","","","","","","","","","","","","","","","",""
"","","","","","html-keyboard-response","183","362354","0.0-2.0-7.0-0.38","62d2aee15e1dc6709bdcace0","C3","batch3","","null","<p class=block-text>Trial 78 out of 78</p>","null","pattern_show_trial_num","","","","","","","","","","","","","","","","","","","","","","","","",""
"","","","","","image-keyboard-response","184","366362","0.0-2.0-7.0-1.38","62d2aee15e1dc6709bdcace0","C3","batch3","","4003.5","stim/no_65_1_b.png","j","pattern_response","true","j","pattern_38","4003.5","true","68","","","","","","","","","","","","","","","","","","",""
"","","","","","html-button-response","185","384199","0.0-2.0-8.0","62d2aee15e1dc6709bdcace0","C3","batch3","","17325.5","<p class = block-text>This concludes the 4-in-a-row detection game.Thank you for your responses!<br>
            You responded correctly on 87% of the trials.<br>
            When you are ready, press ""Continue"" button to continue </p>","0","","","","","","","","","","","","","","","","","","","","","","","","","",""
"true","","","","","fullscreen","186","388500","0.0-3.0-0.0","62d2aee15e1dc6709bdcace0","C3","batch3","","","","","spm_fullscreen","","","","","","","","","","","","","","","","","","","","","","","","",""
"","","","","","html-button-response","187","404990","0.0-3.0-1.0","62d2aee15e1dc6709bdcace0","C3","batch3","","16486","<p class = block-text><b>Instructions</b> <br>This is a widely used intelligence test in research. <br>In this test, a figure with a missing piece will be presented.<br>Below the figure are alternative pieces to complete the figure, only one of which is correct.<br> Different figures might involve different principles for obtaining the missing piece<br>Your job is to select the most logical piece to complete the figure.</p>","0","","","","","","","","","","","","","","","","","","","","","","","","","",""
"","","","","","html-keyboard-response","188","405808","0.0-3.0-2.0-0.0","62d2aee15e1dc6709bdcace0","C3","batch3","","null","<p class=block-text>Trial 1 out of 60</p>","null","spm_show_trial_num","","","","","","","","","","","","","","","","","","","","","","","","",""
"","","","","","image-button-response","189","411253","0.0-3.0-2.0-1.0","62d2aee15e1dc6709bdcace0","C3","batch3","","5436.199999988079","img/question_1_1.jpeg","3","spm_respsonse","1","4","mat_01","","","","","","1","5436.199999988079","","","","","","","","","","","","","","",""
"","","","","","html-keyboard-response","190","412314","0.0-3.0-2.0-0.1","62d2aee15e1dc6709bdcace0","C3","batch3","","null","<p class=block-text>Trial 2 out of 60</p>","null","spm_show_trial_num","","","","","","","","","","","","","","","","","","","","","","","","",""
"","","","","","image-button-response","191","416627","0.0-3.0-2.0-1.1","62d2aee15e1dc6709bdcace0","C3","batch3","","4307.100000008941","img/question_1_2.jpeg","3","spm_respsonse","0","5","mat_02","","","","","","0","4307.100000008941","","","","","","","","","","","","","","",""
"","","","","","html-keyboard-response","192","417687","0.0-3.0-2.0-0.2","62d2aee15e1dc6709bdcace0","C3","batch3","","null","<p class=block-text>Trial 3 out of 60</p>","null","spm_show_trial_num","","","","","","","","","","","","","","","","","","","","","","","","",""
"","","","","","image-button-response","193","420452","0.0-3.0-2.0-1.2","62d2aee15e1dc6709bdcace0","C3","batch3","","2759.3999999910593","img/question_1_3.jpeg","0","spm_respsonse","1","1","mat_03","","","","","","1","2759.3999999910593","","","","","","","","","","","","","","",""
"","","","","","html-keyboard-response","194","421520","0.0-3.0-2.0-0.3","62d2aee15e1dc6709bdcace0","C3","batch3","","null","<p class=block-text>Trial 4 out of 60</p>","null","spm_show_trial_num","","","","","","","","","","","","","","","","","","","","","","","","",""
"","","","","","image-button-response","195","423592","0.0-3.0-2.0-1.3","62d2aee15e1dc6709bdcace0","C3","batch3","","2066.4000000059605","img/question_1_4.jpeg","1","spm_respsonse","1","2","mat_04","","","","","","1","2066.4000000059605","","","","","","","","","","","","","","",""
"","","","","","html-keyboard-response","196","424646","0.0-3.0-2.0-0.4","62d2aee15e1dc6709bdcace0","C3","batch3","","null","<p class=block-text>Trial 5 out of 60</p>","null","spm_show_trial_num","","","","","","","","","","","","","","","","","","","","","","","","",""
"","","","","","image-button-response","197","427161","0.0-3.0-2.0-1.4","62d2aee15e1dc6709bdcace0","C3","batch3","","2509.5","img/question_1_5.jpeg","5","spm_respsonse","1","6","mat_05","","","","","","1","2509.5","","","","","","","","","","","","","","",""
"","","","","","html-keyboard-response","198","428215","0.0-3.0-2.0-0.5","62d2aee15e1dc6709bdcace0","C3","batch3","","null","<p class=block-text>Trial 6 out of 60</p>","null","spm_show_trial_num","","","","","","","","","","","","","","","","","","","","","","","","",""
"","","","","","image-button-response","199","431153","0.0-3.0-2.0-1.5","62d2aee15e1dc6709bdcace0","C3","batch3","","2930.7000000029802","img/question_1_6.jpeg","2","spm_respsonse","1","3","mat_06","","","","","","1","2930.7000000029802","","","","","","","","","","","","","","",""
"","","","","","html-keyboard-response","200","432216","0.0-3.0-2.0-0.6","62d2aee15e1dc6709bdcace0","C3","batch3","","null","<p class=block-text>Trial 7 out of 60</p>","null","spm_show_trial_num","","","","","","","","","","","","","","","","","","","","","","","","",""
"","","","","","image-button-response","201","437157","0.0-3.0-2.0-1.6","62d2aee15e1dc6709bdcace0","C3","batch3","","4933.79999999702","img/question_1_7.jpeg","5","spm_respsonse","1","6","mat_07","","","","","","1","4933.79999999702","","","","","","","","","","","","","","",""
"","","","","","html-keyboard-response","202","438211","0.0-3.0-2.0-0.7","62d2aee15e1dc6709bdcace0","C3","batch3","","null","<p class=block-text>Trial 8 out of 60</p>","null","spm_show_trial_num","","","","","","","","","","","","","","","","","","","","","","","","",""
"","","","","","image-button-response","203","442379","0.0-3.0-2.0-1.7","62d2aee15e1dc6709bdcace0","C3","batch3","","4161.0999999940395","img/question_1_8.jpeg","1","spm_respsonse","1","2","mat_08","","","","","","1","4161.0999999940395","","","","","","","","","","","","","","",""
"","","","","","html-keyboard-response","204","443444","0.0-3.0-2.0-0.8","62d2aee15e1dc6709bdcace0","C3","batch3","","null","<p class=block-text>Trial 9 out of 60</p>","null","spm_show_trial_num","","","","","","","","","","","","","","","","","","","","","","","","",""
"","","","","","image-button-response","205","447760","0.0-3.0-2.0-1.8","62d2aee15e1dc6709bdcace0","C3","batch3","","4309.5999999940395","img/question_1_9.jpeg","0","spm_respsonse","1","1","mat_09","","","","","","1","4309.5999999940395","","","","","","","","","","","","","","",""
"","","","","","html-keyboard-response","206","448837","0.0-3.0-2.0-0.9","62d2aee15e1dc6709bdcace0","C3","batch3","","null","<p class=block-text>Trial 10 out of 60</p>","null","spm_show_trial_num","","","","","","","","","","","","","","","","","","","","","","","","",""
"","","","","","image-button-response","207","454025","0.0-3.0-2.0-1.9","62d2aee15e1dc6709bdcace0","C3","batch3","","5182.399999991059","img/question_1_10.jpeg","2","spm_respsonse","1","3","mat_10","","","","","","1","5182.399999991059","","","","","","","","","","","","","","",""
"","","","","","html-keyboard-response","208","455083","0.0-3.0-2.0-0.10","62d2aee15e1dc6709bdcace0","C3","batch3","","null","<p class=block-text>Trial 11 out of 60</p>","null","spm_show_trial_num","","","","","","","","","","","","","","","","","","","","","","","","",""
"","","","","","image-button-response","209","461495","0.0-3.0-2.0-1.10","62d2aee15e1dc6709bdcace0","C3","batch3","","6405.70000000298","img/question_1_11.jpeg","0","spm_respsonse","0","4","mat_11","","","","","","0","6405.70000000298","","","","","","","","","","","","","","",""
"","","","","","html-keyboard-response","210","462558","0.0-3.0-2.0-0.11","62d2aee15e1dc6709bdcace0","C3","batch3","","null","<p class=block-text>Trial 12 out of 60</p>","null","spm_show_trial_num","","","","","","","","","","","","","","","","","","","","","","","","",""
"","","","","","image-button-response","211","476140","0.0-3.0-2.0-1.11","62d2aee15e1dc6709bdcace0","C3","batch3","","13575.90000000596","img/question_1_12.jpeg","0","spm_respsonse","0","5","mat_12","","","","","","0","13575.90000000596","","","","","","","","","","","","","","",""
"","","","","","html-keyboard-response","212","477194","0.0-3.0-2.0-0.12","62d2aee15e1dc6709bdcace0","C3","batch3","","null","<p class=block-text>Trial 13 out of 60</p>","null","spm_show_trial_num","","","","","","","","","","","","","","","","","","","","","","","","",""
"","","","","","image-button-response","213","479911","0.0-3.0-2.0-1.12","62d2aee15e1dc6709bdcace0","C3","batch3","","2713.3999999910593","img/question_2_1.jpeg","1","spm_respsonse","1","2","mat_13","","","","","","1","2713.3999999910593","","","","","","","","","","","","","","",""
"","","","","","html-keyboard-response","214","480967","0.0-3.0-2.0-0.13","62d2aee15e1dc6709bdcace0","C3","batch3","","null","<p class=block-text>Trial 14 out of 60</p>","null","spm_show_trial_num","","","","","","","","","","","","","","","","","","","","","","","","",""
"","","","","","image-button-response","215","483493","0.0-3.0-2.0-1.13","62d2aee15e1dc6709bdcace0","C3","batch3","","2519.7999999970198","img/question_2_2.jpeg","5","spm_respsonse","1","6","mat_14","","","","","","1","2519.7999999970198","","","","","","","","","","","","","","",""
"","","","","","html-keyboard-response","216","484558","0.0-3.0-2.0-0.14","62d2aee15e1dc6709bdcace0","C3","batch3","","null","<p class=block-text>Trial 15 out of 60</p>","null","spm_show_trial_num","","","","","","","","","","","","","","","","","","","","","","","","",""
"","","","","","image-button-response","217","487272","0.0-3.0-2.0-1.14","62d2aee15e1dc6709bdcace0","C3","batch3","","2708.2000000029802","img/question_2_3.jpeg","0","spm_respsonse","1","1","mat_15","","","","","","1","2708.2000000029802","","","","","","","","","","","","","","",""
"","","","","","html-keyboard-response","218","488340","0.0-3.0-2.0-0.15","62d2aee15e1dc6709bdcace0","C3","batch3","","null","<p class=block-text>Trial 16 out of 60</p>","null","spm_show_trial_num","","","","","","","","","","","","","","","","","","","","","","","","",""
"","","","","","image-button-response","219","490770","0.0-3.0-2.0-1.15","62d2aee15e1dc6709bdcace0","C3","batch3","","2425.2999999970198","img/question_2_4.jpeg","1","spm_respsonse","1","2","mat_16","","","","","","1","2425.2999999970198","","","","","","","","","","","","","","",""
"","","","","","html-keyboard-response","220","491824","0.0-3.0-2.0-0.16","62d2aee15e1dc6709bdcace0","C3","batch3","","null","<p class=block-text>Trial 17 out of 60</p>","null","spm_show_trial_num","","","","","","","","","","","","","","","","","","","","","","","","",""
"","","","","","image-button-response","221","495266","0.0-3.0-2.0-1.16","62d2aee15e1dc6709bdcace0","C3","batch3","","3434.2000000029802","img/question_2_5.jpeg","0","spm_respsonse","1","1","mat_17","","","","","","1","3434.2000000029802","","","","","","","","","","","","","","",""
"","","","","","html-keyboard-response","222","496336","0.0-3.0-2.0-0.17","62d2aee15e1dc6709bdcace0","C3","batch3","","null","<p class=block-text>Trial 18 out of 60</p>","null","spm_show_trial_num","","","","","","","","","","","","","","","","","","","","","","","","",""
"","","","","","image-button-response","223","503114","0.0-3.0-2.0-1.17","62d2aee15e1dc6709bdcace0","C3","batch3","","6771.9000000059605","img/question_2_6.jpeg","2","spm_respsonse","1","3","mat_18","","","","","","1","6771.9000000059605","","","","","","","","","","","","","","",""
"","","","","","html-keyboard-response","224","504193","0.0-3.0-2.0-0.18","62d2aee15e1dc6709bdcace0","C3","batch3","","null","<p class=block-text>Trial 19 out of 60</p>","null","spm_show_trial_num","","","","","","","","","","","","","","","","","","","","","","","","",""
"","","","","","image-button-response","225","509825","0.0-3.0-2.0-1.18","62d2aee15e1dc6709bdcace0","C3","batch3","","5625.899999991059","img/question_2_7.jpeg","0","spm_respsonse","0","5","mat_19","","","","","","0","5625.899999991059","","","","","","","","","","","","","","",""
"","","","","","html-keyboard-response","226","510887","0.0-3.0-2.0-0.19","62d2aee15e1dc6709bdcace0","C3","batch3","","null","<p class=block-text>Trial 20 out of 60</p>","null","spm_show_trial_num","","","","","","","","","","","","","","","","","","","","","","","","",""
"","","","","","image-button-response","227","515298","0.0-3.0-2.0-1.19","62d2aee15e1dc6709bdcace0","C3","batch3","","4404.899999991059","img/question_2_8.jpeg","2","spm_respsonse","0","6","mat_20","","","","","","0","4404.899999991059","","","","","","","","","","","","","","",""
"","","","","","html-keyboard-response","228","516369","0.0-3.0-2.0-0.20","62d2aee15e1dc6709bdcace0","C3","batch3","","null","<p class=block-text>Trial 21 out of 60</p>","null","spm_show_trial_num","","","","","","","","","","","","","","","","","","","","","","","","",""
"","","","","","image-button-response","229","520526","0.0-3.0-2.0-1.20","62d2aee15e1dc6709bdcace0","C3","batch3","","4150.70000000298","img/question_2_9.jpeg","3","spm_respsonse","1","4","mat_21","","","","","","1","4150.70000000298","","","","","","","","","","","","","","",""
"","","","","","html-keyboard-response","230","521580","0.0-3.0-2.0-0.21","62d2aee15e1dc6709bdcace0","C3","batch3","","null","<p class=block-text>Trial 22 out of 60</p>","null","spm_show_trial_num","","","","","","","","","","","","","","","","","","","","","","","","",""
"","","","","","image-button-response","231","526289","0.0-3.0-2.0-1.21","62d2aee15e1dc6709bdcace0","C3","batch3","","4702.0999999940395","img/question_2_10.jpeg","2","spm_respsonse","1","3","mat_22","","","","","","1","4702.0999999940395","","","","","","","","","","","","","","",""
"","","","","","html-keyboard-response","232","527350","0.0-3.0-2.0-0.22","62d2aee15e1dc6709bdcace0","C3","batch3","","null","<p class=block-text>Trial 23 out of 60</p>","null","spm_show_trial_num","","","","","","","","","","","","","","","","","","","","","","","","",""
"","","","","","image-button-response","233","531086","0.0-3.0-2.0-1.22","62d2aee15e1dc6709bdcace0","C3","batch3","","3730","img/question_2_11.jpeg","3","spm_respsonse","1","4","mat_23","","","","","","1","3730","","","","","","","","","","","","","","",""
"","","","","","html-keyboard-response","234","532153","0.0-3.0-2.0-0.23","62d2aee15e1dc6709bdcace0","C3","batch3","","null","<p class=block-text>Trial 24 out of 60</p>","null","spm_show_trial_num","","","","","","","","","","","","","","","","","","","","","","","","",""
"","","","","","image-button-response","235","550230","0.0-3.0-2.0-1.23","62d2aee15e1dc6709bdcace0","C3","batch3","","18070.20000000298","img/question_2_12.jpeg","4","spm_respsonse","1","5","mat_24","","","","","","1","18070.20000000298","","","","","","","","","","","","","","",""
"","","","","","html-button-response","236","552380","0.0-3.0-3.0","62d2aee15e1dc6709bdcace0","C3","batch3","","1893.7999999970198","<p class = block-text>Attention check: Please choose 1<br></p>","0","attention_check","true","","","","","","","","","","","","","","","","","","","","","","","",""
"","","","","","html-keyboard-response","237","553189","0.0-3.0-4.0-0.0","62d2aee15e1dc6709bdcace0","C3","batch3","","null","<p class=block-text>Trial 25 out of 60</p>","null","spm_show_trial_num","","","","","","","","","","","","","","","","","","","","","","","","",""
"","","","","","image-button-response","238","558528","0.0-3.0-4.0-1.0","62d2aee15e1dc6709bdcace0","C3","batch3","","5332.20000000298","img/question_3_1.jpeg","7","spm_respsonse","1","8","mat_25","","","","","","1","5332.20000000298","","","","","","","","","","","","","","",""
"","","","","","html-keyboard-response","239","559583","0.0-3.0-4.0-0.1","62d2aee15e1dc6709bdcace0","C3","batch3","","null","<p class=block-text>Trial 26 out of 60</p>","null","spm_show_trial_num","","","","","","","","","","","","","","","","","","","","","","","","",""
"","","","","","image-button-response","240","566886","0.0-3.0-4.0-1.1","62d2aee15e1dc6709bdcace0","C3","batch3","","7296.0999999940395","img/question_3_2.jpeg","1","spm_respsonse","1","2","mat_26","","","","","","1","7296.0999999940395","","","","","","","","","","","","","","",""
"","","","","","html-keyboard-response","241","567956","0.0-3.0-4.0-0.2","62d2aee15e1dc6709bdcace0","C3","batch3","","null","<p class=block-text>Trial 27 out of 60</p>","null","spm_show_trial_num","","","","","","","","","","","","","","","","","","","","","","","","",""
"","","","","","image-button-response","242","588607","0.0-3.0-4.0-1.2","62d2aee15e1dc6709bdcace0","C3","batch3","","20643.90000000596","img/question_3_3.jpeg","6","spm_respsonse","0","3","mat_27","","","","","","0","20643.90000000596","","","","","","","","","","","","","","",""
"","","","","","html-keyboard-response","243","589672","0.0-3.0-4.0-0.3","62d2aee15e1dc6709bdcace0","C3","batch3","","null","<p class=block-text>Trial 28 out of 60</p>","null","spm_show_trial_num","","","","","","","","","","","","","","","","","","","","","","","","",""
"","","","","","image-button-response","244","595562","0.0-3.0-4.0-1.3","62d2aee15e1dc6709bdcace0","C3","batch3","","5881.5","img/question_3_4.jpeg","7","spm_respsonse","1","8","mat_28","","","","","","1","5881.5","","","","","","","","","","","","","","",""
"","","","","","html-keyboard-response","245","596623","0.0-3.0-4.0-0.4","62d2aee15e1dc6709bdcace0","C3","batch3","","null","<p class=block-text>Trial 29 out of 60</p>","null","spm_show_trial_num","","","","","","","","","","","","","","","","","","","","","","","","",""
"","","","","","image-button-response","246","602052","0.0-3.0-4.0-1.4","62d2aee15e1dc6709bdcace0","C3","batch3","","5423.199999988079","img/question_3_5.jpeg","0","spm_respsonse","0","7","mat_29","","","","","","0","5423.199999988079","","","","","","","","","","","","","","",""
"","","","","","html-keyboard-response","247","603116","0.0-3.0-4.0-0.5","62d2aee15e1dc6709bdcace0","C3","batch3","","null","<p class=block-text>Trial 30 out of 60</p>","null","spm_show_trial_num","","","","","","","","","","","","","","","","","","","","","","","","",""
"","","","","","image-button-response","248","616853","0.0-3.0-4.0-1.5","62d2aee15e1dc6709bdcace0","C3","batch3","","13728.39999999106","img/question_3_6.jpeg","7","spm_respsonse","0","4","mat_30","","","","","","0","13728.39999999106","","","","","","","","","","","","","","",""
"","","","","","html-keyboard-response","249","617921","0.0-3.0-4.0-0.6","62d2aee15e1dc6709bdcace0","C3","batch3","","null","<p class=block-text>Trial 31 out of 60</p>","null","spm_show_trial_num","","","","","","","","","","","","","","","","","","","","","","","","",""
"","","","","","image-button-response","250","628595","0.0-3.0-4.0-1.6","62d2aee15e1dc6709bdcace0","C3","batch3","","10669.89999999106","img/question_3_7.jpeg","1","spm_respsonse","0","5","mat_31","","","","","","0","10669.89999999106","","","","","","","","","","","","","","",""
"","","","","","html-keyboard-response","251","629653","0.0-3.0-4.0-0.7","62d2aee15e1dc6709bdcace0","C3","batch3","","null","<p class=block-text>Trial 32 out of 60</p>","null","spm_show_trial_num","","","","","","","","","","","","","","","","","","","","","","","","",""
"","","","","","image-button-response","252","635852","0.0-3.0-4.0-1.7","62d2aee15e1dc6709bdcace0","C3","batch3","","6192.79999999702","img/question_3_8.jpeg","6","spm_respsonse","0","1","mat_32","","","","","","0","6192.79999999702","","","","","","","","","","","","","","",""
"","","","","","html-keyboard-response","253","636907","0.0-3.0-4.0-0.8","62d2aee15e1dc6709bdcace0","C3","batch3","","null","<p class=block-text>Trial 33 out of 60</p>","null","spm_show_trial_num","","","","","","","","","","","","","","","","","","","","","","","","",""
"","","","","","image-button-response","254","641500","0.0-3.0-4.0-1.8","62d2aee15e1dc6709bdcace0","C3","batch3","","4586.399999991059","img/question_3_9.jpeg","0","spm_respsonse","0","7","mat_33","","","","","","0","4586.399999991059","","","","","","","","","","","","","","",""
"","","","","","html-keyboard-response","255","642565","0.0-3.0-4.0-0.9","62d2aee15e1dc6709bdcace0","C3","batch3","","null","<p class=block-text>Trial 34 out of 60</p>","null","spm_show_trial_num","","","","","","","","","","","","","","","","","","","","","","","","",""
"","","","","","image-button-response","256","648336","0.0-3.0-4.0-1.9","62d2aee15e1dc6709bdcace0","C3","batch3","","5764.399999991059","img/question_3_10.jpeg","5","spm_respsonse","1","6","mat_34","","","","","","1","5764.399999991059","","","","","","","","","","","","","","",""
"","","","","","html-keyboard-response","257","649403","0.0-3.0-4.0-0.10","62d2aee15e1dc6709bdcace0","C3","batch3","","null","<p class=block-text>Trial 35 out of 60</p>","null","spm_show_trial_num","","","","","","","","","","","","","","","","","","","","","","","","",""
"","","","","","image-button-response","258","661847","0.0-3.0-4.0-1.10","62d2aee15e1dc6709bdcace0","C3","batch3","","12436.5","img/question_3_11.jpeg","6","spm_respsonse","0","1","mat_35","","","","","","0","12436.5","","","","","","","","","","","","","","",""
"","","","","","html-keyboard-response","259","662901","0.0-3.0-4.0-0.11","62d2aee15e1dc6709bdcace0","C3","batch3","","null","<p class=block-text>Trial 36 out of 60</p>","null","spm_show_trial_num","","","","","","","","","","","","","","","","","","","","","","","","",""
"","","","","","image-button-response","260","666952","0.0-3.0-4.0-1.11","62d2aee15e1dc6709bdcace0","C3","batch3","","4044.7000000029802","img/question_3_12.jpeg","7","spm_respsonse","0","2","mat_36","","","","","","0","4044.7000000029802","","","","","","","","","","","","","","",""
"","","","","","html-keyboard-response","261","668006","0.0-3.0-4.0-0.12","62d2aee15e1dc6709bdcace0","C3","batch3","","null","<p class=block-text>Trial 37 out of 60</p>","null","spm_show_trial_num","","","","","","","","","","","","","","","","","","","","","","","","",""
"","","","","","image-button-response","262","671011","0.0-3.0-4.0-1.12","62d2aee15e1dc6709bdcace0","C3","batch3","","2996.6000000089407","img/question_4_1.jpeg","2","spm_respsonse","1","3","mat_37","","","","","","1","2996.6000000089407","","","","","","","","","","","","","","",""
"","","","","","html-keyboard-response","263","672076","0.0-3.0-4.0-0.13","62d2aee15e1dc6709bdcace0","C3","batch3","","null","<p class=block-text>Trial 38 out of 60</p>","null","spm_show_trial_num","","","","","","","","","","","","","","","","","","","","","","","","",""
"","","","","","image-button-response","264","675477","0.0-3.0-4.0-1.13","62d2aee15e1dc6709bdcace0","C3","batch3","","3394.7000000029802","img/question_4_2.jpeg","3","spm_respsonse","1","4","mat_38","","","","","","1","3394.7000000029802","","","","","","","","","","","","","","",""
"","","","","","html-keyboard-response","265","676544","0.0-3.0-4.0-0.14","62d2aee15e1dc6709bdcace0","C3","batch3","","null","<p class=block-text>Trial 39 out of 60</p>","null","spm_show_trial_num","","","","","","","","","","","","","","","","","","","","","","","","",""
"","","","","","image-button-response","266","680875","0.0-3.0-4.0-1.14","62d2aee15e1dc6709bdcace0","C3","batch3","","4325.4000000059605","img/question_4_3.jpeg","2","spm_respsonse","1","3","mat_39","","","","","","1","4325.4000000059605","","","","","","","","","","","","","","",""
"","","","","","html-keyboard-response","267","681941","0.0-3.0-4.0-0.15","62d2aee15e1dc6709bdcace0","C3","batch3","","null","<p class=block-text>Trial 40 out of 60</p>","null","spm_show_trial_num","","","","","","","","","","","","","","","","","","","","","","","","",""
"","","","","","image-button-response","268","687562","0.0-3.0-4.0-1.15","62d2aee15e1dc6709bdcace0","C3","batch3","","5614.600000008941","img/question_4_4.jpeg","6","spm_respsonse","1","7","mat_40","","","","","","1","5614.600000008941","","","","","","","","","","","","","","",""
"","","","","","html-keyboard-response","269","688624","0.0-3.0-4.0-0.16","62d2aee15e1dc6709bdcace0","C3","batch3","","null","<p class=block-text>Trial 41 out of 60</p>","null","spm_show_trial_num","","","","","","","","","","","","","","","","","","","","","","","","",""
"","","","","","image-button-response","270","698640","0.0-3.0-4.0-1.16","62d2aee15e1dc6709bdcace0","C3","batch3","","10009.59999999404","img/question_4_5.jpeg","7","spm_respsonse","1","8","mat_41","","","","","","1","10009.59999999404","","","","","","","","","","","","","","",""
"","","","","","html-keyboard-response","271","699702","0.0-3.0-4.0-0.17","62d2aee15e1dc6709bdcace0","C3","batch3","","null","<p class=block-text>Trial 42 out of 60</p>","null","spm_show_trial_num","","","","","","","","","","","","","","","","","","","","","","","","",""
"","","","","","image-button-response","272","711225","0.0-3.0-4.0-1.17","62d2aee15e1dc6709bdcace0","C3","batch3","","11516.5","img/question_4_6.jpeg","6","spm_respsonse","0","6","mat_42","","","","","","0","11516.5","","","","","","","","","","","","","","",""
"","","","","","html-keyboard-response","273","712292","0.0-3.0-4.0-0.18","62d2aee15e1dc6709bdcace0","C3","batch3","","null","<p class=block-text>Trial 43 out of 60</p>","null","spm_show_trial_num","","","","","","","","","","","","","","","","","","","","","","","","",""
"","","","","","image-button-response","274","719019","0.0-3.0-4.0-1.18","62d2aee15e1dc6709bdcace0","C3","batch3","","6720","img/question_4_7.jpeg","7","spm_respsonse","0","5","mat_43","","","","","","0","6720","","","","","","","","","","","","","","",""
"","","","","","html-keyboard-response","275","720082","0.0-3.0-4.0-0.19","62d2aee15e1dc6709bdcace0","C3","batch3","","null","<p class=block-text>Trial 44 out of 60</p>","null","spm_show_trial_num","","","","","","","","","","","","","","","","","","","","","","","","",""
"","","","","","image-button-response","276","734902","0.0-3.0-4.0-1.19","62d2aee15e1dc6709bdcace0","C3","batch3","","14813.39999999106","img/question_4_8.jpeg","1","spm_respsonse","0","4","mat_44","","","","","","0","14813.39999999106","","","","","","","","","","","","","","",""
"","","","","","html-keyboard-response","277","735971","0.0-3.0-4.0-0.20","62d2aee15e1dc6709bdcace0","C3","batch3","","null","<p class=block-text>Trial 45 out of 60</p>","null","spm_show_trial_num","","","","","","","","","","","","","","","","","","","","","","","","",""
"","","","","","image-button-response","278","739532","0.0-3.0-4.0-1.20","62d2aee15e1dc6709bdcace0","C3","batch3","","3553.2000000029802","img/question_4_9.jpeg","6","spm_respsonse","0","1","mat_45","","","","","","0","3553.2000000029802","","","","","","","","","","","","","","",""
"","","","","","html-keyboard-response","279","740590","0.0-3.0-4.0-0.21","62d2aee15e1dc6709bdcace0","C3","batch3","","null","<p class=block-text>Trial 46 out of 60</p>","null","spm_show_trial_num","","","","","","","","","","","","","","","","","","","","","","","","",""
"","","","","","image-button-response","280","757493","0.0-3.0-4.0-1.21","62d2aee15e1dc6709bdcace0","C3","batch3","","16894.5","img/question_4_10.jpeg","4","spm_respsonse","0","2","mat_46","","","","","","0","16894.5","","","","","","","","","","","","","","",""
"","","","","","html-keyboard-response","281","758562","0.0-3.0-4.0-0.22","62d2aee15e1dc6709bdcace0","C3","batch3","","null","<p class=block-text>Trial 47 out of 60</p>","null","spm_show_trial_num","","","","","","","","","","","","","","","","","","","","","","","","",""
"","","","","","image-button-response","282","769684","0.0-3.0-4.0-1.22","62d2aee15e1dc6709bdcace0","C3","batch3","","11116.20000000298","img/question_4_11.jpeg","1","spm_respsonse","0","5","mat_47","","","","","","0","11116.20000000298","","","","","","","","","","","","","","",""
"","","","","","html-keyboard-response","283","770739","0.0-3.0-4.0-0.23","62d2aee15e1dc6709bdcace0","C3","batch3","","null","<p class=block-text>Trial 48 out of 60</p>","null","spm_show_trial_num","","","","","","","","","","","","","","","","","","","","","","","","",""
"","","","","","image-button-response","284","779349","0.0-3.0-4.0-1.23","62d2aee15e1dc6709bdcace0","C3","batch3","","8602.59999999404","img/question_4_12.jpeg","6","spm_respsonse","0","6","mat_48","","","","","","0","8602.59999999404","","","","","","","","","","","","","","",""
"","","","","","html-keyboard-response","285","780410","0.0-3.0-4.0-0.24","62d2aee15e1dc6709bdcace0","C3","batch3","","null","<p class=block-text>Trial 49 out of 60</p>","null","spm_show_trial_num","","","","","","","","","","","","","","","","","","","","","","","","",""
"","","","","","image-button-response","286","784036","0.0-3.0-4.0-1.24","62d2aee15e1dc6709bdcace0","C3","batch3","","3619.7999999970198","img/question_5_1.jpeg","6","spm_respsonse","1","7","mat_49","","","","","","1","3619.7999999970198","","","","","","","","","","","","","","",""
"","","","","","html-keyboard-response","287","785092","0.0-3.0-4.0-0.25","62d2aee15e1dc6709bdcace0","C3","batch3","","null","<p class=block-text>Trial 50 out of 60</p>","null","spm_show_trial_num","","","","","","","","","","","","","","","","","","","","","","","","",""
"","","","","","image-button-response","288","795633","0.0-3.0-4.0-1.25","62d2aee15e1dc6709bdcace0","C3","batch3","","10535.70000000298","img/question_5_2.jpeg","5","spm_respsonse","1","6","mat_50","","","","","","1","10535.70000000298","","","","","","","","","","","","","","",""
"","","","","","html-keyboard-response","289","796703","0.0-3.0-4.0-0.26","62d2aee15e1dc6709bdcace0","C3","batch3","","null","<p class=block-text>Trial 51 out of 60</p>","null","spm_show_trial_num","","","","","","","","","","","","","","","","","","","","","","","","",""
"","","","","","image-button-response","290","802509","0.0-3.0-4.0-1.26","62d2aee15e1dc6709bdcace0","C3","batch3","","5799.70000000298","img/question_5_3.jpeg","7","spm_respsonse","1","8","mat_51","","","","","","1","5799.70000000298","","","","","","","","","","","","","","",""
"","","","","","html-keyboard-response","291","803571","0.0-3.0-4.0-0.27","62d2aee15e1dc6709bdcace0","C3","batch3","","null","<p class=block-text>Trial 52 out of 60</p>","null","spm_show_trial_num","","","","","","","","","","","","","","","","","","","","","","","","",""
"","","","","","image-button-response","292","805597","0.0-3.0-4.0-1.27","62d2aee15e1dc6709bdcace0","C3","batch3","","2020.2999999970198","img/question_5_4.jpeg","3","spm_respsonse","0","2","mat_52","","","","","","0","2020.2999999970198","","","","","","","","","","","","","","",""
"","","","","","html-keyboard-response","293","806663","0.0-3.0-4.0-0.28","62d2aee15e1dc6709bdcace0","C3","batch3","","null","<p class=block-text>Trial 53 out of 60</p>","null","spm_show_trial_num","","","","","","","","","","","","","","","","","","","","","","","","",""
"","","","","","image-button-response","294","818614","0.0-3.0-4.0-1.28","62d2aee15e1dc6709bdcace0","C3","batch3","","11943.40000000596","img/question_5_5.jpeg","3","spm_respsonse","0","1","mat_53","","","","","","0","11943.40000000596","","","","","","","","","","","","","","",""
"","","","","","html-keyboard-response","295","819688","0.0-3.0-4.0-0.29","62d2aee15e1dc6709bdcace0","C3","batch3","","null","<p class=block-text>Trial 54 out of 60</p>","null","spm_show_trial_num","","","","","","","","","","","","","","","","","","","","","","","","",""
"","","","","","image-button-response","296","825755","0.0-3.0-4.0-1.29","62d2aee15e1dc6709bdcace0","C3","batch3","","6060.5999999940395","img/question_5_6.jpeg","6","spm_respsonse","0","5","mat_54","","","","","","0","6060.5999999940395","","","","","","","","","","","","","","",""
"","","","","","html-keyboard-response","297","826823","0.0-3.0-4.0-0.30","62d2aee15e1dc6709bdcace0","C3","batch3","","null","<p class=block-text>Trial 55 out of 60</p>","null","spm_show_trial_num","","","","","","","","","","","","","","","","","","","","","","","","",""
"","","","","","image-button-response","298","830117","0.0-3.0-4.0-1.30","62d2aee15e1dc6709bdcace0","C3","batch3","","3287.5999999940395","img/question_5_7.jpeg","2","spm_respsonse","0","1","mat_55","","","","","","0","3287.5999999940395","","","","","","","","","","","","","","",""
"","","","","","html-keyboard-response","299","831177","0.0-3.0-4.0-0.31","62d2aee15e1dc6709bdcace0","C3","batch3","","null","<p class=block-text>Trial 56 out of 60</p>","null","spm_show_trial_num","","","","","","","","","","","","","","","","","","","","","","","","",""
"","","","","","image-button-response","300","838467","0.0-3.0-4.0-1.31","62d2aee15e1dc6709bdcace0","C3","batch3","","7283.5","img/question_5_8.jpeg","6","spm_respsonse","0","6","mat_56","","","","","","0","7283.5","","","","","","","","","","","","","","",""
"","","","","","html-keyboard-response","301","839549","0.0-3.0-4.0-0.32","62d2aee15e1dc6709bdcace0","C3","batch3","","null","<p class=block-text>Trial 57 out of 60</p>","null","spm_show_trial_num","","","","","","","","","","","","","","","","","","","","","","","","",""
"","","","","","image-button-response","302","846549","0.0-3.0-4.0-1.32","62d2aee15e1dc6709bdcace0","C3","batch3","","6993.70000000298","img/question_5_9.jpeg","2","spm_respsonse","1","3","mat_57","","","","","","1","6993.70000000298","","","","","","","","","","","","","","",""
"","","","","","html-keyboard-response","303","847604","0.0-3.0-4.0-0.33","62d2aee15e1dc6709bdcace0","C3","batch3","","null","<p class=block-text>Trial 58 out of 60</p>","null","spm_show_trial_num","","","","","","","","","","","","","","","","","","","","","","","","",""
"","","","","","image-button-response","304","853067","0.0-3.0-4.0-1.33","62d2aee15e1dc6709bdcace0","C3","batch3","","5456","img/question_5_10.jpeg","5","spm_respsonse","0","2","mat_58","","","","","","0","5456","","","","","","","","","","","","","","",""
"","","","","","html-keyboard-response","305","854126","0.0-3.0-4.0-0.34","62d2aee15e1dc6709bdcace0","C3","batch3","","null","<p class=block-text>Trial 59 out of 60</p>","null","spm_show_trial_num","","","","","","","","","","","","","","","","","","","","","","","","",""
"","","","","","image-button-response","306","860536","0.0-3.0-4.0-1.34","62d2aee15e1dc6709bdcace0","C3","batch3","","6405.4000000059605","img/question_5_11.jpeg","6","spm_respsonse","0","4","mat_59","","","","","","0","6405.4000000059605","","","","","","","","","","","","","","",""
"","","","","","html-keyboard-response","307","861603","0.0-3.0-4.0-0.35","62d2aee15e1dc6709bdcace0","C3","batch3","","null","<p class=block-text>Trial 60 out of 60</p>","null","spm_show_trial_num","","","","","","","","","","","","","","","","","","","","","","","","",""
"","","","","","image-button-response","308","868452","0.0-3.0-4.0-1.35","62d2aee15e1dc6709bdcace0","C3","batch3","","6842.70000000298","img/question_5_12.jpeg","0","spm_respsonse","0","5","mat_60","","","","","","0","6842.70000000298","","","","","","","","","","","","","","",""
"","","","","","html-button-response","309","870939","0.0-3.0-5.0","62d2aee15e1dc6709bdcace0","C3","batch3","","2232.7000000029802","<p class= block-text>This concludes the Standard Progressive Matrix game. Thank you for your responses!<br> When you are ready, click the button continue</p>","0","spm_goodbye","","","","","","","","","","","","","","","","","","","","","","","","",""
"true","","","","","fullscreen","310","888323","0.0-4.0-0.0","62d2aee15e1dc6709bdcace0","C3","batch3","","","","","","","","","","","","","","","","","","","","","","","","","","","","","",""
"","","","","","instructions","311","958338","0.0-4.0-1.0-0.0-0.0","62d2aee15e1dc6709bdcace0","C3","batch3","[{""page_index"":0,""viewing_time"":15310},{""page_index"":1,""viewing_time"":8875.70000000298},{""page_index"":2,""viewing_time"":5346.20000000298},{""page_index"":3,""viewing_time"":14403.89999999106},{""page_index"":4,""viewing_time"":6214.4000000059605},{""page_index"":5,""viewing_time"":14109.20000000298},{""page_index"":6,""viewing_time"":5751.70000000298}]","70011.79999999702","","","tol-instructions","","","","","","","","","","","","","","","","","","","","","","","","",""
"","","","","","html-button-response","312","959458","0.0-4.0-1.0-1.0-0.0","62d2aee15e1dc6709bdcace0","C3","batch3","","1116.7000000029802","<p class=block-text> Let's answer a few questions <br>","0","tol_enter_quiz","","","","","","","","","","","","","","","","","","","","","","","","",""
"","","","","","html-button-response","313","963626","0.0-4.0-1.0-1.0-1.0","62d2aee15e1dc6709bdcace0","C3","batch3","","4164.79999999702","<p class = block-text>True or False: You can only move the ball on top of a peg. <br></p>","0","tol_quiz","true","","","","","","","","","","","","","","","","","","","","","","","",""
"","","","","","html-button-response","314","964830","0.0-4.0-1.0-1.0-2.0","62d2aee15e1dc6709bdcace0","C3","batch3","","1201.199999988079","<p class = block-text>Correct! You can only move the ball on top of a peg.</p>","0","tol_quiz_feedback","","","","","","","","","","","","","","","","","","","","","","","","",""
"","","","","","html-button-response","315","968921","0.0-4.0-1.0-1.0-3.0","62d2aee15e1dc6709bdcace0","C3","batch3","","4088.4000000059605","<p class = block-text>True or False: You should try to match your board with the target board with fewest moves possible. <br></p>","0","tol_quiz","true","","","","","","","","","","","","","","","","","","","","","","","",""
"","","","","","html-button-response","316","969662","0.0-4.0-1.0-1.0-4.0","62d2aee15e1dc6709bdcace0","C3","batch3","","737.9000000059605","<p class = block-text>Correct! </p>","0","tol_quiz_feedback","","","","","","","","","","","","","","","","","","","","","","","","",""
"","","","","","html-button-response","317","971300","0.0-4.0-2.0","62d2aee15e1dc6709bdcace0","C3","batch3","","1633.199999988079","<p class=block-text> Now that you've understood the game, let's practice a few easier examples before we start!<br> <br>","0","","","","","","","","","","","","","","","","","","","","","","","","","",""
"","","","","","single-stim-button","318","973203","0.0-4.0-3.0-0.0","62d2aee15e1dc6709bdcace0","C3","batch3","","1895","","","tol_practice","","","","","","","","","","","tol_peg_2","1895","1895","0","[[1,2,0],[0,0],[0]]","1","[[1,2,0],[0,0],[3]]","practice","1895","","","","","",""
"","","","","","single-stim-button","319","974579","0.0-4.0-3.0-1.0","62d2aee15e1dc6709bdcace0","C3","batch3","","1373","","","tol_practice","","","","","","","","","","","tol_peg_3","1373","1373","0","[[1,2,0],[0,0],[3]]","1","[[1,2,0],[0,0],[3]]","practice","1373","","","","","",""
"","","","","","poldrack-single-stim","320","975591","0.0-4.0-4.0","62d2aee15e1dc6709bdcace0","C3","batch3","","-1","","","tol_feedback","true","","","","","","","","","","","1000","1000","500","","","","","","-1","none","true","","0",""
"","","","","","single-stim-button","321","978767","0.0-4.0-5.0-0.0","62d2aee15e1dc6709bdcace0","C3","batch3","","3174","","","tol_practice","","","","","","","","","","","tol_peg_1","3174","3174","0","[[1,0,0],[3,0],[0]]","2","[[0,0,0],[3,1],[2]]","practice","3174","","","","","",""
"","","","","","single-stim-button","322","979839","0.0-4.0-5.0-1.0","62d2aee15e1dc6709bdcace0","C3","batch3","","1070","","","tol_practice","","","","","","","","","","","tol_peg_3","1070","1070","0","[[1,0,0],[3,0],[2]]","2","[[0,0,0],[3,1],[2]]","practice","1070","","","","","",""
"","","","","","single-stim-button","323","982529","0.0-4.0-5.1-0.1","62d2aee15e1dc6709bdcace0","C3","batch3","","2688","","","tol_practice","","","","","","","","","","","tol_peg_1","2688","2688","0","[[0,0,0],[3,0],[2]]","3","[[0,0,0],[3,1],[2]]","practice","2688","","","","","",""
"","","","","","single-stim-button","324","983531","0.0-4.0-5.1-1.1","62d2aee15e1dc6709bdcace0","C3","batch3","","1000","","","tol_practice","","","","","","","","","","","tol_peg_2","1000","1000","0","[[0,0,0],[3,1],[2]]","3","[[0,0,0],[3,1],[2]]","practice","1000","","","","","",""
"","","","","","poldrack-single-stim","325","984536","0.0-4.0-6.0","62d2aee15e1dc6709bdcace0","C3","batch3","","-1","","","tol_feedback","true","","","","","","","","","","","1000","1000","500","","","","","","-1","none","true","","0",""
"","","","","","single-stim-button","326","987754","0.0-4.0-7.0-0.0","62d2aee15e1dc6709bdcace0","C3","batch3","","3214","","","tol_practice","","","","","","","","","","","tol_peg_2","3214","3214","0","[[1,2,0],[0,0],[0]]","4","[[1,0,0],[2,0],[3]]","practice","3214","","","","","",""
"","","","","","single-stim-button","327","988402","0.0-4.0-7.0-1.0","62d2aee15e1dc6709bdcace0","C3","batch3","","645","","","tol_practice","","","","","","","","","","","tol_peg_3","645","645","0","[[1,2,0],[0,0],[3]]","4","[[1,0,0],[2,0],[3]]","practice","645","","","","","",""
"","","","","","single-stim-button","328","989171","0.0-4.0-7.1-0.1","62d2aee15e1dc6709bdcace0","C3","batch3","","766","","","tol_practice","","","","","","","","","","","tol_peg_1","766","766","0","[[1,0,0],[0,0],[3]]","5","[[1,0,0],[2,0],[3]]","practice","766","","","","","",""
"","","","","","single-stim-button","329","989734","0.0-4.0-7.1-1.1","62d2aee15e1dc6709bdcace0","C3","batch3","","561","","","tol_practice","","","","","","","","","","","tol_peg_2","561","561","0","[[1,0,0],[2,0],[3]]","5","[[1,0,0],[2,0],[3]]","practice","561","","","","","",""
"","","","","","poldrack-single-stim","330","990744","0.0-4.0-8.0","62d2aee15e1dc6709bdcace0","C3","batch3","","-1","","","tol_feedback","true","","","","","","","","","","","1000","1000","500","","","","","","-1","none","true","","0",""
"","","","","","html-button-response","331","993772","0.0-4.0-9.0","62d2aee15e1dc6709bdcace0","C3","batch3","","3024.8999999910593","<div class = centerbox><p class = center-block-text>Great job! You are done with practice trials<br>You are about to start official trials.<br> <br> Problem <strong>1</strong> out of 25 problems</p></div>","0","tol_instruction","","","","","","","","","","","","","","","","","","","","","","","","",""
"","","","","","single-stim-button","332","1000816","0.0-4.0-10.0-0.0","62d2aee15e1dc6709bdcace0","C3","batch3","","6031","","","tol_tohand","","","","","","","","","","","tol_peg_2","6031","6031","0","[[1,2,0],[0,0],[0]]","1","[[1,3,0],[2,0],[0]]","0","0","","","","","","3"
"","","","","","single-stim-button","333","1002795","0.0-4.0-10.0-1.0","62d2aee15e1dc6709bdcace0","C3","batch3","","1977","","","tol_toboard","","","","","","","","","","","tol_peg_3","1977","1977","0","[[1,2,0],[0,0],[3]]","1","[[1,3,0],[2,0],[0]]","0","0","","","","","","3"
"","","","","","single-stim-button","334","1003529","0.0-4.0-10.1-0.1","62d2aee15e1dc6709bdcace0","C3","batch3","","730","","","tol_tohand","","","","","","","","","","","tol_peg_1","730","730","0","[[1,0,0],[0,0],[3]]","2","[[1,3,0],[2,0],[0]]","0","0","","","","","","3"
"","","","","","single-stim-button","335","1004834","0.0-4.0-10.1-1.1","62d2aee15e1dc6709bdcace0","C3","batch3","","1303","","","tol_toboard","","","","","","","","","","","tol_peg_2","1303","1303","0","[[1,0,0],[2,0],[3]]","2","[[1,3,0],[2,0],[0]]","0","0","","","","","","3"
"","","","","","single-stim-button","336","1005307","0.0-4.0-10.2-0.2","62d2aee15e1dc6709bdcace0","C3","batch3","","471","","","tol_tohand","","","","","","","","","","","tol_peg_3","471","471","0","[[1,0,0],[2,0],[0]]","3","[[1,3,0],[2,0],[0]]","0","0","","","","","","3"
"","","","","","single-stim-button","337","1006129","0.0-4.0-10.2-1.2","62d2aee15e1dc6709bdcace0","C3","batch3","","820","","","tol_toboard","","","","","","","","","","","tol_peg_1","820","820","0","[[1,3,0],[2,0],[0]]","3","[[1,3,0],[2,0],[0]]","0","0","","","","","","3"
"","","","","","poldrack-single-stim","338","1007133","0.0-4.0-11.0","62d2aee15e1dc6709bdcace0","C3","batch3","","-1","","","tol_feedback","true","","","","","","","","","","","1000","1000","500","","","","","","-1","none","true","6031","7232",""
"","","","","","html-button-response","339","1008132","0.0-4.0-12.0","62d2aee15e1dc6709bdcace0","C3","batch3","","995.7000000029802","<div class = centerbox><p class = center-block-text>problem <strong>2</strong> out of 25 problems</p></div>","0","tol_trial_num","","","","","","","","","","","","","","","","","","","","","","","","",""
"","","","","","single-stim-button","340","1011059","0.0-4.0-13.0-0.0","62d2aee15e1dc6709bdcace0","C3","batch3","","2924","","","tol_tohand","","","","","","","","","","","tol_peg_1","2924","2924","0","[[1,0,0],[3,0],[0]]","1","[[2,1,3],[0,0],[0]]","1","0","","","","","","5"
"","","","","","single-stim-button","341","1012296","0.0-4.0-13.0-1.0","62d2aee15e1dc6709bdcace0","C3","batch3","","1234","","","tol_toboard","","","","","","","","","","","tol_peg_3","1234","1234","0","[[1,0,0],[3,0],[2]]","1","[[2,1,3],[0,0],[0]]","1","0","","","","","","5"
"","","","","","single-stim-button","342","1015188","0.0-4.0-13.1-0.1","62d2aee15e1dc6709bdcace0","C3","batch3","","2891","","","tol_tohand","","","","","","","","","","","tol_peg_1","2891","2891","0","[[0,0,0],[3,0],[2]]","2","[[2,1,3],[0,0],[0]]","1","0","","","","","","5"
"","","","","","single-stim-button","343","1015912","0.0-4.0-13.1-1.1","62d2aee15e1dc6709bdcace0","C3","batch3","","721","","","tol_toboard","","","","","","","","","","","tol_peg_2","721","721","0","[[0,0,0],[3,1],[2]]","2","[[2,1,3],[0,0],[0]]","1","0","","","","","","5"
"","","","","","single-stim-button","344","1016392","0.0-4.0-13.2-0.2","62d2aee15e1dc6709bdcace0","C3","batch3","","478","","","tol_tohand","","","","","","","","","","","tol_peg_3","478","478","0","[[0,0,0],[3,1],[0]]","3","[[2,1,3],[0,0],[0]]","1","0","","","","","","5"
"","","","","","single-stim-button","345","1017190","0.0-4.0-13.2-1.2","62d2aee15e1dc6709bdcace0","C3","batch3","","797","","","tol_toboard","","","","","","","","","","","tol_peg_1","797","797","0","[[2,0,0],[3,1],[0]]","3","[[2,1,3],[0,0],[0]]","1","0","","","","","","5"
