"success","timeout","failed_images","failed_audio","failed_video","trial_type","trial_index","time_elapsed","internal_node_id","subject_id","study_id","session_id","view_history","rt","stimulus","response","task","correct","answer","item","fiar_detect_rt","fiar_detect_correct","total_correct_fiar_detect","post_trial_gap","choices","spm_correct","spm_rt","mouse_click","stim_duration","block_duration","timing_post_trial","current_position","tol_num_moves_made","tol_target","tol_problem_id","tol_rt","key_press","possible_responses","tol_correct","preplanning","tol_rt_per_trial","tol_min_moves"
"true","false","[]","[]","[]","preload","0","857","0.0-0.0","62d39a47594b3446ba0c1585","B2","batch2","","","","","","","","","","","","","","","","","","","","","","","","","","","","","",""
"true","","","","","fullscreen","1","7344","0.0-1.0-0.0","62d39a47594b3446ba0c1585","B2","batch2","","","","","","","","","","","","","","","","","","","","","","","","","","","","","",""
"true","","","","","fullscreen","2","11753","0.0-2.0-0.0","62d39a47594b3446ba0c1585","B2","batch2","","","","","","","","","","","","","","","","","","","","","","","","","","","","","",""
"","","","","","instructions","3","14690","0.0-2.0-1.0-0.0","62d39a47594b3446ba0c1585","B2","batch2","[{""page_index"":0,""viewing_time"":1741.1999998092651},{""page_index"":1,""viewing_time"":1194.8000001907349}]","2936.199999809265","","","","","","","","","","","","","","","","","","","","","","","","","","","",""
"","","","","","html-button-response","4","15638","0.0-2.0-1.0-1.0-0.0","62d39a47594b3446ba0c1585","B2","batch2","","947.5","<p class=block-text> Let's answer a few questions <br>","0","pattern_enter_quiz","","","","","","","","","","","","","","","","","","","","","","","","",""
"","","","","","html-button-response","5","21128","0.0-2.0-1.0-1.0-1.0","62d39a47594b3446ba0c1585","B2","batch2","","5489.300000190735","<p class = block-text>True or False: You will have as much time as you want to make each choice. <br></p>","0","pattern_quiz","false","","","","","","","","","","","","","","","","","","","","","","","",""
"","","","","","html-button-response","6","23258","0.0-2.0-1.0-1.0-2.0","62d39a47594b3446ba0c1585","B2","batch2","","2129.5","<p class = block-text>Incorrect. Remember, You should make your choice as fast as you can.</p>","0","pattern_quiz_feedback","","","","","","","","","","","","","","","","","","","","","","","","",""
"","","","","","html-button-response","7","27729","0.0-2.0-1.0-1.0-3.0","62d39a47594b3446ba0c1585","B2","batch2","","4470.200000286102","<p class = block-text>True or False: You will look for 4 pieces in black or white color connected in a row either horizontally, vertically or diagonally. <br></p>","0","pattern_quiz","true","","","","","","","","","","","","","","","","","","","","","","","",""
"","","","","","html-button-response","8","28419","0.0-2.0-1.0-1.0-4.0","62d39a47594b3446ba0c1585","B2","batch2","","689.3000001907349","<p class = block-text>Correct! </p>","0","pattern_quiz_feedback","","","","","","","","","","","","","","","","","","","","","","","","",""
"","","","","","html-button-response","9","30867","0.0-2.0-1.0-2.0-0.0","62d39a47594b3446ba0c1585","B2","batch2","","2447.5","<p class = block-text>You made too many incorrect choices.</p><p class = block-text>You will now repeat the instruction and quiz</p>","0","","","","","","","","","","","","","","","","","","","","","","","","","",""
"","","","","","instructions","10","33393","0.0-2.0-1.1-0.1","62d39a47594b3446ba0c1585","B2","batch2","[{""page_index"":0,""viewing_time"":1751.4000000953674},{""page_index"":1,""viewing_time"":774}]","2525.5999999046326","","","","","","","","","","","","","","","","","","","","","","","","","","","",""
"","","","","","html-button-response","11","34347","0.0-2.0-1.1-1.1-0.1","62d39a47594b3446ba0c1585","B2","batch2","","953.5999999046326","<p class=block-text> Let's answer a few questions <br>","0","pattern_enter_quiz","","","","","","","","","","","","","","","","","","","","","","","","",""
"","","","","","html-button-response","12","36634","0.0-2.0-1.1-1.1-1.1","62d39a47594b3446ba0c1585","B2","batch2","","2286.5999999046326","<p class = block-text>True or False: You will have as much time as you want to make each choice. <br></p>","1","pattern_quiz","true","","","","","","","","","","","","","","","","","","","","","","","",""
"","","","","","html-button-response","13","37516","0.0-2.0-1.1-1.1-2.1","62d39a47594b3446ba0c1585","B2","batch2","","881.5","<p class = block-text>Correct! You should make your choice <strong> as fast as you can</strong>.</p>","0","pattern_quiz_feedback","","","","","","","","","","","","","","","","","","","","","","","","",""
"","","","","","html-button-response","14","38986","0.0-2.0-1.1-1.1-3.1","62d39a47594b3446ba0c1585","B2","batch2","","1469.5999999046326","<p class = block-text>True or False: You will look for 4 pieces in black or white color connected in a row either horizontally, vertically or diagonally. <br></p>","0","pattern_quiz","true","","","","","","","","","","","","","","","","","","","","","","","",""
"","","","","","html-button-response","15","39568","0.0-2.0-1.1-1.1-4.1","62d39a47594b3446ba0c1585","B2","batch2","","581.1000003814697","<p class = block-text>Correct! </p>","0","pattern_quiz_feedback","","","","","","","","","","","","","","","","","","","","","","","","",""
"","","","","","html-button-response","16","40582","0.0-2.0-2.0","62d39a47594b3446ba0c1585","B2","batch2","","1013.5999999046326","<p class=block-text> Now that you've understood the game, let's do a few practice trials before we start!<br> <br>","0","pattern_enter_practice","","","","","","","","","","","","","","","","","","","","","","","","",""
"","","","","","image-keyboard-response","17","47760","0.0-2.0-3.0-0.0","62d39a47594b3446ba0c1585","B2","batch2","","7176.599999904633","stim/prac_yes_18_hor_w1.png","f","pattern_practice","true","f","","","","","","","","","","","","","","","","","","","","","","",""
"","","","","","html-keyboard-response","18","48766","0.0-2.0-3.0-1.0","62d39a47594b3446ba0c1585","B2","batch2","","null","<p style=""font-size:30px;color:green;"">Correct!</p>","null","pattern_feedback","","","","","","","","","","","","","","","","","","","","","","","","",""
"","","","","","image-keyboard-response","19","49592","0.0-2.0-3.0-0.1","62d39a47594b3446ba0c1585","B2","batch2","","825.4000000953674","stim/prac_yes_16_ver_w1.png","f","pattern_practice","true","f","","","","","","","","","","","","","","","","","","","","","","",""
"","","","","","html-keyboard-response","20","50618","0.0-2.0-3.0-1.1","62d39a47594b3446ba0c1585","B2","batch2","","null","<p style=""font-size:30px;color:green;"">Correct!</p>","null","pattern_feedback","","","","","","","","","","","","","","","","","","","","","","","","",""
"","","","","","image-keyboard-response","21","52352","0.0-2.0-3.0-0.2","62d39a47594b3446ba0c1585","B2","batch2","","1733.3000001907349","stim/prac_no_16_1.png","j","pattern_practice","true","j","","","","","","","","","","","","","","","","","","","","","","",""
"","","","","","html-keyboard-response","22","53368","0.0-2.0-3.0-1.2","62d39a47594b3446ba0c1585","B2","batch2","","null","<p style=""font-size:30px;color:green;"">Correct!</p>","null","pattern_feedback","","","","","","","","","","","","","","","","","","","","","","","","",""
"","","","","","image-keyboard-response","23","54407","0.0-2.0-3.0-0.3","62d39a47594b3446ba0c1585","B2","batch2","","1038","stim/prac_yes_20_dia_b1.png","f","pattern_practice","true","f","","","","","","","","","","","","","","","","","","","","","","",""
"","","","","","html-keyboard-response","24","55435","0.0-2.0-3.0-1.3","62d39a47594b3446ba0c1585","B2","batch2","","null","<p style=""font-size:30px;color:green;"">Correct!</p>","null","pattern_feedback","","","","","","","","","","","","","","","","","","","","","","","","",""
"","","","","","image-keyboard-response","25","56715","0.0-2.0-3.0-0.4","62d39a47594b3446ba0c1585","B2","batch2","","1279.0999999046326","stim/prac_no_18_1.png","j","pattern_practice","true","j","","","","","","","","","","","","","","","","","","","","","","",""
"","","","","","html-keyboard-response","26","57719","0.0-2.0-3.0-1.4","62d39a47594b3446ba0c1585","B2","batch2","","null","<p style=""font-size:30px;color:green;"">Correct!</p>","null","pattern_feedback","","","","","","","","","","","","","","","","","","","","","","","","",""
"","","","","","html-button-response","27","60053","0.0-2.0-4.0","62d39a47594b3446ba0c1585","B2","batch2","","2334.4000000953674","<p class=block-text> Good job! You are done with practice trials!<br>
        You responded correctly on 100% of the trials.<br>
        Press the button below to start official trials. Now you won't see any feedback about your response</p>","0","pattern_enter_official_trials","","","","","","","","","","","","","","","","","","","","","","","","",""
"","","","","","html-keyboard-response","28","60856","0.0-2.0-5.0-0.0","62d39a47594b3446ba0c1585","B2","batch2","","null","<p class=block-text>Trial 1 out of 78</p>","null","pattern_show_trial_num","","","","","","","","","","","","","","","","","","","","","","","","",""
"","","","","","image-keyboard-response","29","62685","0.0-2.0-5.0-1.0","62d39a47594b3446ba0c1585","B2","batch2","","1827.8999996185303","stim/yes_36_ver_w1_w.png","f","pattern_response","true","f","pattern_58","1827.8999996185303","true","1","","","","","","","","","","","","","","","","","","",""
"","","","","","html-keyboard-response","30","63999","0.0-2.0-5.0-0.1","62d39a47594b3446ba0c1585","B2","batch2","","null","<p class=block-text>Trial 2 out of 78</p>","null","pattern_show_trial_num","","","","","","","","","","","","","","","","","","","","","","","","",""
"","","","","","image-keyboard-response","31","65486","0.0-2.0-5.0-1.1","62d39a47594b3446ba0c1585","B2","batch2","","1486.7000002861023","stim/no_25_1_b.png","j","pattern_response","true","j","pattern_09","1486.7000002861023","true","2","","","","","","","","","","","","","","","","","","",""
"","","","","","html-keyboard-response","32","66798","0.0-2.0-5.0-0.2","62d39a47594b3446ba0c1585","B2","batch2","","null","<p class=block-text>Trial 3 out of 78</p>","null","pattern_show_trial_num","","","","","","","","","","","","","","","","","","","","","","","","",""
"","","","","","image-keyboard-response","33","68877","0.0-2.0-5.0-1.2","62d39a47594b3446ba0c1585","B2","batch2","","2078.4000000953674","stim/no_37_2_w.png","j","pattern_response","true","j","pattern_19","2078.4000000953674","true","3","","","","","","","","","","","","","","","","","","",""
"","","","","","html-keyboard-response","34","70185","0.0-2.0-5.0-0.3","62d39a47594b3446ba0c1585","B2","batch2","","null","<p class=block-text>Trial 4 out of 78</p>","null","pattern_show_trial_num","","","","","","","","","","","","","","","","","","","","","","","","",""
"","","","","","image-keyboard-response","35","71013","0.0-2.0-5.0-1.3","62d39a47594b3446ba0c1585","B2","batch2","","827.3999996185303","stim/yes_49_hor_w1_b.png","f","pattern_response","true","f","pattern_70","827.3999996185303","true","4","","","","","","","","","","","","","","","","","","",""
"","","","","","html-keyboard-response","36","72327","0.0-2.0-5.0-0.4","62d39a47594b3446ba0c1585","B2","batch2","","null","<p class=block-text>Trial 5 out of 78</p>","null","pattern_show_trial_num","","","","","","","","","","","","","","","","","","","","","","","","",""
"","","","","","image-keyboard-response","37","73814","0.0-2.0-5.0-1.4","62d39a47594b3446ba0c1585","B2","batch2","","1486.6999998092651","stim/no_45_1_w.png","j","pattern_response","true","j","pattern_25","1486.6999998092651","true","5","","","","","","","","","","","","","","","","","","",""
"","","","","","html-keyboard-response","38","75144","0.0-2.0-5.0-0.5","62d39a47594b3446ba0c1585","B2","batch2","","null","<p class=block-text>Trial 6 out of 78</p>","null","pattern_show_trial_num","","","","","","","","","","","","","","","","","","","","","","","","",""
"","","","","","image-keyboard-response","39","76959","0.0-2.0-5.0-1.5","62d39a47594b3446ba0c1585","B2","batch2","","1814.2999997138977","stim/no_33_1_b.png","j","pattern_response","true","j","pattern_15","1814.2999997138977","true","6","","","","","","","","","","","","","","","","","","",""
"","","","","","html-keyboard-response","40","78272","0.0-2.0-5.0-0.6","62d39a47594b3446ba0c1585","B2","batch2","","null","<p class=block-text>Trial 7 out of 78</p>","null","pattern_show_trial_num","","","","","","","","","","","","","","","","","","","","","","","","",""
"","","","","","image-keyboard-response","41","79712","0.0-2.0-5.0-1.6","62d39a47594b3446ba0c1585","B2","batch2","","1439.8000001907349","stim/no_39_1_w.png","j","pattern_response","true","j","pattern_21","1439.8000001907349","true","7","","","","","","","","","","","","","","","","","","",""
"","","","","","html-keyboard-response","42","81023","0.0-2.0-5.0-0.7","62d39a47594b3446ba0c1585","B2","batch2","","null","<p class=block-text>Trial 8 out of 78</p>","null","pattern_show_trial_num","","","","","","","","","","","","","","","","","","","","","","","","",""
"","","","","","image-keyboard-response","43","81705","0.0-2.0-5.0-1.7","62d39a47594b3446ba0c1585","B2","batch2","","680.7000002861023","stim/yes_37_hor_w1_w.png","f","pattern_response","true","f","pattern_60","680.7000002861023","true","8","","","","","","","","","","","","","","","","","","",""
"","","","","","html-keyboard-response","44","83024","0.0-2.0-5.0-0.8","62d39a47594b3446ba0c1585","B2","batch2","","null","<p class=block-text>Trial 9 out of 78</p>","null","pattern_show_trial_num","","","","","","","","","","","","","","","","","","","","","","","","",""
"","","","","","image-keyboard-response","45","83748","0.0-2.0-5.0-1.8","62d39a47594b3446ba0c1585","B2","batch2","","723.2000002861023","stim/no_15_1_w.png","j","pattern_response","true","j","pattern_03","723.2000002861023","true","9","","","","","","","","","","","","","","","","","","",""
"","","","","","html-keyboard-response","46","85056","0.0-2.0-5.0-0.9","62d39a47594b3446ba0c1585","B2","batch2","","null","<p class=block-text>Trial 10 out of 78</p>","null","pattern_show_trial_num","","","","","","","","","","","","","","","","","","","","","","","","",""
"","","","","","image-keyboard-response","47","86624","0.0-2.0-5.0-1.9","62d39a47594b3446ba0c1585","B2","batch2","","1567.7000002861023","stim/no_36_1_b.png","j","pattern_response","true","j","pattern_17","1567.7000002861023","true","10","","","","","","","","","","","","","","","","","","",""
"","","","","","html-keyboard-response","48","87935","0.0-2.0-5.0-0.10","62d39a47594b3446ba0c1585","B2","batch2","","null","<p class=block-text>Trial 11 out of 78</p>","null","pattern_show_trial_num","","","","","","","","","","","","","","","","","","","","","","","","",""
"","","","","","image-keyboard-response","49","88616","0.0-2.0-5.0-1.10","62d39a47594b3446ba0c1585","B2","batch2","","680.6000003814697","stim/yes_29_hor_b1_b.png","f","pattern_response","true","f","pattern_52","680.6000003814697","true","11","","","","","","","","","","","","","","","","","","",""
"","","","","","html-keyboard-response","50","89937","0.0-2.0-5.0-0.11","62d39a47594b3446ba0c1585","B2","batch2","","null","<p class=block-text>Trial 12 out of 78</p>","null","pattern_show_trial_num","","","","","","","","","","","","","","","","","","","","","","","","",""
"","","","","","image-keyboard-response","51","91084","0.0-2.0-5.0-1.11","62d39a47594b3446ba0c1585","B2","batch2","","1147.1999998092651","stim/yes_53_ver_b1_b.png","f","pattern_response","true","f","pattern_74","1147.1999998092651","true","12","","","","","","","","","","","","","","","","","","",""
"","","","","","html-keyboard-response","52","92403","0.0-2.0-5.0-0.12","62d39a47594b3446ba0c1585","B2","batch2","","null","<p class=block-text>Trial 13 out of 78</p>","null","pattern_show_trial_num","","","","","","","","","","","","","","","","","","","","","","","","",""
"","","","","","image-keyboard-response","53","94086","0.0-2.0-5.0-1.12","62d39a47594b3446ba0c1585","B2","batch2","","1681.5999999046326","stim/yes_70_ver_b1.png","f","pattern_response","true","f","pattern_80","1681.5999999046326","true","13","","","","","","","","","","","","","","","","","","",""
"","","","","","html-keyboard-response","54","95404","0.0-2.0-5.0-0.13","62d39a47594b3446ba0c1585","B2","batch2","","null","<p class=block-text>Trial 14 out of 78</p>","null","pattern_show_trial_num","","","","","","","","","","","","","","","","","","","","","","","","",""
"","","","","","image-keyboard-response","55","96348","0.0-2.0-5.0-1.13","62d39a47594b3446ba0c1585","B2","batch2","","942.8000001907349","stim/yes_44_ver_w1_w.png","f","pattern_response","true","f","pattern_66","942.8000001907349","true","14","","","","","","","","","","","","","","","","","","",""
"","","","","","html-keyboard-response","56","97658","0.0-2.0-5.0-0.14","62d39a47594b3446ba0c1585","B2","batch2","","null","<p class=block-text>Trial 15 out of 78</p>","null","pattern_show_trial_num","","","","","","","","","","","","","","","","","","","","","","","","",""
"","","","","","image-keyboard-response","57","98185","0.0-2.0-5.0-1.14","62d39a47594b3446ba0c1585","B2","batch2","","525.8999996185303","stim/no_12_1.png","j","pattern_response","true","j","pattern_01","525.8999996185303","true","15","","","","","","","","","","","","","","","","","","",""
"","","","","","html-keyboard-response","58","99499","0.0-2.0-5.0-0.15","62d39a47594b3446ba0c1585","B2","batch2","","null","<p class=block-text>Trial 16 out of 78</p>","null","pattern_show_trial_num","","","","","","","","","","","","","","","","","","","","","","","","",""
"","","","","","image-keyboard-response","59","100075","0.0-2.0-5.0-1.15","62d39a47594b3446ba0c1585","B2","batch2","","575.5999999046326","stim/yes_58_dia_w1_w.png","f","pattern_response","true","f","pattern_76","575.5999999046326","true","16","","","","","","","","","","","","","","","","","","",""
"","","","","","html-keyboard-response","60","101390","0.0-2.0-5.0-0.16","62d39a47594b3446ba0c1585","B2","batch2","","null","<p class=block-text>Trial 17 out of 78</p>","null","pattern_show_trial_num","","","","","","","","","","","","","","","","","","","","","","","","",""
"","","","","","image-keyboard-response","61","102364","0.0-2.0-5.0-1.16","62d39a47594b3446ba0c1585","B2","batch2","","972.8999996185303","stim/yes_33_dia_w1_w.png","j","pattern_response","false","f","pattern_56","972.8999996185303","false","16","","","","","","","","","","","","","","","","","","",""
"","","","","","html-keyboard-response","62","103675","0.0-2.0-5.0-0.17","62d39a47594b3446ba0c1585","B2","batch2","","null","<p class=block-text>Trial 18 out of 78</p>","null","pattern_show_trial_num","","","","","","","","","","","","","","","","","","","","","","","","",""
"","","","","","image-keyboard-response","63","104295","0.0-2.0-5.0-1.17","62d39a47594b3446ba0c1585","B2","batch2","","619.2000002861023","stim/yes_26_dia_w2_w.png","f","pattern_response","true","f","pattern_50","619.2000002861023","true","17","","","","","","","","","","","","","","","","","","",""
"","","","","","html-keyboard-response","64","105612","0.0-2.0-5.0-0.18","62d39a47594b3446ba0c1585","B2","batch2","","null","<p class=block-text>Trial 19 out of 78</p>","null","pattern_show_trial_num","","","","","","","","","","","","","","","","","","","","","","","","",""
"","","","","","image-keyboard-response","65","106500","0.0-2.0-5.0-1.18","62d39a47594b3446ba0c1585","B2","batch2","","888","stim/no_43_2_b.png","j","pattern_response","true","j","pattern_23","888","true","18","","","","","","","","","","","","","","","","","","",""
"","","","","","html-keyboard-response","66","107821","0.0-2.0-5.0-0.19","62d39a47594b3446ba0c1585","B2","batch2","","null","<p class=block-text>Trial 20 out of 78</p>","null","pattern_show_trial_num","","","","","","","","","","","","","","","","","","","","","","","","",""
"","","","","","image-keyboard-response","67","109460","0.0-2.0-5.0-1.19","62d39a47594b3446ba0c1585","B2","batch2","","1638.2000002861023","stim/no_51_1.png","j","pattern_response","true","j","pattern_31","1638.2000002861023","true","19","","","","","","","","","","","","","","","","","","",""
"","","","","","html-keyboard-response","68","110774","0.0-2.0-5.0-0.20","62d39a47594b3446ba0c1585","B2","batch2","","null","<p class=block-text>Trial 21 out of 78</p>","null","pattern_show_trial_num","","","","","","","","","","","","","","","","","","","","","","","","",""
"","","","","","image-keyboard-response","69","112214","0.0-2.0-5.0-1.20","62d39a47594b3446ba0c1585","B2","batch2","","1439.2000002861023","stim/yes_63_dia_b1.png","j","pattern_response","false","f","pattern_78","1439.2000002861023","false","19","","","","","","","","","","","","","","","","","","",""
"","","","","","html-keyboard-response","70","113527","0.0-2.0-5.0-0.21","62d39a47594b3446ba0c1585","B2","batch2","","null","<p class=block-text>Trial 22 out of 78</p>","null","pattern_show_trial_num","","","","","","","","","","","","","","","","","","","","","","","","",""
"","","","","","image-keyboard-response","71","114185","0.0-2.0-5.0-1.21","62d39a47594b3446ba0c1585","B2","batch2","","657.5","stim/yes_17_ver_b1_b.png","f","pattern_response","true","f","pattern_46","657.5","true","20","","","","","","","","","","","","","","","","","","",""
"","","","","","html-keyboard-response","72","115504","0.0-2.0-5.0-0.22","62d39a47594b3446ba0c1585","B2","batch2","","null","<p class=block-text>Trial 23 out of 78</p>","null","pattern_show_trial_num","","","","","","","","","","","","","","","","","","","","","","","","",""
"","","","","","image-keyboard-response","73","116862","0.0-2.0-5.0-1.22","62d39a47594b3446ba0c1585","B2","batch2","","1357.8000001907349","stim/yes_51_dia_b1.png","j","pattern_response","false","f","pattern_72","1357.8000001907349","false","20","","","","","","","","","","","","","","","","","","",""
"","","","","","html-keyboard-response","74","118182","0.0-2.0-5.0-0.23","62d39a47594b3446ba0c1585","B2","batch2","","null","<p class=block-text>Trial 24 out of 78</p>","null","pattern_show_trial_num","","","","","","","","","","","","","","","","","","","","","","","","",""
"","","","","","image-keyboard-response","75","119535","0.0-2.0-5.0-1.23","62d39a47594b3446ba0c1585","B2","batch2","","1352.4000000953674","stim/no_30_1_b.png","j","pattern_response","true","j","pattern_13","1352.4000000953674","true","21","","","","","","","","","","","","","","","","","","",""
"","","","","","html-keyboard-response","76","120851","0.0-2.0-5.0-0.24","62d39a47594b3446ba0c1585","B2","batch2","","null","<p class=block-text>Trial 25 out of 78</p>","null","pattern_show_trial_num","","","","","","","","","","","","","","","","","","","","","","","","",""
"","","","","","image-keyboard-response","77","121813","0.0-2.0-5.0-1.24","62d39a47594b3446ba0c1585","B2","batch2","","961.6999998092651","stim/yes_23_ver_b1.png","f","pattern_response","true","f","pattern_48","961.6999998092651","true","22","","","","","","","","","","","","","","","","","","",""
"","","","","","html-keyboard-response","78","123130","0.0-2.0-5.0-0.25","62d39a47594b3446ba0c1585","B2","batch2","","null","<p class=block-text>Trial 26 out of 78</p>","null","pattern_show_trial_num","","","","","","","","","","","","","","","","","","","","","","","","",""
"","","","","","image-keyboard-response","79","124654","0.0-2.0-5.0-1.25","62d39a47594b3446ba0c1585","B2","batch2","","1523.5","stim/no_49_2_b.png","j","pattern_response","true","j","pattern_29","1523.5","true","23","","","","","","","","","","","","","","","","","","",""
"","","","","","html-keyboard-response","80","125976","0.0-2.0-5.0-0.26","62d39a47594b3446ba0c1585","B2","batch2","","null","<p class=block-text>Trial 27 out of 78</p>","null","pattern_show_trial_num","","","","","","","","","","","","","","","","","","","","","","","","",""
"","","","","","image-keyboard-response","81","129480","0.0-2.0-5.0-1.26","62d39a47594b3446ba0c1585","B2","batch2","","3502.2999997138977","stim/no_53_1_b.png","j","pattern_response","true","j","pattern_33","3502.2999997138977","true","24","","","","","","","","","","","","","","","","","","",""
"","","","","","html-keyboard-response","82","130790","0.0-2.0-5.0-0.27","62d39a47594b3446ba0c1585","B2","batch2","","null","<p class=block-text>Trial 28 out of 78</p>","null","pattern_show_trial_num","","","","","","","","","","","","","","","","","","","","","","","","",""
"","","","","","image-keyboard-response","83","131968","0.0-2.0-5.0-1.27","62d39a47594b3446ba0c1585","B2","batch2","","1177.0999999046326","stim/yes_30_ver_b1_b.png","j","pattern_response","false","f","pattern_54","1177.0999999046326","false","24","","","","","","","","","","","","","","","","","","",""
"","","","","","html-keyboard-response","84","133281","0.0-2.0-5.0-0.28","62d39a47594b3446ba0c1585","B2","batch2","","null","<p class=block-text>Trial 29 out of 78</p>","null","pattern_show_trial_num","","","","","","","","","","","","","","","","","","","","","","","","",""
"","","","","","image-keyboard-response","85","133960","0.0-2.0-5.0-1.28","62d39a47594b3446ba0c1585","B2","batch2","","677.6999998092651","stim/yes_39_hor_w1_w.png","f","pattern_response","true","f","pattern_62","677.6999998092651","true","25","","","","","","","","","","","","","","","","","","",""
"","","","","","html-keyboard-response","86","135272","0.0-2.0-5.0-0.29","62d39a47594b3446ba0c1585","B2","batch2","","null","<p class=block-text>Trial 30 out of 78</p>","null","pattern_show_trial_num","","","","","","","","","","","","","","","","","","","","","","","","",""
"","","","","","image-keyboard-response","87","136986","0.0-2.0-5.0-1.29","62d39a47594b3446ba0c1585","B2","batch2","","1712.7000002861023","stim/no_28_2.png","j","pattern_response","true","j","pattern_11","1712.7000002861023","true","26","","","","","","","","","","","","","","","","","","",""
"","","","","","html-keyboard-response","88","138308","0.0-2.0-5.0-0.30","62d39a47594b3446ba0c1585","B2","batch2","","null","<p class=block-text>Trial 31 out of 78</p>","null","pattern_show_trial_num","","","","","","","","","","","","","","","","","","","","","","","","",""
"","","","","","image-keyboard-response","89","139429","0.0-2.0-5.0-1.30","62d39a47594b3446ba0c1585","B2","batch2","","1119.8000001907349","stim/yes_46_ver_b1_b.png","f","pattern_response","true","f","pattern_68","1119.8000001907349","true","27","","","","","","","","","","","","","","","","","","",""
"","","","","","html-keyboard-response","90","140741","0.0-2.0-5.0-0.31","62d39a47594b3446ba0c1585","B2","batch2","","null","<p class=block-text>Trial 32 out of 78</p>","null","pattern_show_trial_num","","","","","","","","","","","","","","","","","","","","","","","","",""
"","","","","","image-keyboard-response","91","141467","0.0-2.0-5.0-1.31","62d39a47594b3446ba0c1585","B2","batch2","","724.5","stim/yes_12_hor_w1_w.png","f","pattern_response","true","f","pattern_42","724.5","true","28","","","","","","","","","","","","","","","","","","",""
"","","","","","html-keyboard-response","92","142784","0.0-2.0-5.0-0.32","62d39a47594b3446ba0c1585","B2","batch2","","null","<p class=block-text>Trial 33 out of 78</p>","null","pattern_show_trial_num","","","","","","","","","","","","","","","","","","","","","","","","",""
"","","","","","image-keyboard-response","93","144736","0.0-2.0-5.0-1.32","62d39a47594b3446ba0c1585","B2","batch2","","1952.1999998092651","stim/no_47_1_b.png","j","pattern_response","true","j","pattern_27","1952.1999998092651","true","29","","","","","","","","","","","","","","","","","","",""
"","","","","","html-keyboard-response","94","146049","0.0-2.0-5.0-0.33","62d39a47594b3446ba0c1585","B2","batch2","","null","<p class=block-text>Trial 34 out of 78</p>","null","pattern_show_trial_num","","","","","","","","","","","","","","","","","","","","","","","","",""
"","","","","","image-keyboard-response","95","147226","0.0-2.0-5.0-1.33","62d39a47594b3446ba0c1585","B2","batch2","","1176.2000002861023","stim/no_18_1_b.png","j","pattern_response","true","j","pattern_05","1176.2000002861023","true","30","","","","","","","","","","","","","","","","","","",""
"","","","","","html-keyboard-response","96","148534","0.0-2.0-5.0-0.34","62d39a47594b3446ba0c1585","B2","batch2","","null","<p class=block-text>Trial 35 out of 78</p>","null","pattern_show_trial_num","","","","","","","","","","","","","","","","","","","","","","","","",""
"","","","","","image-keyboard-response","97","149217","0.0-2.0-5.0-1.34","62d39a47594b3446ba0c1585","B2","batch2","","682.5","stim/yes_15_dia_b1u_b.png","f","pattern_response","true","f","pattern_44","682.5","true","31","","","","","","","","","","","","","","","","","","",""
"","","","","","html-keyboard-response","98","150538","0.0-2.0-5.0-0.35","62d39a47594b3446ba0c1585","B2","batch2","","null","<p class=block-text>Trial 36 out of 78</p>","null","pattern_show_trial_num","","","","","","","","","","","","","","","","","","","","","","","","",""
"","","","","","image-keyboard-response","99","152858","0.0-2.0-5.0-1.35","62d39a47594b3446ba0c1585","B2","batch2","","2319.9000000953674","stim/yes_42_dia_w1_w.png","j","pattern_response","false","f","pattern_64","2319.9000000953674","false","31","","","","","","","","","","","","","","","","","","",""
"","","","","","html-keyboard-response","100","154184","0.0-2.0-5.0-0.36","62d39a47594b3446ba0c1585","B2","batch2","","null","<p class=block-text>Trial 37 out of 78</p>","null","pattern_show_trial_num","","","","","","","","","","","","","","","","","","","","","","","","",""
"","","","","","image-keyboard-response","101","156453","0.0-2.0-5.0-1.36","62d39a47594b3446ba0c1585","B2","batch2","","2268.0999999046326","stim/no_58_1_w.png","j","pattern_response","true","j","pattern_35","2268.0999999046326","true","32","","","","","","","","","","","","","","","","","","",""
"","","","","","html-keyboard-response","102","157763","0.0-2.0-5.0-0.37","62d39a47594b3446ba0c1585","B2","batch2","","null","<p class=block-text>Trial 38 out of 78</p>","null","pattern_show_trial_num","","","","","","","","","","","","","","","","","","","","","","","","",""
"","","","","","image-keyboard-response","103","159761","0.0-2.0-5.0-1.37","62d39a47594b3446ba0c1585","B2","batch2","","1996.5","stim/no_22_1_b.png","j","pattern_response","true","j","pattern_07","1996.5","true","33","","","","","","","","","","","","","","","","","","",""
"","","","","","html-keyboard-response","104","161081","0.0-2.0-5.0-0.38","62d39a47594b3446ba0c1585","B2","batch2","","null","<p class=block-text>Trial 39 out of 78</p>","null","pattern_show_trial_num","","","","","","","","","","","","","","","","","","","","","","","","",""
"","","","","","image-keyboard-response","105","164075","0.0-2.0-5.0-1.38","62d39a47594b3446ba0c1585","B2","batch2","","2993.199999809265","stim/no_67_1.png","j","pattern_response","true","j","pattern_39","2993.199999809265","true","34","","","","","","","","","","","","","","","","","","",""
"","","","","","image-keyboard-response","106","166912","0.0-2.0-6.0","62d39a47594b3446ba0c1585","B2","batch2","","2330.5","stim/empty_board.png","j","attention_check","true","j","","","","","500","[""f"",""j""]","","","","","","","","","","","","","","","","",""
"","","","","","html-keyboard-response","107","167727","0.0-2.0-7.0-0.0","62d39a47594b3446ba0c1585","B2","batch2","","null","<p class=block-text>Trial 40 out of 78</p>","null","pattern_show_trial_num","","","","","","","","","","","","","","","","","","","","","","","","",""
"","","","","","image-keyboard-response","108","170977","0.0-2.0-7.0-1.0","62d39a47594b3446ba0c1585","B2","batch2","","3249.699999809265","stim/no_32_1_w.png","j","pattern_response","true","j","pattern_14","3249.699999809265","true","35","","","","","","","","","","","","","","","","","","",""
"","","","","","html-keyboard-response","109","172291","0.0-2.0-7.0-0.1","62d39a47594b3446ba0c1585","B2","batch2","","null","<p class=block-text>Trial 41 out of 78</p>","null","pattern_show_trial_num","","","","","","","","","","","","","","","","","","","","","","","","",""
"","","","","","image-keyboard-response","110","175229","0.0-2.0-7.0-1.1","62d39a47594b3446ba0c1585","B2","batch2","","2936.3999996185303","stim/no_55_1_w.png","j","pattern_response","true","j","pattern_34","2936.3999996185303","true","36","","","","","","","","","","","","","","","","","","",""
"","","","","","html-keyboard-response","111","176538","0.0-2.0-7.0-0.2","62d39a47594b3446ba0c1585","B2","batch2","","null","<p class=block-text>Trial 42 out of 78</p>","null","pattern_show_trial_num","","","","","","","","","","","","","","","","","","","","","","","","",""
"","","","","","image-keyboard-response","112","178865","0.0-2.0-7.0-1.2","62d39a47594b3446ba0c1585","B2","batch2","","2326.4000000953674","stim/no_48_1_w.png","j","pattern_response","true","j","pattern_28","2326.4000000953674","true","37","","","","","","","","","","","","","","","","","","",""
"","","","","","html-keyboard-response","113","180189","0.0-2.0-7.0-0.3","62d39a47594b3446ba0c1585","B2","batch2","","null","<p class=block-text>Trial 43 out of 78</p>","null","pattern_show_trial_num","","","","","","","","","","","","","","","","","","","","","","","","",""
"","","","","","image-keyboard-response","114","182337","0.0-2.0-7.0-1.3","62d39a47594b3446ba0c1585","B2","batch2","","2147.699999809265","stim/yes_40_dia_b1_b.png","j","pattern_response","false","f","pattern_63","2147.699999809265","false","37","","","","","","","","","","","","","","","","","","",""
"","","","","","html-keyboard-response","115","183650","0.0-2.0-7.0-0.4","62d39a47594b3446ba0c1585","B2","batch2","","null","<p class=block-text>Trial 44 out of 78</p>","null","pattern_show_trial_num","","","","","","","","","","","","","","","","","","","","","","","","",""
"","","","","","image-keyboard-response","116","185315","0.0-2.0-7.0-1.4","62d39a47594b3446ba0c1585","B2","batch2","","1664.1999998092651","stim/yes_52_ver_w1.png","f","pattern_response","true","f","pattern_73","1664.1999998092651","true","38","","","","","","","","","","","","","","","","","","",""
"","","","","","html-keyboard-response","117","186630","0.0-2.0-7.0-0.5","62d39a47594b3446ba0c1585","B2","batch2","","null","<p class=block-text>Trial 45 out of 78</p>","null","pattern_show_trial_num","","","","","","","","","","","","","","","","","","","","","","","","",""
"","","","","","image-keyboard-response","118","188382","0.0-2.0-7.0-1.5","62d39a47594b3446ba0c1585","B2","batch2","","1751","stim/no_36_2_w.png","j","pattern_response","true","j","pattern_18","1751","true","39","","","","","","","","","","","","","","","","","","",""
"","","","","","html-keyboard-response","119","189699","0.0-2.0-7.0-0.6","62d39a47594b3446ba0c1585","B2","batch2","","null","<p class=block-text>Trial 46 out of 78</p>","null","pattern_show_trial_num","","","","","","","","","","","","","","","","","","","","","","","","",""
"","","","","","image-keyboard-response","120","190683","0.0-2.0-7.0-1.6","62d39a47594b3446ba0c1585","B2","batch2","","983.5","stim/yes_25_hor_b1_b.png","f","pattern_response","true","f","pattern_49","983.5","true","40","","","","","","","","","","","","","","","","","","",""
"","","","","","html-keyboard-response","121","192006","0.0-2.0-7.0-0.7","62d39a47594b3446ba0c1585","B2","batch2","","null","<p class=block-text>Trial 47 out of 78</p>","null","pattern_show_trial_num","","","","","","","","","","","","","","","","","","","","","","","","",""
"","","","","","image-keyboard-response","122","193213","0.0-2.0-7.0-1.7","62d39a47594b3446ba0c1585","B2","batch2","","1205.8999996185303","stim/yes_45_hor_b2_b.png","f","pattern_response","true","f","pattern_67","1205.8999996185303","true","41","","","","","","","","","","","","","","","","","","",""
"","","","","","html-keyboard-response","123","194532","0.0-2.0-7.0-0.8","62d39a47594b3446ba0c1585","B2","batch2","","null","<p class=block-text>Trial 48 out of 78</p>","null","pattern_show_trial_num","","","","","","","","","","","","","","","","","","","","","","","","",""
"","","","","","image-keyboard-response","124","195973","0.0-2.0-7.0-1.8","62d39a47594b3446ba0c1585","B2","batch2","","1440.0999999046326","stim/no_29_1_b.png","j","pattern_response","true","j","pattern_12","1440.0999999046326","true","42","","","","","","","","","","","","","","","","","","",""
"","","","","","html-keyboard-response","125","197282","0.0-2.0-7.0-0.9","62d39a47594b3446ba0c1585","B2","batch2","","null","<p class=block-text>Trial 49 out of 78</p>","null","pattern_show_trial_num","","","","","","","","","","","","","","","","","","","","","","","","",""
"","","","","","image-keyboard-response","126","198232","0.0-2.0-7.0-1.9","62d39a47594b3446ba0c1585","B2","batch2","","948.9000000953674","stim/yes_35_dia_b1.png","f","pattern_response","true","f","pattern_57","948.9000000953674","true","43","","","","","","","","","","","","","","","","","","",""
"","","","","","html-keyboard-response","127","199554","0.0-2.0-7.0-0.10","62d39a47594b3446ba0c1585","B2","batch2","","null","<p class=block-text>Trial 50 out of 78</p>","null","pattern_show_trial_num","","","","","","","","","","","","","","","","","","","","","","","","",""
"","","","","","image-keyboard-response","128","203266","0.0-2.0-7.0-1.10","62d39a47594b3446ba0c1585","B2","batch2","","3711.800000190735","stim/no_65_1_b.png","j","pattern_response","true","j","pattern_38","3711.800000190735","true","44","","","","","","","","","","","","","","","","","","",""
"","","","","","html-keyboard-response","129","204590","0.0-2.0-7.0-0.11","62d39a47594b3446ba0c1585","B2","batch2","","null","<p class=block-text>Trial 51 out of 78</p>","null","pattern_show_trial_num","","","","","","","","","","","","","","","","","","","","","","","","",""
"","","","","","image-keyboard-response","130","207006","0.0-2.0-7.0-1.11","62d39a47594b3446ba0c1585","B2","batch2","","2414.5999999046326","stim/no_38_1_b.png","j","pattern_response","true","j","pattern_20","2414.5999999046326","true","45","","","","","","","","","","","","","","","","","","",""
"","","","","","html-keyboard-response","131","208328","0.0-2.0-7.0-0.12","62d39a47594b3446ba0c1585","B2","batch2","","null","<p class=block-text>Trial 52 out of 78</p>","null","pattern_show_trial_num","","","","","","","","","","","","","","","","","","","","","","","","",""
"","","","","","image-keyboard-response","132","209142","0.0-2.0-7.0-1.12","62d39a47594b3446ba0c1585","B2","batch2","","813.0999999046326","stim/yes_14_hor_b1_w.png","f","pattern_response","true","f","pattern_43","813.0999999046326","true","46","","","","","","","","","","","","","","","","","","",""
"","","","","","html-keyboard-response","133","210468","0.0-2.0-7.0-0.13","62d39a47594b3446ba0c1585","B2","batch2","","null","<p class=block-text>Trial 53 out of 78</p>","null","pattern_show_trial_num","","","","","","","","","","","","","","","","","","","","","","","","",""
"","","","","","image-keyboard-response","134","212210","0.0-2.0-7.0-1.13","62d39a47594b3446ba0c1585","B2","batch2","","1741.6999998092651","stim/no_46_1_b.png","j","pattern_response","true","j","pattern_26","1741.6999998092651","true","47","","","","","","","","","","","","","","","","","","",""
"","","","","","html-keyboard-response","135","213521","0.0-2.0-7.0-0.14","62d39a47594b3446ba0c1585","B2","batch2","","null","<p class=block-text>Trial 54 out of 78</p>","null","pattern_show_trial_num","","","","","","","","","","","","","","","","","","","","","","","","",""
"","","","","","image-keyboard-response","136","214310","0.0-2.0-7.0-1.14","62d39a47594b3446ba0c1585","B2","batch2","","788","stim/no_13_2_b.png","j","pattern_response","true","j","pattern_02","788","true","48","","","","","","","","","","","","","","","","","","",""
"","","","","","html-keyboard-response","137","215622","0.0-2.0-7.0-0.15","62d39a47594b3446ba0c1585","B2","batch2","","null","<p class=block-text>Trial 55 out of 78</p>","null","pattern_show_trial_num","","","","","","","","","","","","","","","","","","","","","","","","",""
"","","","","","image-keyboard-response","138","216922","0.0-2.0-7.0-1.15","62d39a47594b3446ba0c1585","B2","batch2","","1299.3000001907349","stim/yes_37_dia_w1.png","j","pattern_response","false","f","pattern_59","1299.3000001907349","false","48","","","","","","","","","","","","","","","","","","",""
"","","","","","html-keyboard-response","139","218239","0.0-2.0-7.0-0.16","62d39a47594b3446ba0c1585","B2","batch2","","null","<p class=block-text>Trial 56 out of 78</p>","null","pattern_show_trial_num","","","","","","","","","","","","","","","","","","","","","","","","",""
"","","","","","image-keyboard-response","140","221421","0.0-2.0-7.0-1.16","62d39a47594b3446ba0c1585","B2","batch2","","3180.800000190735","stim/no_70_2.png","j","pattern_response","true","j","pattern_40","3180.800000190735","true","49","","","","","","","","","","","","","","","","","","",""
"","","","","","html-keyboard-response","141","222730","0.0-2.0-7.0-0.17","62d39a47594b3446ba0c1585","B2","batch2","","null","<p class=block-text>Trial 57 out of 78</p>","null","pattern_show_trial_num","","","","","","","","","","","","","","","","","","","","","","","","",""
"","","","","","image-keyboard-response","142","224192","0.0-2.0-7.0-1.17","62d39a47594b3446ba0c1585","B2","batch2","","1460.4000000953674","stim/yes_29_ver_w1.png","f","pattern_response","true","f","pattern_53","1460.4000000953674","true","50","","","","","","","","","","","","","","","","","","",""
"","","","","","html-keyboard-response","143","225507","0.0-2.0-7.0-0.18","62d39a47594b3446ba0c1585","B2","batch2","","null","<p class=block-text>Trial 58 out of 78</p>","null","pattern_show_trial_num","","","","","","","","","","","","","","","","","","","","","","","","",""
"","","","","","image-keyboard-response","144","227033","0.0-2.0-7.0-1.18","62d39a47594b3446ba0c1585","B2","batch2","","1524.9000000953674","stim/yes_38_hor_b1_b.png","j","pattern_response","false","f","pattern_61","1524.9000000953674","false","50","","","","","","","","","","","","","","","","","","",""
"","","","","","html-keyboard-response","145","228352","0.0-2.0-7.0-0.19","62d39a47594b3446ba0c1585","B2","batch2","","null","<p class=block-text>Trial 59 out of 78</p>","null","pattern_show_trial_num","","","","","","","","","","","","","","","","","","","","","","","","",""
"","","","","","image-keyboard-response","146","229623","0.0-2.0-7.0-1.19","62d39a47594b3446ba0c1585","B2","batch2","","1271","stim/no_23_1.png","j","pattern_response","true","j","pattern_08","1271","true","51","","","","","","","","","","","","","","","","","","",""
"","","","","","html-keyboard-response","147","230950","0.0-2.0-7.0-0.20","62d39a47594b3446ba0c1585","B2","batch2","","null","<p class=block-text>Trial 60 out of 78</p>","null","pattern_show_trial_num","","","","","","","","","","","","","","","","","","","","","","","","",""
"","","","","","image-keyboard-response","148","232292","0.0-2.0-7.0-1.20","62d39a47594b3446ba0c1585","B2","batch2","","1341.5999999046326","stim/yes_48_dia_w1_w.png","f","pattern_response","true","f","pattern_69","1341.5999999046326","true","52","","","","","","","","","","","","","","","","","","",""
"","","","","","html-keyboard-response","149","233609","0.0-2.0-7.0-0.21","62d39a47594b3446ba0c1585","B2","batch2","","null","<p class=block-text>Trial 61 out of 78</p>","null","pattern_show_trial_num","","","","","","","","","","","","","","","","","","","","","","","","",""
"","","","","","image-keyboard-response","150","235707","0.0-2.0-7.0-1.21","62d39a47594b3446ba0c1585","B2","batch2","","2097.8999996185303","stim/yes_60_ver_b1_b.png","j","pattern_response","false","f","pattern_77","2097.8999996185303","false","52","","","","","","","","","","","","","","","","","","",""
"","","","","","html-keyboard-response","151","237025","0.0-2.0-7.0-0.22","62d39a47594b3446ba0c1585","B2","batch2","","null","<p class=block-text>Trial 62 out of 78</p>","null","pattern_show_trial_num","","","","","","","","","","","","","","","","","","","","","","","","",""
"","","","","","image-keyboard-response","152","237782","0.0-2.0-7.0-1.22","62d39a47594b3446ba0c1585","B2","batch2","","756.8000001907349","stim/yes_17_dia_w1.png","f","pattern_response","true","f","pattern_45","756.8000001907349","true","53","","","","","","","","","","","","","","","","","","",""
"","","","","","html-keyboard-response","153","239097","0.0-2.0-7.0-0.23","62d39a47594b3446ba0c1585","B2","batch2","","null","<p class=block-text>Trial 63 out of 78</p>","null","pattern_show_trial_num","","","","","","","","","","","","","","","","","","","","","","","","",""
"","","","","","image-keyboard-response","154","241054","0.0-2.0-7.0-1.23","62d39a47594b3446ba0c1585","B2","batch2","","1956.2000002861023","stim/no_34_1_b.png","j","pattern_response","true","j","pattern_16","1956.2000002861023","true","54","","","","","","","","","","","","","","","","","","",""
"","","","","","html-keyboard-response","155","242369","0.0-2.0-7.0-0.24","62d39a47594b3446ba0c1585","B2","batch2","","null","<p class=block-text>Trial 64 out of 78</p>","null","pattern_show_trial_num","","","","","","","","","","","","","","","","","","","","","","","","",""
"","","","","","image-keyboard-response","156","244075","0.0-2.0-7.0-1.24","62d39a47594b3446ba0c1585","B2","batch2","","1704.8000001907349","stim/no_52_1.png","j","pattern_response","true","j","pattern_32","1704.8000001907349","true","55","","","","","","","","","","","","","","","","","","",""
"","","","","","html-keyboard-response","157","245388","0.0-2.0-7.0-0.25","62d39a47594b3446ba0c1585","B2","batch2","","null","<p class=block-text>Trial 65 out of 78</p>","null","pattern_show_trial_num","","","","","","","","","","","","","","","","","","","","","","","","",""
"","","","","","image-keyboard-response","158","246518","0.0-2.0-7.0-1.25","62d39a47594b3446ba0c1585","B2","batch2","","1130.1999998092651","stim/yes_43_ver_w1_w.png","f","pattern_response","true","f","pattern_65","1130.1999998092651","true","56","","","","","","","","","","","","","","","","","","",""
"","","","","","html-keyboard-response","159","247840","0.0-2.0-7.0-0.26","62d39a47594b3446ba0c1585","B2","batch2","","null","<p class=block-text>Trial 66 out of 78</p>","null","pattern_show_trial_num","","","","","","","","","","","","","","","","","","","","","","","","",""
"","","","","","image-keyboard-response","160","248741","0.0-2.0-7.0-1.26","62d39a47594b3446ba0c1585","B2","batch2","","899.2000002861023","stim/yes_55_hor_w1_w.png","f","pattern_response","true","f","pattern_75","899.2000002861023","true","57","","","","","","","","","","","","","","","","","","",""
"","","","","","html-keyboard-response","161","250064","0.0-2.0-7.0-0.27","62d39a47594b3446ba0c1585","B2","batch2","","null","<p class=block-text>Trial 67 out of 78</p>","null","pattern_show_trial_num","","","","","","","","","","","","","","","","","","","","","","","","",""
"","","","","","image-keyboard-response","162","251905","0.0-2.0-7.0-1.27","62d39a47594b3446ba0c1585","B2","batch2","","1840.7999997138977","stim/yes_67_hor_b1.png","f","pattern_response","true","f","pattern_79","1840.7999997138977","true","58","","","","","","","","","","","","","","","","","","",""
"","","","","","html-keyboard-response","163","253221","0.0-2.0-7.0-0.28","62d39a47594b3446ba0c1585","B2","batch2","","null","<p class=block-text>Trial 68 out of 78</p>","null","pattern_show_trial_num","","","","","","","","","","","","","","","","","","","","","","","","",""
"","","","","","image-keyboard-response","164","254440","0.0-2.0-7.0-1.28","62d39a47594b3446ba0c1585","B2","batch2","","1217.9000000953674","stim/no_20_1_w.png","j","pattern_response","true","j","pattern_06","1217.9000000953674","true","59","","","","","","","","","","","","","","","","","","",""
"","","","","","html-keyboard-response","165","255759","0.0-2.0-7.0-0.29","62d39a47594b3446ba0c1585","B2","batch2","","null","<p class=block-text>Trial 69 out of 78</p>","null","pattern_show_trial_num","","","","","","","","","","","","","","","","","","","","","","","","",""
"","","","","","image-keyboard-response","166","256743","0.0-2.0-7.0-1.29","62d39a47594b3446ba0c1585","B2","batch2","","983.4000000953674","stim/no_26_1_w.png","j","pattern_response","true","j","pattern_10","983.4000000953674","true","60","","","","","","","","","","","","","","","","","","",""
"","","","","","html-keyboard-response","167","258065","0.0-2.0-7.0-0.30","62d39a47594b3446ba0c1585","B2","batch2","","null","<p class=block-text>Trial 70 out of 78</p>","null","pattern_show_trial_num","","","","","","","","","","","","","","","","","","","","","","","","",""
"","","","","","image-keyboard-response","168","259089","0.0-2.0-7.0-1.30","62d39a47594b3446ba0c1585","B2","batch2","","1023","stim/no_17_1_w.png","j","pattern_response","true","j","pattern_04","1023","true","61","","","","","","","","","","","","","","","","","","",""
"","","","","","html-keyboard-response","169","260402","0.0-2.0-7.0-0.31","62d39a47594b3446ba0c1585","B2","batch2","","null","<p class=block-text>Trial 71 out of 78</p>","null","pattern_show_trial_num","","","","","","","","","","","","","","","","","","","","","","","","",""
"","","","","","image-keyboard-response","170","261348","0.0-2.0-7.0-1.31","62d39a47594b3446ba0c1585","B2","batch2","","944.8000001907349","stim/yes_31_hor_b1.png","f","pattern_response","true","f","pattern_55","944.8000001907349","true","62","","","","","","","","","","","","","","","","","","",""
"","","","","","html-keyboard-response","171","262664","0.0-2.0-7.0-0.32","62d39a47594b3446ba0c1585","B2","batch2","","null","<p class=block-text>Trial 72 out of 78</p>","null","pattern_show_trial_num","","","","","","","","","","","","","","","","","","","","","","","","",""
"","","","","","image-keyboard-response","172","265153","0.0-2.0-7.0-1.32","62d39a47594b3446ba0c1585","B2","batch2","","2488.5","stim/yes_50_dia_w1.png","j","pattern_response","false","f","pattern_71","2488.5","false","62","","","","","","","","","","","","","","","","","","",""
"","","","","","html-keyboard-response","173","266470","0.0-2.0-7.0-0.33","62d39a47594b3446ba0c1585","B2","batch2","","null","<p class=block-text>Trial 73 out of 78</p>","null","pattern_show_trial_num","","","","","","","","","","","","","","","","","","","","","","","","",""
"","","","","","image-keyboard-response","174","267703","0.0-2.0-7.0-1.33","62d39a47594b3446ba0c1585","B2","batch2","","1231.5","stim/no_42_1_w.png","j","pattern_response","true","j","pattern_22","1231.5","true","63","","","","","","","","","","","","","","","","","","",""
"","","","","","html-keyboard-response","175","269017","0.0-2.0-7.0-0.34","62d39a47594b3446ba0c1585","B2","batch2","","null","<p class=block-text>Trial 74 out of 78</p>","null","pattern_show_trial_num","","","","","","","","","","","","","","","","","","","","","","","","",""
"","","","","","image-keyboard-response","176","269675","0.0-2.0-7.0-1.34","62d39a47594b3446ba0c1585","B2","batch2","","656.8000001907349","stim/yes_22_ver_w1.png","f","pattern_response","true","f","pattern_47","656.8000001907349","true","64","","","","","","","","","","","","","","","","","","",""
"","","","","","html-keyboard-response","177","270990","0.0-2.0-7.0-0.35","62d39a47594b3446ba0c1585","B2","batch2","","null","<p class=block-text>Trial 75 out of 78</p>","null","pattern_show_trial_num","","","","","","","","","","","","","","","","","","","","","","","","",""
"","","","","","image-keyboard-response","178","272783","0.0-2.0-7.0-1.35","62d39a47594b3446ba0c1585","B2","batch2","","1792.6999998092651","stim/no_62_1_w.png","j","pattern_response","true","j","pattern_36","1792.6999998092651","true","65","","","","","","","","","","","","","","","","","","",""
"","","","","","html-keyboard-response","179","274101","0.0-2.0-7.0-0.36","62d39a47594b3446ba0c1585","B2","batch2","","null","<p class=block-text>Trial 76 out of 78</p>","null","pattern_show_trial_num","","","","","","","","","","","","","","","","","","","","","","","","",""
"","","","","","image-keyboard-response","180","274817","0.0-2.0-7.0-1.36","62d39a47594b3446ba0c1585","B2","batch2","","715.0999999046326","stim/yes_28_ver_b1.png","f","pattern_response","true","f","pattern_51","715.0999999046326","true","66","","","","","","","","","","","","","","","","","","",""
"","","","","","html-keyboard-response","181","276141","0.0-2.0-7.0-0.37","62d39a47594b3446ba0c1585","B2","batch2","","null","<p class=block-text>Trial 77 out of 78</p>","null","pattern_show_trial_num","","","","","","","","","","","","","","","","","","","","","","","","",""
"","","","","","image-keyboard-response","182","277803","0.0-2.0-7.0-1.37","62d39a47594b3446ba0c1585","B2","batch2","","1662.1999998092651","stim/no_44_1.png","j","pattern_response","true","j","pattern_24","1662.1999998092651","true","67","","","","","","","","","","","","","","","","","","",""
"","","","","","html-keyboard-response","183","279122","0.0-2.0-7.0-0.38","62d39a47594b3446ba0c1585","B2","batch2","","null","<p class=block-text>Trial 78 out of 78</p>","null","pattern_show_trial_num","","","","","","","","","","","","","","","","","","","","","","","","",""
"","","","","","image-keyboard-response","184","281256","0.0-2.0-7.0-1.38","62d39a47594b3446ba0c1585","B2","batch2","","2133.5999999046326","stim/no_50_1.png","j","pattern_response","true","j","pattern_30","2133.5999999046326","true","68","","","","","","","","","","","","","","","","","","",""
"","","","","","html-button-response","185","316114","0.0-2.0-8.0","62d39a47594b3446ba0c1585","B2","batch2","","34342.90000009537","<p class = block-text>This concludes the 4-in-a-row detection game.Thank you for your responses!<br>
            You responded correctly on 87% of the trials.<br>
            When you are ready, press ""Continue"" button to continue </p>","0","","","","","","","","","","","","","","","","","","","","","","","","","",""
"true","","","","","fullscreen","186","320258","0.0-3.0-0.0","62d39a47594b3446ba0c1585","B2","batch2","","","","","spm_fullscreen","","","","","","","","","","","","","","","","","","","","","","","","",""
"","","","","","html-button-response","187","326765","0.0-3.0-1.0","62d39a47594b3446ba0c1585","B2","batch2","","6505.900000095367","<p class = block-text><b>Instructions</b> <br>This is a widely used intelligence test in research. <br>In this test, a figure with a missing piece will be presented.<br>Below the figure are alternative pieces to complete the figure, only one of which is correct.<br> Different figures might involve different principles for obtaining the missing piece<br>Your job is to select the most logical piece to complete the figure.</p>","0","","","","","","","","","","","","","","","","","","","","","","","","","",""
"","","","","","html-keyboard-response","188","327580","0.0-3.0-2.0-0.0","62d39a47594b3446ba0c1585","B2","batch2","","null","<p class=block-text>Trial 1 out of 60</p>","null","spm_show_trial_num","","","","","","","","","","","","","","","","","","","","","","","","",""
"","","","","","image-button-response","189","332855","0.0-3.0-2.0-1.0","62d39a47594b3446ba0c1585","B2","batch2","","5273.699999809265","img/question_1_1.jpeg","3","spm_respsonse","1","4","mat_01","","","","","","1","5273.699999809265","","","","","","","","","","","","","","",""
"","","","","","html-keyboard-response","190","333924","0.0-3.0-2.0-0.1","62d39a47594b3446ba0c1585","B2","batch2","","null","<p class=block-text>Trial 2 out of 60</p>","null","spm_show_trial_num","","","","","","","","","","","","","","","","","","","","","","","","",""
"","","","","","image-button-response","191","336911","0.0-3.0-2.0-1.1","62d39a47594b3446ba0c1585","B2","batch2","","2985.8999996185303","img/question_1_2.jpeg","4","spm_respsonse","1","5","mat_02","","","","","","1","2985.8999996185303","","","","","","","","","","","","","","",""
"","","","","","html-keyboard-response","192","337963","0.0-3.0-2.0-0.2","62d39a47594b3446ba0c1585","B2","batch2","","null","<p class=block-text>Trial 3 out of 60</p>","null","spm_show_trial_num","","","","","","","","","","","","","","","","","","","","","","","","",""
"","","","","","image-button-response","193","340464","0.0-3.0-2.0-1.2","62d39a47594b3446ba0c1585","B2","batch2","","2499.800000190735","img/question_1_3.jpeg","0","spm_respsonse","1","1","mat_03","","","","","","1","2499.800000190735","","","","","","","","","","","","","","",""
"","","","","","html-keyboard-response","194","341526","0.0-3.0-2.0-0.3","62d39a47594b3446ba0c1585","B2","batch2","","null","<p class=block-text>Trial 4 out of 60</p>","null","spm_show_trial_num","","","","","","","","","","","","","","","","","","","","","","","","",""
"","","","","","image-button-response","195","345708","0.0-3.0-2.0-1.3","62d39a47594b3446ba0c1585","B2","batch2","","4180.599999904633","img/question_1_4.jpeg","2","spm_respsonse","0","2","mat_04","","","","","","0","4180.599999904633","","","","","","","","","","","","","","",""
"","","","","","html-keyboard-response","196","346766","0.0-3.0-2.0-0.4","62d39a47594b3446ba0c1585","B2","batch2","","null","<p class=block-text>Trial 5 out of 60</p>","null","spm_show_trial_num","","","","","","","","","","","","","","","","","","","","","","","","",""
"","","","","","image-button-response","197","350088","0.0-3.0-2.0-1.4","62d39a47594b3446ba0c1585","B2","batch2","","3320.699999809265","img/question_1_5.jpeg","5","spm_respsonse","1","6","mat_05","","","","","","1","3320.699999809265","","","","","","","","","","","","","","",""
"","","","","","html-keyboard-response","198","351154","0.0-3.0-2.0-0.5","62d39a47594b3446ba0c1585","B2","batch2","","null","<p class=block-text>Trial 6 out of 60</p>","null","spm_show_trial_num","","","","","","","","","","","","","","","","","","","","","","","","",""
"","","","","","image-button-response","199","354433","0.0-3.0-2.0-1.5","62d39a47594b3446ba0c1585","B2","batch2","","3277.9000000953674","img/question_1_6.jpeg","2","spm_respsonse","1","3","mat_06","","","","","","1","3277.9000000953674","","","","","","","","","","","","","","",""
"","","","","","html-keyboard-response","200","355500","0.0-3.0-2.0-0.6","62d39a47594b3446ba0c1585","B2","batch2","","null","<p class=block-text>Trial 7 out of 60</p>","null","spm_show_trial_num","","","","","","","","","","","","","","","","","","","","","","","","",""
"","","","","","image-button-response","201","359521","0.0-3.0-2.0-1.6","62d39a47594b3446ba0c1585","B2","batch2","","4019.300000190735","img/question_1_7.jpeg","5","spm_respsonse","1","6","mat_07","","","","","","1","4019.300000190735","","","","","","","","","","","","","","",""
"","","","","","html-keyboard-response","202","360573","0.0-3.0-2.0-0.7","62d39a47594b3446ba0c1585","B2","batch2","","null","<p class=block-text>Trial 8 out of 60</p>","null","spm_show_trial_num","","","","","","","","","","","","","","","","","","","","","","","","",""
"","","","","","image-button-response","203","366859","0.0-3.0-2.0-1.7","62d39a47594b3446ba0c1585","B2","batch2","","6284.800000190735","img/question_1_8.jpeg","3","spm_respsonse","0","2","mat_08","","","","","","0","6284.800000190735","","","","","","","","","","","","","","",""
"","","","","","html-keyboard-response","204","367922","0.0-3.0-2.0-0.8","62d39a47594b3446ba0c1585","B2","batch2","","null","<p class=block-text>Trial 9 out of 60</p>","null","spm_show_trial_num","","","","","","","","","","","","","","","","","","","","","","","","",""
"","","","","","image-button-response","205","372013","0.0-3.0-2.0-1.8","62d39a47594b3446ba0c1585","B2","batch2","","4089.5999999046326","img/question_1_9.jpeg","0","spm_respsonse","1","1","mat_09","","","","","","1","4089.5999999046326","","","","","","","","","","","","","","",""
"","","","","","html-keyboard-response","206","373064","0.0-3.0-2.0-0.9","62d39a47594b3446ba0c1585","B2","batch2","","null","<p class=block-text>Trial 10 out of 60</p>","null","spm_show_trial_num","","","","","","","","","","","","","","","","","","","","","","","","",""
"","","","","","image-button-response","207","378138","0.0-3.0-2.0-1.9","62d39a47594b3446ba0c1585","B2","batch2","","5073.799999713898","img/question_1_10.jpeg","2","spm_respsonse","1","3","mat_10","","","","","","1","5073.799999713898","","","","","","","","","","","","","","",""
"","","","","","html-keyboard-response","208","379200","0.0-3.0-2.0-0.10","62d39a47594b3446ba0c1585","B2","batch2","","null","<p class=block-text>Trial 11 out of 60</p>","null","spm_show_trial_num","","","","","","","","","","","","","","","","","","","","","","","","",""
"","","","","","image-button-response","209","384588","0.0-3.0-2.0-1.10","62d39a47594b3446ba0c1585","B2","batch2","","5387.299999713898","img/question_1_11.jpeg","3","spm_respsonse","1","4","mat_11","","","","","","1","5387.299999713898","","","","","","","","","","","","","","",""
"","","","","","html-keyboard-response","210","385650","0.0-3.0-2.0-0.11","62d39a47594b3446ba0c1585","B2","batch2","","null","<p class=block-text>Trial 12 out of 60</p>","null","spm_show_trial_num","","","","","","","","","","","","","","","","","","","","","","","","",""
"","","","","","image-button-response","211","391021","0.0-3.0-2.0-1.11","62d39a47594b3446ba0c1585","B2","batch2","","5370.199999809265","img/question_1_12.jpeg","0","spm_respsonse","0","5","mat_12","","","","","","0","5370.199999809265","","","","","","","","","","","","","","",""
"","","","","","html-keyboard-response","212","392081","0.0-3.0-2.0-0.12","62d39a47594b3446ba0c1585","B2","batch2","","null","<p class=block-text>Trial 13 out of 60</p>","null","spm_show_trial_num","","","","","","","","","","","","","","","","","","","","","","","","",""
"","","","","","image-button-response","213","396655","0.0-3.0-2.0-1.12","62d39a47594b3446ba0c1585","B2","batch2","","4572.699999809265","img/question_2_1.jpeg","1","spm_respsonse","1","2","mat_13","","","","","","1","4572.699999809265","","","","","","","","","","","","","","",""
"","","","","","html-keyboard-response","214","397728","0.0-3.0-2.0-0.13","62d39a47594b3446ba0c1585","B2","batch2","","null","<p class=block-text>Trial 14 out of 60</p>","null","spm_show_trial_num","","","","","","","","","","","","","","","","","","","","","","","","",""
"","","","","","image-button-response","215","402032","0.0-3.0-2.0-1.13","62d39a47594b3446ba0c1585","B2","batch2","","4302.599999904633","img/question_2_2.jpeg","5","spm_respsonse","1","6","mat_14","","","","","","1","4302.599999904633","","","","","","","","","","","","","","",""
"","","","","","html-keyboard-response","216","403093","0.0-3.0-2.0-0.14","62d39a47594b3446ba0c1585","B2","batch2","","null","<p class=block-text>Trial 15 out of 60</p>","null","spm_show_trial_num","","","","","","","","","","","","","","","","","","","","","","","","",""
"","","","","","image-button-response","217","407660","0.0-3.0-2.0-1.14","62d39a47594b3446ba0c1585","B2","batch2","","4565.900000095367","img/question_2_3.jpeg","0","spm_respsonse","1","1","mat_15","","","","","","1","4565.900000095367","","","","","","","","","","","","","","",""
"","","","","","html-keyboard-response","218","408719","0.0-3.0-2.0-0.15","62d39a47594b3446ba0c1585","B2","batch2","","null","<p class=block-text>Trial 16 out of 60</p>","null","spm_show_trial_num","","","","","","","","","","","","","","","","","","","","","","","","",""
"","","","","","image-button-response","219","411153","0.0-3.0-2.0-1.15","62d39a47594b3446ba0c1585","B2","batch2","","2432.699999809265","img/question_2_4.jpeg","1","spm_respsonse","1","2","mat_16","","","","","","1","2432.699999809265","","","","","","","","","","","","","","",""
"","","","","","html-keyboard-response","220","412225","0.0-3.0-2.0-0.16","62d39a47594b3446ba0c1585","B2","batch2","","null","<p class=block-text>Trial 17 out of 60</p>","null","spm_show_trial_num","","","","","","","","","","","","","","","","","","","","","","","","",""
"","","","","","image-button-response","221","415821","0.0-3.0-2.0-1.16","62d39a47594b3446ba0c1585","B2","batch2","","3595.4000000953674","img/question_2_5.jpeg","0","spm_respsonse","1","1","mat_17","","","","","","1","3595.4000000953674","","","","","","","","","","","","","","",""
"","","","","","html-keyboard-response","222","416876","0.0-3.0-2.0-0.17","62d39a47594b3446ba0c1585","B2","batch2","","null","<p class=block-text>Trial 18 out of 60</p>","null","spm_show_trial_num","","","","","","","","","","","","","","","","","","","","","","","","",""
"","","","","","image-button-response","223","419901","0.0-3.0-2.0-1.17","62d39a47594b3446ba0c1585","B2","batch2","","3024.300000190735","img/question_2_6.jpeg","1","spm_respsonse","0","3","mat_18","","","","","","0","3024.300000190735","","","","","","","","","","","","","","",""
"","","","","","html-keyboard-response","224","420969","0.0-3.0-2.0-0.18","62d39a47594b3446ba0c1585","B2","batch2","","null","<p class=block-text>Trial 19 out of 60</p>","null","spm_show_trial_num","","","","","","","","","","","","","","","","","","","","","","","","",""
"","","","","","image-button-response","225","425919","0.0-3.0-2.0-1.18","62d39a47594b3446ba0c1585","B2","batch2","","4949.400000095367","img/question_2_7.jpeg","5","spm_respsonse","0","5","mat_19","","","","","","0","4949.400000095367","","","","","","","","","","","","","","",""
"","","","","","html-keyboard-response","226","426983","0.0-3.0-2.0-0.19","62d39a47594b3446ba0c1585","B2","batch2","","null","<p class=block-text>Trial 20 out of 60</p>","null","spm_show_trial_num","","","","","","","","","","","","","","","","","","","","","","","","",""
"","","","","","image-button-response","227","430810","0.0-3.0-2.0-1.19","62d39a47594b3446ba0c1585","B2","batch2","","3826.800000190735","img/question_2_8.jpeg","2","spm_respsonse","0","6","mat_20","","","","","","0","3826.800000190735","","","","","","","","","","","","","","",""
"","","","","","html-keyboard-response","228","431885","0.0-3.0-2.0-0.20","62d39a47594b3446ba0c1585","B2","batch2","","null","<p class=block-text>Trial 21 out of 60</p>","null","spm_show_trial_num","","","","","","","","","","","","","","","","","","","","","","","","",""
"","","","","","image-button-response","229","435802","0.0-3.0-2.0-1.20","62d39a47594b3446ba0c1585","B2","batch2","","3915.9000000953674","img/question_2_9.jpeg","3","spm_respsonse","1","4","mat_21","","","","","","1","3915.9000000953674","","","","","","","","","","","","","","",""
"","","","","","html-keyboard-response","230","436870","0.0-3.0-2.0-0.21","62d39a47594b3446ba0c1585","B2","batch2","","null","<p class=block-text>Trial 22 out of 60</p>","null","spm_show_trial_num","","","","","","","","","","","","","","","","","","","","","","","","",""
"","","","","","image-button-response","231","444437","0.0-3.0-2.0-1.21","62d39a47594b3446ba0c1585","B2","batch2","","7565.400000095367","img/question_2_10.jpeg","5","spm_respsonse","0","3","mat_22","","","","","","0","7565.400000095367","","","","","","","","","","","","","","",""
"","","","","","html-keyboard-response","232","445498","0.0-3.0-2.0-0.22","62d39a47594b3446ba0c1585","B2","batch2","","null","<p class=block-text>Trial 23 out of 60</p>","null","spm_show_trial_num","","","","","","","","","","","","","","","","","","","","","","","","",""
"","","","","","image-button-response","233","452268","0.0-3.0-2.0-1.22","62d39a47594b3446ba0c1585","B2","batch2","","6768.300000190735","img/question_2_11.jpeg","3","spm_respsonse","1","4","mat_23","","","","","","1","6768.300000190735","","","","","","","","","","","","","","",""
"","","","","","html-keyboard-response","234","453335","0.0-3.0-2.0-0.23","62d39a47594b3446ba0c1585","B2","batch2","","null","<p class=block-text>Trial 24 out of 60</p>","null","spm_show_trial_num","","","","","","","","","","","","","","","","","","","","","","","","",""
"","","","","","image-button-response","235","456595","0.0-3.0-2.0-1.23","62d39a47594b3446ba0c1585","B2","batch2","","3258.9000000953674","img/question_2_12.jpeg","0","spm_respsonse","0","5","mat_24","","","","","","0","3258.9000000953674","","","","","","","","","","","","","","",""
"","","","","","html-button-response","236","459043","0.0-3.0-3.0","62d39a47594b3446ba0c1585","B2","batch2","","2191.800000190735","<p class = block-text>Attention check: Please choose 1<br></p>","0","attention_check","true","","","","","","","","","","","","","","","","","","","","","","","",""
"","","","","","html-keyboard-response","237","459857","0.0-3.0-4.0-0.0","62d39a47594b3446ba0c1585","B2","batch2","","null","<p class=block-text>Trial 25 out of 60</p>","null","spm_show_trial_num","","","","","","","","","","","","","","","","","","","","","","","","",""
"","","","","","image-button-response","238","468134","0.0-3.0-4.0-1.0","62d39a47594b3446ba0c1585","B2","batch2","","8276","img/question_3_1.jpeg","7","spm_respsonse","1","8","mat_25","","","","","","1","8276","","","","","","","","","","","","","","",""
"","","","","","html-keyboard-response","239","469191","0.0-3.0-4.0-0.1","62d39a47594b3446ba0c1585","B2","batch2","","null","<p class=block-text>Trial 26 out of 60</p>","null","spm_show_trial_num","","","","","","","","","","","","","","","","","","","","","","","","",""
"","","","","","image-button-response","240","474087","0.0-3.0-4.0-1.1","62d39a47594b3446ba0c1585","B2","batch2","","4894.699999809265","img/question_3_2.jpeg","1","spm_respsonse","1","2","mat_26","","","","","","1","4894.699999809265","","","","","","","","","","","","","","",""
"","","","","","html-keyboard-response","241","475149","0.0-3.0-4.0-0.2","62d39a47594b3446ba0c1585","B2","batch2","","null","<p class=block-text>Trial 27 out of 60</p>","null","spm_show_trial_num","","","","","","","","","","","","","","","","","","","","","","","","",""
"","","","","","image-button-response","242","479638","0.0-3.0-4.0-1.2","62d39a47594b3446ba0c1585","B2","batch2","","4487.599999904633","img/question_3_3.jpeg","2","spm_respsonse","1","3","mat_27","","","","","","1","4487.599999904633","","","","","","","","","","","","","","",""
"","","","","","html-keyboard-response","243","480690","0.0-3.0-4.0-0.3","62d39a47594b3446ba0c1585","B2","batch2","","null","<p class=block-text>Trial 28 out of 60</p>","null","spm_show_trial_num","","","","","","","","","","","","","","","","","","","","","","","","",""
"","","","","","image-button-response","244","483286","0.0-3.0-4.0-1.3","62d39a47594b3446ba0c1585","B2","batch2","","2594.6000003814697","img/question_3_4.jpeg","7","spm_respsonse","1","8","mat_28","","","","","","1","2594.6000003814697","","","","","","","","","","","","","","",""
"","","","","","html-keyboard-response","245","484353","0.0-3.0-4.0-0.4","62d39a47594b3446ba0c1585","B2","batch2","","null","<p class=block-text>Trial 29 out of 60</p>","null","spm_show_trial_num","","","","","","","","","","","","","","","","","","","","","","","","",""
"","","","","","image-button-response","246","498330","0.0-3.0-4.0-1.4","62d39a47594b3446ba0c1585","B2","batch2","","13975.800000190735","img/question_3_5.jpeg","7","spm_respsonse","0","7","mat_29","","","","","","0","13975.800000190735","","","","","","","","","","","","","","",""
"","","","","","html-keyboard-response","247","499391","0.0-3.0-4.0-0.5","62d39a47594b3446ba0c1585","B2","batch2","","null","<p class=block-text>Trial 30 out of 60</p>","null","spm_show_trial_num","","","","","","","","","","","","","","","","","","","","","","","","",""
"","","","","","image-button-response","248","501756","0.0-3.0-4.0-1.5","62d39a47594b3446ba0c1585","B2","batch2","","2363.300000190735","img/question_3_6.jpeg","3","spm_respsonse","1","4","mat_30","","","","","","1","2363.300000190735","","","","","","","","","","","","","","",""
"","","","","","html-keyboard-response","249","502818","0.0-3.0-4.0-0.6","62d39a47594b3446ba0c1585","B2","batch2","","null","<p class=block-text>Trial 31 out of 60</p>","null","spm_show_trial_num","","","","","","","","","","","","","","","","","","","","","","","","",""
"","","","","","image-button-response","250","508129","0.0-3.0-4.0-1.6","62d39a47594b3446ba0c1585","B2","batch2","","5309.39999961853","img/question_3_7.jpeg","4","spm_respsonse","1","5","mat_31","","","","","","1","5309.39999961853","","","","","","","","","","","","","","",""
"","","","","","html-keyboard-response","251","509187","0.0-3.0-4.0-0.7","62d39a47594b3446ba0c1585","B2","batch2","","null","<p class=block-text>Trial 32 out of 60</p>","null","spm_show_trial_num","","","","","","","","","","","","","","","","","","","","","","","","",""
"","","","","","image-button-response","252","511993","0.0-3.0-4.0-1.7","62d39a47594b3446ba0c1585","B2","batch2","","2804.5999999046326","img/question_3_8.jpeg","4","spm_respsonse","0","1","mat_32","","","","","","0","2804.5999999046326","","","","","","","","","","","","","","",""
"","","","","","html-keyboard-response","253","513066","0.0-3.0-4.0-0.8","62d39a47594b3446ba0c1585","B2","batch2","","null","<p class=block-text>Trial 33 out of 60</p>","null","spm_show_trial_num","","","","","","","","","","","","","","","","","","","","","","","","",""
"","","","","","image-button-response","254","518438","0.0-3.0-4.0-1.8","62d39a47594b3446ba0c1585","B2","batch2","","5371","img/question_3_9.jpeg","0","spm_respsonse","0","7","mat_33","","","","","","0","5371","","","","","","","","","","","","","","",""
"","","","","","html-keyboard-response","255","519502","0.0-3.0-4.0-0.9","62d39a47594b3446ba0c1585","B2","batch2","","null","<p class=block-text>Trial 34 out of 60</p>","null","spm_show_trial_num","","","","","","","","","","","","","","","","","","","","","","","","",""
"","","","","","image-button-response","256","527283","0.0-3.0-4.0-1.9","62d39a47594b3446ba0c1585","B2","batch2","","7779.599999904633","img/question_3_10.jpeg","7","spm_respsonse","0","6","mat_34","","","","","","0","7779.599999904633","","","","","","","","","","","","","","",""
"","","","","","html-keyboard-response","257","528338","0.0-3.0-4.0-0.10","62d39a47594b3446ba0c1585","B2","batch2","","null","<p class=block-text>Trial 35 out of 60</p>","null","spm_show_trial_num","","","","","","","","","","","","","","","","","","","","","","","","",""
"","","","","","image-button-response","258","535408","0.0-3.0-4.0-1.10","62d39a47594b3446ba0c1585","B2","batch2","","7069","img/question_3_11.jpeg","0","spm_respsonse","1","1","mat_35","","","","","","1","7069","","","","","","","","","","","","","","",""
"","","","","","html-keyboard-response","259","536460","0.0-3.0-4.0-0.11","62d39a47594b3446ba0c1585","B2","batch2","","null","<p class=block-text>Trial 36 out of 60</p>","null","spm_show_trial_num","","","","","","","","","","","","","","","","","","","","","","","","",""
"","","","","","image-button-response","260","537886","0.0-3.0-4.0-1.11","62d39a47594b3446ba0c1585","B2","batch2","","1424.6999998092651","img/question_3_12.jpeg","2","spm_respsonse","0","2","mat_36","","","","","","0","1424.6999998092651","","","","","","","","","","","","","","",""
"","","","","","html-keyboard-response","261","538944","0.0-3.0-4.0-0.12","62d39a47594b3446ba0c1585","B2","batch2","","null","<p class=block-text>Trial 37 out of 60</p>","null","spm_show_trial_num","","","","","","","","","","","","","","","","","","","","","","","","",""
"","","","","","image-button-response","262","544001","0.0-3.0-4.0-1.12","62d39a47594b3446ba0c1585","B2","batch2","","5056.099999904633","img/question_4_1.jpeg","2","spm_respsonse","1","3","mat_37","","","","","","1","5056.099999904633","","","","","","","","","","","","","","",""
"","","","","","html-keyboard-response","263","545068","0.0-3.0-4.0-0.13","62d39a47594b3446ba0c1585","B2","batch2","","null","<p class=block-text>Trial 38 out of 60</p>","null","spm_show_trial_num","","","","","","","","","","","","","","","","","","","","","","","","",""
"","","","","","image-button-response","264","548735","0.0-3.0-4.0-1.13","62d39a47594b3446ba0c1585","B2","batch2","","3665.7000002861023","img/question_4_2.jpeg","3","spm_respsonse","1","4","mat_38","","","","","","1","3665.7000002861023","","","","","","","","","","","","","","",""
"","","","","","html-keyboard-response","265","549811","0.0-3.0-4.0-0.14","62d39a47594b3446ba0c1585","B2","batch2","","null","<p class=block-text>Trial 39 out of 60</p>","null","spm_show_trial_num","","","","","","","","","","","","","","","","","","","","","","","","",""
"","","","","","image-button-response","266","554346","0.0-3.0-4.0-1.14","62d39a47594b3446ba0c1585","B2","batch2","","4533.200000286102","img/question_4_3.jpeg","2","spm_respsonse","1","3","mat_39","","","","","","1","4533.200000286102","","","","","","","","","","","","","","",""
"","","","","","html-keyboard-response","267","555412","0.0-3.0-4.0-0.15","62d39a47594b3446ba0c1585","B2","batch2","","null","<p class=block-text>Trial 40 out of 60</p>","null","spm_show_trial_num","","","","","","","","","","","","","","","","","","","","","","","","",""
"","","","","","image-button-response","268","556998","0.0-3.0-4.0-1.15","62d39a47594b3446ba0c1585","B2","batch2","","1584.5999999046326","img/question_4_4.jpeg","2","spm_respsonse","0","7","mat_40","","","","","","0","1584.5999999046326","","","","","","","","","","","","","","",""
"","","","","","html-keyboard-response","269","558050","0.0-3.0-4.0-0.16","62d39a47594b3446ba0c1585","B2","batch2","","null","<p class=block-text>Trial 41 out of 60</p>","null","spm_show_trial_num","","","","","","","","","","","","","","","","","","","","","","","","",""
"","","","","","image-button-response","270","567278","0.0-3.0-4.0-1.16","62d39a47594b3446ba0c1585","B2","batch2","","9227","img/question_4_5.jpeg","7","spm_respsonse","1","8","mat_41","","","","","","1","9227","","","","","","","","","","","","","","",""
"","","","","","html-keyboard-response","271","568330","0.0-3.0-4.0-0.17","62d39a47594b3446ba0c1585","B2","batch2","","null","<p class=block-text>Trial 42 out of 60</p>","null","spm_show_trial_num","","","","","","","","","","","","","","","","","","","","","","","","",""
"","","","","","image-button-response","272","571581","0.0-3.0-4.0-1.17","62d39a47594b3446ba0c1585","B2","batch2","","3249.800000190735","img/question_4_6.jpeg","2","spm_respsonse","0","6","mat_42","","","","","","0","3249.800000190735","","","","","","","","","","","","","","",""
"","","","","","html-keyboard-response","273","572632","0.0-3.0-4.0-0.18","62d39a47594b3446ba0c1585","B2","batch2","","null","<p class=block-text>Trial 43 out of 60</p>","null","spm_show_trial_num","","","","","","","","","","","","","","","","","","","","","","","","",""
"","","","","","image-button-response","274","573939","0.0-3.0-4.0-1.18","62d39a47594b3446ba0c1585","B2","batch2","","1305.6000003814697","img/question_4_7.jpeg","3","spm_respsonse","0","5","mat_43","","","","","","0","1305.6000003814697","","","","","","","","","","","","","","",""
"","","","","","html-keyboard-response","275","574991","0.0-3.0-4.0-0.19","62d39a47594b3446ba0c1585","B2","batch2","","null","<p class=block-text>Trial 44 out of 60</p>","null","spm_show_trial_num","","","","","","","","","","","","","","","","","","","","","","","","",""
"","","","","","image-button-response","276","575385","0.0-3.0-4.0-1.19","62d39a47594b3446ba0c1585","B2","batch2","","393.09999990463257","img/question_4_8.jpeg","5","spm_respsonse","0","4","mat_44","","","","","","0","393.09999990463257","","","","","","","","","","","","","","",""
"","","","","","html-keyboard-response","277","576436","0.0-3.0-4.0-0.20","62d39a47594b3446ba0c1585","B2","batch2","","null","<p class=block-text>Trial 45 out of 60</p>","null","spm_show_trial_num","","","","","","","","","","","","","","","","","","","","","","","","",""
"","","","","","image-button-response","278","576729","0.0-3.0-4.0-1.20","62d39a47594b3446ba0c1585","B2","batch2","","291.80000019073486","img/question_4_9.jpeg","2","spm_respsonse","0","1","mat_45","","","","","","0","291.80000019073486","","","","","","","","","","","","","","",""
"","","","","","html-keyboard-response","279","577781","0.0-3.0-4.0-0.21","62d39a47594b3446ba0c1585","B2","batch2","","null","<p class=block-text>Trial 46 out of 60</p>","null","spm_show_trial_num","","","","","","","","","","","","","","","","","","","","","","","","",""
"","","","","","image-button-response","280","577989","0.0-3.0-4.0-1.21","62d39a47594b3446ba0c1585","B2","batch2","","206.7000002861023","img/question_4_10.jpeg","4","spm_respsonse","0","2","mat_46","","","","","","0","206.7000002861023","","","","","","","","","","","","","","",""
"","","","","","html-keyboard-response","281","579043","0.0-3.0-4.0-0.22","62d39a47594b3446ba0c1585","B2","batch2","","null","<p class=block-text>Trial 47 out of 60</p>","null","spm_show_trial_num","","","","","","","","","","","","","","","","","","","","","","","","",""
"","","","","","image-button-response","282","583330","0.0-3.0-4.0-1.22","62d39a47594b3446ba0c1585","B2","batch2","","4285.5","img/question_4_11.jpeg","7","spm_respsonse","0","5","mat_47","","","","","","0","4285.5","","","","","","","","","","","","","","",""
"","","","","","html-keyboard-response","283","584381","0.0-3.0-4.0-0.23","62d39a47594b3446ba0c1585","B2","batch2","","null","<p class=block-text>Trial 48 out of 60</p>","null","spm_show_trial_num","","","","","","","","","","","","","","","","","","","","","","","","",""
"","","","","","image-button-response","284","591209","0.0-3.0-4.0-1.23","62d39a47594b3446ba0c1585","B2","batch2","","6826.700000286102","img/question_4_12.jpeg","0","spm_respsonse","0","6","mat_48","","","","","","0","6826.700000286102","","","","","","","","","","","","","","",""
"","","","","","html-keyboard-response","285","592271","0.0-3.0-4.0-0.24","62d39a47594b3446ba0c1585","B2","batch2","","null","<p class=block-text>Trial 49 out of 60</p>","null","spm_show_trial_num","","","","","","","","","","","","","","","","","","","","","","","","",""
"","","","","","image-button-response","286","596664","0.0-3.0-4.0-1.24","62d39a47594b3446ba0c1585","B2","batch2","","4391.200000286102","img/question_5_1.jpeg","0","spm_respsonse","0","7","mat_49","","","","","","0","4391.200000286102","","","","","","","","","","","","","","",""
"","","","","","html-keyboard-response","287","597731","0.0-3.0-4.0-0.25","62d39a47594b3446ba0c1585","B2","batch2","","null","<p class=block-text>Trial 50 out of 60</p>","null","spm_show_trial_num","","","","","","","","","","","","","","","","","","","","","","","","",""
"","","","","","image-button-response","288","602089","0.0-3.0-4.0-1.25","62d39a47594b3446ba0c1585","B2","batch2","","4356.700000286102","img/question_5_2.jpeg","2","spm_respsonse","0","6","mat_50","","","","","","0","4356.700000286102","","","","","","","","","","","","","","",""
"","","","","","html-keyboard-response","289","603143","0.0-3.0-4.0-0.26","62d39a47594b3446ba0c1585","B2","batch2","","null","<p class=block-text>Trial 51 out of 60</p>","null","spm_show_trial_num","","","","","","","","","","","","","","","","","","","","","","","","",""
"","","","","","image-button-response","290","604214","0.0-3.0-4.0-1.26","62d39a47594b3446ba0c1585","B2","batch2","","1069.7000002861023","img/question_5_3.jpeg","4","spm_respsonse","0","8","mat_51","","","","","","0","1069.7000002861023","","","","","","","","","","","","","","",""
"","","","","","html-keyboard-response","291","605266","0.0-3.0-4.0-0.27","62d39a47594b3446ba0c1585","B2","batch2","","null","<p class=block-text>Trial 52 out of 60</p>","null","spm_show_trial_num","","","","","","","","","","","","","","","","","","","","","","","","",""
"","","","","","image-button-response","292","605486","0.0-3.0-4.0-1.27","62d39a47594b3446ba0c1585","B2","batch2","","218.59999990463257","img/question_5_4.jpeg","6","spm_respsonse","0","2","mat_52","","","","","","0","218.59999990463257","","","","","","","","","","","","","","",""
"","","","","","html-keyboard-response","293","606551","0.0-3.0-4.0-0.28","62d39a47594b3446ba0c1585","B2","batch2","","null","<p class=block-text>Trial 53 out of 60</p>","null","spm_show_trial_num","","","","","","","","","","","","","","","","","","","","","","","","",""
"","","","","","image-button-response","294","607238","0.0-3.0-4.0-1.28","62d39a47594b3446ba0c1585","B2","batch2","","686","img/question_5_5.jpeg","1","spm_respsonse","0","1","mat_53","","","","","","0","686","","","","","","","","","","","","","","",""
"","","","","","html-keyboard-response","295","608299","0.0-3.0-4.0-0.29","62d39a47594b3446ba0c1585","B2","batch2","","null","<p class=block-text>Trial 54 out of 60</p>","null","spm_show_trial_num","","","","","","","","","","","","","","","","","","","","","","","","",""
"","","","","","image-button-response","296","608642","0.0-3.0-4.0-1.29","62d39a47594b3446ba0c1585","B2","batch2","","341.7999997138977","img/question_5_6.jpeg","5","spm_respsonse","0","5","mat_54","","","","","","0","341.7999997138977","","","","","","","","","","","","","","",""
"","","","","","html-keyboard-response","297","609706","0.0-3.0-4.0-0.30","62d39a47594b3446ba0c1585","B2","batch2","","null","<p class=block-text>Trial 55 out of 60</p>","null","spm_show_trial_num","","","","","","","","","","","","","","","","","","","","","","","","",""
"","","","","","image-button-response","298","610082","0.0-3.0-4.0-1.30","62d39a47594b3446ba0c1585","B2","batch2","","374.5","img/question_5_7.jpeg","7","spm_respsonse","0","1","mat_55","","","","","","0","374.5","","","","","","","","","","","","","","",""
"","","","","","html-keyboard-response","299","611135","0.0-3.0-4.0-0.31","62d39a47594b3446ba0c1585","B2","batch2","","null","<p class=block-text>Trial 56 out of 60</p>","null","spm_show_trial_num","","","","","","","","","","","","","","","","","","","","","","","","",""
"","","","","","image-button-response","300","611541","0.0-3.0-4.0-1.31","62d39a47594b3446ba0c1585","B2","batch2","","405","img/question_5_8.jpeg","3","spm_respsonse","0","6","mat_56","","","","","","0","405","","","","","","","","","","","","","","",""
"","","","","","html-keyboard-response","301","612600","0.0-3.0-4.0-0.32","62d39a47594b3446ba0c1585","B2","batch2","","null","<p class=block-text>Trial 57 out of 60</p>","null","spm_show_trial_num","","","","","","","","","","","","","","","","","","","","","","","","",""
"","","","","","image-button-response","302","613016","0.0-3.0-4.0-1.32","62d39a47594b3446ba0c1585","B2","batch2","","415.7999997138977","img/question_5_9.jpeg","1","spm_respsonse","0","3","mat_57","","","","","","0","415.7999997138977","","","","","","","","","","","","","","",""
"","","","","","html-keyboard-response","303","614082","0.0-3.0-4.0-0.33","62d39a47594b3446ba0c1585","B2","batch2","","null","<p class=block-text>Trial 58 out of 60</p>","null","spm_show_trial_num","","","","","","","","","","","","","","","","","","","","","","","","",""
"","","","","","image-button-response","304","614433","0.0-3.0-4.0-1.33","62d39a47594b3446ba0c1585","B2","batch2","","349.90000009536743","img/question_5_10.jpeg","5","spm_respsonse","0","2","mat_58","","","","","","0","349.90000009536743","","","","","","","","","","","","","","",""
"","","","","","html-keyboard-response","305","615486","0.0-3.0-4.0-0.34","62d39a47594b3446ba0c1585","B2","batch2","","null","<p class=block-text>Trial 59 out of 60</p>","null","spm_show_trial_num","","","","","","","","","","","","","","","","","","","","","","","","",""
"","","","","","image-button-response","306","615825","0.0-3.0-4.0-1.34","62d39a47594b3446ba0c1585","B2","batch2","","338.2999997138977","img/question_5_11.jpeg","3","spm_respsonse","1","4","mat_59","","","","","","1","338.2999997138977","","","","","","","","","","","","","","",""
"","","","","","html-keyboard-response","307","616877","0.0-3.0-4.0-0.35","62d39a47594b3446ba0c1585","B2","batch2","","null","<p class=block-text>Trial 60 out of 60</p>","null","spm_show_trial_num","","","","","","","","","","","","","","","","","","","","","","","","",""
"","","","","","image-button-response","308","617566","0.0-3.0-4.0-1.35","62d39a47594b3446ba0c1585","B2","batch2","","688.2000002861023","img/question_5_12.jpeg","3","spm_respsonse","0","5","mat_60","","","","","","0","688.2000002861023","","","","","","","","","","","","","","",""
"","","","","","html-button-response","309","620409","0.0-3.0-5.0","62d39a47594b3446ba0c1585","B2","batch2","","2579.7999997138977","<p class= block-text>This concludes the Standard Progressive Matrix game. Thank you for your responses!<br> When you are ready, click the button continue</p>","0","spm_goodbye","","","","","","","","","","","","","","","","","","","","","","","","",""
"true","","","","","fullscreen","310","623246","0.0-4.0-0.0","62d39a47594b3446ba0c1585","B2","batch2","","","","","","","","","","","","","","","","","","","","","","","","","","","","","",""
"","","","","","instructions","311","656133","0.0-4.0-1.0-0.0-0.0","62d39a47594b3446ba0c1585","B2","batch2","[{""page_index"":0,""viewing_time"":7808.800000190735},{""page_index"":1,""viewing_time"":4368.89999961853},{""page_index"":2,""viewing_time"":6133.400000095367},{""page_index"":3,""viewing_time"":4541.5},{""page_index"":4,""viewing_time"":5053.599999904633},{""page_index"":5,""viewing_time"":2556.4000000953674},{""page_index"":6,""viewing_time"":2424}]","32886.800000190735","","","tol-instructions","","","","","","","","","","","","","","","","","","","","","","","","",""
"","","","","","html-button-response","312","657369","0.0-4.0-1.0-1.0-0.0","62d39a47594b3446ba0c1585","B2","batch2","","1235.9000000953674","<p class=block-text> Let's answer a few questions <br>","0","tol_enter_quiz","","","","","","","","","","","","","","","","","","","","","","","","",""
"","","","","","html-button-response","313","661570","0.0-4.0-1.0-1.0-1.0","62d39a47594b3446ba0c1585","B2","batch2","","4200.300000190735","<p class = block-text>True or False: You can only move the ball on top of a peg. <br></p>","1","tol_quiz","false","","","","","","","","","","","","","","","","","","","","","","","",""
"","","","","","html-button-response","314","663250","0.0-4.0-1.0-1.0-2.0","62d39a47594b3446ba0c1585","B2","batch2","","1679","<p class = block-text>Incorrect. Remember, you can only move the ball on top of a peg.</p>","0","tol_quiz_feedback","","","","","","","","","","","","","","","","","","","","","","","","",""
"","","","","","html-button-response","315","666455","0.0-4.0-1.0-1.0-3.0","62d39a47594b3446ba0c1585","B2","batch2","","3204.2999997138977","<p class = block-text>True or False: You should try to match your board with the target board with fewest moves possible. <br></p>","0","tol_quiz","true","","","","","","","","","","","","","","","","","","","","","","","",""
"","","","","","html-button-response","316","667109","0.0-4.0-1.0-1.0-4.0","62d39a47594b3446ba0c1585","B2","batch2","","653.5","<p class = block-text>Correct! </p>","0","tol_quiz_feedback","","","","","","","","","","","","","","","","","","","","","","","","",""
"","","","","","html-button-response","317","667889","0.0-4.0-1.0-2.0-0.0","62d39a47594b3446ba0c1585","B2","batch2","","779.0999999046326","<p class = block-text>You made too many incorrect choices.</p><p class = block-text>You will now repeat the instructions and quiz</p>","0","","","","","","","","","","","","","","","","","","","","","","","","","",""
"","","","","","instructions","318","673464","0.0-4.0-1.1-0.1-0.1","62d39a47594b3446ba0c1585","B2","batch2","[{""page_index"":0,""viewing_time"":1187.3999996185303},{""page_index"":1,""viewing_time"":665.9000000953674},{""page_index"":2,""viewing_time"":421.2000002861023},{""page_index"":3,""viewing_time"":479.7999997138977},{""page_index"":4,""viewing_time"":522.0999999046326},{""page_index"":5,""viewing_time"":443.80000019073486},{""page_index"":6,""viewing_time"":1854.5}]","5574.799999713898","","","tol-instructions","","","","","","","","","","","","","","","","","","","","","","","","",""
"","","","","","html-button-response","319","674220","0.0-4.0-1.1-1.1-0.1","62d39a47594b3446ba0c1585","B2","batch2","","755.2999997138977","<p class=block-text> Let's answer a few questions <br>","0","tol_enter_quiz","","","","","","","","","","","","","","","","","","","","","","","","",""
"","","","","","html-button-response","320","679964","0.0-4.0-1.1-1.1-1.1","62d39a47594b3446ba0c1585","B2","batch2","","5742.5","<p class = block-text>True or False: You can only move the ball on top of a peg. <br></p>","0","tol_quiz","true","","","","","","","","","","","","","","","","","","","","","","","",""
"","","","","","html-button-response","321","680858","0.0-4.0-1.1-1.1-2.1","62d39a47594b3446ba0c1585","B2","batch2","","893.1999998092651","<p class = block-text>Correct! You can only move the ball on top of a peg.</p>","0","tol_quiz_feedback","","","","","","","","","","","","","","","","","","","","","","","","",""
"","","","","","html-button-response","322","682622","0.0-4.0-1.1-1.1-3.1","62d39a47594b3446ba0c1585","B2","batch2","","1763.6000003814697","<p class = block-text>True or False: You should try to match your board with the target board with fewest moves possible. <br></p>","0","tol_quiz","true","","","","","","","","","","","","","","","","","","","","","","","",""
"","","","","","html-button-response","323","683167","0.0-4.0-1.1-1.1-4.1","62d39a47594b3446ba0c1585","B2","batch2","","545.1999998092651","<p class = block-text>Correct! </p>","0","tol_quiz_feedback","","","","","","","","","","","","","","","","","","","","","","","","",""
"","","","","","html-button-response","324","683852","0.0-4.0-2.0","62d39a47594b3446ba0c1585","B2","batch2","","683.9000000953674","<p class=block-text> Now that you've understood the game, let's practice a few easier examples before we start!<br> <br>","0","","","","","","","","","","","","","","","","","","","","","","","","","",""
"","","","","","single-stim-button","325","690040","0.0-4.0-3.0-0.0","62d39a47594b3446ba0c1585","B2","batch2","","6186","","","tol_practice","","","","","","","","","","","tol_peg_2","6186","6186","0","[[1,2,0],[0,0],[0]]","1","[[1,2,0],[0,0],[3]]","practice","6186","","","","","",""
"","","","","","single-stim-button","326","691587","0.0-4.0-3.0-1.0","62d39a47594b3446ba0c1585","B2","batch2","","1546","","","tol_practice","","","","","","","","","","","tol_peg_3","1546","1546","0","[[1,2,0],[0,0],[3]]","1","[[1,2,0],[0,0],[3]]","practice","1546","","","","","",""
"","","","","","poldrack-single-stim","327","692601","0.0-4.0-4.0","62d39a47594b3446ba0c1585","B2","batch2","","-1","","","tol_feedback","true","","","","","","","","","","","1000","1000","500","","","","","","-1","none","true","","0",""
"","","","","","single-stim-button","328","707309","0.0-4.0-5.0-0.0","62d39a47594b3446ba0c1585","B2","batch2","","14707","","","tol_practice","","","","","","","","","","","tol_peg_1","14707","14707","0","[[1,0,0],[3,0],[0]]","2","[[0,0,0],[3,1],[2]]","practice","14707","","","","","",""
"","","","","","single-stim-button","329","710099","0.0-4.0-5.0-1.0","62d39a47594b3446ba0c1585","B2","batch2","","2790","","","tol_practice","","","","","","","","","","","tol_peg_3","2790","2790","0","[[1,0,0],[3,0],[2]]","2","[[0,0,0],[3,1],[2]]","practice","2790","","","","","",""
"","","","","","single-stim-button","330","712343","0.0-4.0-5.1-0.1","62d39a47594b3446ba0c1585","B2","batch2","","2243","","","tol_practice","","","","","","","","","","","tol_peg_1","2243","2243","0","[[0,0,0],[3,0],[2]]","3","[[0,0,0],[3,1],[2]]","practice","2243","","","","","",""
"","","","","","single-stim-button","331","713231","0.0-4.0-5.1-1.1","62d39a47594b3446ba0c1585","B2","batch2","","887","","","tol_practice","","","","","","","","","","","tol_peg_2","887","887","0","[[0,0,0],[3,1],[2]]","3","[[0,0,0],[3,1],[2]]","practice","887","","","","","",""
"","","","","","poldrack-single-stim","332","714233","0.0-4.0-6.0","62d39a47594b3446ba0c1585","B2","batch2","","-1","","","tol_feedback","true","","","","","","","","","","","1000","1000","500","","","","","","-1","none","true","","0",""
"","","","","","single-stim-button","333","717786","0.0-4.0-7.0-0.0","62d39a47594b3446ba0c1585","B2","batch2","","3552","","","tol_practice","","","","","","","","","","","tol_peg_2","3552","3552","0","[[1,2,0],[0,0],[0]]","4","[[1,0,0],[2,0],[3]]","practice","3552","","","","","",""
"","","","","","single-stim-button","334","718524","0.0-4.0-7.0-1.0","62d39a47594b3446ba0c1585","B2","batch2","","738","","","tol_practice","","","","","","","","","","","tol_peg_3","738","738","0","[[1,2,0],[0,0],[3]]","4","[[1,0,0],[2,0],[3]]","practice","738","","","","","",""
"","","","","","single-stim-button","335","719484","0.0-4.0-7.1-0.1","62d39a47594b3446ba0c1585","B2","batch2","","960","","","tol_practice","","","","","","","","","","","tol_peg_1","960","960","0","[[1,0,0],[0,0],[3]]","5","[[1,0,0],[2,0],[3]]","practice","960","","","","","",""
"","","","","","single-stim-button","336","720469","0.0-4.0-7.1-1.1","62d39a47594b3446ba0c1585","B2","batch2","","984","","","tol_practice","","","","","","","","","","","tol_peg_2","984","984","0","[[1,0,0],[2,0],[3]]","5","[[1,0,0],[2,0],[3]]","practice","984","","","","","",""
"","","","","","poldrack-single-stim","337","721476","0.0-4.0-8.0","62d39a47594b3446ba0c1585","B2","batch2","","-1","","","tol_feedback","true","","","","","","","","","","","1000","1000","500","","","","","","-1","none","true","","0",""
"","","","","","html-button-response","338","722838","0.0-4.0-9.0","62d39a47594b3446ba0c1585","B2","batch2","","1362.1999998092651","<div class = centerbox><p class = center-block-text>Great job! You are done with practice trials<br>You are about to start official trials.<br> <br> Problem <strong>1</strong> out of 25 problems</p></div>","0","tol_instruction","","","","","","","","","","","","","","","","","","","","","","","","",""
"","","","","","single-stim-button","339","734937","0.0-4.0-10.0-0.0","62d39a47594b3446ba0c1585","B2","batch2","","11093","","","tol_tohand","","","","","","","","","","","tol_peg_2","11093","11093","0","[[1,2,0],[0,0],[0]]","1","[[1,3,0],[2,0],[0]]","0","0","","","","","","3"
"","","","","","single-stim-button","340","737510","0.0-4.0-10.0-1.0","62d39a47594b3446ba0c1585","B2","batch2","","2573","","","tol_toboard","","","","","","","","","","","tol_peg_3","2573","2573","0","[[1,2,0],[0,0],[3]]","1","[[1,3,0],[2,0],[0]]","0","0","","","","","","3"
"","","","","","single-stim-button","341","738267","0.0-4.0-10.1-0.1","62d39a47594b3446ba0c1585","B2","batch2","","755","","","tol_tohand","","","","","","","","","","","tol_peg_1","755","755","0","[[1,0,0],[0,0],[3]]","2","[[1,3,0],[2,0],[0]]","0","0","","","","","","3"
"","","","","","single-stim-button","342","738873","0.0-4.0-10.1-1.1","62d39a47594b3446ba0c1585","B2","batch2","","606","","","tol_toboard","","","","","","","","","","","tol_peg_2","606","606","0","[[1,0,0],[2,0],[3]]","2","[[1,3,0],[2,0],[0]]","0","0","","","","","","3"
"","","","","","single-stim-button","343","739684","0.0-4.0-10.2-0.2","62d39a47594b3446ba0c1585","B2","batch2","","809","","","tol_tohand","","","","","","","","","","","tol_peg_3","809","809","0","[[1,0,0],[2,0],[0]]","3","[[1,3,0],[2,0],[0]]","0","0","","","","","","3"
"","","","","","single-stim-button","344","740578","0.0-4.0-10.2-1.2","62d39a47594b3446ba0c1585","B2","batch2","","893","","","tol_toboard","","","","","","","","","","","tol_peg_1","893","893","0","[[1,3,0],[2,0],[0]]","3","[[1,3,0],[2,0],[0]]","0","0","","","","","","3"
