"success","timeout","failed_images","failed_audio","failed_video","trial_type","trial_index","time_elapsed","internal_node_id","subject_id","study_id","session_id","view_history","rt","stimulus","response","task","correct","answer","item","fiar_detect_rt","fiar_detect_correct","total_correct_fiar_detect","post_trial_gap","choices","mouse_click","stim_duration","block_duration","timing_post_trial","current_position","tol_num_moves_made","tol_target","tol_problem_id","tol_rt","key_press","possible_responses","tol_correct","preplanning","tol_rt_per_trial","tol_min_moves","spm_correct","spm_rt"
"true","false","[]","[]","[]","preload","0","5890","0.0-0.0","62e42b7d3f1250f392bbb13e","E1","batch5","","","","","","","","","","","","","","","","","","","","","","","","","","","","","",""
"true","","","","","fullscreen","1","13982","0.0-1.0-0.0","62e42b7d3f1250f392bbb13e","E1","batch5","","","","","","","","","","","","","","","","","","","","","","","","","","","","","",""
"true","","","","","fullscreen","2","18342","0.0-2.0-0.0","62e42b7d3f1250f392bbb13e","E1","batch5","","","","","","","","","","","","","","","","","","","","","","","","","","","","","",""
"","","","","","instructions","3","33501","0.0-2.0-1.0-0.0","62e42b7d3f1250f392bbb13e","E1","batch5","[{""page_index"":0,""viewing_time"":8451.5},{""page_index"":1,""viewing_time"":6705.699999999255}]","15157.899999999441","","","","","","","","","","","","","","","","","","","","","","","","","","","",""
"","","","","","html-button-response","4","35043","0.0-2.0-1.0-1.0-0.0","62e42b7d3f1250f392bbb13e","E1","batch5","","1540.0999999996275","<p class=block-text> Let's answer a few questions <br>","0","pattern_enter_quiz","","","","","","","","","","","","","","","","","","","","","","","","",""
"","","","","","html-button-response","5","38997","0.0-2.0-1.0-1.0-1.0","62e42b7d3f1250f392bbb13e","E1","batch5","","3951.7999999998137","<p class = block-text>True or False: You will have as much time as you want to make each choice. <br></p>","0","pattern_quiz","false","","","","","","","","","","","","","","","","","","","","","","","",""
"","","","","","html-button-response","6","40678","0.0-2.0-1.0-1.0-2.0","62e42b7d3f1250f392bbb13e","E1","batch5","","1678.8999999994412","<p class = block-text>Incorrect. Remember, You should make your choice as fast as you can.</p>","0","pattern_quiz_feedback","","","","","","","","","","","","","","","","","","","","","","","","",""
"","","","","","html-button-response","7","43521","0.0-2.0-1.0-1.0-3.0","62e42b7d3f1250f392bbb13e","E1","batch5","","2840.9000000003725","<p class = block-text>True or False: You will look for 4 pieces in black or white color connected in a row either horizontally, vertically or diagonally. <br></p>","0","pattern_quiz","true","","","","","","","","","","","","","","","","","","","","","","","",""
"","","","","","html-button-response","8","44214","0.0-2.0-1.0-1.0-4.0","62e42b7d3f1250f392bbb13e","E1","batch5","","691.2999999998137","<p class = block-text>Correct! </p>","0","pattern_quiz_feedback","","","","","","","","","","","","","","","","","","","","","","","","",""
"","","","","","html-button-response","9","45774","0.0-2.0-1.0-2.0-0.0","62e42b7d3f1250f392bbb13e","E1","batch5","","1558.2999999998137","<p class = block-text>You made too many incorrect choices.</p><p class = block-text>You will now repeat the instruction and quiz</p>","0","","","","","","","","","","","","","","","","","","","","","","","","","",""
"","","","","","instructions","10","48956","0.0-2.0-1.1-0.1","62e42b7d3f1250f392bbb13e","E1","batch5","[{""page_index"":0,""viewing_time"":2321.9000000003725},{""page_index"":1,""viewing_time"":858.3999999994412}]","3180.600000000559","","","","","","","","","","","","","","","","","","","","","","","","","","","",""
"","","","","","html-button-response","11","49979","0.0-2.0-1.1-1.1-0.1","62e42b7d3f1250f392bbb13e","E1","batch5","","1022.1000000005588","<p class=block-text> Let's answer a few questions <br>","0","pattern_enter_quiz","","","","","","","","","","","","","","","","","","","","","","","","",""
"","","","","","html-button-response","12","51020","0.0-2.0-1.1-1.1-1.1","62e42b7d3f1250f392bbb13e","E1","batch5","","1038.7000000001863","<p class = block-text>True or False: You will have as much time as you want to make each choice. <br></p>","1","pattern_quiz","true","","","","","","","","","","","","","","","","","","","","","","","",""
"","","","","","html-button-response","13","51702","0.0-2.0-1.1-1.1-2.1","62e42b7d3f1250f392bbb13e","E1","batch5","","680.6000000005588","<p class = block-text>Correct! You should make your choice <strong> as fast as you can</strong>.</p>","0","pattern_quiz_feedback","","","","","","","","","","","","","","","","","","","","","","","","",""
"","","","","","html-button-response","14","52520","0.0-2.0-1.1-1.1-3.1","62e42b7d3f1250f392bbb13e","E1","batch5","","815.2999999998137","<p class = block-text>True or False: You will look for 4 pieces in black or white color connected in a row either horizontally, vertically or diagonally. <br></p>","0","pattern_quiz","true","","","","","","","","","","","","","","","","","","","","","","","",""
"","","","","","html-button-response","15","53104","0.0-2.0-1.1-1.1-4.1","62e42b7d3f1250f392bbb13e","E1","batch5","","582.5","<p class = block-text>Correct! </p>","0","pattern_quiz_feedback","","","","","","","","","","","","","","","","","","","","","","","","",""
"","","","","","html-button-response","16","54982","0.0-2.0-2.0","62e42b7d3f1250f392bbb13e","E1","batch5","","1875.7999999998137","<p class=block-text> Now that you've understood the game, let's do a few practice trials before we start!<br> <br>","0","pattern_enter_practice","","","","","","","","","","","","","","","","","","","","","","","","",""
"","","","","","image-keyboard-response","17","56698","0.0-2.0-3.0-0.0","62e42b7d3f1250f392bbb13e","E1","batch5","","1712.7999999998137","stim/prac_yes_18_hor_w1.png","f","pattern_practice","true","f","","","","","","","","","","","","","","","","","","","","","","",""
"","","","","","html-keyboard-response","18","57701","0.0-2.0-3.0-1.0","62e42b7d3f1250f392bbb13e","E1","batch5","","null","<p style=""font-size:30px;color:green;"">Correct!</p>","null","pattern_feedback","","","","","","","","","","","","","","","","","","","","","","","","",""
"","","","","","image-keyboard-response","19","59055","0.0-2.0-3.0-0.1","62e42b7d3f1250f392bbb13e","E1","batch5","","1352.4000000003725","stim/prac_yes_20_dia_b1.png","j","pattern_practice","false","f","","","","","","","","","","","","","","","","","","","","","","",""
"","","","","","html-keyboard-response","20","60057","0.0-2.0-3.0-1.1","62e42b7d3f1250f392bbb13e","E1","batch5","","null","<p style=""font-size:30px;color:red;"">Wrong.</p>","null","pattern_feedback","","","","","","","","","","","","","","","","","","","","","","","","",""
"","","","","","image-keyboard-response","21","61095","0.0-2.0-3.0-0.2","62e42b7d3f1250f392bbb13e","E1","batch5","","1036.4000000003725","stim/prac_yes_16_ver_w1.png","f","pattern_practice","true","f","","","","","","","","","","","","","","","","","","","","","","",""
"","","","","","html-keyboard-response","22","62098","0.0-2.0-3.0-1.2","62e42b7d3f1250f392bbb13e","E1","batch5","","null","<p style=""font-size:30px;color:green;"">Correct!</p>","null","pattern_feedback","","","","","","","","","","","","","","","","","","","","","","","","",""
"","","","","","image-keyboard-response","23","63360","0.0-2.0-3.0-0.3","62e42b7d3f1250f392bbb13e","E1","batch5","","1260.2000000001863","stim/prac_no_18_1.png","j","pattern_practice","true","j","","","","","","","","","","","","","","","","","","","","","","",""
"","","","","","html-keyboard-response","24","64364","0.0-2.0-3.0-1.3","62e42b7d3f1250f392bbb13e","E1","batch5","","null","<p style=""font-size:30px;color:green;"">Correct!</p>","null","pattern_feedback","","","","","","","","","","","","","","","","","","","","","","","","",""
"","","","","","image-keyboard-response","25","66006","0.0-2.0-3.0-0.4","62e42b7d3f1250f392bbb13e","E1","batch5","","1639.4000000003725","stim/prac_no_16_1.png","j","pattern_practice","true","j","","","","","","","","","","","","","","","","","","","","","","",""
"","","","","","html-keyboard-response","26","67010","0.0-2.0-3.0-1.4","62e42b7d3f1250f392bbb13e","E1","batch5","","null","<p style=""font-size:30px;color:green;"">Correct!</p>","null","pattern_feedback","","","","","","","","","","","","","","","","","","","","","","","","",""
"","","","","","html-button-response","27","70314","0.0-2.0-4.0","62e42b7d3f1250f392bbb13e","E1","batch5","","3302.9000000003725","<p class=block-text> Good job! You are done with practice trials!<br>
        You responded correctly on 80% of the trials.<br>
        Press the button below to start official trials. Now you won't see any feedback about your response</p>","0","pattern_enter_official_trials","","","","","","","","","","","","","","","","","","","","","","","","",""
"","","","","","html-keyboard-response","28","71115","0.0-2.0-5.0-0.0","62e42b7d3f1250f392bbb13e","E1","batch5","","null","<p class=block-text>Trial 1 out of 78</p>","null","pattern_show_trial_num","","","","","","","","","","","","","","","","","","","","","","","","",""
"","","","","","image-keyboard-response","29","78126","0.0-2.0-5.0-1.0","62e42b7d3f1250f392bbb13e","E1","batch5","","7007.0999999996275","stim/no_58_1_w.png","j","pattern_response","true","j","pattern_35","7007.0999999996275","true","1","","","","","","","","","","","","","","","","","","",""
"","","","","","html-keyboard-response","30","79432","0.0-2.0-5.0-0.1","62e42b7d3f1250f392bbb13e","E1","batch5","","null","<p class=block-text>Trial 2 out of 78</p>","null","pattern_show_trial_num","","","","","","","","","","","","","","","","","","","","","","","","",""
"","","","","","image-keyboard-response","31","84183","0.0-2.0-5.0-1.1","62e42b7d3f1250f392bbb13e","E1","batch5","","4750.300000000745","stim/no_22_1_b.png","j","pattern_response","true","j","pattern_07","4750.300000000745","true","2","","","","","","","","","","","","","","","","","","",""
"","","","","","html-keyboard-response","32","85485","0.0-2.0-5.0-0.2","62e42b7d3f1250f392bbb13e","E1","batch5","","null","<p class=block-text>Trial 3 out of 78</p>","null","pattern_show_trial_num","","","","","","","","","","","","","","","","","","","","","","","","",""
"","","","","","image-keyboard-response","33","86381","0.0-2.0-5.0-1.2","62e42b7d3f1250f392bbb13e","E1","batch5","","891.2000000001863","stim/yes_23_ver_b1.png","f","pattern_response","true","f","pattern_48","891.2000000001863","true","3","","","","","","","","","","","","","","","","","","",""
"","","","","","html-keyboard-response","34","87685","0.0-2.0-5.0-0.3","62e42b7d3f1250f392bbb13e","E1","batch5","","null","<p class=block-text>Trial 4 out of 78</p>","null","pattern_show_trial_num","","","","","","","","","","","","","","","","","","","","","","","","",""
"","","","","","image-keyboard-response","35","88344","0.0-2.0-5.0-1.3","62e42b7d3f1250f392bbb13e","E1","batch5","","656.7999999998137","stim/yes_12_hor_w1_w.png","f","pattern_response","true","f","pattern_42","656.7999999998137","true","4","","","","","","","","","","","","","","","","","","",""
"","","","","","html-keyboard-response","36","89647","0.0-2.0-5.0-0.4","62e42b7d3f1250f392bbb13e","E1","batch5","","null","<p class=block-text>Trial 5 out of 78</p>","null","pattern_show_trial_num","","","","","","","","","","","","","","","","","","","","","","","","",""
"","","","","","image-keyboard-response","37","90606","0.0-2.0-5.0-1.4","62e42b7d3f1250f392bbb13e","E1","batch5","","956.2000000001863","stim/yes_26_dia_w2_w.png","f","pattern_response","true","f","pattern_50","956.2000000001863","true","5","","","","","","","","","","","","","","","","","","",""
"","","","","","html-keyboard-response","38","91909","0.0-2.0-5.0-0.5","62e42b7d3f1250f392bbb13e","E1","batch5","","null","<p class=block-text>Trial 6 out of 78</p>","null","pattern_show_trial_num","","","","","","","","","","","","","","","","","","","","","","","","",""
"","","","","","image-keyboard-response","39","96125","0.0-2.0-5.0-1.5","62e42b7d3f1250f392bbb13e","E1","batch5","","4213.299999999814","stim/yes_42_dia_w1_w.png","f","pattern_response","true","f","pattern_64","4213.299999999814","true","6","","","","","","","","","","","","","","","","","","",""
"","","","","","html-keyboard-response","40","97429","0.0-2.0-5.0-0.6","62e42b7d3f1250f392bbb13e","E1","batch5","","null","<p class=block-text>Trial 7 out of 78</p>","null","pattern_show_trial_num","","","","","","","","","","","","","","","","","","","","","","","","",""
"","","","","","image-keyboard-response","41","101858","0.0-2.0-5.0-1.6","62e42b7d3f1250f392bbb13e","E1","batch5","","4424.700000000186","stim/no_30_1_b.png","j","pattern_response","true","j","pattern_13","4424.700000000186","true","7","","","","","","","","","","","","","","","","","","",""
"","","","","","html-keyboard-response","42","103161","0.0-2.0-5.0-0.7","62e42b7d3f1250f392bbb13e","E1","batch5","","null","<p class=block-text>Trial 8 out of 78</p>","null","pattern_show_trial_num","","","","","","","","","","","","","","","","","","","","","","","","",""
"","","","","","image-keyboard-response","43","104095","0.0-2.0-5.0-1.7","62e42b7d3f1250f392bbb13e","E1","batch5","","932.7000000001863","stim/yes_37_hor_w1_w.png","f","pattern_response","true","f","pattern_60","932.7000000001863","true","8","","","","","","","","","","","","","","","","","","",""
"","","","","","html-keyboard-response","44","105399","0.0-2.0-5.0-0.8","62e42b7d3f1250f392bbb13e","E1","batch5","","null","<p class=block-text>Trial 9 out of 78</p>","null","pattern_show_trial_num","","","","","","","","","","","","","","","","","","","","","","","","",""
"","","","","","image-keyboard-response","45","106305","0.0-2.0-5.0-1.8","62e42b7d3f1250f392bbb13e","E1","batch5","","902.0999999996275","stim/yes_17_ver_b1_b.png","f","pattern_response","true","f","pattern_46","902.0999999996275","true","9","","","","","","","","","","","","","","","","","","",""
"","","","","","html-keyboard-response","46","107608","0.0-2.0-5.0-0.9","62e42b7d3f1250f392bbb13e","E1","batch5","","null","<p class=block-text>Trial 10 out of 78</p>","null","pattern_show_trial_num","","","","","","","","","","","","","","","","","","","","","","","","",""
"","","","","","image-keyboard-response","47","108368","0.0-2.0-5.0-1.9","62e42b7d3f1250f392bbb13e","E1","batch5","","755.6999999992549","stim/yes_39_hor_w1_w.png","f","pattern_response","true","f","pattern_62","755.6999999992549","true","10","","","","","","","","","","","","","","","","","","",""
"","","","","","html-keyboard-response","48","109671","0.0-2.0-5.0-0.10","62e42b7d3f1250f392bbb13e","E1","batch5","","null","<p class=block-text>Trial 11 out of 78</p>","null","pattern_show_trial_num","","","","","","","","","","","","","","","","","","","","","","","","",""
"","","","","","image-keyboard-response","49","112285","0.0-2.0-5.0-1.10","62e42b7d3f1250f392bbb13e","E1","batch5","","2611.7000000001863","stim/no_18_1_b.png","j","pattern_response","true","j","pattern_05","2611.7000000001863","true","11","","","","","","","","","","","","","","","","","","",""
"","","","","","html-keyboard-response","50","113588","0.0-2.0-5.0-0.11","62e42b7d3f1250f392bbb13e","E1","batch5","","null","<p class=block-text>Trial 12 out of 78</p>","null","pattern_show_trial_num","","","","","","","","","","","","","","","","","","","","","","","","",""
"","","","","","image-keyboard-response","51","117304","0.0-2.0-5.0-1.11","62e42b7d3f1250f392bbb13e","E1","batch5","","3711","stim/no_25_1_b.png","j","pattern_response","true","j","pattern_09","3711","true","12","","","","","","","","","","","","","","","","","","",""
"","","","","","html-keyboard-response","52","118607","0.0-2.0-5.0-0.12","62e42b7d3f1250f392bbb13e","E1","batch5","","null","<p class=block-text>Trial 13 out of 78</p>","null","pattern_show_trial_num","","","","","","","","","","","","","","","","","","","","","","","","",""
"","","","","","image-keyboard-response","53","119815","0.0-2.0-5.0-1.12","62e42b7d3f1250f392bbb13e","E1","batch5","","1205.9000000003725","stim/yes_33_dia_w1_w.png","f","pattern_response","true","f","pattern_56","1205.9000000003725","true","13","","","","","","","","","","","","","","","","","","",""
"","","","","","html-keyboard-response","54","121118","0.0-2.0-5.0-0.13","62e42b7d3f1250f392bbb13e","E1","batch5","","null","<p class=block-text>Trial 14 out of 78</p>","null","pattern_show_trial_num","","","","","","","","","","","","","","","","","","","","","","","","",""
"","","","","","image-keyboard-response","55","127281","0.0-2.0-5.0-1.13","62e42b7d3f1250f392bbb13e","E1","batch5","","6160.899999999441","stim/no_33_1_b.png","j","pattern_response","true","j","pattern_15","6160.899999999441","true","14","","","","","","","","","","","","","","","","","","",""
"","","","","","html-keyboard-response","56","128584","0.0-2.0-5.0-0.14","62e42b7d3f1250f392bbb13e","E1","batch5","","null","<p class=block-text>Trial 15 out of 78</p>","null","pattern_show_trial_num","","","","","","","","","","","","","","","","","","","","","","","","",""
"","","","","","image-keyboard-response","57","129400","0.0-2.0-5.0-1.14","62e42b7d3f1250f392bbb13e","E1","batch5","","814.5","stim/yes_15_dia_b1u_b.png","f","pattern_response","true","f","pattern_44","814.5","true","15","","","","","","","","","","","","","","","","","","",""
"","","","","","html-keyboard-response","58","130702","0.0-2.0-5.0-0.15","62e42b7d3f1250f392bbb13e","E1","batch5","","null","<p class=block-text>Trial 16 out of 78</p>","null","pattern_show_trial_num","","","","","","","","","","","","","","","","","","","","","","","","",""
"","","","","","image-keyboard-response","59","131816","0.0-2.0-5.0-1.15","62e42b7d3f1250f392bbb13e","E1","batch5","","1112.4000000003725","stim/yes_46_ver_b1_b.png","f","pattern_response","true","f","pattern_68","1112.4000000003725","true","16","","","","","","","","","","","","","","","","","","",""
"","","","","","html-keyboard-response","60","133118","0.0-2.0-5.0-0.16","62e42b7d3f1250f392bbb13e","E1","batch5","","null","<p class=block-text>Trial 17 out of 78</p>","null","pattern_show_trial_num","","","","","","","","","","","","","","","","","","","","","","","","",""
"","","","","","image-keyboard-response","61","134122","0.0-2.0-5.0-1.16","62e42b7d3f1250f392bbb13e","E1","batch5","","1002.0999999996275","stim/yes_30_ver_b1_b.png","f","pattern_response","true","f","pattern_54","1002.0999999996275","true","17","","","","","","","","","","","","","","","","","","",""
"","","","","","html-keyboard-response","62","135431","0.0-2.0-5.0-0.17","62e42b7d3f1250f392bbb13e","E1","batch5","","null","<p class=block-text>Trial 18 out of 78</p>","null","pattern_show_trial_num","","","","","","","","","","","","","","","","","","","","","","","","",""
"","","","","","image-keyboard-response","63","137729","0.0-2.0-5.0-1.17","62e42b7d3f1250f392bbb13e","E1","batch5","","2296.5","stim/yes_51_dia_b1.png","f","pattern_response","true","f","pattern_72","2296.5","true","18","","","","","","","","","","","","","","","","","","",""
"","","","","","html-keyboard-response","64","139032","0.0-2.0-5.0-0.18","62e42b7d3f1250f392bbb13e","E1","batch5","","null","<p class=block-text>Trial 19 out of 78</p>","null","pattern_show_trial_num","","","","","","","","","","","","","","","","","","","","","","","","",""
"","","","","","image-keyboard-response","65","139814","0.0-2.0-5.0-1.18","62e42b7d3f1250f392bbb13e","E1","batch5","","780.2999999998137","stim/yes_44_ver_w1_w.png","f","pattern_response","true","f","pattern_66","780.2999999998137","true","19","","","","","","","","","","","","","","","","","","",""
"","","","","","html-keyboard-response","66","141116","0.0-2.0-5.0-0.19","62e42b7d3f1250f392bbb13e","E1","batch5","","null","<p class=block-text>Trial 20 out of 78</p>","null","pattern_show_trial_num","","","","","","","","","","","","","","","","","","","","","","","","",""
"","","","","","image-keyboard-response","67","144752","0.0-2.0-5.0-1.19","62e42b7d3f1250f392bbb13e","E1","batch5","","3633.7000000001863","stim/yes_53_ver_b1_b.png","f","pattern_response","true","f","pattern_74","3633.7000000001863","true","20","","","","","","","","","","","","","","","","","","",""
"","","","","","html-keyboard-response","68","146054","0.0-2.0-5.0-0.20","62e42b7d3f1250f392bbb13e","E1","batch5","","null","<p class=block-text>Trial 21 out of 78</p>","null","pattern_show_trial_num","","","","","","","","","","","","","","","","","","","","","","","","",""
"","","","","","image-keyboard-response","69","146784","0.0-2.0-5.0-1.20","62e42b7d3f1250f392bbb13e","E1","batch5","","726","stim/yes_36_ver_w1_w.png","f","pattern_response","true","f","pattern_58","726","true","21","","","","","","","","","","","","","","","","","","",""
"","","","","","html-keyboard-response","70","148086","0.0-2.0-5.0-0.21","62e42b7d3f1250f392bbb13e","E1","batch5","","null","<p class=block-text>Trial 22 out of 78</p>","null","pattern_show_trial_num","","","","","","","","","","","","","","","","","","","","","","","","",""
"","","","","","image-keyboard-response","71","156819","0.0-2.0-5.0-1.21","62e42b7d3f1250f392bbb13e","E1","batch5","","8731.200000000186","stim/no_51_1.png","j","pattern_response","true","j","pattern_31","8731.200000000186","true","22","","","","","","","","","","","","","","","","","","",""
"","","","","","html-keyboard-response","72","158123","0.0-2.0-5.0-0.22","62e42b7d3f1250f392bbb13e","E1","batch5","","null","<p class=block-text>Trial 23 out of 78</p>","null","pattern_show_trial_num","","","","","","","","","","","","","","","","","","","","","","","","",""
"","","","","","image-keyboard-response","73","166486","0.0-2.0-5.0-1.22","62e42b7d3f1250f392bbb13e","E1","batch5","","8358.599999999627","stim/no_53_1_b.png","j","pattern_response","true","j","pattern_33","8358.599999999627","true","23","","","","","","","","","","","","","","","","","","",""
"","","","","","html-keyboard-response","74","167789","0.0-2.0-5.0-0.23","62e42b7d3f1250f392bbb13e","E1","batch5","","null","<p class=block-text>Trial 24 out of 78</p>","null","pattern_show_trial_num","","","","","","","","","","","","","","","","","","","","","","","","",""
"","","","","","image-keyboard-response","75","169190","0.0-2.0-5.0-1.23","62e42b7d3f1250f392bbb13e","E1","batch5","","1397.2000000001863","stim/no_15_1_w.png","j","pattern_response","true","j","pattern_03","1397.2000000001863","true","24","","","","","","","","","","","","","","","","","","",""
"","","","","","html-keyboard-response","76","170494","0.0-2.0-5.0-0.24","62e42b7d3f1250f392bbb13e","E1","batch5","","null","<p class=block-text>Trial 25 out of 78</p>","null","pattern_show_trial_num","","","","","","","","","","","","","","","","","","","","","","","","",""
"","","","","","image-keyboard-response","77","179463","0.0-2.0-5.0-1.24","62e42b7d3f1250f392bbb13e","E1","batch5","","8966.900000000373","stim/no_67_1.png","j","pattern_response","true","j","pattern_39","8966.900000000373","true","25","","","","","","","","","","","","","","","","","","",""
"","","","","","html-keyboard-response","78","180767","0.0-2.0-5.0-0.25","62e42b7d3f1250f392bbb13e","E1","batch5","","null","<p class=block-text>Trial 26 out of 78</p>","null","pattern_show_trial_num","","","","","","","","","","","","","","","","","","","","","","","","",""
"","","","","","image-keyboard-response","79","181897","0.0-2.0-5.0-1.25","62e42b7d3f1250f392bbb13e","E1","batch5","","1126.5999999996275","stim/yes_49_hor_w1_b.png","f","pattern_response","true","f","pattern_70","1126.5999999996275","true","26","","","","","","","","","","","","","","","","","","",""
"","","","","","html-keyboard-response","80","183200","0.0-2.0-5.0-0.26","62e42b7d3f1250f392bbb13e","E1","batch5","","null","<p class=block-text>Trial 27 out of 78</p>","null","pattern_show_trial_num","","","","","","","","","","","","","","","","","","","","","","","","",""
"","","","","","image-keyboard-response","81","189914","0.0-2.0-5.0-1.26","62e42b7d3f1250f392bbb13e","E1","batch5","","6712.700000000186","stim/no_49_2_b.png","j","pattern_response","true","j","pattern_29","6712.700000000186","true","27","","","","","","","","","","","","","","","","","","",""
"","","","","","html-keyboard-response","82","191217","0.0-2.0-5.0-0.27","62e42b7d3f1250f392bbb13e","E1","batch5","","null","<p class=block-text>Trial 28 out of 78</p>","null","pattern_show_trial_num","","","","","","","","","","","","","","","","","","","","","","","","",""
"","","","","","image-keyboard-response","83","199766","0.0-2.0-5.0-1.27","62e42b7d3f1250f392bbb13e","E1","batch5","","8548.200000000186","stim/yes_58_dia_w1_w.png","f","pattern_response","true","f","pattern_76","8548.200000000186","true","28","","","","","","","","","","","","","","","","","","",""
"","","","","","html-keyboard-response","84","201069","0.0-2.0-5.0-0.28","62e42b7d3f1250f392bbb13e","E1","batch5","","null","<p class=block-text>Trial 29 out of 78</p>","null","pattern_show_trial_num","","","","","","","","","","","","","","","","","","","","","","","","",""
"","","","","","image-keyboard-response","85","205318","0.0-2.0-5.0-1.28","62e42b7d3f1250f392bbb13e","E1","batch5","","4245","stim/no_36_1_b.png","j","pattern_response","true","j","pattern_17","4245","true","29","","","","","","","","","","","","","","","","","","",""
"","","","","","html-keyboard-response","86","206621","0.0-2.0-5.0-0.29","62e42b7d3f1250f392bbb13e","E1","batch5","","null","<p class=block-text>Trial 30 out of 78</p>","null","pattern_show_trial_num","","","","","","","","","","","","","","","","","","","","","","","","",""
"","","","","","image-keyboard-response","87","207601","0.0-2.0-5.0-1.29","62e42b7d3f1250f392bbb13e","E1","batch5","","978.0999999996275","stim/yes_70_ver_b1.png","f","pattern_response","true","f","pattern_80","978.0999999996275","true","30","","","","","","","","","","","","","","","","","","",""
"","","","","","html-keyboard-response","88","208904","0.0-2.0-5.0-0.30","62e42b7d3f1250f392bbb13e","E1","batch5","","null","<p class=block-text>Trial 31 out of 78</p>","null","pattern_show_trial_num","","","","","","","","","","","","","","","","","","","","","","","","",""
"","","","","","image-keyboard-response","89","215611","0.0-2.0-5.0-1.30","62e42b7d3f1250f392bbb13e","E1","batch5","","6703.5","stim/no_45_1_w.png","j","pattern_response","true","j","pattern_25","6703.5","true","31","","","","","","","","","","","","","","","","","","",""
"","","","","","html-keyboard-response","90","216915","0.0-2.0-5.0-0.31","62e42b7d3f1250f392bbb13e","E1","batch5","","null","<p class=block-text>Trial 32 out of 78</p>","null","pattern_show_trial_num","","","","","","","","","","","","","","","","","","","","","","","","",""
"","","","","","image-keyboard-response","91","219630","0.0-2.0-5.0-1.31","62e42b7d3f1250f392bbb13e","E1","batch5","","2711.2000000001863","stim/yes_63_dia_b1.png","f","pattern_response","true","f","pattern_78","2711.2000000001863","true","32","","","","","","","","","","","","","","","","","","",""
"","","","","","html-keyboard-response","92","220933","0.0-2.0-5.0-0.32","62e42b7d3f1250f392bbb13e","E1","batch5","","null","<p class=block-text>Trial 33 out of 78</p>","null","pattern_show_trial_num","","","","","","","","","","","","","","","","","","","","","","","","",""
"","","","","","image-keyboard-response","93","221689","0.0-2.0-5.0-1.32","62e42b7d3f1250f392bbb13e","E1","batch5","","751.7000000001863","stim/yes_29_hor_b1_b.png","f","pattern_response","true","f","pattern_52","751.7000000001863","true","33","","","","","","","","","","","","","","","","","","",""
"","","","","","html-keyboard-response","94","222990","0.0-2.0-5.0-0.33","62e42b7d3f1250f392bbb13e","E1","batch5","","null","<p class=block-text>Trial 34 out of 78</p>","null","pattern_show_trial_num","","","","","","","","","","","","","","","","","","","","","","","","",""
"","","","","","image-keyboard-response","95","230140","0.0-2.0-5.0-1.33","62e42b7d3f1250f392bbb13e","E1","batch5","","7147.700000000186","stim/no_39_1_w.png","j","pattern_response","true","j","pattern_21","7147.700000000186","true","34","","","","","","","","","","","","","","","","","","",""
"","","","","","html-keyboard-response","96","231444","0.0-2.0-5.0-0.34","62e42b7d3f1250f392bbb13e","E1","batch5","","null","<p class=block-text>Trial 35 out of 78</p>","null","pattern_show_trial_num","","","","","","","","","","","","","","","","","","","","","","","","",""
"","","","","","image-keyboard-response","97","235345","0.0-2.0-5.0-1.34","62e42b7d3f1250f392bbb13e","E1","batch5","","3898.5","stim/no_37_2_w.png","j","pattern_response","true","j","pattern_19","3898.5","true","35","","","","","","","","","","","","","","","","","","",""
"","","","","","html-keyboard-response","98","236648","0.0-2.0-5.0-0.35","62e42b7d3f1250f392bbb13e","E1","batch5","","null","<p class=block-text>Trial 36 out of 78</p>","null","pattern_show_trial_num","","","","","","","","","","","","","","","","","","","","","","","","",""
"","","","","","image-keyboard-response","99","240964","0.0-2.0-5.0-1.35","62e42b7d3f1250f392bbb13e","E1","batch5","","4312.799999999814","stim/no_28_2.png","j","pattern_response","true","j","pattern_11","4312.799999999814","true","36","","","","","","","","","","","","","","","","","","",""
"","","","","","html-keyboard-response","100","242267","0.0-2.0-5.0-0.36","62e42b7d3f1250f392bbb13e","E1","batch5","","null","<p class=block-text>Trial 37 out of 78</p>","null","pattern_show_trial_num","","","","","","","","","","","","","","","","","","","","","","","","",""
"","","","","","image-keyboard-response","101","248100","0.0-2.0-5.0-1.36","62e42b7d3f1250f392bbb13e","E1","batch5","","5829.0999999996275","stim/no_47_1_b.png","j","pattern_response","true","j","pattern_27","5829.0999999996275","true","37","","","","","","","","","","","","","","","","","","",""
"","","","","","html-keyboard-response","102","249405","0.0-2.0-5.0-0.37","62e42b7d3f1250f392bbb13e","E1","batch5","","null","<p class=block-text>Trial 38 out of 78</p>","null","pattern_show_trial_num","","","","","","","","","","","","","","","","","","","","","","","","",""
"","","","","","image-keyboard-response","103","256552","0.0-2.0-5.0-1.37","62e42b7d3f1250f392bbb13e","E1","batch5","","7143.299999999814","stim/no_43_2_b.png","j","pattern_response","true","j","pattern_23","7143.299999999814","true","38","","","","","","","","","","","","","","","","","","",""
"","","","","","html-keyboard-response","104","257855","0.0-2.0-5.0-0.38","62e42b7d3f1250f392bbb13e","E1","batch5","","null","<p class=block-text>Trial 39 out of 78</p>","null","pattern_show_trial_num","","","","","","","","","","","","","","","","","","","","","","","","",""
"","","","","","image-keyboard-response","105","259223","0.0-2.0-5.0-1.38","62e42b7d3f1250f392bbb13e","E1","batch5","","1363.8999999994412","stim/no_12_1.png","j","pattern_response","true","j","pattern_01","1363.8999999994412","true","39","","","","","","","","","","","","","","","","","","",""
"","","","","","image-keyboard-response","106","260584","0.0-2.0-6.0","62e42b7d3f1250f392bbb13e","E1","batch5","","858.4000000003725","stim/empty_board.png","j","attention_check","true","j","","","","","500","[""f"",""j""]","","","","","","","","","","","","","","","","",""
"","","","","","html-keyboard-response","107","261385","0.0-2.0-7.0-0.0","62e42b7d3f1250f392bbb13e","E1","batch5","","null","<p class=block-text>Trial 40 out of 78</p>","null","pattern_show_trial_num","","","","","","","","","","","","","","","","","","","","","","","","",""
"","","","","","image-keyboard-response","108","263031","0.0-2.0-7.0-1.0","62e42b7d3f1250f392bbb13e","E1","batch5","","1641.300000000745","stim/yes_43_ver_w1_w.png","f","pattern_response","true","f","pattern_65","1641.300000000745","true","40","","","","","","","","","","","","","","","","","","",""
"","","","","","html-keyboard-response","109","264333","0.0-2.0-7.0-0.1","62e42b7d3f1250f392bbb13e","E1","batch5","","null","<p class=block-text>Trial 41 out of 78</p>","null","pattern_show_trial_num","","","","","","","","","","","","","","","","","","","","","","","","",""
"","","","","","image-keyboard-response","110","272660","0.0-2.0-7.0-1.1","62e42b7d3f1250f392bbb13e","E1","batch5","","8323.399999999441","stim/no_55_1_w.png","j","pattern_response","true","j","pattern_34","8323.399999999441","true","41","","","","","","","","","","","","","","","","","","",""
"","","","","","html-keyboard-response","111","273963","0.0-2.0-7.0-0.2","62e42b7d3f1250f392bbb13e","E1","batch5","","null","<p class=block-text>Trial 42 out of 78</p>","null","pattern_show_trial_num","","","","","","","","","","","","","","","","","","","","","","","","",""
"","","","","","image-keyboard-response","112","283618","0.0-2.0-7.0-1.2","62e42b7d3f1250f392bbb13e","E1","batch5","","9649.199999999255","stim/no_62_1_w.png","j","pattern_response","true","j","pattern_36","9649.199999999255","true","42","","","","","","","","","","","","","","","","","","",""
"","","","","","html-keyboard-response","113","284921","0.0-2.0-7.0-0.3","62e42b7d3f1250f392bbb13e","E1","batch5","","null","<p class=block-text>Trial 43 out of 78</p>","null","pattern_show_trial_num","","","","","","","","","","","","","","","","","","","","","","","","",""
"","","","","","image-keyboard-response","114","285882","0.0-2.0-7.0-1.3","62e42b7d3f1250f392bbb13e","E1","batch5","","959.5","stim/no_13_2_b.png","j","pattern_response","true","j","pattern_02","959.5","true","43","","","","","","","","","","","","","","","","","","",""
"","","","","","html-keyboard-response","115","287184","0.0-2.0-7.0-0.4","62e42b7d3f1250f392bbb13e","E1","batch5","","null","<p class=block-text>Trial 44 out of 78</p>","null","pattern_show_trial_num","","","","","","","","","","","","","","","","","","","","","","","","",""
"","","","","","image-keyboard-response","116","290066","0.0-2.0-7.0-1.4","62e42b7d3f1250f392bbb13e","E1","batch5","","2880.399999999441","stim/yes_37_dia_w1.png","f","pattern_response","true","f","pattern_59","2880.399999999441","true","44","","","","","","","","","","","","","","","","","","",""
"","","","","","html-keyboard-response","117","291369","0.0-2.0-7.0-0.5","62e42b7d3f1250f392bbb13e","E1","batch5","","null","<p class=block-text>Trial 45 out of 78</p>","null","pattern_show_trial_num","","","","","","","","","","","","","","","","","","","","","","","","",""
"","","","","","image-keyboard-response","118","293063","0.0-2.0-7.0-1.5","62e42b7d3f1250f392bbb13e","E1","batch5","","1690.1000000005588","stim/no_17_1_w.png","j","pattern_response","true","j","pattern_04","1690.1000000005588","true","45","","","","","","","","","","","","","","","","","","",""
"","","","","","html-keyboard-response","119","294367","0.0-2.0-7.0-0.6","62e42b7d3f1250f392bbb13e","E1","batch5","","null","<p class=block-text>Trial 46 out of 78</p>","null","pattern_show_trial_num","","","","","","","","","","","","","","","","","","","","","","","","",""
"","","","","","image-keyboard-response","120","296837","0.0-2.0-7.0-1.6","62e42b7d3f1250f392bbb13e","E1","batch5","","2466.2000000001863","stim/no_23_1.png","j","pattern_response","true","j","pattern_08","2466.2000000001863","true","46","","","","","","","","","","","","","","","","","","",""
"","","","","","html-keyboard-response","121","298140","0.0-2.0-7.0-0.7","62e42b7d3f1250f392bbb13e","E1","batch5","","null","<p class=block-text>Trial 47 out of 78</p>","null","pattern_show_trial_num","","","","","","","","","","","","","","","","","","","","","","","","",""
"","","","","","image-keyboard-response","122","299337","0.0-2.0-7.0-1.7","62e42b7d3f1250f392bbb13e","E1","batch5","","1192.8999999994412","stim/yes_35_dia_b1.png","f","pattern_response","true","f","pattern_57","1192.8999999994412","true","47","","","","","","","","","","","","","","","","","","",""
"","","","","","html-keyboard-response","123","300640","0.0-2.0-7.0-0.8","62e42b7d3f1250f392bbb13e","E1","batch5","","null","<p class=block-text>Trial 48 out of 78</p>","null","pattern_show_trial_num","","","","","","","","","","","","","","","","","","","","","","","","",""
"","","","","","image-keyboard-response","124","301450","0.0-2.0-7.0-1.8","62e42b7d3f1250f392bbb13e","E1","batch5","","806.7999999998137","stim/yes_22_ver_w1.png","f","pattern_response","true","f","pattern_47","806.7999999998137","true","48","","","","","","","","","","","","","","","","","","",""
"","","","","","html-keyboard-response","125","302753","0.0-2.0-7.0-0.9","62e42b7d3f1250f392bbb13e","E1","batch5","","null","<p class=block-text>Trial 49 out of 78</p>","null","pattern_show_trial_num","","","","","","","","","","","","","","","","","","","","","","","","",""
"","","","","","image-keyboard-response","126","304025","0.0-2.0-7.0-1.9","62e42b7d3f1250f392bbb13e","E1","batch5","","1269.1000000005588","stim/yes_29_ver_w1.png","f","pattern_response","true","f","pattern_53","1269.1000000005588","true","49","","","","","","","","","","","","","","","","","","",""
"","","","","","html-keyboard-response","127","305327","0.0-2.0-7.0-0.10","62e42b7d3f1250f392bbb13e","E1","batch5","","null","<p class=block-text>Trial 50 out of 78</p>","null","pattern_show_trial_num","","","","","","","","","","","","","","","","","","","","","","","","",""
"","","","","","image-keyboard-response","128","308878","0.0-2.0-7.0-1.10","62e42b7d3f1250f392bbb13e","E1","batch5","","3548.5","stim/no_29_1_b.png","j","pattern_response","true","j","pattern_12","3548.5","true","50","","","","","","","","","","","","","","","","","","",""
"","","","","","html-keyboard-response","129","310181","0.0-2.0-7.0-0.11","62e42b7d3f1250f392bbb13e","E1","batch5","","null","<p class=block-text>Trial 51 out of 78</p>","null","pattern_show_trial_num","","","","","","","","","","","","","","","","","","","","","","","","",""
"","","","","","image-keyboard-response","130","317911","0.0-2.0-7.0-1.11","62e42b7d3f1250f392bbb13e","E1","batch5","","7726","stim/no_46_1_b.png","j","pattern_response","true","j","pattern_26","7726","true","51","","","","","","","","","","","","","","","","","","",""
"","","","","","html-keyboard-response","131","319213","0.0-2.0-7.0-0.12","62e42b7d3f1250f392bbb13e","E1","batch5","","null","<p class=block-text>Trial 52 out of 78</p>","null","pattern_show_trial_num","","","","","","","","","","","","","","","","","","","","","","","","",""
"","","","","","image-keyboard-response","132","329660","0.0-2.0-7.0-1.12","62e42b7d3f1250f392bbb13e","E1","batch5","","10445.699999999255","stim/no_70_2.png","j","pattern_response","true","j","pattern_40","10445.699999999255","true","52","","","","","","","","","","","","","","","","","","",""
"","","","","","html-keyboard-response","133","330966","0.0-2.0-7.0-0.13","62e42b7d3f1250f392bbb13e","E1","batch5","","null","<p class=block-text>Trial 53 out of 78</p>","null","pattern_show_trial_num","","","","","","","","","","","","","","","","","","","","","","","","",""
"","","","","","image-keyboard-response","134","332763","0.0-2.0-7.0-1.13","62e42b7d3f1250f392bbb13e","E1","batch5","","1792.3999999994412","stim/yes_45_hor_b2_b.png","f","pattern_response","true","f","pattern_67","1792.3999999994412","true","53","","","","","","","","","","","","","","","","","","",""
"","","","","","html-keyboard-response","135","334065","0.0-2.0-7.0-0.14","62e42b7d3f1250f392bbb13e","E1","batch5","","null","<p class=block-text>Trial 54 out of 78</p>","null","pattern_show_trial_num","","","","","","","","","","","","","","","","","","","","","","","","",""
"","","","","","image-keyboard-response","136","335504","0.0-2.0-7.0-1.14","62e42b7d3f1250f392bbb13e","E1","batch5","","1437.7999999998137","stim/yes_67_hor_b1.png","f","pattern_response","true","f","pattern_79","1437.7999999998137","true","54","","","","","","","","","","","","","","","","","","",""
"","","","","","html-keyboard-response","137","336807","0.0-2.0-7.0-0.15","62e42b7d3f1250f392bbb13e","E1","batch5","","null","<p class=block-text>Trial 55 out of 78</p>","null","pattern_show_trial_num","","","","","","","","","","","","","","","","","","","","","","","","",""
"","","","","","image-keyboard-response","138","338773","0.0-2.0-7.0-1.15","62e42b7d3f1250f392bbb13e","E1","batch5","","1962.7999999998137","stim/yes_31_hor_b1.png","f","pattern_response","true","f","pattern_55","1962.7999999998137","true","55","","","","","","","","","","","","","","","","","","",""
"","","","","","html-keyboard-response","139","340075","0.0-2.0-7.0-0.16","62e42b7d3f1250f392bbb13e","E1","batch5","","null","<p class=block-text>Trial 56 out of 78</p>","null","pattern_show_trial_num","","","","","","","","","","","","","","","","","","","","","","","","",""
"","","","","","image-keyboard-response","140","343554","0.0-2.0-7.0-1.16","62e42b7d3f1250f392bbb13e","E1","batch5","","3478.4000000003725","stim/no_26_1_w.png","j","pattern_response","true","j","pattern_10","3478.4000000003725","true","56","","","","","","","","","","","","","","","","","","",""
"","","","","","html-keyboard-response","141","344857","0.0-2.0-7.0-0.17","62e42b7d3f1250f392bbb13e","E1","batch5","","null","<p class=block-text>Trial 57 out of 78</p>","null","pattern_show_trial_num","","","","","","","","","","","","","","","","","","","","","","","","",""
"","","","","","image-keyboard-response","142","350513","0.0-2.0-7.0-1.17","62e42b7d3f1250f392bbb13e","E1","batch5","","5650.9000000003725","stim/no_38_1_b.png","j","pattern_response","true","j","pattern_20","5650.9000000003725","true","57","","","","","","","","","","","","","","","","","","",""
"","","","","","html-keyboard-response","143","351817","0.0-2.0-7.0-0.18","62e42b7d3f1250f392bbb13e","E1","batch5","","null","<p class=block-text>Trial 58 out of 78</p>","null","pattern_show_trial_num","","","","","","","","","","","","","","","","","","","","","","","","",""
"","","","","","image-keyboard-response","144","359627","0.0-2.0-7.0-1.18","62e42b7d3f1250f392bbb13e","E1","batch5","","7806.5","stim/yes_50_dia_w1.png","j","pattern_response","false","f","pattern_71","7806.5","false","57","","","","","","","","","","","","","","","","","","",""
"","","","","","html-keyboard-response","145","360931","0.0-2.0-7.0-0.19","62e42b7d3f1250f392bbb13e","E1","batch5","","null","<p class=block-text>Trial 59 out of 78</p>","null","pattern_show_trial_num","","","","","","","","","","","","","","","","","","","","","","","","",""
"","","","","","image-keyboard-response","146","361710","0.0-2.0-7.0-1.19","62e42b7d3f1250f392bbb13e","E1","batch5","","775","stim/yes_38_hor_b1_b.png","f","pattern_response","true","f","pattern_61","775","true","58","","","","","","","","","","","","","","","","","","",""
"","","","","","html-keyboard-response","147","363012","0.0-2.0-7.0-0.20","62e42b7d3f1250f392bbb13e","E1","batch5","","null","<p class=block-text>Trial 60 out of 78</p>","null","pattern_show_trial_num","","","","","","","","","","","","","","","","","","","","","","","","",""
"","","","","","image-keyboard-response","148","372602","0.0-2.0-7.0-1.20","62e42b7d3f1250f392bbb13e","E1","batch5","","9589.599999999627","stim/no_65_1_b.png","j","pattern_response","true","j","pattern_38","9589.599999999627","true","59","","","","","","","","","","","","","","","","","","",""
"","","","","","html-keyboard-response","149","373904","0.0-2.0-7.0-0.21","62e42b7d3f1250f392bbb13e","E1","batch5","","null","<p class=block-text>Trial 61 out of 78</p>","null","pattern_show_trial_num","","","","","","","","","","","","","","","","","","","","","","","","",""
"","","","","","image-keyboard-response","150","374563","0.0-2.0-7.0-1.21","62e42b7d3f1250f392bbb13e","E1","batch5","","653.5","stim/yes_14_hor_b1_w.png","f","pattern_response","true","f","pattern_43","653.5","true","60","","","","","","","","","","","","","","","","","","",""
"","","","","","html-keyboard-response","151","375866","0.0-2.0-7.0-0.22","62e42b7d3f1250f392bbb13e","E1","batch5","","null","<p class=block-text>Trial 62 out of 78</p>","null","pattern_show_trial_num","","","","","","","","","","","","","","","","","","","","","","","","",""
"","","","","","image-keyboard-response","152","377997","0.0-2.0-7.0-1.22","62e42b7d3f1250f392bbb13e","E1","batch5","","2127.2999999998137","stim/yes_52_ver_w1.png","f","pattern_response","true","f","pattern_73","2127.2999999998137","true","61","","","","","","","","","","","","","","","","","","",""
"","","","","","html-keyboard-response","153","379300","0.0-2.0-7.0-0.23","62e42b7d3f1250f392bbb13e","E1","batch5","","null","<p class=block-text>Trial 63 out of 78</p>","null","pattern_show_trial_num","","","","","","","","","","","","","","","","","","","","","","","","",""
"","","","","","image-keyboard-response","154","380182","0.0-2.0-7.0-1.23","62e42b7d3f1250f392bbb13e","E1","batch5","","880.6999999992549","stim/yes_28_ver_b1.png","f","pattern_response","true","f","pattern_51","880.6999999992549","true","62","","","","","","","","","","","","","","","","","","",""
"","","","","","html-keyboard-response","155","381485","0.0-2.0-7.0-0.24","62e42b7d3f1250f392bbb13e","E1","batch5","","null","<p class=block-text>Trial 64 out of 78</p>","null","pattern_show_trial_num","","","","","","","","","","","","","","","","","","","","","","","","",""
"","","","","","image-keyboard-response","156","382486","0.0-2.0-7.0-1.24","62e42b7d3f1250f392bbb13e","E1","batch5","","998.4000000003725","stim/yes_60_ver_b1_b.png","f","pattern_response","true","f","pattern_77","998.4000000003725","true","63","","","","","","","","","","","","","","","","","","",""
"","","","","","html-keyboard-response","157","383787","0.0-2.0-7.0-0.25","62e42b7d3f1250f392bbb13e","E1","batch5","","null","<p class=block-text>Trial 65 out of 78</p>","null","pattern_show_trial_num","","","","","","","","","","","","","","","","","","","","","","","","",""
"","","","","","image-keyboard-response","158","387435","0.0-2.0-7.0-1.25","62e42b7d3f1250f392bbb13e","E1","batch5","","3646.2999999998137","stim/yes_40_dia_b1_b.png","f","pattern_response","true","f","pattern_63","3646.2999999998137","true","64","","","","","","","","","","","","","","","","","","",""
"","","","","","html-keyboard-response","159","388739","0.0-2.0-7.0-0.26","62e42b7d3f1250f392bbb13e","E1","batch5","","null","<p class=block-text>Trial 66 out of 78</p>","null","pattern_show_trial_num","","","","","","","","","","","","","","","","","","","","","","","","",""
"","","","","","image-keyboard-response","160","389555","0.0-2.0-7.0-1.26","62e42b7d3f1250f392bbb13e","E1","batch5","","813","stim/yes_17_dia_w1.png","f","pattern_response","true","f","pattern_45","813","true","65","","","","","","","","","","","","","","","","","","",""
"","","","","","html-keyboard-response","161","390859","0.0-2.0-7.0-0.27","62e42b7d3f1250f392bbb13e","E1","batch5","","null","<p class=block-text>Trial 67 out of 78</p>","null","pattern_show_trial_num","","","","","","","","","","","","","","","","","","","","","","","","",""
"","","","","","image-keyboard-response","162","396257","0.0-2.0-7.0-1.27","62e42b7d3f1250f392bbb13e","E1","batch5","","5394.700000000186","stim/no_42_1_w.png","j","pattern_response","true","j","pattern_22","5394.700000000186","true","66","","","","","","","","","","","","","","","","","","",""
"","","","","","html-keyboard-response","163","397558","0.0-2.0-7.0-0.28","62e42b7d3f1250f392bbb13e","E1","batch5","","null","<p class=block-text>Trial 68 out of 78</p>","null","pattern_show_trial_num","","","","","","","","","","","","","","","","","","","","","","","","",""
"","","","","","image-keyboard-response","164","398529","0.0-2.0-7.0-1.28","62e42b7d3f1250f392bbb13e","E1","batch5","","970","stim/yes_55_hor_w1_w.png","f","pattern_response","true","f","pattern_75","970","true","67","","","","","","","","","","","","","","","","","","",""
"","","","","","html-keyboard-response","165","399832","0.0-2.0-7.0-0.29","62e42b7d3f1250f392bbb13e","E1","batch5","","null","<p class=block-text>Trial 69 out of 78</p>","null","pattern_show_trial_num","","","","","","","","","","","","","","","","","","","","","","","","",""
"","","","","","image-keyboard-response","166","401801","0.0-2.0-7.0-1.29","62e42b7d3f1250f392bbb13e","E1","batch5","","1968.1000000005588","stim/yes_48_dia_w1_w.png","f","pattern_response","true","f","pattern_69","1968.1000000005588","true","68","","","","","","","","","","","","","","","","","","",""
"","","","","","html-keyboard-response","167","403102","0.0-2.0-7.0-0.30","62e42b7d3f1250f392bbb13e","E1","batch5","","null","<p class=block-text>Trial 70 out of 78</p>","null","pattern_show_trial_num","","","","","","","","","","","","","","","","","","","","","","","","",""
"","","","","","image-keyboard-response","168","403737","0.0-2.0-7.0-1.30","62e42b7d3f1250f392bbb13e","E1","batch5","","634.5","stim/yes_25_hor_b1_b.png","f","pattern_response","true","f","pattern_49","634.5","true","69","","","","","","","","","","","","","","","","","","",""
"","","","","","html-keyboard-response","169","405039","0.0-2.0-7.0-0.31","62e42b7d3f1250f392bbb13e","E1","batch5","","null","<p class=block-text>Trial 71 out of 78</p>","null","pattern_show_trial_num","","","","","","","","","","","","","","","","","","","","","","","","",""
"","","","","","image-keyboard-response","170","410137","0.0-2.0-7.0-1.31","62e42b7d3f1250f392bbb13e","E1","batch5","","5096.9000000003725","stim/no_36_2_w.png","j","pattern_response","true","j","pattern_18","5096.9000000003725","true","70","","","","","","","","","","","","","","","","","","",""
"","","","","","html-keyboard-response","171","411440","0.0-2.0-7.0-0.32","62e42b7d3f1250f392bbb13e","E1","batch5","","null","<p class=block-text>Trial 72 out of 78</p>","null","pattern_show_trial_num","","","","","","","","","","","","","","","","","","","","","","","","",""
"","","","","","image-keyboard-response","172","413274","0.0-2.0-7.0-1.32","62e42b7d3f1250f392bbb13e","E1","batch5","","1832.5","stim/no_20_1_w.png","j","pattern_response","true","j","pattern_06","1832.5","true","71","","","","","","","","","","","","","","","","","","",""
"","","","","","html-keyboard-response","173","414577","0.0-2.0-7.0-0.33","62e42b7d3f1250f392bbb13e","E1","batch5","","null","<p class=block-text>Trial 73 out of 78</p>","null","pattern_show_trial_num","","","","","","","","","","","","","","","","","","","","","","","","",""
"","","","","","image-keyboard-response","174","422325","0.0-2.0-7.0-1.33","62e42b7d3f1250f392bbb13e","E1","batch5","","7746.799999999814","stim/no_48_1_w.png","j","pattern_response","true","j","pattern_28","7746.799999999814","true","72","","","","","","","","","","","","","","","","","","",""
"","","","","","html-keyboard-response","175","423627","0.0-2.0-7.0-0.34","62e42b7d3f1250f392bbb13e","E1","batch5","","null","<p class=block-text>Trial 74 out of 78</p>","null","pattern_show_trial_num","","","","","","","","","","","","","","","","","","","","","","","","",""
"","","","","","image-keyboard-response","176","428620","0.0-2.0-7.0-1.34","62e42b7d3f1250f392bbb13e","E1","batch5","","4989.199999999255","stim/no_34_1_b.png","j","pattern_response","true","j","pattern_16","4989.199999999255","true","73","","","","","","","","","","","","","","","","","","",""
"","","","","","html-keyboard-response","177","429923","0.0-2.0-7.0-0.35","62e42b7d3f1250f392bbb13e","E1","batch5","","null","<p class=block-text>Trial 75 out of 78</p>","null","pattern_show_trial_num","","","","","","","","","","","","","","","","","","","","","","","","",""
"","","","","","image-keyboard-response","178","433170","0.0-2.0-7.0-1.35","62e42b7d3f1250f392bbb13e","E1","batch5","","3245.5","stim/no_32_1_w.png","j","pattern_response","true","j","pattern_14","3245.5","true","74","","","","","","","","","","","","","","","","","","",""
"","","","","","html-keyboard-response","179","434473","0.0-2.0-7.0-0.36","62e42b7d3f1250f392bbb13e","E1","batch5","","null","<p class=block-text>Trial 76 out of 78</p>","null","pattern_show_trial_num","","","","","","","","","","","","","","","","","","","","","","","","",""
"","","","","","image-keyboard-response","180","440674","0.0-2.0-7.0-1.36","62e42b7d3f1250f392bbb13e","E1","batch5","","6197.200000000186","stim/no_44_1.png","j","pattern_response","true","j","pattern_24","6197.200000000186","true","75","","","","","","","","","","","","","","","","","","",""
"","","","","","html-keyboard-response","181","441978","0.0-2.0-7.0-0.37","62e42b7d3f1250f392bbb13e","E1","batch5","","null","<p class=block-text>Trial 77 out of 78</p>","null","pattern_show_trial_num","","","","","","","","","","","","","","","","","","","","","","","","",""
"","","","","","image-keyboard-response","182","448197","0.0-2.0-7.0-1.37","62e42b7d3f1250f392bbb13e","E1","batch5","","6215.299999999814","stim/no_50_1.png","j","pattern_response","true","j","pattern_30","6215.299999999814","true","76","","","","","","","","","","","","","","","","","","",""
"","","","","","html-keyboard-response","183","449500","0.0-2.0-7.0-0.38","62e42b7d3f1250f392bbb13e","E1","batch5","","null","<p class=block-text>Trial 78 out of 78</p>","null","pattern_show_trial_num","","","","","","","","","","","","","","","","","","","","","","","","",""
"","","","","","image-keyboard-response","184","457011","0.0-2.0-7.0-1.38","62e42b7d3f1250f392bbb13e","E1","batch5","","7508.9000000003725","stim/no_52_1.png","j","pattern_response","true","j","pattern_32","7508.9000000003725","true","77","","","","","","","","","","","","","","","","","","",""
"","","","","","html-button-response","185","463544","0.0-2.0-8.0","62e42b7d3f1250f392bbb13e","E1","batch5","","6030.9000000003725","<p class = block-text>This concludes the 4-in-a-row detection game.Thank you for your responses!<br>
            You responded correctly on 99% of the trials.<br>
            When you are ready, press ""Continue"" button to continue </p>","0","","","","","","","","","","","","","","","","","","","","","","","","","",""
"true","","","","","fullscreen","186","466399","0.0-3.0-0.0","62e42b7d3f1250f392bbb13e","E1","batch5","","","","","","","","","","","","","","","","","","","","","","","","","","","","","",""
"","","","","","instructions","187","514029","0.0-3.0-1.0-0.0-0.0","62e42b7d3f1250f392bbb13e","E1","batch5","[{""page_index"":0,""viewing_time"":10135.799999999814},{""page_index"":1,""viewing_time"":4480.799999999814},{""page_index"":2,""viewing_time"":4337.5},{""page_index"":3,""viewing_time"":11205.5},{""page_index"":4,""viewing_time"":4860.700000000186},{""page_index"":5,""viewing_time"":8961.299999999814},{""page_index"":6,""viewing_time"":3647.0999999996275}]","47629.199999999255","","","tol-instructions","","","","","","","","","","","","","","","","","","","","","","","","",""
"","","","","","html-button-response","188","515045","0.0-3.0-1.0-1.0-0.0","62e42b7d3f1250f392bbb13e","E1","batch5","","1015","<p class=block-text> Let's answer a few questions <br>","0","tol_enter_quiz","","","","","","","","","","","","","","","","","","","","","","","","",""
"","","","","","html-button-response","189","517574","0.0-3.0-1.0-1.0-1.0","62e42b7d3f1250f392bbb13e","E1","batch5","","2526.2000000001863","<p class = block-text>True or False: You can only move the ball on top of a peg. <br></p>","0","tol_quiz","true","","","","","","","","","","","","","","","","","","","","","","","",""
"","","","","","html-button-response","190","518329","0.0-3.0-1.0-1.0-2.0","62e42b7d3f1250f392bbb13e","E1","batch5","","754.0999999996275","<p class = block-text>Correct! You can only move the ball on top of a peg.</p>","0","tol_quiz_feedback","","","","","","","","","","","","","","","","","","","","","","","","",""
"","","","","","html-button-response","191","520365","0.0-3.0-1.0-1.0-3.0","62e42b7d3f1250f392bbb13e","E1","batch5","","2034.2999999998137","<p class = block-text>True or False: You should try to match your board with the target board with fewest moves possible. <br></p>","0","tol_quiz","true","","","","","","","","","","","","","","","","","","","","","","","",""
"","","","","","html-button-response","192","520899","0.0-3.0-1.0-1.0-4.0","62e42b7d3f1250f392bbb13e","E1","batch5","","532.3999999994412","<p class = block-text>Correct! </p>","0","tol_quiz_feedback","","","","","","","","","","","","","","","","","","","","","","","","",""
"","","","","","html-button-response","193","522919","0.0-3.0-2.0","62e42b7d3f1250f392bbb13e","E1","batch5","","2018.7000000001863","<p class=block-text> Now that you've understood the game, let's practice a few easier examples before we start!<br> <br>","0","","","","","","","","","","","","","","","","","","","","","","","","","",""
"","","","","","single-stim-button","194","525697","0.0-3.0-3.0-0.0","62e42b7d3f1250f392bbb13e","E1","batch5","","2775","","","tol_practice","","","","","","","","","tol_peg_2","2775","2775","0","[[1,2,0],[0,0],[0]]","1","[[1,2,0],[0,0],[3]]","practice","2775","","","","","","","",""
"","","","","","single-stim-button","195","526587","0.0-3.0-3.0-1.0","62e42b7d3f1250f392bbb13e","E1","batch5","","889","","","tol_practice","","","","","","","","","tol_peg_3","889","889","0","[[1,2,0],[0,0],[3]]","1","[[1,2,0],[0,0],[3]]","practice","889","","","","","","","",""
"","","","","","poldrack-single-stim","196","527590","0.0-3.0-4.0","62e42b7d3f1250f392bbb13e","E1","batch5","","-1","","","tol_feedback","true","","","","","","","","","1000","1000","500","","","","","","-1","none","true","","0","","",""
"","","","","","single-stim-button","197","530113","0.0-3.0-5.0-0.0","62e42b7d3f1250f392bbb13e","E1","batch5","","2521","","","tol_practice","","","","","","","","","tol_peg_1","2521","2521","0","[[1,0,0],[3,0],[0]]","2","[[0,0,0],[3,1],[2]]","practice","2521","","","","","","","",""
"","","","","","single-stim-button","198","530797","0.0-3.0-5.0-1.0","62e42b7d3f1250f392bbb13e","E1","batch5","","682","","","tol_practice","","","","","","","","","tol_peg_3","682","682","0","[[1,0,0],[3,0],[2]]","2","[[0,0,0],[3,1],[2]]","practice","682","","","","","","","",""
"","","","","","single-stim-button","199","531553","0.0-3.0-5.1-0.1","62e42b7d3f1250f392bbb13e","E1","batch5","","755","","","tol_practice","","","","","","","","","tol_peg_1","755","755","0","[[0,0,0],[3,0],[2]]","3","[[0,0,0],[3,1],[2]]","practice","755","","","","","","","",""
"","","","","","single-stim-button","200","532229","0.0-3.0-5.1-1.1","62e42b7d3f1250f392bbb13e","E1","batch5","","675","","","tol_practice","","","","","","","","","tol_peg_2","675","675","0","[[0,0,0],[3,1],[2]]","3","[[0,0,0],[3,1],[2]]","practice","675","","","","","","","",""
"","","","","","poldrack-single-stim","201","533231","0.0-3.0-6.0","62e42b7d3f1250f392bbb13e","E1","batch5","","-1","","","tol_feedback","true","","","","","","","","","1000","1000","500","","","","","","-1","none","true","","0","","",""
"","","","","","single-stim-button","202","534850","0.0-3.0-7.0-0.0","62e42b7d3f1250f392bbb13e","E1","batch5","","1618","","","tol_practice","","","","","","","","","tol_peg_2","1618","1618","0","[[1,2,0],[0,0],[0]]","4","[[1,0,0],[2,0],[3]]","practice","1618","","","","","","","",""
"","","","","","single-stim-button","203","535529","0.0-3.0-7.0-1.0","62e42b7d3f1250f392bbb13e","E1","batch5","","678","","","tol_practice","","","","","","","","","tol_peg_3","678","678","0","[[1,2,0],[0,0],[3]]","4","[[1,0,0],[2,0],[3]]","practice","678","","","","","","","",""
"","","","","","single-stim-button","204","536356","0.0-3.0-7.1-0.1","62e42b7d3f1250f392bbb13e","E1","batch5","","826","","","tol_practice","","","","","","","","","tol_peg_1","826","826","0","[[1,0,0],[0,0],[3]]","5","[[1,0,0],[2,0],[3]]","practice","826","","","","","","","",""
"","","","","","single-stim-button","205","537062","0.0-3.0-7.1-1.1","62e42b7d3f1250f392bbb13e","E1","batch5","","704","","","tol_practice","","","","","","","","","tol_peg_2","704","704","0","[[1,0,0],[2,0],[3]]","5","[[1,0,0],[2,0],[3]]","practice","704","","","","","","","",""
"","","","","","poldrack-single-stim","206","538065","0.0-3.0-8.0","62e42b7d3f1250f392bbb13e","E1","batch5","","-1","","","tol_feedback","true","","","","","","","","","1000","1000","500","","","","","","-1","none","true","","0","","",""
"","","","","","html-button-response","207","546669","0.0-3.0-9.0","62e42b7d3f1250f392bbb13e","E1","batch5","","8602.800000000745","<div class = centerbox><p class = center-block-text>Great job! You are done with practice trials<br>You are about to start official trials.<br> <br> Problem <strong>1</strong> out of 25 problems</p></div>","0","tol_instruction","","","","","","","","","","","","","","","","","","","","","","","","",""
"","","","","","single-stim-button","208","551113","0.0-3.0-10.0-0.0","62e42b7d3f1250f392bbb13e","E1","batch5","","3441","","","tol_tohand","","","","","","","","","tol_peg_2","3441","3441","0","[[1,2,0],[0,0],[0]]","1","[[1,3,0],[2,0],[0]]","0","0","","","","","","3","",""
"","","","","","single-stim-button","209","552272","0.0-3.0-10.0-1.0","62e42b7d3f1250f392bbb13e","E1","batch5","","1157","","","tol_toboard","","","","","","","","","tol_peg_3","1157","1157","0","[[1,2,0],[0,0],[3]]","1","[[1,3,0],[2,0],[0]]","0","0","","","","","","3","",""
"","","","","","single-stim-button","210","552744","0.0-3.0-10.1-0.1","62e42b7d3f1250f392bbb13e","E1","batch5","","470","","","tol_tohand","","","","","","","","","tol_peg_1","470","470","0","[[1,0,0],[0,0],[3]]","2","[[1,3,0],[2,0],[0]]","0","0","","","","","","3","",""
"","","","","","single-stim-button","211","553565","0.0-3.0-10.1-1.1","62e42b7d3f1250f392bbb13e","E1","batch5","","819","","","tol_toboard","","","","","","","","","tol_peg_2","819","819","0","[[1,0,0],[2,0],[3]]","2","[[1,3,0],[2,0],[0]]","0","0","","","","","","3","",""
"","","","","","single-stim-button","212","554154","0.0-3.0-10.2-0.2","62e42b7d3f1250f392bbb13e","E1","batch5","","587","","","tol_tohand","","","","","","","","","tol_peg_3","587","587","0","[[1,0,0],[2,0],[0]]","3","[[1,3,0],[2,0],[0]]","0","0","","","","","","3","",""
"","","","","","single-stim-button","213","554909","0.0-3.0-10.2-1.2","62e42b7d3f1250f392bbb13e","E1","batch5","","754","","","tol_toboard","","","","","","","","","tol_peg_1","754","754","0","[[1,3,0],[2,0],[0]]","3","[[1,3,0],[2,0],[0]]","0","0","","","","","","3","",""
"","","","","","poldrack-single-stim","214","555912","0.0-3.0-11.0","62e42b7d3f1250f392bbb13e","E1","batch5","","-1","","","tol_feedback","true","","","","","","","","","1000","1000","500","","","","","","-1","none","true","3441","4498","","",""
"","","","","","html-button-response","215","557010","0.0-3.0-12.0","62e42b7d3f1250f392bbb13e","E1","batch5","","1097.2000000001863","<div class = centerbox><p class = center-block-text>problem <strong>2</strong> out of 25 problems</p></div>","0","tol_trial_num","","","","","","","","","","","","","","","","","","","","","","","","",""
"","","","","","single-stim-button","216","559547","0.0-3.0-13.0-0.0","62e42b7d3f1250f392bbb13e","E1","batch5","","2534","","","tol_tohand","","","","","","","","","tol_peg_1","2534","2534","0","[[1,0,0],[3,0],[0]]","1","[[2,1,3],[0,0],[0]]","1","0","","","","","","5","",""
"","","","","","single-stim-button","217","561289","0.0-3.0-13.0-1.0","62e42b7d3f1250f392bbb13e","E1","batch5","","1741","","","tol_toboard","","","","","","","","","tol_peg_2","1741","1741","0","[[1,0,0],[3,2],[0]]","1","[[2,1,3],[0,0],[0]]","1","0","","","","","","5","",""
"","","","","","single-stim-button","218","561835","0.0-3.0-13.1-0.1","62e42b7d3f1250f392bbb13e","E1","batch5","","546","","","tol_tohand","","","","","","","","","tol_peg_1","546","546","0","[[0,0,0],[3,2],[0]]","2","[[2,1,3],[0,0],[0]]","1","0","","","","","","5","",""
"","","","","","single-stim-button","219","562527","0.0-3.0-13.1-1.1","62e42b7d3f1250f392bbb13e","E1","batch5","","690","","","tol_toboard","","","","","","","","","tol_peg_3","690","690","0","[[0,0,0],[3,2],[1]]","2","[[2,1,3],[0,0],[0]]","1","0","","","","","","5","",""
"","","","","","single-stim-button","220","563063","0.0-3.0-13.2-0.2","62e42b7d3f1250f392bbb13e","E1","batch5","","535","","","tol_tohand","","","","","","","","","tol_peg_2","535","535","0","[[0,0,0],[3,0],[1]]","3","[[2,1,3],[0,0],[0]]","1","0","","","","","","5","",""
"","","","","","single-stim-button","221","563969","0.0-3.0-13.2-1.2","62e42b7d3f1250f392bbb13e","E1","batch5","","906","","","tol_toboard","","","","","","","","","tol_peg_1","906","906","0","[[2,0,0],[3,0],[1]]","3","[[2,1,3],[0,0],[0]]","1","0","","","","","","5","",""
"","","","","","single-stim-button","222","564416","0.0-3.0-13.3-0.3","62e42b7d3f1250f392bbb13e","E1","batch5","","446","","","tol_tohand","","","","","","","","","tol_peg_3","446","446","0","[[2,0,0],[3,0],[0]]","4","[[2,1,3],[0,0],[0]]","1","0","","","","","","5","",""
"","","","","","single-stim-button","223","565051","0.0-3.0-13.3-1.3","62e42b7d3f1250f392bbb13e","E1","batch5","","633","","","tol_toboard","","","","","","","","","tol_peg_1","633","633","0","[[2,1,0],[3,0],[0]]","4","[[2,1,3],[0,0],[0]]","1","0","","","","","","5","",""
"","","","","","single-stim-button","224","565519","0.0-3.0-13.4-0.4","62e42b7d3f1250f392bbb13e","E1","batch5","","466","","","tol_tohand","","","","","","","","","tol_peg_2","466","466","0","[[2,1,0],[0,0],[0]]","5","[[2,1,3],[0,0],[0]]","1","0","","","","","","5","",""
"","","","","","single-stim-button","225","566216","0.0-3.0-13.4-1.4","62e42b7d3f1250f392bbb13e","E1","batch5","","696","","","tol_toboard","","","","","","","","","tol_peg_1","696","696","0","[[2,1,3],[0,0],[0]]","5","[[2,1,3],[0,0],[0]]","1","0","","","","","","5","",""
"","","","","","poldrack-single-stim","226","567219","0.0-3.0-14.0","62e42b7d3f1250f392bbb13e","E1","batch5","","-1","","","tol_feedback","true","","","","","","","","","1000","1000","500","","","","","","-1","none","true","2534","4527","","",""
"","","","","","html-button-response","227","568067","0.0-3.0-15.0","62e42b7d3f1250f392bbb13e","E1","batch5","","846.5","<div class = centerbox><p class = center-block-text>problem <strong>3</strong> out of 25 problems</p></div>","0","tol_trial_num","","","","","","","","","","","","","","","","","","","","","","","","",""
"","","","","","single-stim-button","228","571667","0.0-3.0-16.0-0.0","62e42b7d3f1250f392bbb13e","E1","batch5","","3599","","","tol_tohand","","","","","","","","","tol_peg_1","3599","3599","0","[[2,0,0],[0,0],[1]]","1","[[1,2,0],[3,0],[0]]","2","0","","","","","","4","",""
"","","","","","single-stim-button","229","572415","0.0-3.0-16.0-1.0","62e42b7d3f1250f392bbb13e","E1","batch5","","746","","","tol_toboard","","","","","","","","","tol_peg_2","746","746","0","[[2,0,0],[3,0],[1]]","1","[[1,2,0],[3,0],[0]]","2","0","","","","","","4","",""
"","","","","","single-stim-button","230","573729","0.0-3.0-16.1-0.1","62e42b7d3f1250f392bbb13e","E1","batch5","","1312","","","tol_tohand","","","","","","","","","tol_peg_1","1312","1312","0","[[0,0,0],[3,0],[1]]","2","[[1,2,0],[3,0],[0]]","2","0","","","","","","4","",""
"","","","","","single-stim-button","231","574321","0.0-3.0-16.1-1.1","62e42b7d3f1250f392bbb13e","E1","batch5","","590","","","tol_toboard","","","","","","","","","tol_peg_2","590","590","0","[[0,0,0],[3,2],[1]]","2","[[1,2,0],[3,0],[0]]","2","0","","","","","","4","",""
"","","","","","single-stim-button","232","574728","0.0-3.0-16.2-0.2","62e42b7d3f1250f392bbb13e","E1","batch5","","406","","","tol_tohand","","","","","","","","","tol_peg_3","406","406","0","[[0,0,0],[3,2],[0]]","3","[[1,2,0],[3,0],[0]]","2","0","","","","","","4","",""
"","","","","","single-stim-button","233","575382","0.0-3.0-16.2-1.2","62e42b7d3f1250f392bbb13e","E1","batch5","","654","","","tol_toboard","","","","","","","","","tol_peg_1","654","654","0","[[1,0,0],[3,2],[0]]","3","[[1,2,0],[3,0],[0]]","2","0","","","","","","4","",""
"","","","","","single-stim-button","234","575914","0.0-3.0-16.3-0.3","62e42b7d3f1250f392bbb13e","E1","batch5","","532","","","tol_tohand","","","","","","","","","tol_peg_2","532","532","0","[[1,0,0],[3,0],[0]]","4","[[1,2,0],[3,0],[0]]","2","0","","","","","","4","",""
"","","","","","single-stim-button","235","576513","0.0-3.0-16.3-1.3","62e42b7d3f1250f392bbb13e","E1","batch5","","598","","","tol_toboard","","","","","","","","","tol_peg_1","598","598","0","[[1,2,0],[3,0],[0]]","4","[[1,2,0],[3,0],[0]]","2","0","","","","","","4","",""
"","","","","","poldrack-single-stim","236","577514","0.0-3.0-17.0","62e42b7d3f1250f392bbb13e","E1","batch5","","-1","","","tol_feedback","true","","","","","","","","","1000","1000","500","","","","","","-1","none","true","3599","5849","","",""
"","","","","","html-button-response","237","578276","0.0-3.0-18.0","62e42b7d3f1250f392bbb13e","E1","batch5","","760.9000000003725","<div class = centerbox><p class = center-block-text>problem <strong>4</strong> out of 25 problems</p></div>","0","tol_trial_num","","","","","","","","","","","","","","","","","","","","","","","","",""
"","","","","","single-stim-button","238","581210","0.0-3.0-19.0-0.0","62e42b7d3f1250f392bbb13e","E1","batch5","","2933","","","tol_tohand","","","","","","","","","tol_peg_2","2933","2933","0","[[3,0,0],[2,0],[0]]","1","[[3,0,0],[1,0],[2]]","3","0","","","","","","3","",""
"","","","","","single-stim-button","239","582205","0.0-3.0-19.0-1.0","62e42b7d3f1250f392bbb13e","E1","batch5","","992","","","tol_toboard","","","","","","","","","tol_peg_1","992","992","0","[[3,1,0],[2,0],[0]]","1","[[3,0,0],[1,0],[2]]","3","0","","","","","","3","",""
"","","","","","single-stim-button","240","582662","0.0-3.0-19.1-0.1","62e42b7d3f1250f392bbb13e","E1","batch5","","455","","","tol_tohand","","","","","","","","","tol_peg_2","455","455","0","[[3,1,0],[0,0],[0]]","2","[[3,0,0],[1,0],[2]]","3","0","","","","","","3","",""
"","","","","","single-stim-button","241","583298","0.0-3.0-19.1-1.1","62e42b7d3f1250f392bbb13e","E1","batch5","","635","","","tol_toboard","","","","","","","","","tol_peg_3","635","635","0","[[3,1,0],[0,0],[2]]","2","[[3,0,0],[1,0],[2]]","3","0","","","","","","3","",""
"","","","","","single-stim-button","242","583883","0.0-3.0-19.2-0.2","62e42b7d3f1250f392bbb13e","E1","batch5","","584","","","tol_tohand","","","","","","","","","tol_peg_1","584","584","0","[[3,0,0],[0,0],[2]]","3","[[3,0,0],[1,0],[2]]","3","0","","","","","","3","",""
"","","","","","single-stim-button","243","584339","0.0-3.0-19.2-1.2","62e42b7d3f1250f392bbb13e","E1","batch5","","454","","","tol_toboard","","","","","","","","","tol_peg_2","454","454","0","[[3,0,0],[1,0],[2]]","3","[[3,0,0],[1,0],[2]]","3","0","","","","","","3","",""
"","","","","","poldrack-single-stim","244","585341","0.0-3.0-20.0","62e42b7d3f1250f392bbb13e","E1","batch5","","-1","","","tol_feedback","true","","","","","","","","","1000","1000","500","","","","","","-1","none","true","2933","3972","","",""
"","","","","","html-button-response","245","586517","0.0-3.0-21.0","62e42b7d3f1250f392bbb13e","E1","batch5","","1175.5","<div class = centerbox><p class = center-block-text>problem <strong>5</strong> out of 25 problems</p></div>","0","tol_trial_num","","","","","","","","","","","","","","","","","","","","","","","","",""
"","","","","","single-stim-button","246","592896","0.0-3.0-22.0-0.0","62e42b7d3f1250f392bbb13e","E1","batch5","","6378","","","tol_tohand","","","","","","","","","tol_peg_3","6378","6378","0","[[1,0,0],[2,0],[0]]","1","[[0,0,0],[1,2],[3]]","4","0","","","","","","7","",""
"","","","","","single-stim-button","247","594318","0.0-3.0-22.0-1.0","62e42b7d3f1250f392bbb13e","E1","batch5","","1419","","","tol_toboard","","","","","","","","","tol_peg_1","1419","1419","0","[[1,3,0],[2,0],[0]]","1","[[0,0,0],[1,2],[3]]","4","0","","","","","","7","",""
"","","","","","single-stim-button","248","594784","0.0-3.0-22.1-0.1","62e42b7d3f1250f392bbb13e","E1","batch5","","465","","","tol_tohand","","","","","","","","","tol_peg_2","465","465","0","[[1,3,0],[0,0],[0]]","2","[[0,0,0],[1,2],[3]]","4","0","","","","","","7","",""
"","","","","","single-stim-button","249","595366","0.0-3.0-22.1-1.1","62e42b7d3f1250f392bbb13e","E1","batch5","","581","","","tol_toboard","","","","","","","","","tol_peg_3","581","581","0","[[1,3,0],[0,0],[2]]","2","[[0,0,0],[1,2],[3]]","4","0","","","","","","7","",""
"","","","","","single-stim-button","250","596889","0.0-3.0-22.2-0.2","62e42b7d3f1250f392bbb13e","E1","batch5","","1522","","","tol_tohand","","","","","","","","","tol_peg_1","1522","1522","0","[[1,0,0],[0,0],[2]]","3","[[0,0,0],[1,2],[3]]","4","0","","","","","","7","",""
"","","","","","single-stim-button","251","597691","0.0-3.0-22.2-1.2","62e42b7d3f1250f392bbb13e","E1","batch5","","800","","","tol_toboard","","","","","","","","","tol_peg_2","800","800","0","[[1,0,0],[3,0],[2]]","3","[[0,0,0],[1,2],[3]]","4","0","","","","","","7","",""
"","","","","","single-stim-button","252","598417","0.0-3.0-22.3-0.3","62e42b7d3f1250f392bbb13e","E1","batch5","","725","","","tol_tohand","","","","","","","","","tol_peg_1","725","725","0","[[0,0,0],[3,0],[2]]","4","[[0,0,0],[1,2],[3]]","4","0","","","","","","7","",""
"","","","","","single-stim-button","253","602099","0.0-3.0-22.3-1.3","62e42b7d3f1250f392bbb13e","E1","batch5","","3681","","","tol_toboard","","","","","","","","","tol_peg_2","3681","3681","0","[[0,0,0],[3,1],[2]]","4","[[0,0,0],[1,2],[3]]","4","0","","","","","","7","",""
"","","","","","single-stim-button","254","602659","0.0-3.0-22.4-0.4","62e42b7d3f1250f392bbb13e","E1","batch5","","558","","","tol_tohand","","","","","","","","","tol_peg_3","558","558","0","[[0,0,0],[3,1],[0]]","5","[[0,0,0],[1,2],[3]]","4","0","","","","","","7","",""
"","","","","","single-stim-button","255","603275","0.0-3.0-22.4-1.4","62e42b7d3f1250f392bbb13e","E1","batch5","","615","","","tol_toboard","","","","","","","","","tol_peg_1","615","615","0","[[2,0,0],[3,1],[0]]","5","[[0,0,0],[1,2],[3]]","4","0","","","","","","7","",""
"","","","","","single-stim-button","256","603767","0.0-3.0-22.5-0.5","62e42b7d3f1250f392bbb13e","E1","batch5","","490","","","tol_tohand","","","","","","","","","tol_peg_2","490","490","0","[[2,0,0],[3,0],[0]]","6","[[0,0,0],[1,2],[3]]","4","0","","","","","","7","",""
"","","","","","single-stim-button","257","604529","0.0-3.0-22.5-1.5","62e42b7d3f1250f392bbb13e","E1","batch5","","761","","","tol_toboard","","","","","","","","","tol_peg_3","761","761","0","[[2,0,0],[3,0],[1]]","6","[[0,0,0],[1,2],[3]]","4","0","","","","","","7","",""
"","","","","","single-stim-button","258","605684","0.0-3.0-22.6-0.6","62e42b7d3f1250f392bbb13e","E1","batch5","","1154","","","tol_tohand","","","","","","","","","tol_peg_2","1154","1154","0","[[2,0,0],[0,0],[1]]","7","[[0,0,0],[1,2],[3]]","4","0","","","","","","7","",""
"","","","","","single-stim-button","259","606286","0.0-3.0-22.6-1.6","62e42b7d3f1250f392bbb13e","E1","batch5","","600","","","tol_toboard","","","","","","","","","tol_peg_1","600","600","0","[[2,3,0],[0,0],[1]]","7","[[0,0,0],[1,2],[3]]","4","0","","","","","","7","",""
"","","","","","single-stim-button","260","606838","0.0-3.0-22.7-0.7","62e42b7d3f1250f392bbb13e","E1","batch5","","551","","","tol_tohand","","","","","","","","","tol_peg_3","551","551","0","[[2,3,0],[0,0],[0]]","8","[[0,0,0],[1,2],[3]]","4","0","","","","","","7","",""
"","","","","","single-stim-button","261","607541","0.0-3.0-22.7-1.7","62e42b7d3f1250f392bbb13e","E1","batch5","","703","","","tol_toboard","","","","","","","","","tol_peg_2","703","703","0","[[2,3,0],[1,0],[0]]","8","[[0,0,0],[1,2],[3]]","4","0","","","","","","7","",""
"","","","","","single-stim-button","262","608121","0.0-3.0-22.8-0.8","62e42b7d3f1250f392bbb13e","E1","batch5","","579","","","tol_tohand","","","","","","","","","tol_peg_1","579","579","0","[[2,0,0],[1,0],[0]]","9","[[0,0,0],[1,2],[3]]","4","0","","","","","","7","",""
"","","","","","single-stim-button","263","608757","0.0-3.0-22.8-1.8","62e42b7d3f1250f392bbb13e","E1","batch5","","634","","","tol_toboard","","","","","","","","","tol_peg_3","634","634","0","[[2,0,0],[1,0],[3]]","9","[[0,0,0],[1,2],[3]]","4","0","","","","","","7","",""
"","","","","","single-stim-button","264","609565","0.0-3.0-22.9-0.9","62e42b7d3f1250f392bbb13e","E1","batch5","","807","","","tol_tohand","","","","","","","","","tol_peg_1","807","807","0","[[0,0,0],[1,0],[3]]","10","[[0,0,0],[1,2],[3]]","4","0","","","","","","7","",""
"","","","","","single-stim-button","265","610116","0.0-3.0-22.9-1.9","62e42b7d3f1250f392bbb13e","E1","batch5","","551","","","tol_toboard","","","","","","","","","tol_peg_2","551","551","0","[[0,0,0],[1,2],[3]]","10","[[0,0,0],[1,2],[3]]","4","0","","","","","","7","",""
"","","","","","poldrack-single-stim","266","611119","0.0-3.0-23.0","62e42b7d3f1250f392bbb13e","E1","batch5","","-1","","","tol_feedback","true","","","","","","","","","1000","1000","500","","","","","","-1","none","true","6378","13229","","",""
"","","","","","html-button-response","267","611776","0.0-3.0-24.0","62e42b7d3f1250f392bbb13e","E1","batch5","","654.7999999998137","<div class = centerbox><p class = center-block-text>problem <strong>6</strong> out of 25 problems</p></div>","0","tol_trial_num","","","","","","","","","","","","","","","","","","","","","","","","",""
"","","","","","single-stim-button","268","620614","0.0-3.0-25.0-0.0","62e42b7d3f1250f392bbb13e","E1","batch5","","8836","","","tol_tohand","","","","","","","","","tol_peg_3","8836","8836","0","[[0,0,0],[1,2],[0]]","1","[[1,0,0],[2,3],[0]]","5","0","","","","","","6","",""
"","","","","","single-stim-button","269","621461","0.0-3.0-25.0-1.0","62e42b7d3f1250f392bbb13e","E1","batch5","","846","","","tol_toboard","","","","","","","","","tol_peg_1","846","846","0","[[3,0,0],[1,2],[0]]","1","[[1,0,0],[2,3],[0]]","5","0","","","","","","6","",""
"","","","","","single-stim-button","270","622013","0.0-3.0-25.1-0.1","62e42b7d3f1250f392bbb13e","E1","batch5","","551","","","tol_tohand","","","","","","","","","tol_peg_2","551","551","0","[[3,0,0],[1,0],[0]]","2","[[1,0,0],[2,3],[0]]","5","0","","","","","","6","",""
"","","","","","single-stim-button","271","628620","0.0-3.0-25.1-1.1","62e42b7d3f1250f392bbb13e","E1","batch5","","6605","","","tol_toboard","","","","","","","","","tol_peg_3","6605","6605","0","[[3,0,0],[1,0],[2]]","2","[[1,0,0],[2,3],[0]]","5","0","","","","","","6","",""
"","","","","","single-stim-button","272","629281","0.0-3.0-25.2-0.2","62e42b7d3f1250f392bbb13e","E1","batch5","","659","","","tol_tohand","","","","","","","","","tol_peg_1","659","659","0","[[0,0,0],[1,0],[2]]","3","[[1,0,0],[2,3],[0]]","5","0","","","","","","6","",""
"","","","","","single-stim-button","273","633101","0.0-3.0-25.2-1.2","62e42b7d3f1250f392bbb13e","E1","batch5","","3819","","","tol_toboard","","","","","","","","","tol_peg_2","3819","3819","0","[[0,0,0],[1,3],[2]]","3","[[1,0,0],[2,3],[0]]","5","0","","","","","","6","",""
"","","","","","single-stim-button","274","633661","0.0-3.0-25.3-0.3","62e42b7d3f1250f392bbb13e","E1","batch5","","558","","","tol_tohand","","","","","","","","","tol_peg_3","558","558","0","[[0,0,0],[1,3],[0]]","4","[[1,0,0],[2,3],[0]]","5","0","","","","","","6","",""
"","","","","","single-stim-button","275","634867","0.0-3.0-25.3-1.3","62e42b7d3f1250f392bbb13e","E1","batch5","","1204","","","tol_toboard","","","","","","","","","tol_peg_1","1204","1204","0","[[2,0,0],[1,3],[0]]","4","[[1,0,0],[2,3],[0]]","5","0","","","","","","6","",""
"","","","","","single-stim-button","276","635279","0.0-3.0-25.4-0.4","62e42b7d3f1250f392bbb13e","E1","batch5","","410","","","tol_tohand","","","","","","","","","tol_peg_2","410","410","0","[[2,0,0],[1,0],[0]]","5","[[1,0,0],[2,3],[0]]","5","0","","","","","","6","",""
"","","","","","single-stim-button","277","635714","0.0-3.0-25.4-1.4","62e42b7d3f1250f392bbb13e","E1","batch5","","434","","","tol_toboard","","","","","","","","","tol_peg_1","434","434","0","[[2,3,0],[1,0],[0]]","5","[[1,0,0],[2,3],[0]]","5","0","","","","","","6","",""
"","","","","","single-stim-button","278","636091","0.0-3.0-25.5-0.5","62e42b7d3f1250f392bbb13e","E1","batch5","","377","","","tol_tohand","","","","","","","","","tol_peg_2","377","377","0","[[2,3,0],[0,0],[0]]","6","[[1,0,0],[2,3],[0]]","5","0","","","","","","6","",""
"","","","","","single-stim-button","279","636740","0.0-3.0-25.5-1.5","62e42b7d3f1250f392bbb13e","E1","batch5","","649","","","tol_toboard","","","","","","","","","tol_peg_3","649","649","0","[[2,3,0],[0,0],[1]]","6","[[1,0,0],[2,3],[0]]","5","0","","","","","","6","",""
"","","","","","single-stim-button","280","638567","0.0-3.0-25.6-0.6","62e42b7d3f1250f392bbb13e","E1","batch5","","1825","","","tol_tohand","","","","","","","","","tol_peg_1","1825","1825","0","[[2,0,0],[0,0],[1]]","7","[[1,0,0],[2,3],[0]]","5","0","","","","","","6","",""
"","","","","","single-stim-button","281","639384","0.0-3.0-25.6-1.6","62e42b7d3f1250f392bbb13e","E1","batch5","","816","","","tol_toboard","","","","","","","","","tol_peg_2","816","816","0","[[2,0,0],[3,0],[1]]","7","[[1,0,0],[2,3],[0]]","5","0","","","","","","6","",""
"","","","","","single-stim-button","282","640355","0.0-3.0-25.7-0.7","62e42b7d3f1250f392bbb13e","E1","batch5","","971","","","tol_tohand","","","","","","","","","tol_peg_1","971","971","0","[[0,0,0],[3,0],[1]]","8","[[1,0,0],[2,3],[0]]","5","0","","","","","","6","",""
"","","","","","single-stim-button","283","640847","0.0-3.0-25.7-1.7","62e42b7d3f1250f392bbb13e","E1","batch5","","492","","","tol_toboard","","","","","","","","","tol_peg_2","492","492","0","[[0,0,0],[3,2],[1]]","8","[[1,0,0],[2,3],[0]]","5","0","","","","","","6","",""
"","","","","","single-stim-button","284","641325","0.0-3.0-25.8-0.8","62e42b7d3f1250f392bbb13e","E1","batch5","","477","","","tol_tohand","","","","","","","","","tol_peg_3","477","477","0","[[0,0,0],[3,2],[0]]","9","[[1,0,0],[2,3],[0]]","5","0","","","","","","6","",""
"","","","","","single-stim-button","285","642082","0.0-3.0-25.8-1.8","62e42b7d3f1250f392bbb13e","E1","batch5","","756","","","tol_toboard","","","","","","","","","tol_peg_1","756","756","0","[[1,0,0],[3,2],[0]]","9","[[1,0,0],[2,3],[0]]","5","0","","","","","","6","",""
"","","","","","single-stim-button","286","642579","0.0-3.0-25.9-0.9","62e42b7d3f1250f392bbb13e","E1","batch5","","496","","","tol_tohand","","","","","","","","","tol_peg_2","496","496","0","[[1,0,0],[3,0],[0]]","10","[[1,0,0],[2,3],[0]]","5","0","","","","","","6","",""
"","","","","","single-stim-button","287","643148","0.0-3.0-25.9-1.9","62e42b7d3f1250f392bbb13e","E1","batch5","","569","","","tol_toboard","","","","","","","","","tol_peg_3","569","569","0","[[1,0,0],[3,0],[2]]","10","[[1,0,0],[2,3],[0]]","5","0","","","","","","6","",""
"","","","","","single-stim-button","288","643699","0.0-3.0-25.10-0.10","62e42b7d3f1250f392bbb13e","E1","batch5","","549","","","tol_tohand","","","","","","","","","tol_peg_2","549","549","0","[[1,0,0],[0,0],[2]]","11","[[1,0,0],[2,3],[0]]","5","0","","","","","","6","",""
"","","","","","single-stim-button","289","644167","0.0-3.0-25.10-1.10","62e42b7d3f1250f392bbb13e","E1","batch5","","465","","","tol_toboard","","","","","","","","","tol_peg_1","465","465","0","[[1,3,0],[0,0],[2]]","11","[[1,0,0],[2,3],[0]]","5","0","","","","","","6","",""
"","","","","","single-stim-button","290","644637","0.0-3.0-25.11-0.11","62e42b7d3f1250f392bbb13e","E1","batch5","","470","","","tol_tohand","","","","","","","","","tol_peg_3","470","470","0","[[1,3,0],[0,0],[0]]","12","[[1,0,0],[2,3],[0]]","5","0","","","","","","6","",""
"","","","","","single-stim-button","291","645176","0.0-3.0-25.11-1.11","62e42b7d3f1250f392bbb13e","E1","batch5","","537","","","tol_toboard","","","","","","","","","tol_peg_2","537","537","0","[[1,3,0],[2,0],[0]]","12","[[1,0,0],[2,3],[0]]","5","0","","","","","","6","",""
"","","","","","single-stim-button","292","645639","0.0-3.0-25.12-0.12","62e42b7d3f1250f392bbb13e","E1","batch5","","463","","","tol_tohand","","","","","","","","","tol_peg_1","463","463","0","[[1,0,0],[2,0],[0]]","13","[[1,0,0],[2,3],[0]]","5","0","","","","","","6","",""
"","","","","","single-stim-button","293","646163","0.0-3.0-25.12-1.12","62e42b7d3f1250f392bbb13e","E1","batch5","","523","","","tol_toboard","","","","","","","","","tol_peg_2","523","523","0","[[1,0,0],[2,3],[0]]","13","[[1,0,0],[2,3],[0]]","5","0","","","","","","6","",""
"","","","","","poldrack-single-stim","294","647165","0.0-3.0-26.0","62e42b7d3f1250f392bbb13e","E1","batch5","","-1","","","tol_feedback","true","","","","","","","","","1000","1000","500","","","","","","-1","none","true","8836","16642","","",""
"","","","","","html-button-response","295","647862","0.0-3.0-27.0","62e42b7d3f1250f392bbb13e","E1","batch5","","694.2000000001863","<div class = centerbox><p class = center-block-text>problem <strong>7</strong> out of 25 problems</p></div>","0","tol_trial_num","","","","","","","","","","","","","","","","","","","","","","","","",""
"","","","","","single-stim-button","296","661036","0.0-3.0-28.0-0.0","62e42b7d3f1250f392bbb13e","E1","batch5","","13172","","","tol_tohand","","","","","","","","","tol_peg_3","13172","13172","0","[[2,1,0],[0,0],[0]]","1","[[1,2,0],[3,0],[0]]","6","0","","","","","","5","",""
"","","","","","single-stim-button","297","661705","0.0-3.0-28.0-1.0","62e42b7d3f1250f392bbb13e","E1","batch5","","667","","","tol_toboard","","","","","","","","","tol_peg_2","667","667","0","[[2,1,0],[3,0],[0]]","1","[[1,2,0],[3,0],[0]]","6","0","","","","","","5","",""
"","","","","","single-stim-button","298","662697","0.0-3.0-28.1-0.1","62e42b7d3f1250f392bbb13e","E1","batch5","","992","","","tol_tohand","","","","","","","","","tol_peg_1","992","992","0","[[2,0,0],[3,0],[0]]","2","[[1,2,0],[3,0],[0]]","6","0","","","","","","5","",""
"","","","","","single-stim-button","299","664254","0.0-3.0-28.1-1.1","62e42b7d3f1250f392bbb13e","E1","batch5","","1556","","","tol_toboard","","","","","","","","","tol_peg_2","1556","1556","0","[[2,0,0],[3,1],[0]]","2","[[1,2,0],[3,0],[0]]","6","0","","","","","","5","",""
"","","","","","single-stim-button","300","664704","0.0-3.0-28.2-0.2","62e42b7d3f1250f392bbb13e","E1","batch5","","449","","","tol_tohand","","","","","","","","","tol_peg_1","449","449","0","[[0,0,0],[3,1],[0]]","3","[[1,2,0],[3,0],[0]]","6","0","","","","","","5","",""
"","","","","","single-stim-button","301","665321","0.0-3.0-28.2-1.2","62e42b7d3f1250f392bbb13e","E1","batch5","","617","","","tol_toboard","","","","","","","","","tol_peg_3","617","617","0","[[0,0,0],[3,1],[2]]","3","[[1,2,0],[3,0],[0]]","6","0","","","","","","5","",""
"","","","","","single-stim-button","302","665768","0.0-3.0-28.3-0.3","62e42b7d3f1250f392bbb13e","E1","batch5","","447","","","tol_tohand","","","","","","","","","tol_peg_2","447","447","0","[[0,0,0],[3,0],[2]]","4","[[1,2,0],[3,0],[0]]","6","0","","","","","","5","",""
"","","","","","single-stim-button","303","666271","0.0-3.0-28.3-1.3","62e42b7d3f1250f392bbb13e","E1","batch5","","502","","","tol_toboard","","","","","","","","","tol_peg_1","502","502","0","[[1,0,0],[3,0],[2]]","4","[[1,2,0],[3,0],[0]]","6","0","","","","","","5","",""
"","","","","","single-stim-button","304","667420","0.0-3.0-28.4-0.4","62e42b7d3f1250f392bbb13e","E1","batch5","","1149","","","tol_tohand","","","","","","","","","tol_peg_3","1149","1149","0","[[1,0,0],[3,0],[0]]","5","[[1,2,0],[3,0],[0]]","6","0","","","","","","5","",""
"","","","","","single-stim-button","305","668121","0.0-3.0-28.4-1.4","62e42b7d3f1250f392bbb13e","E1","batch5","","700","","","tol_toboard","","","","","","","","","tol_peg_1","700","700","0","[[1,2,0],[3,0],[0]]","5","[[1,2,0],[3,0],[0]]","6","0","","","","","","5","",""
"","","","","","poldrack-single-stim","306","669125","0.0-3.0-29.0","62e42b7d3f1250f392bbb13e","E1","batch5","","-1","","","tol_feedback","true","","","","","","","","","1000","1000","500","","","","","","-1","none","true","13172","16209","","",""
"","","","","","html-button-response","307","669724","0.0-3.0-30.0","62e42b7d3f1250f392bbb13e","E1","batch5","","597.7000000001863","<div class = centerbox><p class = center-block-text>problem <strong>8</strong> out of 25 problems</p></div>","0","tol_trial_num","","","","","","","","","","","","","","","","","","","","","","","","",""
"","","","","","single-stim-button","308","673953","0.0-3.0-31.0-0.0","62e42b7d3f1250f392bbb13e","E1","batch5","","4228","","","tol_tohand","","","","","","","","","tol_peg_3","4228","4228","0","[[0,0,0],[2,3],[0]]","1","[[1,2,0],[3,0],[0]]","7","0","","","","","","4","",""
"","","","","","single-stim-button","309","675963","0.0-3.0-31.0-1.0","62e42b7d3f1250f392bbb13e","E1","batch5","","2007","","","tol_toboard","","","","","","","","","tol_peg_1","2007","2007","0","[[1,0,0],[2,3],[0]]","1","[[1,2,0],[3,0],[0]]","7","0","","","","","","4","",""
"","","","","","single-stim-button","310","676694","0.0-3.0-31.1-0.1","62e42b7d3f1250f392bbb13e","E1","batch5","","731","","","tol_tohand","","","","","","","","","tol_peg_2","731","731","0","[[1,0,0],[2,0],[0]]","2","[[1,2,0],[3,0],[0]]","7","0","","","","","","4","",""
"","","","","","single-stim-button","311","677257","0.0-3.0-31.1-1.1","62e42b7d3f1250f392bbb13e","E1","batch5","","562","","","tol_toboard","","","","","","","","","tol_peg_3","562","562","0","[[1,0,0],[2,0],[3]]","2","[[1,2,0],[3,0],[0]]","7","0","","","","","","4","",""
"","","","","","single-stim-button","312","677688","0.0-3.0-31.2-0.2","62e42b7d3f1250f392bbb13e","E1","batch5","","429","","","tol_tohand","","","","","","","","","tol_peg_2","429","429","0","[[1,0,0],[0,0],[3]]","3","[[1,2,0],[3,0],[0]]","7","0","","","","","","4","",""
"","","","","","single-stim-button","313","678237","0.0-3.0-31.2-1.2","62e42b7d3f1250f392bbb13e","E1","batch5","","547","","","tol_toboard","","","","","","","","","tol_peg_1","547","547","0","[[1,2,0],[0,0],[3]]","3","[[1,2,0],[3,0],[0]]","7","0","","","","","","4","",""
"","","","","","single-stim-button","314","678758","0.0-3.0-31.3-0.3","62e42b7d3f1250f392bbb13e","E1","batch5","","519","","","tol_tohand","","","","","","","","","tol_peg_3","519","519","0","[[1,2,0],[0,0],[0]]","4","[[1,2,0],[3,0],[0]]","7","0","","","","","","4","",""
"","","","","","single-stim-button","315","679373","0.0-3.0-31.3-1.3","62e42b7d3f1250f392bbb13e","E1","batch5","","614","","","tol_toboard","","","","","","","","","tol_peg_2","614","614","0","[[1,2,0],[3,0],[0]]","4","[[1,2,0],[3,0],[0]]","7","0","","","","","","4","",""
"","","","","","poldrack-single-stim","316","680375","0.0-3.0-32.0","62e42b7d3f1250f392bbb13e","E1","batch5","","-1","","","tol_feedback","true","","","","","","","","","1000","1000","500","","","","","","-1","none","true","4228","5907","","",""
"","","","","","html-button-response","317","681005","0.0-3.0-33.0","62e42b7d3f1250f392bbb13e","E1","batch5","","627.4000000003725","<div class = centerbox><p class = center-block-text>problem <strong>9</strong> out of 25 problems</p></div>","0","tol_trial_num","","","","","","","","","","","","","","","","","","","","","","","","",""
"","","","","","single-stim-button","318","686904","0.0-3.0-34.0-0.0","62e42b7d3f1250f392bbb13e","E1","batch5","","5898","","","tol_tohand","","","","","","","","","tol_peg_1","5898","5898","0","[[3,0,0],[0,0],[1]]","1","[[2,1,0],[3,0],[0]]","8","0","","","","","","6","",""
"","","","","","single-stim-button","319","692800","0.0-3.0-34.0-1.0","62e42b7d3f1250f392bbb13e","E1","batch5","","5893","","","tol_toboard","","","","","","","","","tol_peg_2","5893","5893","0","[[3,0,0],[2,0],[1]]","1","[[2,1,0],[3,0],[0]]","8","0","","","","","","6","",""
"","","","","","single-stim-button","320","693422","0.0-3.0-34.1-0.1","62e42b7d3f1250f392bbb13e","E1","batch5","","621","","","tol_tohand","","","","","","","","","tol_peg_1","621","621","0","[[0,0,0],[2,0],[1]]","2","[[2,1,0],[3,0],[0]]","8","0","","","","","","6","",""
"","","","","","single-stim-button","321","694027","0.0-3.0-34.1-1.1","62e42b7d3f1250f392bbb13e","E1","batch5","","604","","","tol_toboard","","","","","","","","","tol_peg_2","604","604","0","[[0,0,0],[2,3],[1]]","2","[[2,1,0],[3,0],[0]]","8","0","","","","","","6","",""
"","","","","","single-stim-button","322","695465","0.0-3.0-34.2-0.2","62e42b7d3f1250f392bbb13e","E1","batch5","","1436","","","tol_tohand","","","","","","","","","tol_peg_3","1436","1436","0","[[0,0,0],[2,3],[0]]","3","[[2,1,0],[3,0],[0]]","8","0","","","","","","6","",""
"","","","","","single-stim-button","323","696207","0.0-3.0-34.2-1.2","62e42b7d3f1250f392bbb13e","E1","batch5","","740","","","tol_toboard","","","","","","","","","tol_peg_1","740","740","0","[[1,0,0],[2,3],[0]]","3","[[2,1,0],[3,0],[0]]","8","0","","","","","","6","",""
"","","","","","single-stim-button","324","696719","0.0-3.0-34.3-0.3","62e42b7d3f1250f392bbb13e","E1","batch5","","511","","","tol_tohand","","","","","","","","","tol_peg_2","511","511","0","[[1,0,0],[2,0],[0]]","4","[[2,1,0],[3,0],[0]]","8","0","","","","","","6","",""
"","","","","","single-stim-button","325","697290","0.0-3.0-34.3-1.3","62e42b7d3f1250f392bbb13e","E1","batch5","","570","","","tol_toboard","","","","","","","","","tol_peg_3","570","570","0","[[1,0,0],[2,0],[3]]","4","[[2,1,0],[3,0],[0]]","8","0","","","","","","6","",""
"","","","","","single-stim-button","326","702147","0.0-3.0-34.4-0.4","62e42b7d3f1250f392bbb13e","E1","batch5","","4855","","","tol_tohand","","","","","","","","","tol_peg_2","4855","4855","0","[[1,0,0],[0,0],[3]]","5","[[2,1,0],[3,0],[0]]","8","0","","","","","","6","",""
"","","","","","single-stim-button","327","702734","0.0-3.0-34.4-1.4","62e42b7d3f1250f392bbb13e","E1","batch5","","586","","","tol_toboard","","","","","","","","","tol_peg_1","586","586","0","[[1,2,0],[0,0],[3]]","5","[[2,1,0],[3,0],[0]]","8","0","","","","","","6","",""
"","","","","","single-stim-button","328","703349","0.0-3.0-34.5-0.5","62e42b7d3f1250f392bbb13e","E1","batch5","","614","","","tol_tohand","","","","","","","","","tol_peg_3","614","614","0","[[1,2,0],[0,0],[0]]","6","[[2,1,0],[3,0],[0]]","8","0","","","","","","6","",""
"","","","","","single-stim-button","329","703918","0.0-3.0-34.5-1.5","62e42b7d3f1250f392bbb13e","E1","batch5","","568","","","tol_toboard","","","","","","","","","tol_peg_2","568","568","0","[[1,2,0],[3,0],[0]]","6","[[2,1,0],[3,0],[0]]","8","0","","","","","","6","",""
"","","","","","single-stim-button","330","704450","0.0-3.0-34.6-0.6","62e42b7d3f1250f392bbb13e","E1","batch5","","530","","","tol_tohand","","","","","","","","","tol_peg_1","530","530","0","[[1,0,0],[3,0],[0]]","7","[[2,1,0],[3,0],[0]]","8","0","","","","","","6","",""
"","","","","","single-stim-button","331","704977","0.0-3.0-34.6-1.6","62e42b7d3f1250f392bbb13e","E1","batch5","","526","","","tol_toboard","","","","","","","","","tol_peg_2","526","526","0","[[1,0,0],[3,2],[0]]","7","[[2,1,0],[3,0],[0]]","8","0","","","","","","6","",""
"","","","","","single-stim-button","332","705377","0.0-3.0-34.7-0.7","62e42b7d3f1250f392bbb13e","E1","batch5","","399","","","tol_tohand","","","","","","","","","tol_peg_1","399","399","0","[[0,0,0],[3,2],[0]]","8","[[2,1,0],[3,0],[0]]","8","0","","","","","","6","",""
"","","","","","single-stim-button","333","706008","0.0-3.0-34.7-1.7","62e42b7d3f1250f392bbb13e","E1","batch5","","630","","","tol_toboard","","","","","","","","","tol_peg_3","630","630","0","[[0,0,0],[3,2],[1]]","8","[[2,1,0],[3,0],[0]]","8","0","","","","","","6","",""
"","","","","","single-stim-button","334","706250","0.0-3.0-34.8-0.8","62e42b7d3f1250f392bbb13e","E1","batch5","","241","","","tol_tohand","","","","","","","","","tol_peg_3","241","241","0","[[0,0,0],[3,2],[0]]","9","[[2,1,0],[3,0],[0]]","8","0","","","","","","6","",""
"","","","","","single-stim-button","335","707371","0.0-3.0-34.8-1.8","62e42b7d3f1250f392bbb13e","E1","batch5","","1121","","","tol_toboard","","","","","","","","","tol_peg_3","1121","1121","0","[[0,0,0],[3,2],[1]]","9","[[2,1,0],[3,0],[0]]","8","0","","","","","","6","",""
"","","","","","single-stim-button","336","707820","0.0-3.0-34.9-0.9","62e42b7d3f1250f392bbb13e","E1","batch5","","449","","","tol_tohand","","","","","","","","","tol_peg_2","449","449","0","[[0,0,0],[3,0],[1]]","10","[[2,1,0],[3,0],[0]]","8","0","","","","","","6","",""
"","","","","","single-stim-button","337","708451","0.0-3.0-34.9-1.9","62e42b7d3f1250f392bbb13e","E1","batch5","","629","","","tol_toboard","","","","","","","","","tol_peg_1","629","629","0","[[2,0,0],[3,0],[1]]","10","[[2,1,0],[3,0],[0]]","8","0","","","","","","6","",""
"","","","","","single-stim-button","338","709045","0.0-3.0-34.10-0.10","62e42b7d3f1250f392bbb13e","E1","batch5","","592","","","tol_tohand","","","","","","","","","tol_peg_3","592","592","0","[[2,0,0],[3,0],[0]]","11","[[2,1,0],[3,0],[0]]","8","0","","","","","","6","",""
"","","","","","single-stim-button","339","709715","0.0-3.0-34.10-1.10","62e42b7d3f1250f392bbb13e","E1","batch5","","669","","","tol_toboard","","","","","","","","","tol_peg_1","669","669","0","[[2,1,0],[3,0],[0]]","11","[[2,1,0],[3,0],[0]]","8","0","","","","","","6","",""
"","","","","","poldrack-single-stim","340","710718","0.0-3.0-35.0","62e42b7d3f1250f392bbb13e","E1","batch5","","-1","","","tol_feedback","true","","","","","","","","","1000","1000","500","","","","","","-1","none","true","5898","16146","","",""
"","","","","","html-button-response","341","711630","0.0-3.0-36.0","62e42b7d3f1250f392bbb13e","E1","batch5","","910.2000000001863","<div class = centerbox><p class = center-block-text>problem <strong>10</strong> out of 25 problems</p></div>","0","tol_trial_num","","","","","","","","","","","","","","","","","","","","","","","","",""
"","","","","","single-stim-button","342","715175","0.0-3.0-37.0-0.0","62e42b7d3f1250f392bbb13e","E1","batch5","","3543","","","tol_tohand","","","","","","","","","tol_peg_2","3543","3543","0","[[3,0,0],[0,0],[2]]","1","[[3,0,0],[2,1],[0]]","9","0","","","","","","3","",""
"","","","","","single-stim-button","343","715755","0.0-3.0-37.0-1.0","62e42b7d3f1250f392bbb13e","E1","batch5","","579","","","tol_toboard","","","","","","","","","tol_peg_1","579","579","0","[[3,1,0],[0,0],[2]]","1","[[3,0,0],[2,1],[0]]","9","0","","","","","","3","",""
"","","","","","single-stim-button","344","716325","0.0-3.0-37.1-0.1","62e42b7d3f1250f392bbb13e","E1","batch5","","569","","","tol_tohand","","","","","","","","","tol_peg_3","569","569","0","[[3,1,0],[0,0],[0]]","2","[[3,0,0],[2,1],[0]]","9","0","","","","","","3","",""
"","","","","","single-stim-button","345","716899","0.0-3.0-37.1-1.1","62e42b7d3f1250f392bbb13e","E1","batch5","","572","","","tol_toboard","","","","","","","","","tol_peg_2","572","572","0","[[3,1,0],[2,0],[0]]","2","[[3,0,0],[2,1],[0]]","9","0","","","","","","3","",""
"","","","","","single-stim-button","346","717341","0.0-3.0-37.2-0.2","62e42b7d3f1250f392bbb13e","E1","batch5","","441","","","tol_tohand","","","","","","","","","tol_peg_1","441","441","0","[[3,0,0],[2,0],[0]]","3","[[3,0,0],[2,1],[0]]","9","0","","","","","","3","",""
"","","","","","single-stim-button","347","717911","0.0-3.0-37.2-1.2","62e42b7d3f1250f392bbb13e","E1","batch5","","569","","","tol_toboard","","","","","","","","","tol_peg_2","569","569","0","[[3,0,0],[2,1],[0]]","3","[[3,0,0],[2,1],[0]]","9","0","","","","","","3","",""
"","","","","","poldrack-single-stim","348","718915","0.0-3.0-38.0","62e42b7d3f1250f392bbb13e","E1","batch5","","-1","","","tol_feedback","true","","","","","","","","","1000","1000","500","","","","","","-1","none","true","3543","4553","","",""
