"success","timeout","failed_images","failed_audio","failed_video","trial_type","trial_index","time_elapsed","internal_node_id","subject_id","study_id","session_id","view_history","rt","stimulus","response","task","correct","answer","item","fiar_detect_rt","fiar_detect_correct","total_correct_fiar_detect","post_trial_gap","choices","mouse_click","stim_duration","block_duration","timing_post_trial","current_position","tol_num_moves_made","tol_target","tol_problem_id","tol_rt","key_press","possible_responses","tol_correct","preplanning","tol_rt_per_trial","tol_min_moves","spm_correct","spm_rt"
"true","false","[]","[]","[]","preload","0","18820","0.0-0.0","62ec1fe3ebd392c343d85886","F1","batch6","","","","","","","","","","","","","","","","","","","","","","","","","","","","","",""
"true","","","","","fullscreen","1","24480","0.0-1.0-0.0","62ec1fe3ebd392c343d85886","F1","batch6","","","","","","","","","","","","","","","","","","","","","","","","","","","","","",""
"true","","","","","fullscreen","2","27570","0.0-2.0-0.0","62ec1fe3ebd392c343d85886","F1","batch6","","","","","","","","","","","","","","","","","","","","","","","","","","","","","",""
"","","","","","instructions","3","41718","0.0-2.0-1.0-0.0","62ec1fe3ebd392c343d85886","F1","batch6","[{""page_index"":0,""viewing_time"":11650.200000047684},{""page_index"":1,""viewing_time"":2496}]","14146.400000095367","","","","","","","","","","","","","","","","","","","","","","","","","","","",""
"","","","","","html-button-response","4","42701","0.0-2.0-1.0-1.0-0.0","62ec1fe3ebd392c343d85886","F1","batch6","","981.9000000953674","<p class=block-text> Let's answer a few questions <br>","0","pattern_enter_quiz","","","","","","","","","","","","","","","","","","","","","","","","",""
"","","","","","html-button-response","5","53291","0.0-2.0-1.0-1.0-1.0","62ec1fe3ebd392c343d85886","F1","batch6","","10587.599999904633","<p class = block-text>True or False: You will have as much time as you want to make each choice. <br></p>","0","pattern_quiz","false","","","","","","","","","","","","","","","","","","","","","","","",""
"","","","","","html-button-response","6","54675","0.0-2.0-1.0-1.0-2.0","62ec1fe3ebd392c343d85886","F1","batch6","","1380.5","<p class = block-text>Incorrect. Remember, You should make your choice as fast as you can.</p>","0","pattern_quiz_feedback","","","","","","","","","","","","","","","","","","","","","","","","",""
"","","","","","html-button-response","7","57091","0.0-2.0-1.0-1.0-3.0","62ec1fe3ebd392c343d85886","F1","batch6","","2413.5","<p class = block-text>True or False: You will look for 4 pieces in black or white color connected in a row either horizontally, vertically or diagonally. <br></p>","0","pattern_quiz","true","","","","","","","","","","","","","","","","","","","","","","","",""
"","","","","","html-button-response","8","57760","0.0-2.0-1.0-1.0-4.0","62ec1fe3ebd392c343d85886","F1","batch6","","667.9000000953674","<p class = block-text>Correct! </p>","0","pattern_quiz_feedback","","","","","","","","","","","","","","","","","","","","","","","","",""
"","","","","","html-button-response","9","59230","0.0-2.0-1.0-2.0-0.0","62ec1fe3ebd392c343d85886","F1","batch6","","1465.2999999523163","<p class = block-text>You made too many incorrect choices.</p><p class = block-text>You will now repeat the instruction and quiz</p>","0","","","","","","","","","","","","","","","","","","","","","","","","","",""
"","","","","","instructions","10","65773","0.0-2.0-1.1-0.1","62ec1fe3ebd392c343d85886","F1","batch6","[{""page_index"":0,""viewing_time"":2124.5},{""page_index"":1,""viewing_time"":3065.7000000476837},{""page_index"":0,""viewing_time"":707.5},{""page_index"":1,""viewing_time"":643.8999998569489}]","6541.799999952316","","","","","","","","","","","","","","","","","","","","","","","","","","","",""
"","","","","","html-button-response","11","66616","0.0-2.0-1.1-1.1-0.1","62ec1fe3ebd392c343d85886","F1","batch6","","841","<p class=block-text> Let's answer a few questions <br>","0","pattern_enter_quiz","","","","","","","","","","","","","","","","","","","","","","","","",""
"","","","","","html-button-response","12","67929","0.0-2.0-1.1-1.1-1.1","62ec1fe3ebd392c343d85886","F1","batch6","","1310.2000000476837","<p class = block-text>True or False: You will have as much time as you want to make each choice. <br></p>","1","pattern_quiz","true","","","","","","","","","","","","","","","","","","","","","","","",""
"","","","","","html-button-response","13","68541","0.0-2.0-1.1-1.1-2.1","62ec1fe3ebd392c343d85886","F1","batch6","","609.9000000953674","<p class = block-text>Correct! You should make your choice <strong> as fast as you can</strong>.</p>","0","pattern_quiz_feedback","","","","","","","","","","","","","","","","","","","","","","","","",""
"","","","","","html-button-response","14","70666","0.0-2.0-1.1-1.1-3.1","62ec1fe3ebd392c343d85886","F1","batch6","","2122.9000000953674","<p class = block-text>True or False: You will look for 4 pieces in black or white color connected in a row either horizontally, vertically or diagonally. <br></p>","0","pattern_quiz","true","","","","","","","","","","","","","","","","","","","","","","","",""
"","","","","","html-button-response","15","71307","0.0-2.0-1.1-1.1-4.1","62ec1fe3ebd392c343d85886","F1","batch6","","639.5","<p class = block-text>Correct! </p>","0","pattern_quiz_feedback","","","","","","","","","","","","","","","","","","","","","","","","",""
"","","","","","html-button-response","16","72338","0.0-2.0-2.0","62ec1fe3ebd392c343d85886","F1","batch6","","1026.7999999523163","<p class=block-text> Now that you've understood the game, let's do a few practice trials before we start!<br> <br>","0","pattern_enter_practice","","","","","","","","","","","","","","","","","","","","","","","","",""
"","","","","","image-keyboard-response","17","74397","0.0-2.0-3.0-0.0","62ec1fe3ebd392c343d85886","F1","batch6","","2054.100000143051","stim/prac_yes_20_dia_b1.png","f","pattern_practice","true","f","","","","","","","","","","","","","","","","","","","","","","",""
"","","","","","html-keyboard-response","18","75413","0.0-2.0-3.0-1.0","62ec1fe3ebd392c343d85886","F1","batch6","","null","<p style=""font-size:30px;color:green;"">Correct!</p>","null","pattern_feedback","","","","","","","","","","","","","","","","","","","","","","","","",""
"","","","","","image-keyboard-response","19","76375","0.0-2.0-3.0-0.1","62ec1fe3ebd392c343d85886","F1","batch6","","957.7000000476837","stim/prac_yes_16_ver_w1.png","f","pattern_practice","true","f","","","","","","","","","","","","","","","","","","","","","","",""
"","","","","","html-keyboard-response","20","77382","0.0-2.0-3.0-1.1","62ec1fe3ebd392c343d85886","F1","batch6","","null","<p style=""font-size:30px;color:green;"">Correct!</p>","null","pattern_feedback","","","","","","","","","","","","","","","","","","","","","","","","",""
"","","","","","image-keyboard-response","21","79092","0.0-2.0-3.0-0.2","62ec1fe3ebd392c343d85886","F1","batch6","","1706.7000000476837","stim/prac_no_18_1.png","j","pattern_practice","true","j","","","","","","","","","","","","","","","","","","","","","","",""
"","","","","","html-keyboard-response","22","80113","0.0-2.0-3.0-1.2","62ec1fe3ebd392c343d85886","F1","batch6","","null","<p style=""font-size:30px;color:green;"">Correct!</p>","null","pattern_feedback","","","","","","","","","","","","","","","","","","","","","","","","",""
"","","","","","image-keyboard-response","23","81009","0.0-2.0-3.0-0.3","62ec1fe3ebd392c343d85886","F1","batch6","","892.5","stim/prac_yes_18_hor_w1.png","f","pattern_practice","true","f","","","","","","","","","","","","","","","","","","","","","","",""
"","","","","","html-keyboard-response","24","82028","0.0-2.0-3.0-1.3","62ec1fe3ebd392c343d85886","F1","batch6","","null","<p style=""font-size:30px;color:green;"">Correct!</p>","null","pattern_feedback","","","","","","","","","","","","","","","","","","","","","","","","",""
"","","","","","image-keyboard-response","25","83181","0.0-2.0-3.0-0.4","62ec1fe3ebd392c343d85886","F1","batch6","","1148.9000000953674","stim/prac_no_16_1.png","j","pattern_practice","true","j","","","","","","","","","","","","","","","","","","","","","","",""
"","","","","","html-keyboard-response","26","84198","0.0-2.0-3.0-1.4","62ec1fe3ebd392c343d85886","F1","batch6","","null","<p style=""font-size:30px;color:green;"">Correct!</p>","null","pattern_feedback","","","","","","","","","","","","","","","","","","","","","","","","",""
"","","","","","html-button-response","27","89167","0.0-2.0-4.0","62ec1fe3ebd392c343d85886","F1","batch6","","4966.100000143051","<p class=block-text> Good job! You are done with practice trials!<br>
        You responded correctly on 100% of the trials.<br>
        Press the button below to start official trials. Now you won't see any feedback about your response</p>","0","pattern_enter_official_trials","","","","","","","","","","","","","","","","","","","","","","","","",""
"","","","","","html-keyboard-response","28","89972","0.0-2.0-5.0-0.0","62ec1fe3ebd392c343d85886","F1","batch6","","null","<p class=block-text>Trial 1 out of 78</p>","null","pattern_show_trial_num","","","","","","","","","","","","","","","","","","","","","","","","",""
"","","","","","image-keyboard-response","29","95281","0.0-2.0-5.0-1.0","62ec1fe3ebd392c343d85886","F1","batch6","","5303.700000047684","stim/no_51_1.png","j","pattern_response","true","j","pattern_31","5303.700000047684","true","1","","","","","","","","","","","","","","","","","","",""
"","","","","","html-keyboard-response","30","96598","0.0-2.0-5.0-0.1","62ec1fe3ebd392c343d85886","F1","batch6","","null","<p class=block-text>Trial 2 out of 78</p>","null","pattern_show_trial_num","","","","","","","","","","","","","","","","","","","","","","","","",""
"","","","","","image-keyboard-response","31","97644","0.0-2.0-5.0-1.1","62ec1fe3ebd392c343d85886","F1","batch6","","1042.7999999523163","stim/yes_37_hor_w1_w.png","f","pattern_response","true","f","pattern_60","1042.7999999523163","true","2","","","","","","","","","","","","","","","","","","",""
"","","","","","html-keyboard-response","32","98959","0.0-2.0-5.0-0.2","62ec1fe3ebd392c343d85886","F1","batch6","","null","<p class=block-text>Trial 3 out of 78</p>","null","pattern_show_trial_num","","","","","","","","","","","","","","","","","","","","","","","","",""
"","","","","","image-keyboard-response","33","99996","0.0-2.0-5.0-1.2","62ec1fe3ebd392c343d85886","F1","batch6","","1033.6000001430511","stim/yes_49_hor_w1_b.png","f","pattern_response","true","f","pattern_70","1033.6000001430511","true","3","","","","","","","","","","","","","","","","","","",""
"","","","","","html-keyboard-response","34","101311","0.0-2.0-5.0-0.3","62ec1fe3ebd392c343d85886","F1","batch6","","null","<p class=block-text>Trial 4 out of 78</p>","null","pattern_show_trial_num","","","","","","","","","","","","","","","","","","","","","","","","",""
"","","","","","image-keyboard-response","35","102108","0.0-2.0-5.0-1.3","62ec1fe3ebd392c343d85886","F1","batch6","","794.5999999046326","stim/yes_29_hor_b1_b.png","f","pattern_response","true","f","pattern_52","794.5999999046326","true","4","","","","","","","","","","","","","","","","","","",""
"","","","","","html-keyboard-response","36","103420","0.0-2.0-5.0-0.4","62ec1fe3ebd392c343d85886","F1","batch6","","null","<p class=block-text>Trial 5 out of 78</p>","null","pattern_show_trial_num","","","","","","","","","","","","","","","","","","","","","","","","",""
"","","","","","image-keyboard-response","37","107781","0.0-2.0-5.0-1.4","62ec1fe3ebd392c343d85886","F1","batch6","","4357.200000047684","stim/no_53_1_b.png","j","pattern_response","true","j","pattern_33","4357.200000047684","true","5","","","","","","","","","","","","","","","","","","",""
"","","","","","html-keyboard-response","38","109095","0.0-2.0-5.0-0.5","62ec1fe3ebd392c343d85886","F1","batch6","","null","<p class=block-text>Trial 6 out of 78</p>","null","pattern_show_trial_num","","","","","","","","","","","","","","","","","","","","","","","","",""
"","","","","","image-keyboard-response","39","112826","0.0-2.0-5.0-1.5","62ec1fe3ebd392c343d85886","F1","batch6","","3726.699999809265","stim/yes_42_dia_w1_w.png","j","pattern_response","false","f","pattern_64","3726.699999809265","false","5","","","","","","","","","","","","","","","","","","",""
"","","","","","html-keyboard-response","40","114139","0.0-2.0-5.0-0.6","62ec1fe3ebd392c343d85886","F1","batch6","","null","<p class=block-text>Trial 7 out of 78</p>","null","pattern_show_trial_num","","","","","","","","","","","","","","","","","","","","","","","","",""
"","","","","","image-keyboard-response","41","120360","0.0-2.0-5.0-1.6","62ec1fe3ebd392c343d85886","F1","batch6","","6216.200000047684","stim/no_67_1.png","j","pattern_response","true","j","pattern_39","6216.200000047684","true","6","","","","","","","","","","","","","","","","","","",""
"","","","","","html-keyboard-response","42","121679","0.0-2.0-5.0-0.7","62ec1fe3ebd392c343d85886","F1","batch6","","null","<p class=block-text>Trial 8 out of 78</p>","null","pattern_show_trial_num","","","","","","","","","","","","","","","","","","","","","","","","",""
"","","","","","image-keyboard-response","43","123148","0.0-2.0-5.0-1.7","62ec1fe3ebd392c343d85886","F1","batch6","","1465.5","stim/yes_30_ver_b1_b.png","f","pattern_response","true","f","pattern_54","1465.5","true","7","","","","","","","","","","","","","","","","","","",""
"","","","","","html-keyboard-response","44","124462","0.0-2.0-5.0-0.8","62ec1fe3ebd392c343d85886","F1","batch6","","null","<p class=block-text>Trial 9 out of 78</p>","null","pattern_show_trial_num","","","","","","","","","","","","","","","","","","","","","","","","",""
"","","","","","image-keyboard-response","45","126763","0.0-2.0-5.0-1.8","62ec1fe3ebd392c343d85886","F1","batch6","","2297.100000143051","stim/no_36_1_b.png","j","pattern_response","true","j","pattern_17","2297.100000143051","true","8","","","","","","","","","","","","","","","","","","",""
"","","","","","html-keyboard-response","46","128078","0.0-2.0-5.0-0.9","62ec1fe3ebd392c343d85886","F1","batch6","","null","<p class=block-text>Trial 10 out of 78</p>","null","pattern_show_trial_num","","","","","","","","","","","","","","","","","","","","","","","","",""
"","","","","","image-keyboard-response","47","129299","0.0-2.0-5.0-1.9","62ec1fe3ebd392c343d85886","F1","batch6","","1216.1000001430511","stim/no_12_1.png","j","pattern_response","true","j","pattern_01","1216.1000001430511","true","9","","","","","","","","","","","","","","","","","","",""
"","","","","","html-keyboard-response","48","130612","0.0-2.0-5.0-0.10","62ec1fe3ebd392c343d85886","F1","batch6","","null","<p class=block-text>Trial 11 out of 78</p>","null","pattern_show_trial_num","","","","","","","","","","","","","","","","","","","","","","","","",""
"","","","","","image-keyboard-response","49","132609","0.0-2.0-5.0-1.10","62ec1fe3ebd392c343d85886","F1","batch6","","1993.7000000476837","stim/no_37_2_w.png","j","pattern_response","true","j","pattern_19","1993.7000000476837","true","10","","","","","","","","","","","","","","","","","","",""
"","","","","","html-keyboard-response","50","133925","0.0-2.0-5.0-0.11","62ec1fe3ebd392c343d85886","F1","batch6","","null","<p class=block-text>Trial 12 out of 78</p>","null","pattern_show_trial_num","","","","","","","","","","","","","","","","","","","","","","","","",""
"","","","","","image-keyboard-response","51","135254","0.0-2.0-5.0-1.11","62ec1fe3ebd392c343d85886","F1","batch6","","1325","stim/no_18_1_b.png","j","pattern_response","true","j","pattern_05","1325","true","11","","","","","","","","","","","","","","","","","","",""
"","","","","","html-keyboard-response","52","136574","0.0-2.0-5.0-0.12","62ec1fe3ebd392c343d85886","F1","batch6","","null","<p class=block-text>Trial 13 out of 78</p>","null","pattern_show_trial_num","","","","","","","","","","","","","","","","","","","","","","","","",""
"","","","","","image-keyboard-response","53","137387","0.0-2.0-5.0-1.12","62ec1fe3ebd392c343d85886","F1","batch6","","810.5","stim/yes_36_ver_w1_w.png","f","pattern_response","true","f","pattern_58","810.5","true","12","","","","","","","","","","","","","","","","","","",""
"","","","","","html-keyboard-response","54","138699","0.0-2.0-5.0-0.13","62ec1fe3ebd392c343d85886","F1","batch6","","null","<p class=block-text>Trial 14 out of 78</p>","null","pattern_show_trial_num","","","","","","","","","","","","","","","","","","","","","","","","",""
"","","","","","image-keyboard-response","55","140654","0.0-2.0-5.0-1.13","62ec1fe3ebd392c343d85886","F1","batch6","","1951.4000000953674","stim/no_30_1_b.png","j","pattern_response","true","j","pattern_13","1951.4000000953674","true","13","","","","","","","","","","","","","","","","","","",""
"","","","","","html-keyboard-response","56","141972","0.0-2.0-5.0-0.14","62ec1fe3ebd392c343d85886","F1","batch6","","null","<p class=block-text>Trial 15 out of 78</p>","null","pattern_show_trial_num","","","","","","","","","","","","","","","","","","","","","","","","",""
"","","","","","image-keyboard-response","57","146721","0.0-2.0-5.0-1.14","62ec1fe3ebd392c343d85886","F1","batch6","","4746.700000047684","stim/yes_44_ver_w1_w.png","f","pattern_response","true","f","pattern_66","4746.700000047684","true","14","","","","","","","","","","","","","","","","","","",""
"","","","","","html-keyboard-response","58","148035","0.0-2.0-5.0-0.15","62ec1fe3ebd392c343d85886","F1","batch6","","null","<p class=block-text>Trial 16 out of 78</p>","null","pattern_show_trial_num","","","","","","","","","","","","","","","","","","","","","","","","",""
"","","","","","image-keyboard-response","59","151316","0.0-2.0-5.0-1.15","62ec1fe3ebd392c343d85886","F1","batch6","","3278.7999999523163","stim/no_49_2_b.png","j","pattern_response","true","j","pattern_29","3278.7999999523163","true","15","","","","","","","","","","","","","","","","","","",""
"","","","","","html-keyboard-response","60","152626","0.0-2.0-5.0-0.16","62ec1fe3ebd392c343d85886","F1","batch6","","null","<p class=block-text>Trial 17 out of 78</p>","null","pattern_show_trial_num","","","","","","","","","","","","","","","","","","","","","","","","",""
"","","","","","image-keyboard-response","61","154596","0.0-2.0-5.0-1.16","62ec1fe3ebd392c343d85886","F1","batch6","","1966.4000000953674","stim/yes_46_ver_b1_b.png","f","pattern_response","true","f","pattern_68","1966.4000000953674","true","16","","","","","","","","","","","","","","","","","","",""
"","","","","","html-keyboard-response","62","155905","0.0-2.0-5.0-0.17","62ec1fe3ebd392c343d85886","F1","batch6","","null","<p class=block-text>Trial 18 out of 78</p>","null","pattern_show_trial_num","","","","","","","","","","","","","","","","","","","","","","","","",""
"","","","","","image-keyboard-response","63","158196","0.0-2.0-5.0-1.17","62ec1fe3ebd392c343d85886","F1","batch6","","2287.7000000476837","stim/no_45_1_w.png","j","pattern_response","true","j","pattern_25","2287.7000000476837","true","17","","","","","","","","","","","","","","","","","","",""
"","","","","","html-keyboard-response","64","159508","0.0-2.0-5.0-0.18","62ec1fe3ebd392c343d85886","F1","batch6","","null","<p class=block-text>Trial 19 out of 78</p>","null","pattern_show_trial_num","","","","","","","","","","","","","","","","","","","","","","","","",""
"","","","","","image-keyboard-response","65","160707","0.0-2.0-5.0-1.18","62ec1fe3ebd392c343d85886","F1","batch6","","1195.2000000476837","stim/yes_33_dia_w1_w.png","f","pattern_response","true","f","pattern_56","1195.2000000476837","true","18","","","","","","","","","","","","","","","","","","",""
"","","","","","html-keyboard-response","66","162024","0.0-2.0-5.0-0.19","62ec1fe3ebd392c343d85886","F1","batch6","","null","<p class=block-text>Trial 20 out of 78</p>","null","pattern_show_trial_num","","","","","","","","","","","","","","","","","","","","","","","","",""
"","","","","","image-keyboard-response","67","163457","0.0-2.0-5.0-1.19","62ec1fe3ebd392c343d85886","F1","batch6","","1429.3999998569489","stim/no_22_1_b.png","j","pattern_response","true","j","pattern_07","1429.3999998569489","true","19","","","","","","","","","","","","","","","","","","",""
"","","","","","html-keyboard-response","68","164768","0.0-2.0-5.0-0.20","62ec1fe3ebd392c343d85886","F1","batch6","","null","<p class=block-text>Trial 21 out of 78</p>","null","pattern_show_trial_num","","","","","","","","","","","","","","","","","","","","","","","","",""
"","","","","","image-keyboard-response","69","166468","0.0-2.0-5.0-1.20","62ec1fe3ebd392c343d85886","F1","batch6","","1695.7000000476837","stim/yes_39_hor_w1_w.png","f","pattern_response","true","f","pattern_62","1695.7000000476837","true","20","","","","","","","","","","","","","","","","","","",""
"","","","","","html-keyboard-response","70","167778","0.0-2.0-5.0-0.21","62ec1fe3ebd392c343d85886","F1","batch6","","null","<p class=block-text>Trial 22 out of 78</p>","null","pattern_show_trial_num","","","","","","","","","","","","","","","","","","","","","","","","",""
"","","","","","image-keyboard-response","71","169209","0.0-2.0-5.0-1.21","62ec1fe3ebd392c343d85886","F1","batch6","","1428","stim/yes_53_ver_b1_b.png","f","pattern_response","true","f","pattern_74","1428","true","21","","","","","","","","","","","","","","","","","","",""
"","","","","","html-keyboard-response","72","170519","0.0-2.0-5.0-0.22","62ec1fe3ebd392c343d85886","F1","batch6","","null","<p class=block-text>Trial 23 out of 78</p>","null","pattern_show_trial_num","","","","","","","","","","","","","","","","","","","","","","","","",""
"","","","","","image-keyboard-response","73","171526","0.0-2.0-5.0-1.22","62ec1fe3ebd392c343d85886","F1","batch6","","1005.5999999046326","stim/yes_51_dia_b1.png","f","pattern_response","true","f","pattern_72","1005.5999999046326","true","22","","","","","","","","","","","","","","","","","","",""
"","","","","","html-keyboard-response","74","172842","0.0-2.0-5.0-0.23","62ec1fe3ebd392c343d85886","F1","batch6","","null","<p class=block-text>Trial 24 out of 78</p>","null","pattern_show_trial_num","","","","","","","","","","","","","","","","","","","","","","","","",""
"","","","","","image-keyboard-response","75","173477","0.0-2.0-5.0-1.23","62ec1fe3ebd392c343d85886","F1","batch6","","632.6999998092651","stim/yes_17_ver_b1_b.png","f","pattern_response","true","f","pattern_46","632.6999998092651","true","23","","","","","","","","","","","","","","","","","","",""
"","","","","","html-keyboard-response","76","174795","0.0-2.0-5.0-0.24","62ec1fe3ebd392c343d85886","F1","batch6","","null","<p class=block-text>Trial 25 out of 78</p>","null","pattern_show_trial_num","","","","","","","","","","","","","","","","","","","","","","","","",""
"","","","","","image-keyboard-response","77","177414","0.0-2.0-5.0-1.24","62ec1fe3ebd392c343d85886","F1","batch6","","2615.7999999523163","stim/no_25_1_b.png","j","pattern_response","true","j","pattern_09","2615.7999999523163","true","24","","","","","","","","","","","","","","","","","","",""
"","","","","","html-keyboard-response","78","178729","0.0-2.0-5.0-0.25","62ec1fe3ebd392c343d85886","F1","batch6","","null","<p class=block-text>Trial 26 out of 78</p>","null","pattern_show_trial_num","","","","","","","","","","","","","","","","","","","","","","","","",""
"","","","","","image-keyboard-response","79","180512","0.0-2.0-5.0-1.25","62ec1fe3ebd392c343d85886","F1","batch6","","1779.2000000476837","stim/no_28_2.png","j","pattern_response","true","j","pattern_11","1779.2000000476837","true","25","","","","","","","","","","","","","","","","","","",""
"","","","","","html-keyboard-response","80","181828","0.0-2.0-5.0-0.26","62ec1fe3ebd392c343d85886","F1","batch6","","null","<p class=block-text>Trial 27 out of 78</p>","null","pattern_show_trial_num","","","","","","","","","","","","","","","","","","","","","","","","",""
"","","","","","image-keyboard-response","81","182759","0.0-2.0-5.0-1.26","62ec1fe3ebd392c343d85886","F1","batch6","","928","stim/yes_23_ver_b1.png","f","pattern_response","true","f","pattern_48","928","true","26","","","","","","","","","","","","","","","","","","",""
"","","","","","html-keyboard-response","82","184076","0.0-2.0-5.0-0.27","62ec1fe3ebd392c343d85886","F1","batch6","","null","<p class=block-text>Trial 28 out of 78</p>","null","pattern_show_trial_num","","","","","","","","","","","","","","","","","","","","","","","","",""
"","","","","","image-keyboard-response","83","194414","0.0-2.0-5.0-1.27","62ec1fe3ebd392c343d85886","F1","batch6","","10334.700000047684","stim/yes_63_dia_b1.png","j","pattern_response","false","f","pattern_78","10334.700000047684","false","26","","","","","","","","","","","","","","","","","","",""
"","","","","","html-keyboard-response","84","195730","0.0-2.0-5.0-0.28","62ec1fe3ebd392c343d85886","F1","batch6","","null","<p class=block-text>Trial 29 out of 78</p>","null","pattern_show_trial_num","","","","","","","","","","","","","","","","","","","","","","","","",""
"","","","","","image-keyboard-response","85","196339","0.0-2.0-5.0-1.28","62ec1fe3ebd392c343d85886","F1","batch6","","605.5999999046326","stim/yes_12_hor_w1_w.png","f","pattern_response","true","f","pattern_42","605.5999999046326","true","27","","","","","","","","","","","","","","","","","","",""
"","","","","","html-keyboard-response","86","197659","0.0-2.0-5.0-0.29","62ec1fe3ebd392c343d85886","F1","batch6","","null","<p class=block-text>Trial 30 out of 78</p>","null","pattern_show_trial_num","","","","","","","","","","","","","","","","","","","","","","","","",""
"","","","","","image-keyboard-response","87","198287","0.0-2.0-5.0-1.29","62ec1fe3ebd392c343d85886","F1","batch6","","624.2000000476837","stim/yes_15_dia_b1u_b.png","f","pattern_response","true","f","pattern_44","624.2000000476837","true","28","","","","","","","","","","","","","","","","","","",""
"","","","","","html-keyboard-response","88","199599","0.0-2.0-5.0-0.30","62ec1fe3ebd392c343d85886","F1","batch6","","null","<p class=block-text>Trial 31 out of 78</p>","null","pattern_show_trial_num","","","","","","","","","","","","","","","","","","","","","","","","",""
"","","","","","image-keyboard-response","89","202340","0.0-2.0-5.0-1.30","62ec1fe3ebd392c343d85886","F1","batch6","","2736.800000190735","stim/no_33_1_b.png","j","pattern_response","true","j","pattern_15","2736.800000190735","true","29","","","","","","","","","","","","","","","","","","",""
"","","","","","html-keyboard-response","90","203657","0.0-2.0-5.0-0.31","62ec1fe3ebd392c343d85886","F1","batch6","","null","<p class=block-text>Trial 32 out of 78</p>","null","pattern_show_trial_num","","","","","","","","","","","","","","","","","","","","","","","","",""
"","","","","","image-keyboard-response","91","204398","0.0-2.0-5.0-1.31","62ec1fe3ebd392c343d85886","F1","batch6","","736.9000000953674","stim/yes_70_ver_b1.png","f","pattern_response","true","f","pattern_80","736.9000000953674","true","30","","","","","","","","","","","","","","","","","","",""
"","","","","","html-keyboard-response","92","205711","0.0-2.0-5.0-0.32","62ec1fe3ebd392c343d85886","F1","batch6","","null","<p class=block-text>Trial 33 out of 78</p>","null","pattern_show_trial_num","","","","","","","","","","","","","","","","","","","","","","","","",""
"","","","","","image-keyboard-response","93","206685","0.0-2.0-5.0-1.32","62ec1fe3ebd392c343d85886","F1","batch6","","970.0999999046326","stim/yes_26_dia_w2_w.png","f","pattern_response","true","f","pattern_50","970.0999999046326","true","31","","","","","","","","","","","","","","","","","","",""
"","","","","","html-keyboard-response","94","208001","0.0-2.0-5.0-0.33","62ec1fe3ebd392c343d85886","F1","batch6","","null","<p class=block-text>Trial 34 out of 78</p>","null","pattern_show_trial_num","","","","","","","","","","","","","","","","","","","","","","","","",""
"","","","","","image-keyboard-response","95","211307","0.0-2.0-5.0-1.33","62ec1fe3ebd392c343d85886","F1","batch6","","3302.2999999523163","stim/no_39_1_w.png","j","pattern_response","true","j","pattern_21","3302.2999999523163","true","32","","","","","","","","","","","","","","","","","","",""
"","","","","","html-keyboard-response","96","212623","0.0-2.0-5.0-0.34","62ec1fe3ebd392c343d85886","F1","batch6","","null","<p class=block-text>Trial 35 out of 78</p>","null","pattern_show_trial_num","","","","","","","","","","","","","","","","","","","","","","","","",""
"","","","","","image-keyboard-response","97","217936","0.0-2.0-5.0-1.34","62ec1fe3ebd392c343d85886","F1","batch6","","5311.399999856949","stim/yes_58_dia_w1_w.png","f","pattern_response","true","f","pattern_76","5311.399999856949","true","33","","","","","","","","","","","","","","","","","","",""
"","","","","","html-keyboard-response","98","219249","0.0-2.0-5.0-0.35","62ec1fe3ebd392c343d85886","F1","batch6","","null","<p class=block-text>Trial 36 out of 78</p>","null","pattern_show_trial_num","","","","","","","","","","","","","","","","","","","","","","","","",""
"","","","","","image-keyboard-response","99","225011","0.0-2.0-5.0-1.35","62ec1fe3ebd392c343d85886","F1","batch6","","5757.700000047684","stim/no_58_1_w.png","j","pattern_response","true","j","pattern_35","5757.700000047684","true","34","","","","","","","","","","","","","","","","","","",""
"","","","","","html-keyboard-response","100","226330","0.0-2.0-5.0-0.36","62ec1fe3ebd392c343d85886","F1","batch6","","null","<p class=block-text>Trial 37 out of 78</p>","null","pattern_show_trial_num","","","","","","","","","","","","","","","","","","","","","","","","",""
"","","","","","image-keyboard-response","101","228391","0.0-2.0-5.0-1.36","62ec1fe3ebd392c343d85886","F1","batch6","","2056.899999856949","stim/no_47_1_b.png","j","pattern_response","true","j","pattern_27","2056.899999856949","true","35","","","","","","","","","","","","","","","","","","",""
"","","","","","html-keyboard-response","102","229705","0.0-2.0-5.0-0.37","62ec1fe3ebd392c343d85886","F1","batch6","","null","<p class=block-text>Trial 38 out of 78</p>","null","pattern_show_trial_num","","","","","","","","","","","","","","","","","","","","","","","","",""
"","","","","","image-keyboard-response","103","233757","0.0-2.0-5.0-1.37","62ec1fe3ebd392c343d85886","F1","batch6","","4048.5999999046326","stim/no_43_2_b.png","j","pattern_response","true","j","pattern_23","4048.5999999046326","true","36","","","","","","","","","","","","","","","","","","",""
"","","","","","html-keyboard-response","104","235074","0.0-2.0-5.0-0.38","62ec1fe3ebd392c343d85886","F1","batch6","","null","<p class=block-text>Trial 39 out of 78</p>","null","pattern_show_trial_num","","","","","","","","","","","","","","","","","","","","","","","","",""
"","","","","","image-keyboard-response","105","236421","0.0-2.0-5.0-1.38","62ec1fe3ebd392c343d85886","F1","batch6","","1343.9000000953674","stim/no_15_1_w.png","j","pattern_response","true","j","pattern_03","1343.9000000953674","true","37","","","","","","","","","","","","","","","","","","",""
"","","","","","image-keyboard-response","106","238536","0.0-2.0-6.0","62ec1fe3ebd392c343d85886","F1","batch6","","1603.2999999523163","stim/empty_board.png","j","attention_check","true","j","","","","","500","[""f"",""j""]","","","","","","","","","","","","","","","","",""
"","","","","","html-keyboard-response","107","239341","0.0-2.0-7.0-0.0","62ec1fe3ebd392c343d85886","F1","batch6","","null","<p class=block-text>Trial 40 out of 78</p>","null","pattern_show_trial_num","","","","","","","","","","","","","","","","","","","","","","","","",""
"","","","","","image-keyboard-response","108","241683","0.0-2.0-7.0-1.0","62ec1fe3ebd392c343d85886","F1","batch6","","2338.2999999523163","stim/yes_35_dia_b1.png","f","pattern_response","true","f","pattern_57","2338.2999999523163","true","38","","","","","","","","","","","","","","","","","","",""
"","","","","","html-keyboard-response","109","242999","0.0-2.0-7.0-0.1","62ec1fe3ebd392c343d85886","F1","batch6","","null","<p class=block-text>Trial 41 out of 78</p>","null","pattern_show_trial_num","","","","","","","","","","","","","","","","","","","","","","","","",""
"","","","","","image-keyboard-response","110","244287","0.0-2.0-7.0-1.1","62ec1fe3ebd392c343d85886","F1","batch6","","1284.2000000476837","stim/yes_60_ver_b1_b.png","f","pattern_response","true","f","pattern_77","1284.2000000476837","true","39","","","","","","","","","","","","","","","","","","",""
"","","","","","html-keyboard-response","111","245597","0.0-2.0-7.0-0.2","62ec1fe3ebd392c343d85886","F1","batch6","","null","<p class=block-text>Trial 42 out of 78</p>","null","pattern_show_trial_num","","","","","","","","","","","","","","","","","","","","","","","","",""
"","","","","","image-keyboard-response","112","248493","0.0-2.0-7.0-1.2","62ec1fe3ebd392c343d85886","F1","batch6","","2891.600000143051","stim/no_48_1_w.png","j","pattern_response","true","j","pattern_28","2891.600000143051","true","40","","","","","","","","","","","","","","","","","","",""
"","","","","","html-keyboard-response","113","249805","0.0-2.0-7.0-0.3","62ec1fe3ebd392c343d85886","F1","batch6","","null","<p class=block-text>Trial 43 out of 78</p>","null","pattern_show_trial_num","","","","","","","","","","","","","","","","","","","","","","","","",""
"","","","","","image-keyboard-response","114","253869","0.0-2.0-7.0-1.3","62ec1fe3ebd392c343d85886","F1","batch6","","4060.600000143051","stim/yes_50_dia_w1.png","j","pattern_response","false","f","pattern_71","4060.600000143051","false","40","","","","","","","","","","","","","","","","","","",""
"","","","","","html-keyboard-response","115","255184","0.0-2.0-7.0-0.4","62ec1fe3ebd392c343d85886","F1","batch6","","null","<p class=block-text>Trial 44 out of 78</p>","null","pattern_show_trial_num","","","","","","","","","","","","","","","","","","","","","","","","",""
"","","","","","image-keyboard-response","116","256142","0.0-2.0-7.0-1.4","62ec1fe3ebd392c343d85886","F1","batch6","","954.1999998092651","stim/yes_67_hor_b1.png","f","pattern_response","true","f","pattern_79","954.1999998092651","true","41","","","","","","","","","","","","","","","","","","",""
"","","","","","html-keyboard-response","117","257452","0.0-2.0-7.0-0.5","62ec1fe3ebd392c343d85886","F1","batch6","","null","<p class=block-text>Trial 45 out of 78</p>","null","pattern_show_trial_num","","","","","","","","","","","","","","","","","","","","","","","","",""
"","","","","","image-keyboard-response","118","259111","0.0-2.0-7.0-1.5","62ec1fe3ebd392c343d85886","F1","batch6","","1654.9000000953674","stim/yes_29_ver_w1.png","f","pattern_response","true","f","pattern_53","1654.9000000953674","true","42","","","","","","","","","","","","","","","","","","",""
"","","","","","html-keyboard-response","119","260422","0.0-2.0-7.0-0.6","62ec1fe3ebd392c343d85886","F1","batch6","","null","<p class=block-text>Trial 46 out of 78</p>","null","pattern_show_trial_num","","","","","","","","","","","","","","","","","","","","","","","","",""
"","","","","","image-keyboard-response","120","261434","0.0-2.0-7.0-1.6","62ec1fe3ebd392c343d85886","F1","batch6","","1008.1999998092651","stim/no_26_1_w.png","j","pattern_response","true","j","pattern_10","1008.1999998092651","true","43","","","","","","","","","","","","","","","","","","",""
"","","","","","html-keyboard-response","121","262752","0.0-2.0-7.0-0.7","62ec1fe3ebd392c343d85886","F1","batch6","","null","<p class=block-text>Trial 47 out of 78</p>","null","pattern_show_trial_num","","","","","","","","","","","","","","","","","","","","","","","","",""
"","","","","","image-keyboard-response","122","264499","0.0-2.0-7.0-1.7","62ec1fe3ebd392c343d85886","F1","batch6","","1743.6000001430511","stim/yes_37_dia_w1.png","f","pattern_response","true","f","pattern_59","1743.6000001430511","true","44","","","","","","","","","","","","","","","","","","",""
"","","","","","html-keyboard-response","123","265816","0.0-2.0-7.0-0.8","62ec1fe3ebd392c343d85886","F1","batch6","","null","<p class=block-text>Trial 48 out of 78</p>","null","pattern_show_trial_num","","","","","","","","","","","","","","","","","","","","","","","","",""
"","","","","","image-keyboard-response","124","267701","0.0-2.0-7.0-1.8","62ec1fe3ebd392c343d85886","F1","batch6","","1881.1999998092651","stim/no_42_1_w.png","j","pattern_response","true","j","pattern_22","1881.1999998092651","true","45","","","","","","","","","","","","","","","","","","",""
"","","","","","html-keyboard-response","125","269012","0.0-2.0-7.0-0.9","62ec1fe3ebd392c343d85886","F1","batch6","","null","<p class=block-text>Trial 49 out of 78</p>","null","pattern_show_trial_num","","","","","","","","","","","","","","","","","","","","","","","","",""
"","","","","","image-keyboard-response","126","270951","0.0-2.0-7.0-1.9","62ec1fe3ebd392c343d85886","F1","batch6","","1935.7000000476837","stim/no_23_1.png","j","pattern_response","true","j","pattern_08","1935.7000000476837","true","46","","","","","","","","","","","","","","","","","","",""
"","","","","","html-keyboard-response","127","272260","0.0-2.0-7.0-0.10","62ec1fe3ebd392c343d85886","F1","batch6","","null","<p class=block-text>Trial 50 out of 78</p>","null","pattern_show_trial_num","","","","","","","","","","","","","","","","","","","","","","","","",""
"","","","","","image-keyboard-response","128","273199","0.0-2.0-7.0-1.10","62ec1fe3ebd392c343d85886","F1","batch6","","935.4000000953674","stim/yes_45_hor_b2_b.png","f","pattern_response","true","f","pattern_67","935.4000000953674","true","47","","","","","","","","","","","","","","","","","","",""
"","","","","","html-keyboard-response","129","274512","0.0-2.0-7.0-0.11","62ec1fe3ebd392c343d85886","F1","batch6","","null","<p class=block-text>Trial 51 out of 78</p>","null","pattern_show_trial_num","","","","","","","","","","","","","","","","","","","","","","","","",""
"","","","","","image-keyboard-response","130","279162","0.0-2.0-7.0-1.11","62ec1fe3ebd392c343d85886","F1","batch6","","4647.200000047684","stim/no_46_1_b.png","j","pattern_response","true","j","pattern_26","4647.200000047684","true","48","","","","","","","","","","","","","","","","","","",""
"","","","","","html-keyboard-response","131","280479","0.0-2.0-7.0-0.12","62ec1fe3ebd392c343d85886","F1","batch6","","null","<p class=block-text>Trial 52 out of 78</p>","null","pattern_show_trial_num","","","","","","","","","","","","","","","","","","","","","","","","",""
"","","","","","image-keyboard-response","132","281285","0.0-2.0-7.0-1.12","62ec1fe3ebd392c343d85886","F1","batch6","","801","stim/yes_14_hor_b1_w.png","f","pattern_response","true","f","pattern_43","801","true","49","","","","","","","","","","","","","","","","","","",""
"","","","","","html-keyboard-response","133","282595","0.0-2.0-7.0-0.13","62ec1fe3ebd392c343d85886","F1","batch6","","null","<p class=block-text>Trial 53 out of 78</p>","null","pattern_show_trial_num","","","","","","","","","","","","","","","","","","","","","","","","",""
"","","","","","image-keyboard-response","134","284220","0.0-2.0-7.0-1.13","62ec1fe3ebd392c343d85886","F1","batch6","","1622.2000000476837","stim/yes_48_dia_w1_w.png","f","pattern_response","true","f","pattern_69","1622.2000000476837","true","50","","","","","","","","","","","","","","","","","","",""
"","","","","","html-keyboard-response","135","285534","0.0-2.0-7.0-0.14","62ec1fe3ebd392c343d85886","F1","batch6","","null","<p class=block-text>Trial 54 out of 78</p>","null","pattern_show_trial_num","","","","","","","","","","","","","","","","","","","","","","","","",""
"","","","","","image-keyboard-response","136","286481","0.0-2.0-7.0-1.14","62ec1fe3ebd392c343d85886","F1","batch6","","943.2999999523163","stim/yes_31_hor_b1.png","f","pattern_response","true","f","pattern_55","943.2999999523163","true","51","","","","","","","","","","","","","","","","","","",""
"","","","","","html-keyboard-response","137","287800","0.0-2.0-7.0-0.15","62ec1fe3ebd392c343d85886","F1","batch6","","null","<p class=block-text>Trial 55 out of 78</p>","null","pattern_show_trial_num","","","","","","","","","","","","","","","","","","","","","","","","",""
"","","","","","image-keyboard-response","138","291159","0.0-2.0-7.0-1.15","62ec1fe3ebd392c343d85886","F1","batch6","","3356.2999999523163","stim/no_32_1_w.png","j","pattern_response","true","j","pattern_14","3356.2999999523163","true","52","","","","","","","","","","","","","","","","","","",""
"","","","","","html-keyboard-response","139","292478","0.0-2.0-7.0-0.16","62ec1fe3ebd392c343d85886","F1","batch6","","null","<p class=block-text>Trial 56 out of 78</p>","null","pattern_show_trial_num","","","","","","","","","","","","","","","","","","","","","","","","",""
"","","","","","image-keyboard-response","140","293156","0.0-2.0-7.0-1.16","62ec1fe3ebd392c343d85886","F1","batch6","","676","stim/yes_28_ver_b1.png","f","pattern_response","true","f","pattern_51","676","true","53","","","","","","","","","","","","","","","","","","",""
"","","","","","html-keyboard-response","141","294470","0.0-2.0-7.0-0.17","62ec1fe3ebd392c343d85886","F1","batch6","","null","<p class=block-text>Trial 57 out of 78</p>","null","pattern_show_trial_num","","","","","","","","","","","","","","","","","","","","","","","","",""
"","","","","","image-keyboard-response","142","300760","0.0-2.0-7.0-1.17","62ec1fe3ebd392c343d85886","F1","batch6","","6286.600000143051","stim/no_65_1_b.png","j","pattern_response","true","j","pattern_38","6286.600000143051","true","54","","","","","","","","","","","","","","","","","","",""
"","","","","","html-keyboard-response","143","302076","0.0-2.0-7.0-0.18","62ec1fe3ebd392c343d85886","F1","batch6","","null","<p class=block-text>Trial 58 out of 78</p>","null","pattern_show_trial_num","","","","","","","","","","","","","","","","","","","","","","","","",""
"","","","","","image-keyboard-response","144","303015","0.0-2.0-7.0-1.18","62ec1fe3ebd392c343d85886","F1","batch6","","934.8000001907349","stim/yes_22_ver_w1.png","f","pattern_response","true","f","pattern_47","934.8000001907349","true","55","","","","","","","","","","","","","","","","","","",""
"","","","","","html-keyboard-response","145","304332","0.0-2.0-7.0-0.19","62ec1fe3ebd392c343d85886","F1","batch6","","null","<p class=block-text>Trial 59 out of 78</p>","null","pattern_show_trial_num","","","","","","","","","","","","","","","","","","","","","","","","",""
"","","","","","image-keyboard-response","146","307648","0.0-2.0-7.0-1.19","62ec1fe3ebd392c343d85886","F1","batch6","","3313.2999999523163","stim/no_36_2_w.png","j","pattern_response","true","j","pattern_18","3313.2999999523163","true","56","","","","","","","","","","","","","","","","","","",""
"","","","","","html-keyboard-response","147","308962","0.0-2.0-7.0-0.20","62ec1fe3ebd392c343d85886","F1","batch6","","null","<p class=block-text>Trial 60 out of 78</p>","null","pattern_show_trial_num","","","","","","","","","","","","","","","","","","","","","","","","",""
"","","","","","image-keyboard-response","148","312980","0.0-2.0-7.0-1.20","62ec1fe3ebd392c343d85886","F1","batch6","","4013.7000000476837","stim/no_62_1_w.png","j","pattern_response","true","j","pattern_36","4013.7000000476837","true","57","","","","","","","","","","","","","","","","","","",""
"","","","","","html-keyboard-response","149","314293","0.0-2.0-7.0-0.21","62ec1fe3ebd392c343d85886","F1","batch6","","null","<p class=block-text>Trial 61 out of 78</p>","null","pattern_show_trial_num","","","","","","","","","","","","","","","","","","","","","","","","",""
"","","","","","image-keyboard-response","150","315127","0.0-2.0-7.0-1.21","62ec1fe3ebd392c343d85886","F1","batch6","","831.2999999523163","stim/yes_25_hor_b1_b.png","f","pattern_response","true","f","pattern_49","831.2999999523163","true","58","","","","","","","","","","","","","","","","","","",""
"","","","","","html-keyboard-response","151","316446","0.0-2.0-7.0-0.22","62ec1fe3ebd392c343d85886","F1","batch6","","null","<p class=block-text>Trial 62 out of 78</p>","null","pattern_show_trial_num","","","","","","","","","","","","","","","","","","","","","","","","",""
"","","","","","image-keyboard-response","152","317213","0.0-2.0-7.0-1.22","62ec1fe3ebd392c343d85886","F1","batch6","","763.6000001430511","stim/no_13_2_b.png","j","pattern_response","true","j","pattern_02","763.6000001430511","true","59","","","","","","","","","","","","","","","","","","",""
"","","","","","html-keyboard-response","153","318524","0.0-2.0-7.0-0.23","62ec1fe3ebd392c343d85886","F1","batch6","","null","<p class=block-text>Trial 63 out of 78</p>","null","pattern_show_trial_num","","","","","","","","","","","","","","","","","","","","","","","","",""
"","","","","","image-keyboard-response","154","322137","0.0-2.0-7.0-1.23","62ec1fe3ebd392c343d85886","F1","batch6","","3609.5999999046326","stim/no_38_1_b.png","j","pattern_response","true","j","pattern_20","3609.5999999046326","true","60","","","","","","","","","","","","","","","","","","",""
"","","","","","html-keyboard-response","155","323453","0.0-2.0-7.0-0.24","62ec1fe3ebd392c343d85886","F1","batch6","","null","<p class=block-text>Trial 64 out of 78</p>","null","pattern_show_trial_num","","","","","","","","","","","","","","","","","","","","","","","","",""
"","","","","","image-keyboard-response","156","324779","0.0-2.0-7.0-1.24","62ec1fe3ebd392c343d85886","F1","batch6","","1321.2999999523163","stim/yes_55_hor_w1_w.png","f","pattern_response","true","f","pattern_75","1321.2999999523163","true","61","","","","","","","","","","","","","","","","","","",""
"","","","","","html-keyboard-response","157","326090","0.0-2.0-7.0-0.25","62ec1fe3ebd392c343d85886","F1","batch6","","null","<p class=block-text>Trial 65 out of 78</p>","null","pattern_show_trial_num","","","","","","","","","","","","","","","","","","","","","","","","",""
"","","","","","image-keyboard-response","158","328784","0.0-2.0-7.0-1.25","62ec1fe3ebd392c343d85886","F1","batch6","","2690.2000000476837","stim/no_34_1_b.png","j","pattern_response","true","j","pattern_16","2690.2000000476837","true","62","","","","","","","","","","","","","","","","","","",""
"","","","","","html-keyboard-response","159","330097","0.0-2.0-7.0-0.26","62ec1fe3ebd392c343d85886","F1","batch6","","null","<p class=block-text>Trial 66 out of 78</p>","null","pattern_show_trial_num","","","","","","","","","","","","","","","","","","","","","","","","",""
"","","","","","image-keyboard-response","160","331668","0.0-2.0-7.0-1.26","62ec1fe3ebd392c343d85886","F1","batch6","","1567.6999998092651","stim/yes_52_ver_w1.png","f","pattern_response","true","f","pattern_73","1567.6999998092651","true","63","","","","","","","","","","","","","","","","","","",""
"","","","","","html-keyboard-response","161","332978","0.0-2.0-7.0-0.27","62ec1fe3ebd392c343d85886","F1","batch6","","null","<p class=block-text>Trial 67 out of 78</p>","null","pattern_show_trial_num","","","","","","","","","","","","","","","","","","","","","","","","",""
"","","","","","image-keyboard-response","162","333953","0.0-2.0-7.0-1.27","62ec1fe3ebd392c343d85886","F1","batch6","","971.2999999523163","stim/yes_17_dia_w1.png","f","pattern_response","true","f","pattern_45","971.2999999523163","true","64","","","","","","","","","","","","","","","","","","",""
"","","","","","html-keyboard-response","163","335268","0.0-2.0-7.0-0.28","62ec1fe3ebd392c343d85886","F1","batch6","","null","<p class=block-text>Trial 68 out of 78</p>","null","pattern_show_trial_num","","","","","","","","","","","","","","","","","","","","","","","","",""
"","","","","","image-keyboard-response","164","338735","0.0-2.0-7.0-1.28","62ec1fe3ebd392c343d85886","F1","batch6","","3464.2999999523163","stim/no_55_1_w.png","j","pattern_response","true","j","pattern_34","3464.2999999523163","true","65","","","","","","","","","","","","","","","","","","",""
"","","","","","html-keyboard-response","165","340053","0.0-2.0-7.0-0.29","62ec1fe3ebd392c343d85886","F1","batch6","","null","<p class=block-text>Trial 69 out of 78</p>","null","pattern_show_trial_num","","","","","","","","","","","","","","","","","","","","","","","","",""
"","","","","","image-keyboard-response","166","341102","0.0-2.0-7.0-1.29","62ec1fe3ebd392c343d85886","F1","batch6","","1044.5","stim/no_17_1_w.png","j","pattern_response","true","j","pattern_04","1044.5","true","66","","","","","","","","","","","","","","","","","","",""
"","","","","","html-keyboard-response","167","342416","0.0-2.0-7.0-0.30","62ec1fe3ebd392c343d85886","F1","batch6","","null","<p class=block-text>Trial 70 out of 78</p>","null","pattern_show_trial_num","","","","","","","","","","","","","","","","","","","","","","","","",""
"","","","","","image-keyboard-response","168","345098","0.0-2.0-7.0-1.30","62ec1fe3ebd392c343d85886","F1","batch6","","2678.5","stim/no_44_1.png","j","pattern_response","true","j","pattern_24","2678.5","true","67","","","","","","","","","","","","","","","","","","",""
"","","","","","html-keyboard-response","169","346408","0.0-2.0-7.0-0.31","62ec1fe3ebd392c343d85886","F1","batch6","","null","<p class=block-text>Trial 71 out of 78</p>","null","pattern_show_trial_num","","","","","","","","","","","","","","","","","","","","","","","","",""
"","","","","","image-keyboard-response","170","348058","0.0-2.0-7.0-1.31","62ec1fe3ebd392c343d85886","F1","batch6","","1646.1999998092651","stim/yes_40_dia_b1_b.png","j","pattern_response","false","f","pattern_63","1646.1999998092651","false","67","","","","","","","","","","","","","","","","","","",""
"","","","","","html-keyboard-response","171","349369","0.0-2.0-7.0-0.32","62ec1fe3ebd392c343d85886","F1","batch6","","null","<p class=block-text>Trial 72 out of 78</p>","null","pattern_show_trial_num","","","","","","","","","","","","","","","","","","","","","","","","",""
"","","","","","image-keyboard-response","172","350324","0.0-2.0-7.0-1.32","62ec1fe3ebd392c343d85886","F1","batch6","","951.8999998569489","stim/yes_43_ver_w1_w.png","f","pattern_response","true","f","pattern_65","951.8999998569489","true","68","","","","","","","","","","","","","","","","","","",""
"","","","","","html-keyboard-response","173","351635","0.0-2.0-7.0-0.33","62ec1fe3ebd392c343d85886","F1","batch6","","null","<p class=block-text>Trial 73 out of 78</p>","null","pattern_show_trial_num","","","","","","","","","","","","","","","","","","","","","","","","",""
"","","","","","image-keyboard-response","174","353283","0.0-2.0-7.0-1.33","62ec1fe3ebd392c343d85886","F1","batch6","","1644.4000000953674","stim/yes_38_hor_b1_b.png","f","pattern_response","true","f","pattern_61","1644.4000000953674","true","69","","","","","","","","","","","","","","","","","","",""
"","","","","","html-keyboard-response","175","354593","0.0-2.0-7.0-0.34","62ec1fe3ebd392c343d85886","F1","batch6","","null","<p class=block-text>Trial 74 out of 78</p>","null","pattern_show_trial_num","","","","","","","","","","","","","","","","","","","","","","","","",""
"","","","","","image-keyboard-response","176","356288","0.0-2.0-7.0-1.34","62ec1fe3ebd392c343d85886","F1","batch6","","1692.2000000476837","stim/no_52_1.png","j","pattern_response","true","j","pattern_32","1692.2000000476837","true","70","","","","","","","","","","","","","","","","","","",""
"","","","","","html-keyboard-response","177","357600","0.0-2.0-7.0-0.35","62ec1fe3ebd392c343d85886","F1","batch6","","null","<p class=block-text>Trial 75 out of 78</p>","null","pattern_show_trial_num","","","","","","","","","","","","","","","","","","","","","","","","",""
"","","","","","image-keyboard-response","178","359020","0.0-2.0-7.0-1.35","62ec1fe3ebd392c343d85886","F1","batch6","","1415.1000001430511","stim/no_29_1_b.png","j","pattern_response","true","j","pattern_12","1415.1000001430511","true","71","","","","","","","","","","","","","","","","","","",""
"","","","","","html-keyboard-response","179","360337","0.0-2.0-7.0-0.36","62ec1fe3ebd392c343d85886","F1","batch6","","null","<p class=block-text>Trial 76 out of 78</p>","null","pattern_show_trial_num","","","","","","","","","","","","","","","","","","","","","","","","",""
"","","","","","image-keyboard-response","180","363761","0.0-2.0-7.0-1.36","62ec1fe3ebd392c343d85886","F1","batch6","","3420.5","stim/no_50_1.png","j","pattern_response","true","j","pattern_30","3420.5","true","72","","","","","","","","","","","","","","","","","","",""
"","","","","","html-keyboard-response","181","365074","0.0-2.0-7.0-0.37","62ec1fe3ebd392c343d85886","F1","batch6","","null","<p class=block-text>Trial 77 out of 78</p>","null","pattern_show_trial_num","","","","","","","","","","","","","","","","","","","","","","","","",""
"","","","","","image-keyboard-response","182","366583","0.0-2.0-7.0-1.37","62ec1fe3ebd392c343d85886","F1","batch6","","1505.7999999523163","stim/no_20_1_w.png","j","pattern_response","true","j","pattern_06","1505.7999999523163","true","73","","","","","","","","","","","","","","","","","","",""
"","","","","","html-keyboard-response","183","367895","0.0-2.0-7.0-0.38","62ec1fe3ebd392c343d85886","F1","batch6","","null","<p class=block-text>Trial 78 out of 78</p>","null","pattern_show_trial_num","","","","","","","","","","","","","","","","","","","","","","","","",""
"","","","","","image-keyboard-response","184","373137","0.0-2.0-7.0-1.38","62ec1fe3ebd392c343d85886","F1","batch6","","5237.799999952316","stim/no_70_2.png","j","pattern_response","true","j","pattern_40","5237.799999952316","true","74","","","","","","","","","","","","","","","","","","",""
"","","","","","html-button-response","185","376947","0.0-2.0-8.0","62ec1fe3ebd392c343d85886","F1","batch6","","3302","<p class = block-text>This concludes the 4-in-a-row detection game.Thank you for your responses!<br>
            You responded correctly on 95% of the trials.<br>
            When you are ready, press ""Continue"" button to continue </p>","0","","","","","","","","","","","","","","","","","","","","","","","","","",""
"true","","","","","fullscreen","186","379224","0.0-3.0-0.0","62ec1fe3ebd392c343d85886","F1","batch6","","","","","","","","","","","","","","","","","","","","","","","","","","","","","",""
"","","","","","instructions","187","440369","0.0-3.0-1.0-0.0-0.0","62ec1fe3ebd392c343d85886","F1","batch6","[{""page_index"":0,""viewing_time"":17684},{""page_index"":1,""viewing_time"":5719.600000143051},{""page_index"":2,""viewing_time"":5855.700000047684},{""page_index"":3,""viewing_time"":18298.299999952316},{""page_index"":4,""viewing_time"":3807.7999999523163},{""page_index"":5,""viewing_time"":8490},{""page_index"":6,""viewing_time"":1289.9000000953674}]","61145.700000047684","","","tol-instructions","","","","","","","","","","","","","","","","","","","","","","","","",""
"","","","","","html-button-response","188","441202","0.0-3.0-1.0-1.0-0.0","62ec1fe3ebd392c343d85886","F1","batch6","","831.3000001907349","<p class=block-text> Let's answer a few questions <br>","0","tol_enter_quiz","","","","","","","","","","","","","","","","","","","","","","","","",""
"","","","","","html-button-response","189","446546","0.0-3.0-1.0-1.0-1.0","62ec1fe3ebd392c343d85886","F1","batch6","","5339.799999952316","<p class = block-text>True or False: You can only move the ball on top of a peg. <br></p>","0","tol_quiz","true","","","","","","","","","","","","","","","","","","","","","","","",""
"","","","","","html-button-response","190","447403","0.0-3.0-1.0-1.0-2.0","62ec1fe3ebd392c343d85886","F1","batch6","","855.4000000953674","<p class = block-text>Correct! You can only move the ball on top of a peg.</p>","0","tol_quiz_feedback","","","","","","","","","","","","","","","","","","","","","","","","",""
"","","","","","html-button-response","191","449136","0.0-3.0-1.0-1.0-3.0","62ec1fe3ebd392c343d85886","F1","batch6","","1732","<p class = block-text>True or False: You should try to match your board with the target board with fewest moves possible. <br></p>","0","tol_quiz","true","","","","","","","","","","","","","","","","","","","","","","","",""
"","","","","","html-button-response","192","449723","0.0-3.0-1.0-1.0-4.0","62ec1fe3ebd392c343d85886","F1","batch6","","585.5999999046326","<p class = block-text>Correct! </p>","0","tol_quiz_feedback","","","","","","","","","","","","","","","","","","","","","","","","",""
"","","","","","html-button-response","193","450632","0.0-3.0-2.0","62ec1fe3ebd392c343d85886","F1","batch6","","903.8999998569489","<p class=block-text> Now that you've understood the game, let's practice a few easier examples before we start!<br> <br>","0","","","","","","","","","","","","","","","","","","","","","","","","","",""
"","","","","","single-stim-button","194","453492","0.0-3.0-3.0-0.0","62ec1fe3ebd392c343d85886","F1","batch6","","2856","","","tol_practice","","","","","","","","","tol_peg_2","2856","2856","0","[[1,2,0],[0,0],[0]]","1","[[1,2,0],[0,0],[3]]","practice","2856","","","","","","","",""
"","","","","","single-stim-button","195","455255","0.0-3.0-3.0-1.0","62ec1fe3ebd392c343d85886","F1","batch6","","1762","","","tol_practice","","","","","","","","","tol_peg_3","1762","1762","0","[[1,2,0],[0,0],[3]]","1","[[1,2,0],[0,0],[3]]","practice","1762","","","","","","","",""
"","","","","","poldrack-single-stim","196","456261","0.0-3.0-4.0","62ec1fe3ebd392c343d85886","F1","batch6","","-1","","","tol_feedback","true","","","","","","","","","1000","1000","500","","","","","","-1","none","true","","0","","",""
"","","","","","single-stim-button","197","459114","0.0-3.0-5.0-0.0","62ec1fe3ebd392c343d85886","F1","batch6","","2851","","","tol_practice","","","","","","","","","tol_peg_1","2851","2851","0","[[1,0,0],[3,0],[0]]","2","[[0,0,0],[3,1],[2]]","practice","2851","","","","","","","",""
"","","","","","single-stim-button","198","459935","0.0-3.0-5.0-1.0","62ec1fe3ebd392c343d85886","F1","batch6","","819","","","tol_practice","","","","","","","","","tol_peg_3","819","819","0","[[1,0,0],[3,0],[2]]","2","[[0,0,0],[3,1],[2]]","practice","819","","","","","","","",""
"","","","","","single-stim-button","199","460835","0.0-3.0-5.1-0.1","62ec1fe3ebd392c343d85886","F1","batch6","","898","","","tol_practice","","","","","","","","","tol_peg_1","898","898","0","[[0,0,0],[3,0],[2]]","3","[[0,0,0],[3,1],[2]]","practice","898","","","","","","","",""
"","","","","","single-stim-button","200","461509","0.0-3.0-5.1-1.1","62ec1fe3ebd392c343d85886","F1","batch6","","674","","","tol_practice","","","","","","","","","tol_peg_2","674","674","0","[[0,0,0],[3,1],[2]]","3","[[0,0,0],[3,1],[2]]","practice","674","","","","","","","",""
"","","","","","poldrack-single-stim","201","462515","0.0-3.0-6.0","62ec1fe3ebd392c343d85886","F1","batch6","","-1","","","tol_feedback","true","","","","","","","","","1000","1000","500","","","","","","-1","none","true","","0","","",""
"","","","","","single-stim-button","202","465662","0.0-3.0-7.0-0.0","62ec1fe3ebd392c343d85886","F1","batch6","","3145","","","tol_practice","","","","","","","","","tol_peg_2","3145","3145","0","[[1,2,0],[0,0],[0]]","4","[[1,0,0],[2,0],[3]]","practice","3145","","","","","","","",""
"","","","","","single-stim-button","203","466357","0.0-3.0-7.0-1.0","62ec1fe3ebd392c343d85886","F1","batch6","","694","","","tol_practice","","","","","","","","","tol_peg_3","694","694","0","[[1,2,0],[0,0],[3]]","4","[[1,0,0],[2,0],[3]]","practice","694","","","","","","","",""
"","","","","","single-stim-button","204","467137","0.0-3.0-7.1-0.1","62ec1fe3ebd392c343d85886","F1","batch6","","778","","","tol_practice","","","","","","","","","tol_peg_1","778","778","0","[[1,0,0],[0,0],[3]]","5","[[1,0,0],[2,0],[3]]","practice","778","","","","","","","",""
"","","","","","single-stim-button","205","467563","0.0-3.0-7.1-1.1","62ec1fe3ebd392c343d85886","F1","batch6","","425","","","tol_practice","","","","","","","","","tol_peg_2","425","425","0","[[1,0,0],[2,0],[3]]","5","[[1,0,0],[2,0],[3]]","practice","425","","","","","","","",""
"","","","","","poldrack-single-stim","206","468576","0.0-3.0-8.0","62ec1fe3ebd392c343d85886","F1","batch6","","-1","","","tol_feedback","true","","","","","","","","","1000","1000","500","","","","","","-1","none","true","","0","","",""
"","","","","","html-button-response","207","469801","0.0-3.0-9.0","62ec1fe3ebd392c343d85886","F1","batch6","","1223.2999999523163","<div class = centerbox><p class = center-block-text>Great job! You are done with practice trials<br>You are about to start official trials.<br> <br> Problem <strong>1</strong> out of 25 problems</p></div>","0","tol_instruction","","","","","","","","","","","","","","","","","","","","","","","","",""
"","","","","","single-stim-button","208","476539","0.0-3.0-10.0-0.0","62ec1fe3ebd392c343d85886","F1","batch6","","5733","","","tol_tohand","","","","","","","","","tol_peg_2","5733","5733","0","[[1,2,0],[0,0],[0]]","1","[[1,3,0],[2,0],[0]]","0","0","","","","","","3","",""
"","","","","","single-stim-button","209","477090","0.0-3.0-10.0-1.0","62ec1fe3ebd392c343d85886","F1","batch6","","549","","","tol_toboard","","","","","","","","","tol_peg_3","549","549","0","[[1,2,0],[0,0],[3]]","1","[[1,3,0],[2,0],[0]]","0","0","","","","","","3","",""
"","","","","","single-stim-button","210","478159","0.0-3.0-10.1-0.1","62ec1fe3ebd392c343d85886","F1","batch6","","1067","","","tol_tohand","","","","","","","","","tol_peg_1","1067","1067","0","[[1,0,0],[0,0],[3]]","2","[[1,3,0],[2,0],[0]]","0","0","","","","","","3","",""
"","","","","","single-stim-button","211","478900","0.0-3.0-10.1-1.1","62ec1fe3ebd392c343d85886","F1","batch6","","741","","","tol_toboard","","","","","","","","","tol_peg_2","741","741","0","[[1,0,0],[2,0],[3]]","2","[[1,3,0],[2,0],[0]]","0","0","","","","","","3","",""
"","","","","","single-stim-button","212","479417","0.0-3.0-10.2-0.2","62ec1fe3ebd392c343d85886","F1","batch6","","516","","","tol_tohand","","","","","","","","","tol_peg_3","516","516","0","[[1,0,0],[2,0],[0]]","3","[[1,3,0],[2,0],[0]]","0","0","","","","","","3","",""
"","","","","","single-stim-button","213","480140","0.0-3.0-10.2-1.2","62ec1fe3ebd392c343d85886","F1","batch6","","721","","","tol_toboard","","","","","","","","","tol_peg_1","721","721","0","[[1,3,0],[2,0],[0]]","3","[[1,3,0],[2,0],[0]]","0","0","","","","","","3","",""
"","","","","","poldrack-single-stim","214","481152","0.0-3.0-11.0","62ec1fe3ebd392c343d85886","F1","batch6","","-1","","","tol_feedback","true","","","","","","","","","1000","1000","500","","","","","","-1","none","true","5733","7316","","",""
"","","","","","html-button-response","215","482052","0.0-3.0-12.0","62ec1fe3ebd392c343d85886","F1","batch6","","898","<div class = centerbox><p class = center-block-text>problem <strong>2</strong> out of 25 problems</p></div>","0","tol_trial_num","","","","","","","","","","","","","","","","","","","","","","","","",""
"","","","","","single-stim-button","216","484517","0.0-3.0-13.0-0.0","62ec1fe3ebd392c343d85886","F1","batch6","","2463","","","tol_tohand","","","","","","","","","tol_peg_1","2463","2463","0","[[1,0,0],[3,0],[0]]","1","[[2,1,3],[0,0],[0]]","1","0","","","","","","5","",""
"","","","","","single-stim-button","217","485201","0.0-3.0-13.0-1.0","62ec1fe3ebd392c343d85886","F1","batch6","","683","","","tol_toboard","","","","","","","","","tol_peg_3","683","683","0","[[1,0,0],[3,0],[2]]","1","[[2,1,3],[0,0],[0]]","1","0","","","","","","5","",""
"","","","","","single-stim-button","218","486812","0.0-3.0-13.1-0.1","62ec1fe3ebd392c343d85886","F1","batch6","","1609","","","tol_tohand","","","","","","","","","tol_peg_1","1609","1609","0","[[0,0,0],[3,0],[2]]","2","[[2,1,3],[0,0],[0]]","1","0","","","","","","5","",""
"","","","","","single-stim-button","219","488184","0.0-3.0-13.1-1.1","62ec1fe3ebd392c343d85886","F1","batch6","","1370","","","tol_toboard","","","","","","","","","tol_peg_2","1370","1370","0","[[0,0,0],[3,1],[2]]","2","[[2,1,3],[0,0],[0]]","1","0","","","","","","5","",""
"","","","","","single-stim-button","220","488664","0.0-3.0-13.2-0.2","62ec1fe3ebd392c343d85886","F1","batch6","","479","","","tol_tohand","","","","","","","","","tol_peg_3","479","479","0","[[0,0,0],[3,1],[0]]","3","[[2,1,3],[0,0],[0]]","1","0","","","","","","5","",""
"","","","","","single-stim-button","221","489327","0.0-3.0-13.2-1.2","62ec1fe3ebd392c343d85886","F1","batch6","","663","","","tol_toboard","","","","","","","","","tol_peg_1","663","663","0","[[2,0,0],[3,1],[0]]","3","[[2,1,3],[0,0],[0]]","1","0","","","","","","5","",""
"","","","","","single-stim-button","222","489904","0.0-3.0-13.3-0.3","62ec1fe3ebd392c343d85886","F1","batch6","","575","","","tol_tohand","","","","","","","","","tol_peg_2","575","575","0","[[2,0,0],[3,0],[0]]","4","[[2,1,3],[0,0],[0]]","1","0","","","","","","5","",""
"","","","","","single-stim-button","223","490296","0.0-3.0-13.3-1.3","62ec1fe3ebd392c343d85886","F1","batch6","","391","","","tol_toboard","","","","","","","","","tol_peg_1","391","391","0","[[2,1,0],[3,0],[0]]","4","[[2,1,3],[0,0],[0]]","1","0","","","","","","5","",""
"","","","","","single-stim-button","224","490947","0.0-3.0-13.4-0.4","62ec1fe3ebd392c343d85886","F1","batch6","","650","","","tol_tohand","","","","","","","","","tol_peg_2","650","650","0","[[2,1,0],[0,0],[0]]","5","[[2,1,3],[0,0],[0]]","1","0","","","","","","5","",""
"","","","","","single-stim-button","225","491481","0.0-3.0-13.4-1.4","62ec1fe3ebd392c343d85886","F1","batch6","","532","","","tol_toboard","","","","","","","","","tol_peg_1","532","532","0","[[2,1,3],[0,0],[0]]","5","[[2,1,3],[0,0],[0]]","1","0","","","","","","5","",""
"","","","","","poldrack-single-stim","226","492491","0.0-3.0-14.0","62ec1fe3ebd392c343d85886","F1","batch6","","-1","","","tol_feedback","true","","","","","","","","","1000","1000","500","","","","","","-1","none","true","2463","5776","","",""
"","","","","","html-button-response","227","493334","0.0-3.0-15.0","62ec1fe3ebd392c343d85886","F1","batch6","","840.7000000476837","<div class = centerbox><p class = center-block-text>problem <strong>3</strong> out of 25 problems</p></div>","0","tol_trial_num","","","","","","","","","","","","","","","","","","","","","","","","",""
"","","","","","single-stim-button","228","495236","0.0-3.0-16.0-0.0","62ec1fe3ebd392c343d85886","F1","batch6","","1901","","","tol_tohand","","","","","","","","","tol_peg_1","1901","1901","0","[[2,0,0],[0,0],[1]]","1","[[1,2,0],[3,0],[0]]","2","0","","","","","","4","",""
"","","","","","single-stim-button","229","496237","0.0-3.0-16.0-1.0","62ec1fe3ebd392c343d85886","F1","batch6","","999","","","tol_toboard","","","","","","","","","tol_peg_2","999","999","0","[[2,0,0],[3,0],[1]]","1","[[1,2,0],[3,0],[0]]","2","0","","","","","","4","",""
"","","","","","single-stim-button","230","498498","0.0-3.0-16.1-0.1","62ec1fe3ebd392c343d85886","F1","batch6","","2259","","","tol_tohand","","","","","","","","","tol_peg_1","2259","2259","0","[[0,0,0],[3,0],[1]]","2","[[1,2,0],[3,0],[0]]","2","0","","","","","","4","",""
"","","","","","single-stim-button","231","499128","0.0-3.0-16.1-1.1","62ec1fe3ebd392c343d85886","F1","batch6","","629","","","tol_toboard","","","","","","","","","tol_peg_2","629","629","0","[[0,0,0],[3,2],[1]]","2","[[1,2,0],[3,0],[0]]","2","0","","","","","","4","",""
"","","","","","single-stim-button","232","499644","0.0-3.0-16.2-0.2","62ec1fe3ebd392c343d85886","F1","batch6","","514","","","tol_tohand","","","","","","","","","tol_peg_3","514","514","0","[[0,0,0],[3,2],[0]]","3","[[1,2,0],[3,0],[0]]","2","0","","","","","","4","",""
"","","","","","single-stim-button","233","500387","0.0-3.0-16.2-1.2","62ec1fe3ebd392c343d85886","F1","batch6","","742","","","tol_toboard","","","","","","","","","tol_peg_1","742","742","0","[[1,0,0],[3,2],[0]]","3","[[1,2,0],[3,0],[0]]","2","0","","","","","","4","",""
"","","","","","single-stim-button","234","501433","0.0-3.0-16.3-0.3","62ec1fe3ebd392c343d85886","F1","batch6","","1044","","","tol_tohand","","","","","","","","","tol_peg_2","1044","1044","0","[[1,0,0],[3,0],[0]]","4","[[1,2,0],[3,0],[0]]","2","0","","","","","","4","",""
"","","","","","single-stim-button","235","502245","0.0-3.0-16.3-1.3","62ec1fe3ebd392c343d85886","F1","batch6","","810","","","tol_toboard","","","","","","","","","tol_peg_1","810","810","0","[[1,2,0],[3,0],[0]]","4","[[1,2,0],[3,0],[0]]","2","0","","","","","","4","",""
"","","","","","poldrack-single-stim","236","503253","0.0-3.0-17.0","62ec1fe3ebd392c343d85886","F1","batch6","","-1","","","tol_feedback","true","","","","","","","","","1000","1000","500","","","","","","-1","none","true","1901","5718","","",""
"","","","","","html-button-response","237","504112","0.0-3.0-18.0","62ec1fe3ebd392c343d85886","F1","batch6","","856.2999999523163","<div class = centerbox><p class = center-block-text>problem <strong>4</strong> out of 25 problems</p></div>","0","tol_trial_num","","","","","","","","","","","","","","","","","","","","","","","","",""
"","","","","","single-stim-button","238","508737","0.0-3.0-19.0-0.0","62ec1fe3ebd392c343d85886","F1","batch6","","4624","","","tol_tohand","","","","","","","","","tol_peg_2","4624","4624","0","[[3,0,0],[2,0],[0]]","1","[[3,0,0],[1,0],[2]]","3","0","","","","","","3","",""
"","","","","","single-stim-button","239","509275","0.0-3.0-19.0-1.0","62ec1fe3ebd392c343d85886","F1","batch6","","536","","","tol_toboard","","","","","","","","","tol_peg_1","536","536","0","[[3,1,0],[2,0],[0]]","1","[[3,0,0],[1,0],[2]]","3","0","","","","","","3","",""
"","","","","","single-stim-button","240","509895","0.0-3.0-19.1-0.1","62ec1fe3ebd392c343d85886","F1","batch6","","619","","","tol_tohand","","","","","","","","","tol_peg_2","619","619","0","[[3,1,0],[0,0],[0]]","2","[[3,0,0],[1,0],[2]]","3","0","","","","","","3","",""
"","","","","","single-stim-button","241","510457","0.0-3.0-19.1-1.1","62ec1fe3ebd392c343d85886","F1","batch6","","560","","","tol_toboard","","","","","","","","","tol_peg_3","560","560","0","[[3,1,0],[0,0],[2]]","2","[[3,0,0],[1,0],[2]]","3","0","","","","","","3","",""
"","","","","","single-stim-button","242","511009","0.0-3.0-19.2-0.2","62ec1fe3ebd392c343d85886","F1","batch6","","551","","","tol_tohand","","","","","","","","","tol_peg_1","551","551","0","[[3,0,0],[0,0],[2]]","3","[[3,0,0],[1,0],[2]]","3","0","","","","","","3","",""
"","","","","","single-stim-button","243","511637","0.0-3.0-19.2-1.2","62ec1fe3ebd392c343d85886","F1","batch6","","627","","","tol_toboard","","","","","","","","","tol_peg_2","627","627","0","[[3,0,0],[1,0],[2]]","3","[[3,0,0],[1,0],[2]]","3","0","","","","","","3","",""
"","","","","","poldrack-single-stim","244","512645","0.0-3.0-20.0","62ec1fe3ebd392c343d85886","F1","batch6","","-1","","","tol_feedback","true","","","","","","","","","1000","1000","500","","","","","","-1","none","true","4624","5794","","",""
"","","","","","html-button-response","245","513518","0.0-3.0-21.0","62ec1fe3ebd392c343d85886","F1","batch6","","869.8000001907349","<div class = centerbox><p class = center-block-text>problem <strong>5</strong> out of 25 problems</p></div>","0","tol_trial_num","","","","","","","","","","","","","","","","","","","","","","","","",""
"","","","","","single-stim-button","246","516893","0.0-3.0-22.0-0.0","62ec1fe3ebd392c343d85886","F1","batch6","","3374","","","tol_tohand","","","","","","","","","tol_peg_2","3374","3374","0","[[1,0,0],[0,0],[3]]","1","[[0,0,0],[1,2],[3]]","4","0","","","","","","7","",""
"","","","","","single-stim-button","247","520875","0.0-3.0-22.0-1.0","62ec1fe3ebd392c343d85886","F1","batch6","","3979","","","tol_toboard","","","","","","","","","tol_peg_1","3979","3979","0","[[1,2,0],[0,0],[3]]","1","[[0,0,0],[1,2],[3]]","4","0","","","","","","7","",""
"","","","","","single-stim-button","248","522774","0.0-3.0-22.1-0.1","62ec1fe3ebd392c343d85886","F1","batch6","","1897","","","tol_tohand","","","","","","","","","tol_peg_3","1897","1897","0","[[1,2,0],[0,0],[0]]","2","[[0,0,0],[1,2],[3]]","4","0","","","","","","7","",""
"","","","","","single-stim-button","249","523564","0.0-3.0-22.1-1.1","62ec1fe3ebd392c343d85886","F1","batch6","","789","","","tol_toboard","","","","","","","","","tol_peg_2","789","789","0","[[1,2,0],[3,0],[0]]","2","[[0,0,0],[1,2],[3]]","4","0","","","","","","7","",""
"","","","","","single-stim-button","250","524090","0.0-3.0-22.2-0.2","62ec1fe3ebd392c343d85886","F1","batch6","","524","","","tol_tohand","","","","","","","","","tol_peg_1","524","524","0","[[1,0,0],[3,0],[0]]","3","[[0,0,0],[1,2],[3]]","4","0","","","","","","7","",""
"","","","","","single-stim-button","251","524866","0.0-3.0-22.2-1.2","62ec1fe3ebd392c343d85886","F1","batch6","","774","","","tol_toboard","","","","","","","","","tol_peg_3","774","774","0","[[1,0,0],[3,0],[2]]","3","[[0,0,0],[1,2],[3]]","4","0","","","","","","7","",""
"","","","","","single-stim-button","252","525641","0.0-3.0-22.3-0.3","62ec1fe3ebd392c343d85886","F1","batch6","","774","","","tol_tohand","","","","","","","","","tol_peg_2","774","774","0","[[1,0,0],[0,0],[2]]","4","[[0,0,0],[1,2],[3]]","4","0","","","","","","7","",""
"","","","","","single-stim-button","253","528791","0.0-3.0-22.3-1.3","62ec1fe3ebd392c343d85886","F1","batch6","","3150","","","tol_toboard","","","","","","","","","tol_peg_2","3150","3150","0","[[1,0,0],[3,0],[2]]","4","[[0,0,0],[1,2],[3]]","4","0","","","","","","7","",""
"","","","","","single-stim-button","254","530828","0.0-3.0-22.4-0.4","62ec1fe3ebd392c343d85886","F1","batch6","","2036","","","tol_tohand","","","","","","","","","tol_peg_3","2036","2036","0","[[1,0,0],[3,0],[0]]","5","[[0,0,0],[1,2],[3]]","4","0","","","","","","7","",""
"","","","","","single-stim-button","255","531584","0.0-3.0-22.4-1.4","62ec1fe3ebd392c343d85886","F1","batch6","","754","","","tol_toboard","","","","","","","","","tol_peg_2","754","754","0","[[1,0,0],[3,2],[0]]","5","[[0,0,0],[1,2],[3]]","4","0","","","","","","7","",""
"","","","","","single-stim-button","256","531989","0.0-3.0-22.5-0.5","62ec1fe3ebd392c343d85886","F1","batch6","","404","","","tol_tohand","","","","","","","","","tol_peg_1","404","404","0","[[0,0,0],[3,2],[0]]","6","[[0,0,0],[1,2],[3]]","4","0","","","","","","7","",""
"","","","","","single-stim-button","257","532517","0.0-3.0-22.5-1.5","62ec1fe3ebd392c343d85886","F1","batch6","","526","","","tol_toboard","","","","","","","","","tol_peg_3","526","526","0","[[0,0,0],[3,2],[1]]","6","[[0,0,0],[1,2],[3]]","4","0","","","","","","7","",""
"","","","","","single-stim-button","258","533303","0.0-3.0-22.6-0.6","62ec1fe3ebd392c343d85886","F1","batch6","","786","","","tol_tohand","","","","","","","","","tol_peg_2","786","786","0","[[0,0,0],[3,0],[1]]","7","[[0,0,0],[1,2],[3]]","4","0","","","","","","7","",""
"","","","","","single-stim-button","259","533967","0.0-3.0-22.6-1.6","62ec1fe3ebd392c343d85886","F1","batch6","","663","","","tol_toboard","","","","","","","","","tol_peg_1","663","663","0","[[2,0,0],[3,0],[1]]","7","[[0,0,0],[1,2],[3]]","4","0","","","","","","7","",""
"","","","","","single-stim-button","260","534384","0.0-3.0-22.7-0.7","62ec1fe3ebd392c343d85886","F1","batch6","","415","","","tol_tohand","","","","","","","","","tol_peg_2","415","415","0","[[2,0,0],[0,0],[1]]","8","[[0,0,0],[1,2],[3]]","4","0","","","","","","7","",""
"","","","","","single-stim-button","261","534903","0.0-3.0-22.7-1.7","62ec1fe3ebd392c343d85886","F1","batch6","","517","","","tol_toboard","","","","","","","","","tol_peg_1","517","517","0","[[2,3,0],[0,0],[1]]","8","[[0,0,0],[1,2],[3]]","4","0","","","","","","7","",""
"","","","","","single-stim-button","262","535453","0.0-3.0-22.8-0.8","62ec1fe3ebd392c343d85886","F1","batch6","","548","","","tol_tohand","","","","","","","","","tol_peg_3","548","548","0","[[2,3,0],[0,0],[0]]","9","[[0,0,0],[1,2],[3]]","4","0","","","","","","7","",""
"","","","","","single-stim-button","263","535846","0.0-3.0-22.8-1.8","62ec1fe3ebd392c343d85886","F1","batch6","","392","","","tol_toboard","","","","","","","","","tol_peg_2","392","392","0","[[2,3,0],[1,0],[0]]","9","[[0,0,0],[1,2],[3]]","4","0","","","","","","7","",""
"","","","","","single-stim-button","264","536252","0.0-3.0-22.9-0.9","62ec1fe3ebd392c343d85886","F1","batch6","","404","","","tol_tohand","","","","","","","","","tol_peg_1","404","404","0","[[2,0,0],[1,0],[0]]","10","[[0,0,0],[1,2],[3]]","4","0","","","","","","7","",""
"","","","","","single-stim-button","265","536892","0.0-3.0-22.9-1.9","62ec1fe3ebd392c343d85886","F1","batch6","","639","","","tol_toboard","","","","","","","","","tol_peg_3","639","639","0","[[2,0,0],[1,0],[3]]","10","[[0,0,0],[1,2],[3]]","4","0","","","","","","7","",""
"","","","","","single-stim-button","266","537623","0.0-3.0-22.10-0.10","62ec1fe3ebd392c343d85886","F1","batch6","","730","","","tol_tohand","","","","","","","","","tol_peg_1","730","730","0","[[0,0,0],[1,0],[3]]","11","[[0,0,0],[1,2],[3]]","4","0","","","","","","7","",""
"","","","","","single-stim-button","267","537993","0.0-3.0-22.10-1.10","62ec1fe3ebd392c343d85886","F1","batch6","","369","","","tol_toboard","","","","","","","","","tol_peg_2","369","369","0","[[0,0,0],[1,2],[3]]","11","[[0,0,0],[1,2],[3]]","4","0","","","","","","7","",""
"","","","","","poldrack-single-stim","268","539002","0.0-3.0-23.0","62ec1fe3ebd392c343d85886","F1","batch6","","-1","","","tol_feedback","true","","","","","","","","","1000","1000","500","","","","","","-1","none","true","3374","11892","","",""
"","","","","","html-button-response","269","539716","0.0-3.0-24.0","62ec1fe3ebd392c343d85886","F1","batch6","","711.7000000476837","<div class = centerbox><p class = center-block-text>problem <strong>6</strong> out of 25 problems</p></div>","0","tol_trial_num","","","","","","","","","","","","","","","","","","","","","","","","",""
"","","","","","single-stim-button","270","545930","0.0-3.0-25.0-0.0","62ec1fe3ebd392c343d85886","F1","batch6","","6213","","","tol_tohand","","","","","","","","","tol_peg_3","6213","6213","0","[[0,0,0],[1,2],[0]]","1","[[1,0,0],[2,3],[0]]","5","0","","","","","","6","",""
"","","","","","single-stim-button","271","546543","0.0-3.0-25.0-1.0","62ec1fe3ebd392c343d85886","F1","batch6","","611","","","tol_toboard","","","","","","","","","tol_peg_1","611","611","0","[[3,0,0],[1,2],[0]]","1","[[1,0,0],[2,3],[0]]","5","0","","","","","","6","",""
"","","","","","single-stim-button","272","547074","0.0-3.0-25.1-0.1","62ec1fe3ebd392c343d85886","F1","batch6","","530","","","tol_tohand","","","","","","","","","tol_peg_2","530","530","0","[[3,0,0],[1,0],[0]]","2","[[1,0,0],[2,3],[0]]","5","0","","","","","","6","",""
"","","","","","single-stim-button","273","547625","0.0-3.0-25.1-1.1","62ec1fe3ebd392c343d85886","F1","batch6","","549","","","tol_toboard","","","","","","","","","tol_peg_3","549","549","0","[[3,0,0],[1,0],[2]]","2","[[1,0,0],[2,3],[0]]","5","0","","","","","","6","",""
"","","","","","single-stim-button","274","548252","0.0-3.0-25.2-0.2","62ec1fe3ebd392c343d85886","F1","batch6","","626","","","tol_tohand","","","","","","","","","tol_peg_2","626","626","0","[[3,0,0],[0,0],[2]]","3","[[1,0,0],[2,3],[0]]","5","0","","","","","","6","",""
"","","","","","single-stim-button","275","548862","0.0-3.0-25.2-1.2","62ec1fe3ebd392c343d85886","F1","batch6","","609","","","tol_toboard","","","","","","","","","tol_peg_1","609","609","0","[[3,1,0],[0,0],[2]]","3","[[1,0,0],[2,3],[0]]","5","0","","","","","","6","",""
"","","","","","single-stim-button","276","549955","0.0-3.0-25.3-0.3","62ec1fe3ebd392c343d85886","F1","batch6","","1092","","","tol_tohand","","","","","","","","","tol_peg_3","1092","1092","0","[[3,1,0],[0,0],[0]]","4","[[1,0,0],[2,3],[0]]","5","0","","","","","","6","",""
"","","","","","single-stim-button","277","550851","0.0-3.0-25.3-1.3","62ec1fe3ebd392c343d85886","F1","batch6","","895","","","tol_toboard","","","","","","","","","tol_peg_2","895","895","0","[[3,1,0],[2,0],[0]]","4","[[1,0,0],[2,3],[0]]","5","0","","","","","","6","",""
"","","","","","single-stim-button","278","551282","0.0-3.0-25.4-0.4","62ec1fe3ebd392c343d85886","F1","batch6","","430","","","tol_tohand","","","","","","","","","tol_peg_1","430","430","0","[[3,0,0],[2,0],[0]]","5","[[1,0,0],[2,3],[0]]","5","0","","","","","","6","",""
"","","","","","single-stim-button","279","551731","0.0-3.0-25.4-1.4","62ec1fe3ebd392c343d85886","F1","batch6","","447","","","tol_toboard","","","","","","","","","tol_peg_3","447","447","0","[[3,0,0],[2,0],[1]]","5","[[1,0,0],[2,3],[0]]","5","0","","","","","","6","",""
"","","","","","single-stim-button","280","552317","0.0-3.0-25.5-0.5","62ec1fe3ebd392c343d85886","F1","batch6","","586","","","tol_tohand","","","","","","","","","tol_peg_1","586","586","0","[[0,0,0],[2,0],[1]]","6","[[1,0,0],[2,3],[0]]","5","0","","","","","","6","",""
"","","","","","single-stim-button","281","552687","0.0-3.0-25.5-1.5","62ec1fe3ebd392c343d85886","F1","batch6","","368","","","tol_toboard","","","","","","","","","tol_peg_2","368","368","0","[[0,0,0],[2,3],[1]]","6","[[1,0,0],[2,3],[0]]","5","0","","","","","","6","",""
"","","","","","single-stim-button","282","553079","0.0-3.0-25.6-0.6","62ec1fe3ebd392c343d85886","F1","batch6","","390","","","tol_tohand","","","","","","","","","tol_peg_3","390","390","0","[[0,0,0],[2,3],[0]]","7","[[1,0,0],[2,3],[0]]","5","0","","","","","","6","",""
"","","","","","single-stim-button","283","553767","0.0-3.0-25.6-1.6","62ec1fe3ebd392c343d85886","F1","batch6","","688","","","tol_toboard","","","","","","","","","tol_peg_1","688","688","0","[[1,0,0],[2,3],[0]]","7","[[1,0,0],[2,3],[0]]","5","0","","","","","","6","",""
"","","","","","poldrack-single-stim","284","554778","0.0-3.0-26.0","62ec1fe3ebd392c343d85886","F1","batch6","","-1","","","tol_feedback","true","","","","","","","","","1000","1000","500","","","","","","-1","none","true","6213","9867","","",""
"","","","","","html-button-response","285","555523","0.0-3.0-27.0","62ec1fe3ebd392c343d85886","F1","batch6","","742.7000000476837","<div class = centerbox><p class = center-block-text>problem <strong>7</strong> out of 25 problems</p></div>","0","tol_trial_num","","","","","","","","","","","","","","","","","","","","","","","","",""
"","","","","","single-stim-button","286","564365","0.0-3.0-28.0-0.0","62ec1fe3ebd392c343d85886","F1","batch6","","8841","","","tol_tohand","","","","","","","","","tol_peg_3","8841","8841","0","[[2,1,0],[0,0],[0]]","1","[[1,2,0],[3,0],[0]]","6","0","","","","","","5","",""
"","","","","","single-stim-button","287","565095","0.0-3.0-28.0-1.0","62ec1fe3ebd392c343d85886","F1","batch6","","729","","","tol_toboard","","","","","","","","","tol_peg_2","729","729","0","[[2,1,0],[3,0],[0]]","1","[[1,2,0],[3,0],[0]]","6","0","","","","","","5","",""
"","","","","","single-stim-button","288","565647","0.0-3.0-28.1-0.1","62ec1fe3ebd392c343d85886","F1","batch6","","550","","","tol_tohand","","","","","","","","","tol_peg_1","550","550","0","[[2,0,0],[3,0],[0]]","2","[[1,2,0],[3,0],[0]]","6","0","","","","","","5","",""
"","","","","","single-stim-button","289","570720","0.0-3.0-28.1-1.1","62ec1fe3ebd392c343d85886","F1","batch6","","5071","","","tol_toboard","","","","","","","","","tol_peg_2","5071","5071","0","[[2,0,0],[3,1],[0]]","2","[[1,2,0],[3,0],[0]]","6","0","","","","","","5","",""
"","","","","","single-stim-button","290","571328","0.0-3.0-28.2-0.2","62ec1fe3ebd392c343d85886","F1","batch6","","607","","","tol_tohand","","","","","","","","","tol_peg_1","607","607","0","[[0,0,0],[3,1],[0]]","3","[[1,2,0],[3,0],[0]]","6","0","","","","","","5","",""
"","","","","","single-stim-button","291","573151","0.0-3.0-28.2-1.2","62ec1fe3ebd392c343d85886","F1","batch6","","1822","","","tol_toboard","","","","","","","","","tol_peg_3","1822","1822","0","[[0,0,0],[3,1],[2]]","3","[[1,2,0],[3,0],[0]]","6","0","","","","","","5","",""
"","","","","","single-stim-button","292","573738","0.0-3.0-28.3-0.3","62ec1fe3ebd392c343d85886","F1","batch6","","585","","","tol_tohand","","","","","","","","","tol_peg_2","585","585","0","[[0,0,0],[3,0],[2]]","4","[[1,2,0],[3,0],[0]]","6","0","","","","","","5","",""
"","","","","","single-stim-button","293","574412","0.0-3.0-28.3-1.3","62ec1fe3ebd392c343d85886","F1","batch6","","674","","","tol_toboard","","","","","","","","","tol_peg_1","674","674","0","[[1,0,0],[3,0],[2]]","4","[[1,2,0],[3,0],[0]]","6","0","","","","","","5","",""
"","","","","","single-stim-button","294","574995","0.0-3.0-28.4-0.4","62ec1fe3ebd392c343d85886","F1","batch6","","581","","","tol_tohand","","","","","","","","","tol_peg_3","581","581","0","[[1,0,0],[3,0],[0]]","5","[[1,2,0],[3,0],[0]]","6","0","","","","","","5","",""
"","","","","","single-stim-button","295","575647","0.0-3.0-28.4-1.4","62ec1fe3ebd392c343d85886","F1","batch6","","651","","","tol_toboard","","","","","","","","","tol_peg_1","651","651","0","[[1,2,0],[3,0],[0]]","5","[[1,2,0],[3,0],[0]]","6","0","","","","","","5","",""
"","","","","","poldrack-single-stim","296","576658","0.0-3.0-29.0","62ec1fe3ebd392c343d85886","F1","batch6","","-1","","","tol_feedback","true","","","","","","","","","1000","1000","500","","","","","","-1","none","true","8841","11164","","",""
"","","","","","html-button-response","297","577089","0.0-3.0-30.0","62ec1fe3ebd392c343d85886","F1","batch6","","428","<div class = centerbox><p class = center-block-text>problem <strong>8</strong> out of 25 problems</p></div>","0","tol_trial_num","","","","","","","","","","","","","","","","","","","","","","","","",""
"","","","","","single-stim-button","298","579507","0.0-3.0-31.0-0.0","62ec1fe3ebd392c343d85886","F1","batch6","","2416","","","tol_tohand","","","","","","","","","tol_peg_2","2416","2416","0","[[0,0,0],[2,0],[1]]","1","[[1,2,0],[3,0],[0]]","7","0","","","","","","4","",""
"","","","","","single-stim-button","299","583983","0.0-3.0-31.0-1.0","62ec1fe3ebd392c343d85886","F1","batch6","","4475","","","tol_toboard","","","","","","","","","tol_peg_2","4475","4475","0","[[0,0,0],[2,3],[1]]","1","[[1,2,0],[3,0],[0]]","7","0","","","","","","4","",""
"","","","","","single-stim-button","300","584707","0.0-3.0-31.1-0.1","62ec1fe3ebd392c343d85886","F1","batch6","","721","","","tol_tohand","","","","","","","","","tol_peg_3","721","721","0","[[0,0,0],[2,3],[0]]","2","[[1,2,0],[3,0],[0]]","7","0","","","","","","4","",""
"","","","","","single-stim-button","301","586246","0.0-3.0-31.1-1.1","62ec1fe3ebd392c343d85886","F1","batch6","","1538","","","tol_toboard","","","","","","","","","tol_peg_1","1538","1538","0","[[1,0,0],[2,3],[0]]","2","[[1,2,0],[3,0],[0]]","7","0","","","","","","4","",""
"","","","","","single-stim-button","302","586988","0.0-3.0-31.2-0.2","62ec1fe3ebd392c343d85886","F1","batch6","","740","","","tol_tohand","","","","","","","","","tol_peg_2","740","740","0","[[1,0,0],[2,0],[0]]","3","[[1,2,0],[3,0],[0]]","7","0","","","","","","4","",""
"","","","","","single-stim-button","303","588216","0.0-3.0-31.2-1.2","62ec1fe3ebd392c343d85886","F1","batch6","","1228","","","tol_toboard","","","","","","","","","tol_peg_3","1228","1228","0","[[1,0,0],[2,0],[3]]","3","[[1,2,0],[3,0],[0]]","7","0","","","","","","4","",""
"","","","","","single-stim-button","304","588675","0.0-3.0-31.3-0.3","62ec1fe3ebd392c343d85886","F1","batch6","","458","","","tol_tohand","","","","","","","","","tol_peg_2","458","458","0","[[1,0,0],[0,0],[3]]","4","[[1,2,0],[3,0],[0]]","7","0","","","","","","4","",""
"","","","","","single-stim-button","305","589237","0.0-3.0-31.3-1.3","62ec1fe3ebd392c343d85886","F1","batch6","","561","","","tol_toboard","","","","","","","","","tol_peg_1","561","561","0","[[1,2,0],[0,0],[3]]","4","[[1,2,0],[3,0],[0]]","7","0","","","","","","4","",""
"","","","","","single-stim-button","306","589674","0.0-3.0-31.4-0.4","62ec1fe3ebd392c343d85886","F1","batch6","","436","","","tol_tohand","","","","","","","","","tol_peg_3","436","436","0","[[1,2,0],[0,0],[0]]","5","[[1,2,0],[3,0],[0]]","7","0","","","","","","4","",""
"","","","","","single-stim-button","307","590170","0.0-3.0-31.4-1.4","62ec1fe3ebd392c343d85886","F1","batch6","","494","","","tol_toboard","","","","","","","","","tol_peg_2","494","494","0","[[1,2,0],[3,0],[0]]","5","[[1,2,0],[3,0],[0]]","7","0","","","","","","4","",""
"","","","","","poldrack-single-stim","308","591179","0.0-3.0-32.0","62ec1fe3ebd392c343d85886","F1","batch6","","-1","","","tol_feedback","true","","","","","","","","","1000","1000","500","","","","","","-1","none","true","2416","4771","","",""
"","","","","","html-button-response","309","591981","0.0-3.0-33.0","62ec1fe3ebd392c343d85886","F1","batch6","","800.7000000476837","<div class = centerbox><p class = center-block-text>problem <strong>9</strong> out of 25 problems</p></div>","0","tol_trial_num","","","","","","","","","","","","","","","","","","","","","","","","",""
"","","","","","single-stim-button","310","597178","0.0-3.0-34.0-0.0","62ec1fe3ebd392c343d85886","F1","batch6","","5196","","","tol_tohand","","","","","","","","","tol_peg_1","5196","5196","0","[[3,0,0],[0,0],[1]]","1","[[2,1,0],[3,0],[0]]","8","0","","","","","","6","",""
"","","","","","single-stim-button","311","597831","0.0-3.0-34.0-1.0","62ec1fe3ebd392c343d85886","F1","batch6","","651","","","tol_toboard","","","","","","","","","tol_peg_2","651","651","0","[[3,0,0],[2,0],[1]]","1","[[2,1,0],[3,0],[0]]","8","0","","","","","","6","",""
"","","","","","single-stim-button","312","616933","0.0-3.0-34.1-0.1","62ec1fe3ebd392c343d85886","F1","batch6","","19101","","","tol_tohand","","","","","","","","","tol_peg_1","19101","19101","0","[[0,0,0],[2,0],[1]]","2","[[2,1,0],[3,0],[0]]","8","0","","","","","","6","",""
"","","","","","single-stim-button","313","617586","0.0-3.0-34.1-1.1","62ec1fe3ebd392c343d85886","F1","batch6","","652","","","tol_toboard","","","","","","","","","tol_peg_2","652","652","0","[[0,0,0],[2,3],[1]]","2","[[2,1,0],[3,0],[0]]","8","0","","","","","","6","",""
"","","","","","single-stim-button","314","618092","0.0-3.0-34.2-0.2","62ec1fe3ebd392c343d85886","F1","batch6","","504","","","tol_tohand","","","","","","","","","tol_peg_3","504","504","0","[[0,0,0],[2,3],[0]]","3","[[2,1,0],[3,0],[0]]","8","0","","","","","","6","",""
"","","","","","single-stim-button","315","618691","0.0-3.0-34.2-1.2","62ec1fe3ebd392c343d85886","F1","batch6","","597","","","tol_toboard","","","","","","","","","tol_peg_1","597","597","0","[[1,0,0],[2,3],[0]]","3","[[2,1,0],[3,0],[0]]","8","0","","","","","","6","",""
"","","","","","single-stim-button","316","619161","0.0-3.0-34.3-0.3","62ec1fe3ebd392c343d85886","F1","batch6","","469","","","tol_tohand","","","","","","","","","tol_peg_2","469","469","0","[[1,0,0],[2,0],[0]]","4","[[2,1,0],[3,0],[0]]","8","0","","","","","","6","",""
"","","","","","single-stim-button","317","619937","0.0-3.0-34.3-1.3","62ec1fe3ebd392c343d85886","F1","batch6","","774","","","tol_toboard","","","","","","","","","tol_peg_3","774","774","0","[[1,0,0],[2,0],[3]]","4","[[2,1,0],[3,0],[0]]","8","0","","","","","","6","",""
"","","","","","single-stim-button","318","620569","0.0-3.0-34.4-0.4","62ec1fe3ebd392c343d85886","F1","batch6","","630","","","tol_tohand","","","","","","","","","tol_peg_2","630","630","0","[[1,0,0],[0,0],[3]]","5","[[2,1,0],[3,0],[0]]","8","0","","","","","","6","",""
"","","","","","single-stim-button","319","621084","0.0-3.0-34.4-1.4","62ec1fe3ebd392c343d85886","F1","batch6","","515","","","tol_toboard","","","","","","","","","tol_peg_1","515","515","0","[[1,2,0],[0,0],[3]]","5","[[2,1,0],[3,0],[0]]","8","0","","","","","","6","",""
"","","","","","single-stim-button","320","621626","0.0-3.0-34.5-0.5","62ec1fe3ebd392c343d85886","F1","batch6","","540","","","tol_tohand","","","","","","","","","tol_peg_3","540","540","0","[[1,2,0],[0,0],[0]]","6","[[2,1,0],[3,0],[0]]","8","0","","","","","","6","",""
"","","","","","single-stim-button","321","622021","0.0-3.0-34.5-1.5","62ec1fe3ebd392c343d85886","F1","batch6","","393","","","tol_toboard","","","","","","","","","tol_peg_2","393","393","0","[[1,2,0],[3,0],[0]]","6","[[2,1,0],[3,0],[0]]","8","0","","","","","","6","",""
"","","","","","single-stim-button","322","624986","0.0-3.0-34.6-0.6","62ec1fe3ebd392c343d85886","F1","batch6","","2964","","","tol_tohand","","","","","","","","","tol_peg_1","2964","2964","0","[[1,0,0],[3,0],[0]]","7","[[2,1,0],[3,0],[0]]","8","0","","","","","","6","",""
"","","","","","single-stim-button","323","626011","0.0-3.0-34.6-1.6","62ec1fe3ebd392c343d85886","F1","batch6","","1025","","","tol_toboard","","","","","","","","","tol_peg_3","1025","1025","0","[[1,0,0],[3,0],[2]]","7","[[2,1,0],[3,0],[0]]","8","0","","","","","","6","",""
"","","","","","single-stim-button","324","626644","0.0-3.0-34.7-0.7","62ec1fe3ebd392c343d85886","F1","batch6","","631","","","tol_tohand","","","","","","","","","tol_peg_1","631","631","0","[[0,0,0],[3,0],[2]]","8","[[2,1,0],[3,0],[0]]","8","0","","","","","","6","",""
"","","","","","single-stim-button","325","627047","0.0-3.0-34.7-1.7","62ec1fe3ebd392c343d85886","F1","batch6","","402","","","tol_toboard","","","","","","","","","tol_peg_2","402","402","0","[[0,0,0],[3,1],[2]]","8","[[2,1,0],[3,0],[0]]","8","0","","","","","","6","",""
"","","","","","single-stim-button","326","627442","0.0-3.0-34.8-0.8","62ec1fe3ebd392c343d85886","F1","batch6","","394","","","tol_tohand","","","","","","","","","tol_peg_3","394","394","0","[[0,0,0],[3,1],[0]]","9","[[2,1,0],[3,0],[0]]","8","0","","","","","","6","",""
"","","","","","single-stim-button","327","627912","0.0-3.0-34.8-1.8","62ec1fe3ebd392c343d85886","F1","batch6","","468","","","tol_toboard","","","","","","","","","tol_peg_1","468","468","0","[[2,0,0],[3,1],[0]]","9","[[2,1,0],[3,0],[0]]","8","0","","","","","","6","",""
"","","","","","single-stim-button","328","628419","0.0-3.0-34.9-0.9","62ec1fe3ebd392c343d85886","F1","batch6","","506","","","tol_tohand","","","","","","","","","tol_peg_2","506","506","0","[[2,0,0],[3,0],[0]]","10","[[2,1,0],[3,0],[0]]","8","0","","","","","","6","",""
"","","","","","single-stim-button","329","628733","0.0-3.0-34.9-1.9","62ec1fe3ebd392c343d85886","F1","batch6","","313","","","tol_toboard","","","","","","","","","tol_peg_1","313","313","0","[[2,1,0],[3,0],[0]]","10","[[2,1,0],[3,0],[0]]","8","0","","","","","","6","",""
"","","","","","poldrack-single-stim","330","629744","0.0-3.0-35.0","62ec1fe3ebd392c343d85886","F1","batch6","","-1","","","tol_feedback","true","","","","","","","","","1000","1000","500","","","","","","-1","none","true","5196","30935","","",""
"","","","","","html-button-response","331","630239","0.0-3.0-36.0","62ec1fe3ebd392c343d85886","F1","batch6","","490.90000009536743","<div class = centerbox><p class = center-block-text>problem <strong>10</strong> out of 25 problems</p></div>","0","tol_trial_num","","","","","","","","","","","","","","","","","","","","","","","","",""
"","","","","","single-stim-button","332","632954","0.0-3.0-37.0-0.0","62ec1fe3ebd392c343d85886","F1","batch6","","2713","","","tol_tohand","","","","","","","","","tol_peg_2","2713","2713","0","[[3,0,0],[0,0],[2]]","1","[[3,0,0],[2,1],[0]]","9","0","","","","","","3","",""
"","","","","","single-stim-button","333","633865","0.0-3.0-37.0-1.0","62ec1fe3ebd392c343d85886","F1","batch6","","910","","","tol_toboard","","","","","","","","","tol_peg_1","910","910","0","[[3,1,0],[0,0],[2]]","1","[[3,0,0],[2,1],[0]]","9","0","","","","","","3","",""
"","","","","","single-stim-button","334","634448","0.0-3.0-37.1-0.1","62ec1fe3ebd392c343d85886","F1","batch6","","582","","","tol_tohand","","","","","","","","","tol_peg_3","582","582","0","[[3,1,0],[0,0],[0]]","2","[[3,0,0],[2,1],[0]]","9","0","","","","","","3","",""
"","","","","","single-stim-button","335","635012","0.0-3.0-37.1-1.1","62ec1fe3ebd392c343d85886","F1","batch6","","562","","","tol_toboard","","","","","","","","","tol_peg_2","562","562","0","[[3,1,0],[2,0],[0]]","2","[[3,0,0],[2,1],[0]]","9","0","","","","","","3","",""
"","","","","","single-stim-button","336","635539","0.0-3.0-37.2-0.2","62ec1fe3ebd392c343d85886","F1","batch6","","526","","","tol_tohand","","","","","","","","","tol_peg_1","526","526","0","[[3,0,0],[2,0],[0]]","3","[[3,0,0],[2,1],[0]]","9","0","","","","","","3","",""
"","","","","","single-stim-button","337","636149","0.0-3.0-37.2-1.2","62ec1fe3ebd392c343d85886","F1","batch6","","609","","","tol_toboard","","","","","","","","","tol_peg_2","609","609","0","[[3,0,0],[2,1],[0]]","3","[[3,0,0],[2,1],[0]]","9","0","","","","","","3","",""
"","","","","","poldrack-single-stim","338","637160","0.0-3.0-38.0","62ec1fe3ebd392c343d85886","F1","batch6","","-1","","","tol_feedback","true","","","","","","","","","1000","1000","500","","","","","","-1","none","true","2713","3821","","",""
"","","","","","html-button-response","339","638003","0.0-3.0-39.0","62ec1fe3ebd392c343d85886","F1","batch6","","841","<div class = centerbox><p class = center-block-text>problem <strong>11</strong> out of 25 problems</p></div>","0","tol_trial_num","","","","","","","","","","","","","","","","","","","","","","","","",""
"","","","","","single-stim-button","340","648039","0.0-3.0-40.0-0.0","62ec1fe3ebd392c343d85886","F1","batch6","","10035","","","tol_tohand","","","","","","","","","tol_peg_1","10035","10035","0","[[1,0,0],[3,0],[0]]","1","[[2,0,0],[1,3],[0]]","10","0","","","","","","6","",""
"","","","","","single-stim-button","341","648725","0.0-3.0-40.0-1.0","62ec1fe3ebd392c343d85886","F1","batch6","","684","","","tol_toboard","","","","","","","","","tol_peg_2","684","684","0","[[1,0,0],[3,2],[0]]","1","[[2,0,0],[1,3],[0]]","10","0","","","","","","6","",""
"","","","","","single-stim-button","342","649308","0.0-3.0-40.1-0.1","62ec1fe3ebd392c343d85886","F1","batch6","","581","","","tol_tohand","","","","","","","","","tol_peg_1","581","581","0","[[0,0,0],[3,2],[0]]","2","[[2,0,0],[1,3],[0]]","10","0","","","","","","6","",""
"","","","","","single-stim-button","343","650177","0.0-3.0-40.1-1.1","62ec1fe3ebd392c343d85886","F1","batch6","","867","","","tol_toboard","","","","","","","","","tol_peg_3","867","867","0","[[0,0,0],[3,2],[1]]","2","[[2,0,0],[1,3],[0]]","10","0","","","","","","6","",""
"","","","","","single-stim-button","344","650625","0.0-3.0-40.2-0.2","62ec1fe3ebd392c343d85886","F1","batch6","","446","","","tol_tohand","","","","","","","","","tol_peg_2","446","446","0","[[0,0,0],[3,0],[1]]","3","[[2,0,0],[1,3],[0]]","10","0","","","","","","6","",""
"","","","","","single-stim-button","345","651390","0.0-3.0-40.2-1.2","62ec1fe3ebd392c343d85886","F1","batch6","","764","","","tol_toboard","","","","","","","","","tol_peg_1","764","764","0","[[2,0,0],[3,0],[1]]","3","[[2,0,0],[1,3],[0]]","10","0","","","","","","6","",""
"","","","","","single-stim-button","346","652134","0.0-3.0-40.3-0.3","62ec1fe3ebd392c343d85886","F1","batch6","","743","","","tol_tohand","","","","","","","","","tol_peg_2","743","743","0","[[2,0,0],[0,0],[1]]","4","[[2,0,0],[1,3],[0]]","10","0","","","","","","6","",""
"","","","","","single-stim-button","347","652978","0.0-3.0-40.3-1.3","62ec1fe3ebd392c343d85886","F1","batch6","","842","","","tol_toboard","","","","","","","","","tol_peg_1","842","842","0","[[2,3,0],[0,0],[1]]","4","[[2,0,0],[1,3],[0]]","10","0","","","","","","6","",""
