"success","timeout","failed_images","failed_audio","failed_video","trial_type","trial_index","time_elapsed","internal_node_id","subject_id","study_id","session_id","task","rt","stimulus","response","item","answer","correct","spm_correct","spm_rt","view_history","mouse_click","stim_duration","block_duration","timing_post_trial","current_position","tol_num_moves_made","tol_target","tol_problem_id","tol_rt","key_press","possible_responses","tol_correct","preplanning","tol_rt_per_trial","tol_min_moves","fiar_detect_rt","fiar_detect_correct","total_correct_fiar_detect","post_trial_gap","choices"
"true","false","[]","[]","[]","preload","0","969","0.0-0.0","62ef8372cd41d2893d237b6b","C3","batch3","","","","","","","","","","","","","","","","","","","","","","","","","","","","","",""
"true","","","","","fullscreen","1","4979","0.0-1.0-0.0","62ef8372cd41d2893d237b6b","C3","batch3","","","","","","","","","","","","","","","","","","","","","","","","","","","","","",""
"true","","","","","fullscreen","2","8332","0.0-2.0-0.0","62ef8372cd41d2893d237b6b","C3","batch3","spm_fullscreen","","","","","","","","","","","","","","","","","","","","","","","","","","","","",""
"","","","","","html-button-response","3","20573","0.0-2.0-1.0","62ef8372cd41d2893d237b6b","C3","batch3","","12240.200000047684","<p class = block-text><b>Instructions</b> <br>This is a widely used intelligence test in research. <br>In this test, a figure with a missing piece will be presented.<br>Below the figure are alternative pieces to complete the figure, only one of which is correct.<br> Different figures might involve different principles for obtaining the missing piece<br>Your job is to select the most logical piece to complete the figure.</p>","0","","","","","","","","","","","","","","","","","","","","","","","","","",""
"","","","","","html-keyboard-response","4","21386","0.0-2.0-2.0-0.0","62ef8372cd41d2893d237b6b","C3","batch3","spm_show_trial_num","null","<p class=block-text>Trial 1 out of 60</p>","null","","","","","","","","","","","","","","","","","","","","","","","","","",""
"","","","","","image-button-response","5","26925","0.0-2.0-2.0-1.0","62ef8372cd41d2893d237b6b","C3","batch3","spm_respsonse","5538.100000023842","img/question_1_1.jpeg","3","mat_01","4","1","1","5538.100000023842","","","","","","","","","","","","","","","","","","","","",""
"","","","","","html-keyboard-response","6","27980","0.0-2.0-2.0-0.1","62ef8372cd41d2893d237b6b","C3","batch3","spm_show_trial_num","null","<p class=block-text>Trial 2 out of 60</p>","null","","","","","","","","","","","","","","","","","","","","","","","","","",""
"","","","","","image-button-response","7","30099","0.0-2.0-2.0-1.1","62ef8372cd41d2893d237b6b","C3","batch3","spm_respsonse","2117.199999988079","img/question_1_2.jpeg","4","mat_02","5","1","1","2117.199999988079","","","","","","","","","","","","","","","","","","","","",""
"","","","","","html-keyboard-response","8","31168","0.0-2.0-2.0-0.2","62ef8372cd41d2893d237b6b","C3","batch3","spm_show_trial_num","null","<p class=block-text>Trial 3 out of 60</p>","null","","","","","","","","","","","","","","","","","","","","","","","","","",""
"","","","","","image-button-response","9","33430","0.0-2.0-2.0-1.2","62ef8372cd41d2893d237b6b","C3","batch3","spm_respsonse","2260.699999988079","img/question_1_3.jpeg","0","mat_03","1","1","1","2260.699999988079","","","","","","","","","","","","","","","","","","","","",""
"","","","","","html-keyboard-response","10","34482","0.0-2.0-2.0-0.3","62ef8372cd41d2893d237b6b","C3","batch3","spm_show_trial_num","null","<p class=block-text>Trial 4 out of 60</p>","null","","","","","","","","","","","","","","","","","","","","","","","","","",""
"","","","","","image-button-response","11","37208","0.0-2.0-2.0-1.3","62ef8372cd41d2893d237b6b","C3","batch3","spm_respsonse","2725.5","img/question_1_4.jpeg","1","mat_04","2","1","1","2725.5","","","","","","","","","","","","","","","","","","","","",""
"","","","","","html-keyboard-response","12","38263","0.0-2.0-2.0-0.4","62ef8372cd41d2893d237b6b","C3","batch3","spm_show_trial_num","null","<p class=block-text>Trial 5 out of 60</p>","null","","","","","","","","","","","","","","","","","","","","","","","","","",""
"","","","","","image-button-response","13","42263","0.0-2.0-2.0-1.4","62ef8372cd41d2893d237b6b","C3","batch3","spm_respsonse","3999.199999988079","img/question_1_5.jpeg","5","mat_05","6","1","1","3999.199999988079","","","","","","","","","","","","","","","","","","","","",""
"","","","","","html-keyboard-response","14","43321","0.0-2.0-2.0-0.5","62ef8372cd41d2893d237b6b","C3","batch3","spm_show_trial_num","null","<p class=block-text>Trial 6 out of 60</p>","null","","","","","","","","","","","","","","","","","","","","","","","","","",""
"","","","","","image-button-response","15","47960","0.0-2.0-2.0-1.5","62ef8372cd41d2893d237b6b","C3","batch3","spm_respsonse","4638","img/question_1_6.jpeg","2","mat_06","3","1","1","4638","","","","","","","","","","","","","","","","","","","","",""
"","","","","","html-keyboard-response","16","49020","0.0-2.0-2.0-0.6","62ef8372cd41d2893d237b6b","C3","batch3","spm_show_trial_num","null","<p class=block-text>Trial 7 out of 60</p>","null","","","","","","","","","","","","","","","","","","","","","","","","","",""
"","","","","","image-button-response","17","55514","0.0-2.0-2.0-1.6","62ef8372cd41d2893d237b6b","C3","batch3","spm_respsonse","6493.100000023842","img/question_1_7.jpeg","5","mat_07","6","1","1","6493.100000023842","","","","","","","","","","","","","","","","","","","","",""
"","","","","","html-keyboard-response","18","56567","0.0-2.0-2.0-0.7","62ef8372cd41d2893d237b6b","C3","batch3","spm_show_trial_num","null","<p class=block-text>Trial 8 out of 60</p>","null","","","","","","","","","","","","","","","","","","","","","","","","","",""
"","","","","","image-button-response","19","62268","0.0-2.0-2.0-1.7","62ef8372cd41d2893d237b6b","C3","batch3","spm_respsonse","5700.699999988079","img/question_1_8.jpeg","1","mat_08","2","1","1","5700.699999988079","","","","","","","","","","","","","","","","","","","","",""
"","","","","","html-keyboard-response","20","63326","0.0-2.0-2.0-0.8","62ef8372cd41d2893d237b6b","C3","batch3","spm_show_trial_num","null","<p class=block-text>Trial 9 out of 60</p>","null","","","","","","","","","","","","","","","","","","","","","","","","","",""
"","","","","","image-button-response","21","67776","0.0-2.0-2.0-1.8","62ef8372cd41d2893d237b6b","C3","batch3","spm_respsonse","4449.100000023842","img/question_1_9.jpeg","0","mat_09","1","1","1","4449.100000023842","","","","","","","","","","","","","","","","","","","","",""
"","","","","","html-keyboard-response","22","68838","0.0-2.0-2.0-0.9","62ef8372cd41d2893d237b6b","C3","batch3","spm_show_trial_num","null","<p class=block-text>Trial 10 out of 60</p>","null","","","","","","","","","","","","","","","","","","","","","","","","","",""
"","","","","","image-button-response","23","73771","0.0-2.0-2.0-1.9","62ef8372cd41d2893d237b6b","C3","batch3","spm_respsonse","4931.600000023842","img/question_1_10.jpeg","2","mat_10","3","1","1","4931.600000023842","","","","","","","","","","","","","","","","","","","","",""
"","","","","","html-keyboard-response","24","74847","0.0-2.0-2.0-0.10","62ef8372cd41d2893d237b6b","C3","batch3","spm_show_trial_num","null","<p class=block-text>Trial 11 out of 60</p>","null","","","","","","","","","","","","","","","","","","","","","","","","","",""
"","","","","","image-button-response","25","82821","0.0-2.0-2.0-1.10","62ef8372cd41d2893d237b6b","C3","batch3","spm_respsonse","7972.5","img/question_1_11.jpeg","1","mat_11","4","0","0","7972.5","","","","","","","","","","","","","","","","","","","","",""
"","","","","","html-keyboard-response","26","83882","0.0-2.0-2.0-0.11","62ef8372cd41d2893d237b6b","C3","batch3","spm_show_trial_num","null","<p class=block-text>Trial 12 out of 60</p>","null","","","","","","","","","","","","","","","","","","","","","","","","","",""
"","","","","","image-button-response","27","93776","0.0-2.0-2.0-1.11","62ef8372cd41d2893d237b6b","C3","batch3","spm_respsonse","9892.199999988079","img/question_1_12.jpeg","4","mat_12","5","1","1","9892.199999988079","","","","","","","","","","","","","","","","","","","","",""
"","","","","","html-keyboard-response","28","94840","0.0-2.0-2.0-0.12","62ef8372cd41d2893d237b6b","C3","batch3","spm_show_trial_num","null","<p class=block-text>Trial 13 out of 60</p>","null","","","","","","","","","","","","","","","","","","","","","","","","","",""
"","","","","","image-button-response","29","96648","0.0-2.0-2.0-1.12","62ef8372cd41d2893d237b6b","C3","batch3","spm_respsonse","1806.6000000238419","img/question_2_1.jpeg","1","mat_13","2","1","1","1806.6000000238419","","","","","","","","","","","","","","","","","","","","",""
"","","","","","html-keyboard-response","30","97700","0.0-2.0-2.0-0.13","62ef8372cd41d2893d237b6b","C3","batch3","spm_show_trial_num","null","<p class=block-text>Trial 14 out of 60</p>","null","","","","","","","","","","","","","","","","","","","","","","","","","",""
"","","","","","image-button-response","31","102343","0.0-2.0-2.0-1.13","62ef8372cd41d2893d237b6b","C3","batch3","spm_respsonse","4642.199999988079","img/question_2_2.jpeg","5","mat_14","6","1","1","4642.199999988079","","","","","","","","","","","","","","","","","","","","",""
"","","","","","html-keyboard-response","32","103399","0.0-2.0-2.0-0.14","62ef8372cd41d2893d237b6b","C3","batch3","spm_show_trial_num","null","<p class=block-text>Trial 15 out of 60</p>","null","","","","","","","","","","","","","","","","","","","","","","","","","",""
"","","","","","image-button-response","33","107239","0.0-2.0-2.0-1.14","62ef8372cd41d2893d237b6b","C3","batch3","spm_respsonse","3838.199999988079","img/question_2_3.jpeg","0","mat_15","1","1","1","3838.199999988079","","","","","","","","","","","","","","","","","","","","",""
"","","","","","html-keyboard-response","34","108305","0.0-2.0-2.0-0.15","62ef8372cd41d2893d237b6b","C3","batch3","spm_show_trial_num","null","<p class=block-text>Trial 16 out of 60</p>","null","","","","","","","","","","","","","","","","","","","","","","","","","",""
"","","","","","image-button-response","35","111412","0.0-2.0-2.0-1.15","62ef8372cd41d2893d237b6b","C3","batch3","spm_respsonse","3105.699999988079","img/question_2_4.jpeg","1","mat_16","2","1","1","3105.699999988079","","","","","","","","","","","","","","","","","","","","",""
"","","","","","html-keyboard-response","36","112470","0.0-2.0-2.0-0.16","62ef8372cd41d2893d237b6b","C3","batch3","spm_show_trial_num","null","<p class=block-text>Trial 17 out of 60</p>","null","","","","","","","","","","","","","","","","","","","","","","","","","",""
"","","","","","image-button-response","37","117181","0.0-2.0-2.0-1.16","62ef8372cd41d2893d237b6b","C3","batch3","spm_respsonse","4709.300000011921","img/question_2_5.jpeg","0","mat_17","1","1","1","4709.300000011921","","","","","","","","","","","","","","","","","","","","",""
"","","","","","html-keyboard-response","38","118237","0.0-2.0-2.0-0.17","62ef8372cd41d2893d237b6b","C3","batch3","spm_show_trial_num","null","<p class=block-text>Trial 18 out of 60</p>","null","","","","","","","","","","","","","","","","","","","","","","","","","",""
"","","","","","image-button-response","39","122923","0.0-2.0-2.0-1.17","62ef8372cd41d2893d237b6b","C3","batch3","spm_respsonse","4684.699999988079","img/question_2_6.jpeg","2","mat_18","3","1","1","4684.699999988079","","","","","","","","","","","","","","","","","","","","",""
"","","","","","html-keyboard-response","40","123982","0.0-2.0-2.0-0.18","62ef8372cd41d2893d237b6b","C3","batch3","spm_show_trial_num","null","<p class=block-text>Trial 19 out of 60</p>","null","","","","","","","","","","","","","","","","","","","","","","","","","",""
"","","","","","image-button-response","41","128670","0.0-2.0-2.0-1.18","62ef8372cd41d2893d237b6b","C3","batch3","spm_respsonse","4687","img/question_2_7.jpeg","4","mat_19","5","1","1","4687","","","","","","","","","","","","","","","","","","","","",""
"","","","","","html-keyboard-response","42","129733","0.0-2.0-2.0-0.19","62ef8372cd41d2893d237b6b","C3","batch3","spm_show_trial_num","null","<p class=block-text>Trial 20 out of 60</p>","null","","","","","","","","","","","","","","","","","","","","","","","","","",""
"","","","","","image-button-response","43","144580","0.0-2.0-2.0-1.19","62ef8372cd41d2893d237b6b","C3","batch3","spm_respsonse","14846.099999964237","img/question_2_8.jpeg","2","mat_20","6","0","0","14846.099999964237","","","","","","","","","","","","","","","","","","","","",""
"","","","","","html-keyboard-response","44","145643","0.0-2.0-2.0-0.20","62ef8372cd41d2893d237b6b","C3","batch3","spm_show_trial_num","null","<p class=block-text>Trial 21 out of 60</p>","null","","","","","","","","","","","","","","","","","","","","","","","","","",""
"","","","","","image-button-response","45","152450","0.0-2.0-2.0-1.20","62ef8372cd41d2893d237b6b","C3","batch3","spm_respsonse","6804.400000035763","img/question_2_9.jpeg","3","mat_21","4","1","1","6804.400000035763","","","","","","","","","","","","","","","","","","","","",""
"","","","","","html-keyboard-response","46","153505","0.0-2.0-2.0-0.21","62ef8372cd41d2893d237b6b","C3","batch3","spm_show_trial_num","null","<p class=block-text>Trial 22 out of 60</p>","null","","","","","","","","","","","","","","","","","","","","","","","","","",""
"","","","","","image-button-response","47","160215","0.0-2.0-2.0-1.21","62ef8372cd41d2893d237b6b","C3","batch3","spm_respsonse","6708.5","img/question_2_10.jpeg","2","mat_22","3","1","1","6708.5","","","","","","","","","","","","","","","","","","","","",""
"","","","","","html-keyboard-response","48","161272","0.0-2.0-2.0-0.22","62ef8372cd41d2893d237b6b","C3","batch3","spm_show_trial_num","null","<p class=block-text>Trial 23 out of 60</p>","null","","","","","","","","","","","","","","","","","","","","","","","","","",""
"","","","","","image-button-response","49","183180","0.0-2.0-2.0-1.22","62ef8372cd41d2893d237b6b","C3","batch3","spm_respsonse","21905.200000047684","img/question_2_11.jpeg","4","mat_23","4","0","0","21905.200000047684","","","","","","","","","","","","","","","","","","","","",""
"","","","","","html-keyboard-response","50","184238","0.0-2.0-2.0-0.23","62ef8372cd41d2893d237b6b","C3","batch3","spm_show_trial_num","null","<p class=block-text>Trial 24 out of 60</p>","null","","","","","","","","","","","","","","","","","","","","","","","","","",""
"","","","","","image-button-response","51","188931","0.0-2.0-2.0-1.23","62ef8372cd41d2893d237b6b","C3","batch3","spm_respsonse","4691.600000023842","img/question_2_12.jpeg","5","mat_24","5","0","0","4691.600000023842","","","","","","","","","","","","","","","","","","","","",""
"","","","","","html-button-response","52","190646","0.0-2.0-3.0","62ef8372cd41d2893d237b6b","C3","batch3","attention_check","1463.6000000238419","<p class = block-text>Attention check: Please choose 1<br></p>","0","","","true","","","","","","","","","","","","","","","","","","","","","","",""
"","","","","","html-keyboard-response","53","191447","0.0-2.0-4.0-0.0","62ef8372cd41d2893d237b6b","C3","batch3","spm_show_trial_num","null","<p class=block-text>Trial 25 out of 60</p>","null","","","","","","","","","","","","","","","","","","","","","","","","","",""
"","","","","","image-button-response","54","198802","0.0-2.0-4.0-1.0","62ef8372cd41d2893d237b6b","C3","batch3","spm_respsonse","7352.899999976158","img/question_3_1.jpeg","7","mat_25","8","1","1","7352.899999976158","","","","","","","","","","","","","","","","","","","","",""
"","","","","","html-keyboard-response","55","199860","0.0-2.0-4.0-0.1","62ef8372cd41d2893d237b6b","C3","batch3","spm_show_trial_num","null","<p class=block-text>Trial 26 out of 60</p>","null","","","","","","","","","","","","","","","","","","","","","","","","","",""
"","","","","","image-button-response","56","208700","0.0-2.0-4.0-1.1","62ef8372cd41d2893d237b6b","C3","batch3","spm_respsonse","8838.899999976158","img/question_3_2.jpeg","1","mat_26","2","1","1","8838.899999976158","","","","","","","","","","","","","","","","","","","","",""
"","","","","","html-keyboard-response","57","209753","0.0-2.0-4.0-0.2","62ef8372cd41d2893d237b6b","C3","batch3","spm_show_trial_num","null","<p class=block-text>Trial 27 out of 60</p>","null","","","","","","","","","","","","","","","","","","","","","","","","","",""
"","","","","","image-button-response","58","221042","0.0-2.0-4.0-1.2","62ef8372cd41d2893d237b6b","C3","batch3","spm_respsonse","11287.900000035763","img/question_3_3.jpeg","2","mat_27","3","1","1","11287.900000035763","","","","","","","","","","","","","","","","","","","","",""
"","","","","","html-keyboard-response","59","222101","0.0-2.0-4.0-0.3","62ef8372cd41d2893d237b6b","C3","batch3","spm_show_trial_num","null","<p class=block-text>Trial 28 out of 60</p>","null","","","","","","","","","","","","","","","","","","","","","","","","","",""
"","","","","","image-button-response","60","229018","0.0-2.0-4.0-1.3","62ef8372cd41d2893d237b6b","C3","batch3","spm_respsonse","6914.5","img/question_3_4.jpeg","7","mat_28","8","1","1","6914.5","","","","","","","","","","","","","","","","","","","","",""
"","","","","","html-keyboard-response","61","230071","0.0-2.0-4.0-0.4","62ef8372cd41d2893d237b6b","C3","batch3","spm_show_trial_num","null","<p class=block-text>Trial 29 out of 60</p>","null","","","","","","","","","","","","","","","","","","","","","","","","","",""
"","","","","","image-button-response","62","238907","0.0-2.0-4.0-1.4","62ef8372cd41d2893d237b6b","C3","batch3","spm_respsonse","8834.899999976158","img/question_3_5.jpeg","6","mat_29","7","1","1","8834.899999976158","","","","","","","","","","","","","","","","","","","","",""
"","","","","","html-keyboard-response","63","239974","0.0-2.0-4.0-0.5","62ef8372cd41d2893d237b6b","C3","batch3","spm_show_trial_num","null","<p class=block-text>Trial 30 out of 60</p>","null","","","","","","","","","","","","","","","","","","","","","","","","","",""
"","","","","","image-button-response","64","246913","0.0-2.0-4.0-1.5","62ef8372cd41d2893d237b6b","C3","batch3","spm_respsonse","6937.5","img/question_3_6.jpeg","3","mat_30","4","1","1","6937.5","","","","","","","","","","","","","","","","","","","","",""
"","","","","","html-keyboard-response","65","247967","0.0-2.0-4.0-0.6","62ef8372cd41d2893d237b6b","C3","batch3","spm_show_trial_num","null","<p class=block-text>Trial 31 out of 60</p>","null","","","","","","","","","","","","","","","","","","","","","","","","","",""
"","","","","","image-button-response","66","252761","0.0-2.0-4.0-1.6","62ef8372cd41d2893d237b6b","C3","batch3","spm_respsonse","4792.899999976158","img/question_3_7.jpeg","4","mat_31","5","1","1","4792.899999976158","","","","","","","","","","","","","","","","","","","","",""
"","","","","","html-keyboard-response","67","253826","0.0-2.0-4.0-0.7","62ef8372cd41d2893d237b6b","C3","batch3","spm_show_trial_num","null","<p class=block-text>Trial 32 out of 60</p>","null","","","","","","","","","","","","","","","","","","","","","","","","","",""
"","","","","","image-button-response","68","265285","0.0-2.0-4.0-1.7","62ef8372cd41d2893d237b6b","C3","batch3","spm_respsonse","11458.199999988079","img/question_3_8.jpeg","6","mat_32","1","0","0","11458.199999988079","","","","","","","","","","","","","","","","","","","","",""
"","","","","","html-keyboard-response","69","266340","0.0-2.0-4.0-0.8","62ef8372cd41d2893d237b6b","C3","batch3","spm_show_trial_num","null","<p class=block-text>Trial 33 out of 60</p>","null","","","","","","","","","","","","","","","","","","","","","","","","","",""
"","","","","","image-button-response","70","274041","0.0-2.0-4.0-1.8","62ef8372cd41d2893d237b6b","C3","batch3","spm_respsonse","7700.300000011921","img/question_3_9.jpeg","6","mat_33","7","1","1","7700.300000011921","","","","","","","","","","","","","","","","","","","","",""
"","","","","","html-keyboard-response","71","275093","0.0-2.0-4.0-0.9","62ef8372cd41d2893d237b6b","C3","batch3","spm_show_trial_num","null","<p class=block-text>Trial 34 out of 60</p>","null","","","","","","","","","","","","","","","","","","","","","","","","","",""
"","","","","","image-button-response","72","284506","0.0-2.0-4.0-1.9","62ef8372cd41d2893d237b6b","C3","batch3","spm_respsonse","9411.699999988079","img/question_3_10.jpeg","7","mat_34","6","0","0","9411.699999988079","","","","","","","","","","","","","","","","","","","","",""
"","","","","","html-keyboard-response","73","285559","0.0-2.0-4.0-0.10","62ef8372cd41d2893d237b6b","C3","batch3","spm_show_trial_num","null","<p class=block-text>Trial 35 out of 60</p>","null","","","","","","","","","","","","","","","","","","","","","","","","","",""
"","","","","","image-button-response","74","302209","0.0-2.0-4.0-1.10","62ef8372cd41d2893d237b6b","C3","batch3","spm_respsonse","16648.69999998808","img/question_3_11.jpeg","0","mat_35","1","1","1","16648.69999998808","","","","","","","","","","","","","","","","","","","","",""
"","","","","","html-keyboard-response","75","303266","0.0-2.0-4.0-0.11","62ef8372cd41d2893d237b6b","C3","batch3","spm_show_trial_num","null","<p class=block-text>Trial 36 out of 60</p>","null","","","","","","","","","","","","","","","","","","","","","","","","","",""
"","","","","","image-button-response","76","311032","0.0-2.0-4.0-1.11","62ef8372cd41d2893d237b6b","C3","batch3","spm_respsonse","7764.399999976158","img/question_3_12.jpeg","4","mat_36","2","0","0","7764.399999976158","","","","","","","","","","","","","","","","","","","","",""
"","","","","","html-keyboard-response","77","312096","0.0-2.0-4.0-0.12","62ef8372cd41d2893d237b6b","C3","batch3","spm_show_trial_num","null","<p class=block-text>Trial 37 out of 60</p>","null","","","","","","","","","","","","","","","","","","","","","","","","","",""
"","","","","","image-button-response","78","317797","0.0-2.0-4.0-1.12","62ef8372cd41d2893d237b6b","C3","batch3","spm_respsonse","5699.5","img/question_4_1.jpeg","2","mat_37","3","1","1","5699.5","","","","","","","","","","","","","","","","","","","","",""
"","","","","","html-keyboard-response","79","318853","0.0-2.0-4.0-0.13","62ef8372cd41d2893d237b6b","C3","batch3","spm_show_trial_num","null","<p class=block-text>Trial 38 out of 60</p>","null","","","","","","","","","","","","","","","","","","","","","","","","","",""
"","","","","","image-button-response","80","337157","0.0-2.0-4.0-1.13","62ef8372cd41d2893d237b6b","C3","batch3","spm_respsonse","18303","img/question_4_2.jpeg","3","mat_38","4","1","1","18303","","","","","","","","","","","","","","","","","","","","",""
"","","","","","html-keyboard-response","81","338229","0.0-2.0-4.0-0.14","62ef8372cd41d2893d237b6b","C3","batch3","spm_show_trial_num","null","<p class=block-text>Trial 39 out of 60</p>","null","","","","","","","","","","","","","","","","","","","","","","","","","",""
"","","","","","image-button-response","82","343025","0.0-2.0-4.0-1.14","62ef8372cd41d2893d237b6b","C3","batch3","spm_respsonse","4795.099999964237","img/question_4_3.jpeg","3","mat_39","3","0","0","4795.099999964237","","","","","","","","","","","","","","","","","","","","",""
"","","","","","html-keyboard-response","83","344091","0.0-2.0-4.0-0.15","62ef8372cd41d2893d237b6b","C3","batch3","spm_show_trial_num","null","<p class=block-text>Trial 40 out of 60</p>","null","","","","","","","","","","","","","","","","","","","","","","","","","",""
"","","","","","image-button-response","84","351745","0.0-2.0-4.0-1.15","62ef8372cd41d2893d237b6b","C3","batch3","spm_respsonse","7652.399999976158","img/question_4_4.jpeg","5","mat_40","7","0","0","7652.399999976158","","","","","","","","","","","","","","","","","","","","",""
"","","","","","html-keyboard-response","85","352797","0.0-2.0-4.0-0.16","62ef8372cd41d2893d237b6b","C3","batch3","spm_show_trial_num","null","<p class=block-text>Trial 41 out of 60</p>","null","","","","","","","","","","","","","","","","","","","","","","","","","",""
"","","","","","image-button-response","86","360415","0.0-2.0-4.0-1.16","62ef8372cd41d2893d237b6b","C3","batch3","spm_respsonse","7616.799999952316","img/question_4_5.jpeg","7","mat_41","8","1","1","7616.799999952316","","","","","","","","","","","","","","","","","","","","",""
"","","","","","html-keyboard-response","87","361466","0.0-2.0-4.0-0.17","62ef8372cd41d2893d237b6b","C3","batch3","spm_show_trial_num","null","<p class=block-text>Trial 42 out of 60</p>","null","","","","","","","","","","","","","","","","","","","","","","","","","",""
"","","","","","image-button-response","88","369952","0.0-2.0-4.0-1.17","62ef8372cd41d2893d237b6b","C3","batch3","spm_respsonse","8484.600000023842","img/question_4_6.jpeg","5","mat_42","6","1","1","8484.600000023842","","","","","","","","","","","","","","","","","","","","",""
"","","","","","html-keyboard-response","89","371021","0.0-2.0-4.0-0.18","62ef8372cd41d2893d237b6b","C3","batch3","spm_show_trial_num","null","<p class=block-text>Trial 43 out of 60</p>","null","","","","","","","","","","","","","","","","","","","","","","","","","",""
"","","","","","image-button-response","90","386662","0.0-2.0-4.0-1.18","62ef8372cd41d2893d237b6b","C3","batch3","spm_respsonse","15639.300000011921","img/question_4_7.jpeg","4","mat_43","5","1","1","15639.300000011921","","","","","","","","","","","","","","","","","","","","",""
"","","","","","html-keyboard-response","91","387718","0.0-2.0-4.0-0.19","62ef8372cd41d2893d237b6b","C3","batch3","spm_show_trial_num","null","<p class=block-text>Trial 44 out of 60</p>","null","","","","","","","","","","","","","","","","","","","","","","","","","",""
"","","","","","image-button-response","92","397244","0.0-2.0-4.0-1.19","62ef8372cd41d2893d237b6b","C3","batch3","spm_respsonse","9525.199999988079","img/question_4_8.jpeg","0","mat_44","4","0","0","9525.199999988079","","","","","","","","","","","","","","","","","","","","",""
"","","","","","html-keyboard-response","93","398308","0.0-2.0-4.0-0.20","62ef8372cd41d2893d237b6b","C3","batch3","spm_show_trial_num","null","<p class=block-text>Trial 45 out of 60</p>","null","","","","","","","","","","","","","","","","","","","","","","","","","",""
"","","","","","image-button-response","94","406871","0.0-2.0-4.0-1.20","62ef8372cd41d2893d237b6b","C3","batch3","spm_respsonse","8561.699999988079","img/question_4_9.jpeg","7","mat_45","1","0","0","8561.699999988079","","","","","","","","","","","","","","","","","","","","",""
"","","","","","html-keyboard-response","95","407927","0.0-2.0-4.0-0.21","62ef8372cd41d2893d237b6b","C3","batch3","spm_show_trial_num","null","<p class=block-text>Trial 46 out of 60</p>","null","","","","","","","","","","","","","","","","","","","","","","","","","",""
"","","","","","image-button-response","96","412531","0.0-2.0-4.0-1.21","62ef8372cd41d2893d237b6b","C3","batch3","spm_respsonse","4602.900000035763","img/question_4_10.jpeg","1","mat_46","2","1","1","4602.900000035763","","","","","","","","","","","","","","","","","","","","",""
"","","","","","html-keyboard-response","97","413593","0.0-2.0-4.0-0.22","62ef8372cd41d2893d237b6b","C3","batch3","spm_show_trial_num","null","<p class=block-text>Trial 47 out of 60</p>","null","","","","","","","","","","","","","","","","","","","","","","","","","",""
"","","","","","image-button-response","98","423369","0.0-2.0-4.0-1.22","62ef8372cd41d2893d237b6b","C3","batch3","spm_respsonse","9774.100000023842","img/question_4_11.jpeg","5","mat_47","5","0","0","9774.100000023842","","","","","","","","","","","","","","","","","","","","",""
"","","","","","html-keyboard-response","99","424423","0.0-2.0-4.0-0.23","62ef8372cd41d2893d237b6b","C3","batch3","spm_show_trial_num","null","<p class=block-text>Trial 48 out of 60</p>","null","","","","","","","","","","","","","","","","","","","","","","","","","",""
"","","","","","image-button-response","100","429089","0.0-2.0-4.0-1.23","62ef8372cd41d2893d237b6b","C3","batch3","spm_respsonse","4663.600000023842","img/question_4_12.jpeg","0","mat_48","6","0","0","4663.600000023842","","","","","","","","","","","","","","","","","","","","",""
"","","","","","html-keyboard-response","101","430141","0.0-2.0-4.0-0.24","62ef8372cd41d2893d237b6b","C3","batch3","spm_show_trial_num","null","<p class=block-text>Trial 49 out of 60</p>","null","","","","","","","","","","","","","","","","","","","","","","","","","",""
"","","","","","image-button-response","102","446630","0.0-2.0-4.0-1.24","62ef8372cd41d2893d237b6b","C3","batch3","spm_respsonse","16487.5","img/question_5_1.jpeg","6","mat_49","7","1","1","16487.5","","","","","","","","","","","","","","","","","","","","",""
"","","","","","html-keyboard-response","103","447690","0.0-2.0-4.0-0.25","62ef8372cd41d2893d237b6b","C3","batch3","spm_show_trial_num","null","<p class=block-text>Trial 50 out of 60</p>","null","","","","","","","","","","","","","","","","","","","","","","","","","",""
"","","","","","image-button-response","104","456046","0.0-2.0-4.0-1.25","62ef8372cd41d2893d237b6b","C3","batch3","spm_respsonse","8355","img/question_5_2.jpeg","0","mat_50","6","0","0","8355","","","","","","","","","","","","","","","","","","","","",""
"","","","","","html-keyboard-response","105","457100","0.0-2.0-4.0-0.26","62ef8372cd41d2893d237b6b","C3","batch3","spm_show_trial_num","null","<p class=block-text>Trial 51 out of 60</p>","null","","","","","","","","","","","","","","","","","","","","","","","","","",""
"","","","","","image-button-response","106","464831","0.0-2.0-4.0-1.26","62ef8372cd41d2893d237b6b","C3","batch3","spm_respsonse","7729.800000011921","img/question_5_3.jpeg","7","mat_51","8","1","1","7729.800000011921","","","","","","","","","","","","","","","","","","","","",""
"","","","","","html-keyboard-response","107","465892","0.0-2.0-4.0-0.27","62ef8372cd41d2893d237b6b","C3","batch3","spm_show_trial_num","null","<p class=block-text>Trial 52 out of 60</p>","null","","","","","","","","","","","","","","","","","","","","","","","","","",""
"","","","","","image-button-response","108","468448","0.0-2.0-4.0-1.27","62ef8372cd41d2893d237b6b","C3","batch3","spm_respsonse","2554.2000000476837","img/question_5_4.jpeg","4","mat_52","2","0","0","2554.2000000476837","","","","","","","","","","","","","","","","","","","","",""
"","","","","","html-keyboard-response","109","469510","0.0-2.0-4.0-0.28","62ef8372cd41d2893d237b6b","C3","batch3","spm_show_trial_num","null","<p class=block-text>Trial 53 out of 60</p>","null","","","","","","","","","","","","","","","","","","","","","","","","","",""
"","","","","","image-button-response","110","475174","0.0-2.0-4.0-1.28","62ef8372cd41d2893d237b6b","C3","batch3","spm_respsonse","5663.100000023842","img/question_5_5.jpeg","0","mat_53","1","1","1","5663.100000023842","","","","","","","","","","","","","","","","","","","","",""
"","","","","","html-keyboard-response","111","476228","0.0-2.0-4.0-0.29","62ef8372cd41d2893d237b6b","C3","batch3","spm_show_trial_num","null","<p class=block-text>Trial 54 out of 60</p>","null","","","","","","","","","","","","","","","","","","","","","","","","","",""
"","","","","","image-button-response","112","478436","0.0-2.0-4.0-1.29","62ef8372cd41d2893d237b6b","C3","batch3","spm_respsonse","2207","img/question_5_6.jpeg","2","mat_54","5","0","0","2207","","","","","","","","","","","","","","","","","","","","",""
"","","","","","html-keyboard-response","113","479502","0.0-2.0-4.0-0.30","62ef8372cd41d2893d237b6b","C3","batch3","spm_show_trial_num","null","<p class=block-text>Trial 55 out of 60</p>","null","","","","","","","","","","","","","","","","","","","","","","","","","",""
"","","","","","image-button-response","114","484269","0.0-2.0-4.0-1.30","62ef8372cd41d2893d237b6b","C3","batch3","spm_respsonse","4766.100000023842","img/question_5_7.jpeg","4","mat_55","1","0","0","4766.100000023842","","","","","","","","","","","","","","","","","","","","",""
"","","","","","html-keyboard-response","115","485328","0.0-2.0-4.0-0.31","62ef8372cd41d2893d237b6b","C3","batch3","spm_show_trial_num","null","<p class=block-text>Trial 56 out of 60</p>","null","","","","","","","","","","","","","","","","","","","","","","","","","",""
"","","","","","image-button-response","116","491737","0.0-2.0-4.0-1.31","62ef8372cd41d2893d237b6b","C3","batch3","spm_respsonse","6408.100000023842","img/question_5_8.jpeg","1","mat_56","6","0","0","6408.100000023842","","","","","","","","","","","","","","","","","","","","",""
"","","","","","html-keyboard-response","117","492789","0.0-2.0-4.0-0.32","62ef8372cd41d2893d237b6b","C3","batch3","spm_show_trial_num","null","<p class=block-text>Trial 57 out of 60</p>","null","","","","","","","","","","","","","","","","","","","","","","","","","",""
"","","","","","image-button-response","118","494478","0.0-2.0-4.0-1.32","62ef8372cd41d2893d237b6b","C3","batch3","spm_respsonse","1687.1000000238419","img/question_5_9.jpeg","4","mat_57","3","0","0","1687.1000000238419","","","","","","","","","","","","","","","","","","","","",""
"","","","","","html-keyboard-response","119","495529","0.0-2.0-4.0-0.33","62ef8372cd41d2893d237b6b","C3","batch3","spm_show_trial_num","null","<p class=block-text>Trial 58 out of 60</p>","null","","","","","","","","","","","","","","","","","","","","","","","","","",""
"","","","","","image-button-response","120","499373","0.0-2.0-4.0-1.33","62ef8372cd41d2893d237b6b","C3","batch3","spm_respsonse","3842.699999988079","img/question_5_10.jpeg","6","mat_58","2","0","0","3842.699999988079","","","","","","","","","","","","","","","","","","","","",""
"","","","","","html-keyboard-response","121","500437","0.0-2.0-4.0-0.34","62ef8372cd41d2893d237b6b","C3","batch3","spm_show_trial_num","null","<p class=block-text>Trial 59 out of 60</p>","null","","","","","","","","","","","","","","","","","","","","","","","","","",""
"","","","","","image-button-response","122","502151","0.0-2.0-4.0-1.34","62ef8372cd41d2893d237b6b","C3","batch3","spm_respsonse","1712.300000011921","img/question_5_11.jpeg","5","mat_59","4","0","0","1712.300000011921","","","","","","","","","","","","","","","","","","","","",""
"","","","","","html-keyboard-response","123","503203","0.0-2.0-4.0-0.35","62ef8372cd41d2893d237b6b","C3","batch3","spm_show_trial_num","null","<p class=block-text>Trial 60 out of 60</p>","null","","","","","","","","","","","","","","","","","","","","","","","","","",""
"","","","","","image-button-response","124","506280","0.0-2.0-4.0-1.35","62ef8372cd41d2893d237b6b","C3","batch3","spm_respsonse","3075.800000011921","img/question_5_12.jpeg","3","mat_60","5","0","0","3075.800000011921","","","","","","","","","","","","","","","","","","","","",""
"","","","","","html-button-response","125","508576","0.0-2.0-5.0","62ef8372cd41d2893d237b6b","C3","batch3","spm_goodbye","2039","<p class= block-text>This concludes the Standard Progressive Matrix game. Thank you for your responses!<br> When you are ready, click the button continue</p>","0","","","","","","","","","","","","","","","","","","","","","","","","","",""
"true","","","","","fullscreen","126","510708","0.0-3.0-0.0","62ef8372cd41d2893d237b6b","C3","batch3","","","","","","","","","","","","","","","","","","","","","","","","","","","","","",""
"","","","","","instructions","127","557107","0.0-3.0-1.0-0.0-0.0","62ef8372cd41d2893d237b6b","C3","batch3","tol-instructions","46397.80000001192","","","","","","","","[{""page_index"":0,""viewing_time"":4343.300000011921},{""page_index"":1,""viewing_time"":2787.5},{""page_index"":2,""viewing_time"":2055.5},{""page_index"":3,""viewing_time"":4440},{""page_index"":4,""viewing_time"":11500},{""page_index"":5,""viewing_time"":5954.400000035763},{""page_index"":6,""viewing_time"":15316.799999952316}]","","","","","","","","","","","","","","","","","","","",""
"","","","","","html-button-response","128","587751","0.0-3.0-1.0-1.0-0.0","62ef8372cd41d2893d237b6b","C3","batch3","tol_enter_quiz","30643.399999976158","<p class=block-text> Let's answer a few questions <br>","0","","","","","","","","","","","","","","","","","","","","","","","","","",""
"","","","","","html-button-response","129","600919","0.0-3.0-1.0-1.0-1.0","62ef8372cd41d2893d237b6b","C3","batch3","tol_quiz","13168.399999976158","<p class = block-text>True or False: You can only move the ball on top of a peg. <br></p>","0","","","true","","","","","","","","","","","","","","","","","","","","","","",""
"","","","","","html-button-response","130","602257","0.0-3.0-1.0-1.0-2.0","62ef8372cd41d2893d237b6b","C3","batch3","tol_quiz_feedback","1336.3999999761581","<p class = block-text>Correct! You can only move the ball on top of a peg.</p>","0","","","","","","","","","","","","","","","","","","","","","","","","","",""
"","","","","","html-button-response","131","607160","0.0-3.0-1.0-1.0-3.0","62ef8372cd41d2893d237b6b","C3","batch3","tol_quiz","4902.5","<p class = block-text>True or False: You should try to match your board with the target board with fewest moves possible. <br></p>","0","","","true","","","","","","","","","","","","","","","","","","","","","","",""
"","","","","","html-button-response","132","607840","0.0-3.0-1.0-1.0-4.0","62ef8372cd41d2893d237b6b","C3","batch3","tol_quiz_feedback","679","<p class = block-text>Correct! </p>","0","","","","","","","","","","","","","","","","","","","","","","","","","",""
"","","","","","html-button-response","133","608971","0.0-3.0-2.0","62ef8372cd41d2893d237b6b","C3","batch3","","1130.5","<p class=block-text> Now that you've understood the game, let's practice a few easier examples before we start!<br> <br>","0","","","","","","","","","","","","","","","","","","","","","","","","","",""
"","","","","","single-stim-button","134","618206","0.0-3.0-3.0-0.0","62ef8372cd41d2893d237b6b","C3","batch3","tol_practice","9233","","","","","","","","","tol_peg_2","9233","9233","0","[[1,2,0],[0,0],[0]]","1","[[1,2,0],[0,0],[3]]","practice","9233","","","","","","","","","","",""
"","","","","","single-stim-button","135","619145","0.0-3.0-3.0-1.0","62ef8372cd41d2893d237b6b","C3","batch3","tol_practice","938","","","","","","","","","tol_peg_3","938","938","0","[[1,2,0],[0,0],[3]]","1","[[1,2,0],[0,0],[3]]","practice","938","","","","","","","","","","",""
"","","","","","poldrack-single-stim","136","620149","0.0-3.0-4.0","62ef8372cd41d2893d237b6b","C3","batch3","tol_feedback","-1","","","","","true","","","","","1000","1000","500","","","","","","-1","none","true","","0","","","","","",""
"","","","","","single-stim-button","137","658281","0.0-3.0-5.0-0.0","62ef8372cd41d2893d237b6b","C3","batch3","tol_practice","38132","","","","","","","","","tol_peg_1","38132","38132","0","[[1,0,0],[3,0],[0]]","2","[[0,0,0],[3,1],[2]]","practice","38132","","","","","","","","","","",""
"","","","","","single-stim-button","138","659486","0.0-3.0-5.0-1.0","62ef8372cd41d2893d237b6b","C3","batch3","tol_practice","1204","","","","","","","","","tol_peg_3","1204","1204","0","[[1,0,0],[3,0],[2]]","2","[[0,0,0],[3,1],[2]]","practice","1204","","","","","","","","","","",""
"","","","","","single-stim-button","139","660102","0.0-3.0-5.1-0.1","62ef8372cd41d2893d237b6b","C3","batch3","tol_practice","615","","","","","","","","","tol_peg_1","615","615","0","[[0,0,0],[3,0],[2]]","3","[[0,0,0],[3,1],[2]]","practice","615","","","","","","","","","","",""
"","","","","","single-stim-button","140","660629","0.0-3.0-5.1-1.1","62ef8372cd41d2893d237b6b","C3","batch3","tol_practice","526","","","","","","","","","tol_peg_2","526","526","0","[[0,0,0],[3,1],[2]]","3","[[0,0,0],[3,1],[2]]","practice","526","","","","","","","","","","",""
"","","","","","poldrack-single-stim","141","661640","0.0-3.0-6.0","62ef8372cd41d2893d237b6b","C3","batch3","tol_feedback","-1","","","","","true","","","","","1000","1000","500","","","","","","-1","none","true","","0","","","","","",""
"","","","","","single-stim-button","142","665083","0.0-3.0-7.0-0.0","62ef8372cd41d2893d237b6b","C3","batch3","tol_practice","3443","","","","","","","","","tol_peg_2","3443","3443","0","[[1,2,0],[0,0],[0]]","4","[[1,0,0],[2,0],[3]]","practice","3443","","","","","","","","","","",""
"","","","","","single-stim-button","143","665557","0.0-3.0-7.0-1.0","62ef8372cd41d2893d237b6b","C3","batch3","tol_practice","474","","","","","","","","","tol_peg_3","474","474","0","[[1,2,0],[0,0],[3]]","4","[[1,0,0],[2,0],[3]]","practice","474","","","","","","","","","","",""
"","","","","","single-stim-button","144","666101","0.0-3.0-7.1-0.1","62ef8372cd41d2893d237b6b","C3","batch3","tol_practice","544","","","","","","","","","tol_peg_1","544","544","0","[[1,0,0],[0,0],[3]]","5","[[1,0,0],[2,0],[3]]","practice","544","","","","","","","","","","",""
"","","","","","single-stim-button","145","666784","0.0-3.0-7.1-1.1","62ef8372cd41d2893d237b6b","C3","batch3","tol_practice","681","","","","","","","","","tol_peg_2","681","681","0","[[1,0,0],[2,0],[3]]","5","[[1,0,0],[2,0],[3]]","practice","681","","","","","","","","","","",""
"","","","","","poldrack-single-stim","146","667794","0.0-3.0-8.0","62ef8372cd41d2893d237b6b","C3","batch3","tol_feedback","-1","","","","","true","","","","","1000","1000","500","","","","","","-1","none","true","","0","","","","","",""
"","","","","","html-button-response","147","725697","0.0-3.0-9.0","62ef8372cd41d2893d237b6b","C3","batch3","tol_instruction","57902.799999952316","<div class = centerbox><p class = center-block-text>Great job! You are done with practice trials<br>You are about to start official trials.<br> <br> Problem <strong>1</strong> out of 25 problems</p></div>","0","","","","","","","","","","","","","","","","","","","","","","","","","",""
"","","","","","single-stim-button","148","730066","0.0-3.0-10.0-0.0","62ef8372cd41d2893d237b6b","C3","batch3","tol_tohand","3368","","","","","","","","","tol_peg_2","3368","3368","0","[[1,2,0],[0,0],[0]]","1","[[1,3,0],[2,0],[0]]","0","0","","","","","","3","","","","",""
"","","","","","single-stim-button","149","730646","0.0-3.0-10.0-1.0","62ef8372cd41d2893d237b6b","C3","batch3","tol_toboard","580","","","","","","","","","tol_peg_3","580","580","0","[[1,2,0],[0,0],[3]]","1","[[1,3,0],[2,0],[0]]","0","0","","","","","","3","","","","",""
"","","","","","single-stim-button","150","731135","0.0-3.0-10.1-0.1","62ef8372cd41d2893d237b6b","C3","batch3","tol_tohand","489","","","","","","","","","tol_peg_1","489","489","0","[[1,0,0],[0,0],[3]]","2","[[1,3,0],[2,0],[0]]","0","0","","","","","","3","","","","",""
"","","","","","single-stim-button","151","731841","0.0-3.0-10.1-1.1","62ef8372cd41d2893d237b6b","C3","batch3","tol_toboard","705","","","","","","","","","tol_peg_2","705","705","0","[[1,0,0],[2,0],[3]]","2","[[1,3,0],[2,0],[0]]","0","0","","","","","","3","","","","",""
"","","","","","single-stim-button","152","732250","0.0-3.0-10.2-0.2","62ef8372cd41d2893d237b6b","C3","batch3","tol_tohand","409","","","","","","","","","tol_peg_3","409","409","0","[[1,0,0],[2,0],[0]]","3","[[1,3,0],[2,0],[0]]","0","0","","","","","","3","","","","",""
"","","","","","single-stim-button","153","732847","0.0-3.0-10.2-1.2","62ef8372cd41d2893d237b6b","C3","batch3","tol_toboard","597","","","","","","","","","tol_peg_1","597","597","0","[[1,3,0],[2,0],[0]]","3","[[1,3,0],[2,0],[0]]","0","0","","","","","","3","","","","",""
"","","","","","poldrack-single-stim","154","733848","0.0-3.0-11.0","62ef8372cd41d2893d237b6b","C3","batch3","tol_feedback","-1","","","","","true","","","","","1000","1000","500","","","","","","-1","none","true","3368","4266","","","","","",""
"","","","","","html-button-response","155","734928","0.0-3.0-12.0","62ef8372cd41d2893d237b6b","C3","batch3","tol_trial_num","1078.5999999642372","<div class = centerbox><p class = center-block-text>problem <strong>2</strong> out of 25 problems</p></div>","0","","","","","","","","","","","","","","","","","","","","","","","","","",""
"","","","","","single-stim-button","156","739908","0.0-3.0-13.0-0.0","62ef8372cd41d2893d237b6b","C3","batch3","tol_tohand","4980","","","","","","","","","tol_peg_1","4980","4980","0","[[1,0,0],[3,0],[0]]","1","[[2,1,3],[0,0],[0]]","1","0","","","","","","5","","","","",""
"","","","","","single-stim-button","157","740546","0.0-3.0-13.0-1.0","62ef8372cd41d2893d237b6b","C3","batch3","tol_toboard","637","","","","","","","","","tol_peg_3","637","637","0","[[1,0,0],[3,0],[2]]","1","[[2,1,3],[0,0],[0]]","1","0","","","","","","5","","","","",""
"","","","","","single-stim-button","158","741141","0.0-3.0-13.1-0.1","62ef8372cd41d2893d237b6b","C3","batch3","tol_tohand","595","","","","","","","","","tol_peg_1","595","595","0","[[0,0,0],[3,0],[2]]","2","[[2,1,3],[0,0],[0]]","1","0","","","","","","5","","","","",""
"","","","","","single-stim-button","159","741588","0.0-3.0-13.1-1.1","62ef8372cd41d2893d237b6b","C3","batch3","tol_toboard","447","","","","","","","","","tol_peg_2","447","447","0","[[0,0,0],[3,1],[2]]","2","[[2,1,3],[0,0],[0]]","1","0","","","","","","5","","","","",""
"","","","","","single-stim-button","160","742148","0.0-3.0-13.2-0.2","62ef8372cd41d2893d237b6b","C3","batch3","tol_tohand","560","","","","","","","","","tol_peg_3","560","560","0","[[0,0,0],[3,1],[0]]","3","[[2,1,3],[0,0],[0]]","1","0","","","","","","5","","","","",""
"","","","","","single-stim-button","161","742715","0.0-3.0-13.2-1.2","62ef8372cd41d2893d237b6b","C3","batch3","tol_toboard","567","","","","","","","","","tol_peg_1","567","567","0","[[2,0,0],[3,1],[0]]","3","[[2,1,3],[0,0],[0]]","1","0","","","","","","5","","","","",""
"","","","","","single-stim-button","162","743325","0.0-3.0-13.3-0.3","62ef8372cd41d2893d237b6b","C3","batch3","tol_tohand","609","","","","","","","","","tol_peg_2","609","609","0","[[2,0,0],[3,0],[0]]","4","[[2,1,3],[0,0],[0]]","1","0","","","","","","5","","","","",""
"","","","","","single-stim-button","163","743699","0.0-3.0-13.3-1.3","62ef8372cd41d2893d237b6b","C3","batch3","tol_toboard","373","","","","","","","","","tol_peg_1","373","373","0","[[2,1,0],[3,0],[0]]","4","[[2,1,3],[0,0],[0]]","1","0","","","","","","5","","","","",""
"","","","","","single-stim-button","164","744268","0.0-3.0-13.4-0.4","62ef8372cd41d2893d237b6b","C3","batch3","tol_tohand","569","","","","","","","","","tol_peg_2","569","569","0","[[2,1,0],[0,0],[0]]","5","[[2,1,3],[0,0],[0]]","1","0","","","","","","5","","","","",""
"","","","","","single-stim-button","165","744575","0.0-3.0-13.4-1.4","62ef8372cd41d2893d237b6b","C3","batch3","tol_toboard","307","","","","","","","","","tol_peg_1","307","307","0","[[2,1,3],[0,0],[0]]","5","[[2,1,3],[0,0],[0]]","1","0","","","","","","5","","","","",""
"","","","","","poldrack-single-stim","166","745586","0.0-3.0-14.0","62ef8372cd41d2893d237b6b","C3","batch3","tol_feedback","-1","","","","","true","","","","","1000","1000","500","","","","","","-1","none","true","4980","7313","","","","","",""
"","","","","","html-button-response","167","747415","0.0-3.0-15.0","62ef8372cd41d2893d237b6b","C3","batch3","tol_trial_num","1828.6000000238419","<div class = centerbox><p class = center-block-text>problem <strong>3</strong> out of 25 problems</p></div>","0","","","","","","","","","","","","","","","","","","","","","","","","","",""
"","","","","","single-stim-button","168","749951","0.0-3.0-16.0-0.0","62ef8372cd41d2893d237b6b","C3","batch3","tol_tohand","2536","","","","","","","","","tol_peg_1","2536","2536","0","[[2,0,0],[0,0],[1]]","1","[[1,2,0],[3,0],[0]]","2","0","","","","","","4","","","","",""
"","","","","","single-stim-button","169","752371","0.0-3.0-16.0-1.0","62ef8372cd41d2893d237b6b","C3","batch3","tol_toboard","2420","","","","","","","","","tol_peg_2","2420","2420","0","[[2,0,0],[3,0],[1]]","1","[[1,2,0],[3,0],[0]]","2","0","","","","","","4","","","","",""
"","","","","","single-stim-button","170","752974","0.0-3.0-16.1-0.1","62ef8372cd41d2893d237b6b","C3","batch3","tol_tohand","603","","","","","","","","","tol_peg_1","603","603","0","[[0,0,0],[3,0],[1]]","2","[[1,2,0],[3,0],[0]]","2","0","","","","","","4","","","","",""
"","","","","","single-stim-button","171","753450","0.0-3.0-16.1-1.1","62ef8372cd41d2893d237b6b","C3","batch3","tol_toboard","475","","","","","","","","","tol_peg_2","475","475","0","[[0,0,0],[3,2],[1]]","2","[[1,2,0],[3,0],[0]]","2","0","","","","","","4","","","","",""
"","","","","","single-stim-button","172","753893","0.0-3.0-16.2-0.2","62ef8372cd41d2893d237b6b","C3","batch3","tol_tohand","443","","","","","","","","","tol_peg_3","443","443","0","[[0,0,0],[3,2],[0]]","3","[[1,2,0],[3,0],[0]]","2","0","","","","","","4","","","","",""
"","","","","","single-stim-button","173","754458","0.0-3.0-16.2-1.2","62ef8372cd41d2893d237b6b","C3","batch3","tol_toboard","565","","","","","","","","","tol_peg_1","565","565","0","[[1,0,0],[3,2],[0]]","3","[[1,2,0],[3,0],[0]]","2","0","","","","","","4","","","","",""
"","","","","","single-stim-button","174","755017","0.0-3.0-16.3-0.3","62ef8372cd41d2893d237b6b","C3","batch3","tol_tohand","558","","","","","","","","","tol_peg_2","558","558","0","[[1,0,0],[3,0],[0]]","4","[[1,2,0],[3,0],[0]]","2","0","","","","","","4","","","","",""
"","","","","","single-stim-button","175","755778","0.0-3.0-16.3-1.3","62ef8372cd41d2893d237b6b","C3","batch3","tol_toboard","761","","","","","","","","","tol_peg_1","761","761","0","[[1,2,0],[3,0],[0]]","4","[[1,2,0],[3,0],[0]]","2","0","","","","","","4","","","","",""
"","","","","","poldrack-single-stim","176","756782","0.0-3.0-17.0","62ef8372cd41d2893d237b6b","C3","batch3","tol_feedback","-1","","","","","true","","","","","1000","1000","500","","","","","","-1","none","true","2536","4140","","","","","",""
"","","","","","html-button-response","177","757557","0.0-3.0-18.0","62ef8372cd41d2893d237b6b","C3","batch3","tol_trial_num","774.5","<div class = centerbox><p class = center-block-text>problem <strong>4</strong> out of 25 problems</p></div>","0","","","","","","","","","","","","","","","","","","","","","","","","","",""
"","","","","","single-stim-button","178","760090","0.0-3.0-19.0-0.0","62ef8372cd41d2893d237b6b","C3","batch3","tol_tohand","2532","","","","","","","","","tol_peg_2","2532","2532","0","[[3,0,0],[2,0],[0]]","1","[[3,0,0],[1,0],[2]]","3","0","","","","","","3","","","","",""
"","","","","","single-stim-button","179","760710","0.0-3.0-19.0-1.0","62ef8372cd41d2893d237b6b","C3","batch3","tol_toboard","620","","","","","","","","","tol_peg_1","620","620","0","[[3,1,0],[2,0],[0]]","1","[[3,0,0],[1,0],[2]]","3","0","","","","","","3","","","","",""
"","","","","","single-stim-button","180","761143","0.0-3.0-19.1-0.1","62ef8372cd41d2893d237b6b","C3","batch3","tol_tohand","433","","","","","","","","","tol_peg_2","433","433","0","[[3,1,0],[0,0],[0]]","2","[[3,0,0],[1,0],[2]]","3","0","","","","","","3","","","","",""
"","","","","","single-stim-button","181","761942","0.0-3.0-19.1-1.1","62ef8372cd41d2893d237b6b","C3","batch3","tol_toboard","798","","","","","","","","","tol_peg_3","798","798","0","[[3,1,0],[0,0],[2]]","2","[[3,0,0],[1,0],[2]]","3","0","","","","","","3","","","","",""
"","","","","","single-stim-button","182","762504","0.0-3.0-19.2-0.2","62ef8372cd41d2893d237b6b","C3","batch3","tol_tohand","562","","","","","","","","","tol_peg_1","562","562","0","[[3,0,0],[0,0],[2]]","3","[[3,0,0],[1,0],[2]]","3","0","","","","","","3","","","","",""
"","","","","","single-stim-button","183","762922","0.0-3.0-19.2-1.2","62ef8372cd41d2893d237b6b","C3","batch3","tol_toboard","418","","","","","","","","","tol_peg_2","418","418","0","[[3,0,0],[1,0],[2]]","3","[[3,0,0],[1,0],[2]]","3","0","","","","","","3","","","","",""
"","","","","","poldrack-single-stim","184","763924","0.0-3.0-20.0","62ef8372cd41d2893d237b6b","C3","batch3","tol_feedback","-1","","","","","true","","","","","1000","1000","500","","","","","","-1","none","true","2532","3527","","","","","",""
"","","","","","html-button-response","185","765047","0.0-3.0-21.0","62ef8372cd41d2893d237b6b","C3","batch3","tol_trial_num","1122.7000000476837","<div class = centerbox><p class = center-block-text>problem <strong>5</strong> out of 25 problems</p></div>","0","","","","","","","","","","","","","","","","","","","","","","","","","",""
"","","","","","single-stim-button","186","771222","0.0-3.0-22.0-0.0","62ef8372cd41d2893d237b6b","C3","batch3","tol_tohand","6175","","","","","","","","","tol_peg_2","6175","6175","0","[[1,0,0],[0,0],[3]]","1","[[0,0,0],[1,2],[3]]","4","0","","","","","","7","","","","",""
"","","","","","single-stim-button","187","775610","0.0-3.0-22.0-1.0","62ef8372cd41d2893d237b6b","C3","batch3","tol_toboard","4387","","","","","","","","","tol_peg_2","4387","4387","0","[[1,0,0],[2,0],[3]]","1","[[0,0,0],[1,2],[3]]","4","0","","","","","","7","","","","",""
"","","","","","single-stim-button","188","776673","0.0-3.0-22.1-0.1","62ef8372cd41d2893d237b6b","C3","batch3","tol_tohand","1063","","","","","","","","","tol_peg_3","1063","1063","0","[[1,0,0],[2,0],[0]]","2","[[0,0,0],[1,2],[3]]","4","0","","","","","","7","","","","",""
"","","","","","single-stim-button","189","779405","0.0-3.0-22.1-1.1","62ef8372cd41d2893d237b6b","C3","batch3","tol_toboard","2731","","","","","","","","","tol_peg_2","2731","2731","0","[[1,0,0],[2,3],[0]]","2","[[0,0,0],[1,2],[3]]","4","0","","","","","","7","","","","",""
"","","","","","single-stim-button","190","779891","0.0-3.0-22.2-0.2","62ef8372cd41d2893d237b6b","C3","batch3","tol_tohand","485","","","","","","","","","tol_peg_1","485","485","0","[[0,0,0],[2,3],[0]]","3","[[0,0,0],[1,2],[3]]","4","0","","","","","","7","","","","",""
"","","","","","single-stim-button","191","781427","0.0-3.0-22.2-1.2","62ef8372cd41d2893d237b6b","C3","batch3","tol_toboard","1535","","","","","","","","","tol_peg_3","1535","1535","0","[[0,0,0],[2,3],[1]]","3","[[0,0,0],[1,2],[3]]","4","0","","","","","","7","","","","",""
"","","","","","single-stim-button","192","782001","0.0-3.0-22.3-0.3","62ef8372cd41d2893d237b6b","C3","batch3","tol_tohand","574","","","","","","","","","tol_peg_2","574","574","0","[[0,0,0],[2,0],[1]]","4","[[0,0,0],[1,2],[3]]","4","0","","","","","","7","","","","",""
"","","","","","single-stim-button","193","782366","0.0-3.0-22.3-1.3","62ef8372cd41d2893d237b6b","C3","batch3","tol_toboard","364","","","","","","","","","tol_peg_1","364","364","0","[[3,0,0],[2,0],[1]]","4","[[0,0,0],[1,2],[3]]","4","0","","","","","","7","","","","",""
"","","","","","single-stim-button","194","782814","0.0-3.0-22.4-0.4","62ef8372cd41d2893d237b6b","C3","batch3","tol_tohand","448","","","","","","","","","tol_peg_2","448","448","0","[[3,0,0],[0,0],[1]]","5","[[0,0,0],[1,2],[3]]","4","0","","","","","","7","","","","",""
"","","","","","single-stim-button","195","783147","0.0-3.0-22.4-1.4","62ef8372cd41d2893d237b6b","C3","batch3","tol_toboard","333","","","","","","","","","tol_peg_1","333","333","0","[[3,2,0],[0,0],[1]]","5","[[0,0,0],[1,2],[3]]","4","0","","","","","","7","","","","",""
"","","","","","single-stim-button","196","783576","0.0-3.0-22.5-0.5","62ef8372cd41d2893d237b6b","C3","batch3","tol_tohand","429","","","","","","","","","tol_peg_3","429","429","0","[[3,2,0],[0,0],[0]]","6","[[0,0,0],[1,2],[3]]","4","0","","","","","","7","","","","",""
"","","","","","single-stim-button","197","783849","0.0-3.0-22.5-1.5","62ef8372cd41d2893d237b6b","C3","batch3","tol_toboard","272","","","","","","","","","tol_peg_2","272","272","0","[[3,2,0],[1,0],[0]]","6","[[0,0,0],[1,2],[3]]","4","0","","","","","","7","","","","",""
"","","","","","single-stim-button","198","784356","0.0-3.0-22.6-0.6","62ef8372cd41d2893d237b6b","C3","batch3","tol_tohand","507","","","","","","","","","tol_peg_1","507","507","0","[[3,0,0],[1,0],[0]]","7","[[0,0,0],[1,2],[3]]","4","0","","","","","","7","","","","",""
"","","","","","single-stim-button","199","785164","0.0-3.0-22.6-1.6","62ef8372cd41d2893d237b6b","C3","batch3","tol_toboard","808","","","","","","","","","tol_peg_2","808","808","0","[[3,0,0],[1,2],[0]]","7","[[0,0,0],[1,2],[3]]","4","0","","","","","","7","","","","",""
"","","","","","single-stim-button","200","785616","0.0-3.0-22.7-0.7","62ef8372cd41d2893d237b6b","C3","batch3","tol_tohand","452","","","","","","","","","tol_peg_1","452","452","0","[[0,0,0],[1,2],[0]]","8","[[0,0,0],[1,2],[3]]","4","0","","","","","","7","","","","",""
"","","","","","single-stim-button","201","786268","0.0-3.0-22.7-1.7","62ef8372cd41d2893d237b6b","C3","batch3","tol_toboard","652","","","","","","","","","tol_peg_3","652","652","0","[[0,0,0],[1,2],[3]]","8","[[0,0,0],[1,2],[3]]","4","0","","","","","","7","","","","",""
"","","","","","poldrack-single-stim","202","787269","0.0-3.0-23.0","62ef8372cd41d2893d237b6b","C3","batch3","tol_feedback","-1","","","","","true","","","","","1000","1000","500","","","","","","-1","none","true","6175","10133","","","","","",""
"","","","","","html-button-response","203","789166","0.0-3.0-24.0","62ef8372cd41d2893d237b6b","C3","batch3","tol_trial_num","1895.800000011921","<div class = centerbox><p class = center-block-text>problem <strong>6</strong> out of 25 problems</p></div>","0","","","","","","","","","","","","","","","","","","","","","","","","","",""
"","","","","","single-stim-button","204","793400","0.0-3.0-25.0-0.0","62ef8372cd41d2893d237b6b","C3","batch3","tol_tohand","4234","","","","","","","","","tol_peg_2","4234","4234","0","[[0,0,0],[1,0],[3]]","1","[[1,0,0],[2,3],[0]]","5","0","","","","","","6","","","","",""
"","","","","","single-stim-button","205","797838","0.0-3.0-25.0-1.0","62ef8372cd41d2893d237b6b","C3","batch3","tol_toboard","4438","","","","","","","","","tol_peg_2","4438","4438","0","[[0,0,0],[1,2],[3]]","1","[[1,0,0],[2,3],[0]]","5","0","","","","","","6","","","","",""
"","","","","","single-stim-button","206","798752","0.0-3.0-25.1-0.1","62ef8372cd41d2893d237b6b","C3","batch3","tol_tohand","914","","","","","","","","","tol_peg_3","914","914","0","[[0,0,0],[1,2],[0]]","2","[[1,0,0],[2,3],[0]]","5","0","","","","","","6","","","","",""
"","","","","","single-stim-button","207","801679","0.0-3.0-25.1-1.1","62ef8372cd41d2893d237b6b","C3","batch3","tol_toboard","2926","","","","","","","","","tol_peg_1","2926","2926","0","[[3,0,0],[1,2],[0]]","2","[[1,0,0],[2,3],[0]]","5","0","","","","","","6","","","","",""
"","","","","","single-stim-button","208","810637","0.0-3.0-25.2-0.2","62ef8372cd41d2893d237b6b","C3","batch3","tol_tohand","8958","","","","","","","","","tol_peg_2","8958","8958","0","[[3,0,0],[1,0],[0]]","3","[[1,0,0],[2,3],[0]]","5","0","","","","","","6","","","","",""
"","","","","","single-stim-button","209","811096","0.0-3.0-25.2-1.2","62ef8372cd41d2893d237b6b","C3","batch3","tol_toboard","459","","","","","","","","","tol_peg_1","459","459","0","[[3,2,0],[1,0],[0]]","3","[[1,0,0],[2,3],[0]]","5","0","","","","","","6","","","","",""
"","","","","","single-stim-button","210","811491","0.0-3.0-25.3-0.3","62ef8372cd41d2893d237b6b","C3","batch3","tol_tohand","395","","","","","","","","","tol_peg_2","395","395","0","[[3,2,0],[0,0],[0]]","4","[[1,0,0],[2,3],[0]]","5","0","","","","","","6","","","","",""
"","","","","","single-stim-button","211","811926","0.0-3.0-25.3-1.3","62ef8372cd41d2893d237b6b","C3","batch3","tol_toboard","435","","","","","","","","","tol_peg_3","435","435","0","[[3,2,0],[0,0],[1]]","4","[[1,0,0],[2,3],[0]]","5","0","","","","","","6","","","","",""
"","","","","","single-stim-button","212","812929","0.0-3.0-25.4-0.4","62ef8372cd41d2893d237b6b","C3","batch3","tol_tohand","1002","","","","","","","","","tol_peg_1","1002","1002","0","[[3,0,0],[0,0],[1]]","5","[[1,0,0],[2,3],[0]]","5","0","","","","","","6","","","","",""
"","","","","","single-stim-button","213","813499","0.0-3.0-25.4-1.4","62ef8372cd41d2893d237b6b","C3","batch3","tol_toboard","570","","","","","","","","","tol_peg_2","570","570","0","[[3,0,0],[2,0],[1]]","5","[[1,0,0],[2,3],[0]]","5","0","","","","","","6","","","","",""
"","","","","","single-stim-button","214","813846","0.0-3.0-25.5-0.5","62ef8372cd41d2893d237b6b","C3","batch3","tol_tohand","346","","","","","","","","","tol_peg_1","346","346","0","[[0,0,0],[2,0],[1]]","6","[[1,0,0],[2,3],[0]]","5","0","","","","","","6","","","","",""
"","","","","","single-stim-button","215","814292","0.0-3.0-25.5-1.5","62ef8372cd41d2893d237b6b","C3","batch3","tol_toboard","445","","","","","","","","","tol_peg_2","445","445","0","[[0,0,0],[2,3],[1]]","6","[[1,0,0],[2,3],[0]]","5","0","","","","","","6","","","","",""
"","","","","","single-stim-button","216","814741","0.0-3.0-25.6-0.6","62ef8372cd41d2893d237b6b","C3","batch3","tol_tohand","448","","","","","","","","","tol_peg_3","448","448","0","[[0,0,0],[2,3],[0]]","7","[[1,0,0],[2,3],[0]]","5","0","","","","","","6","","","","",""
"","","","","","single-stim-button","217","815297","0.0-3.0-25.6-1.6","62ef8372cd41d2893d237b6b","C3","batch3","tol_toboard","556","","","","","","","","","tol_peg_1","556","556","0","[[1,0,0],[2,3],[0]]","7","[[1,0,0],[2,3],[0]]","5","0","","","","","","6","","","","",""
"","","","","","poldrack-single-stim","218","816304","0.0-3.0-26.0","62ef8372cd41d2893d237b6b","C3","batch3","tol_feedback","-1","","","","","true","","","","","1000","1000","500","","","","","","-1","none","true","4234","16297","","","","","",""
"","","","","","html-button-response","219","817109","0.0-3.0-27.0","62ef8372cd41d2893d237b6b","C3","batch3","tol_trial_num","804.3999999761581","<div class = centerbox><p class = center-block-text>problem <strong>7</strong> out of 25 problems</p></div>","0","","","","","","","","","","","","","","","","","","","","","","","","","",""
"","","","","","single-stim-button","220","821063","0.0-3.0-28.0-0.0","62ef8372cd41d2893d237b6b","C3","batch3","tol_tohand","3953","","","","","","","","","tol_peg_3","3953","3953","0","[[2,1,0],[0,0],[0]]","1","[[1,2,0],[3,0],[0]]","6","0","","","","","","5","","","","",""
"","","","","","single-stim-button","221","821866","0.0-3.0-28.0-1.0","62ef8372cd41d2893d237b6b","C3","batch3","tol_toboard","803","","","","","","","","","tol_peg_2","803","803","0","[[2,1,0],[3,0],[0]]","1","[[1,2,0],[3,0],[0]]","6","0","","","","","","5","","","","",""
"","","","","","single-stim-button","222","822595","0.0-3.0-28.1-0.1","62ef8372cd41d2893d237b6b","C3","batch3","tol_tohand","729","","","","","","","","","tol_peg_1","729","729","0","[[2,0,0],[3,0],[0]]","2","[[1,2,0],[3,0],[0]]","6","0","","","","","","5","","","","",""
"","","","","","single-stim-button","223","824078","0.0-3.0-28.1-1.1","62ef8372cd41d2893d237b6b","C3","batch3","tol_toboard","1483","","","","","","","","","tol_peg_2","1483","1483","0","[[2,0,0],[3,1],[0]]","2","[[1,2,0],[3,0],[0]]","6","0","","","","","","5","","","","",""
"","","","","","single-stim-button","224","824466","0.0-3.0-28.2-0.2","62ef8372cd41d2893d237b6b","C3","batch3","tol_tohand","387","","","","","","","","","tol_peg_1","387","387","0","[[0,0,0],[3,1],[0]]","3","[[1,2,0],[3,0],[0]]","6","0","","","","","","5","","","","",""
"","","","","","single-stim-button","225","824872","0.0-3.0-28.2-1.2","62ef8372cd41d2893d237b6b","C3","batch3","tol_toboard","406","","","","","","","","","tol_peg_3","406","406","0","[[0,0,0],[3,1],[2]]","3","[[1,2,0],[3,0],[0]]","6","0","","","","","","5","","","","",""
"","","","","","single-stim-button","226","825291","0.0-3.0-28.3-0.3","62ef8372cd41d2893d237b6b","C3","batch3","tol_tohand","419","","","","","","","","","tol_peg_2","419","419","0","[[0,0,0],[3,0],[2]]","4","[[1,2,0],[3,0],[0]]","6","0","","","","","","5","","","","",""
"","","","","","single-stim-button","227","825581","0.0-3.0-28.3-1.3","62ef8372cd41d2893d237b6b","C3","batch3","tol_toboard","289","","","","","","","","","tol_peg_1","289","289","0","[[1,0,0],[3,0],[2]]","4","[[1,2,0],[3,0],[0]]","6","0","","","","","","5","","","","",""
"","","","","","single-stim-button","228","825995","0.0-3.0-28.4-0.4","62ef8372cd41d2893d237b6b","C3","batch3","tol_tohand","413","","","","","","","","","tol_peg_3","413","413","0","[[1,0,0],[3,0],[0]]","5","[[1,2,0],[3,0],[0]]","6","0","","","","","","5","","","","",""
"","","","","","single-stim-button","229","826331","0.0-3.0-28.4-1.4","62ef8372cd41d2893d237b6b","C3","batch3","tol_toboard","336","","","","","","","","","tol_peg_1","336","336","0","[[1,2,0],[3,0],[0]]","5","[[1,2,0],[3,0],[0]]","6","0","","","","","","5","","","","",""
"","","","","","poldrack-single-stim","230","827332","0.0-3.0-29.0","62ef8372cd41d2893d237b6b","C3","batch3","tol_feedback","-1","","","","","true","","","","","1000","1000","500","","","","","","-1","none","true","3953","5901","","","","","",""
"","","","","","html-button-response","231","827875","0.0-3.0-30.0","62ef8372cd41d2893d237b6b","C3","batch3","tol_trial_num","541.8000000119209","<div class = centerbox><p class = center-block-text>problem <strong>8</strong> out of 25 problems</p></div>","0","","","","","","","","","","","","","","","","","","","","","","","","","",""
"","","","","","single-stim-button","232","831736","0.0-3.0-31.0-0.0","62ef8372cd41d2893d237b6b","C3","batch3","tol_tohand","3861","","","","","","","","","tol_peg_3","3861","3861","0","[[0,0,0],[2,3],[0]]","1","[[1,2,0],[3,0],[0]]","7","0","","","","","","4","","","","",""
"","","","","","single-stim-button","233","832424","0.0-3.0-31.0-1.0","62ef8372cd41d2893d237b6b","C3","batch3","tol_toboard","688","","","","","","","","","tol_peg_1","688","688","0","[[1,0,0],[2,3],[0]]","1","[[1,2,0],[3,0],[0]]","7","0","","","","","","4","","","","",""
"","","","","","single-stim-button","234","832776","0.0-3.0-31.1-0.1","62ef8372cd41d2893d237b6b","C3","batch3","tol_tohand","350","","","","","","","","","tol_peg_2","350","350","0","[[1,0,0],[2,0],[0]]","2","[[1,2,0],[3,0],[0]]","7","0","","","","","","4","","","","",""
"","","","","","single-stim-button","235","833341","0.0-3.0-31.1-1.1","62ef8372cd41d2893d237b6b","C3","batch3","tol_toboard","565","","","","","","","","","tol_peg_3","565","565","0","[[1,0,0],[2,0],[3]]","2","[[1,2,0],[3,0],[0]]","7","0","","","","","","4","","","","",""
"","","","","","single-stim-button","236","833726","0.0-3.0-31.2-0.2","62ef8372cd41d2893d237b6b","C3","batch3","tol_tohand","385","","","","","","","","","tol_peg_2","385","385","0","[[1,0,0],[0,0],[3]]","3","[[1,2,0],[3,0],[0]]","7","0","","","","","","4","","","","",""
"","","","","","single-stim-button","237","834464","0.0-3.0-31.2-1.2","62ef8372cd41d2893d237b6b","C3","batch3","tol_toboard","738","","","","","","","","","tol_peg_1","738","738","0","[[1,2,0],[0,0],[3]]","3","[[1,2,0],[3,0],[0]]","7","0","","","","","","4","","","","",""
"","","","","","single-stim-button","238","837734","0.0-3.0-31.3-0.3","62ef8372cd41d2893d237b6b","C3","batch3","tol_tohand","3268","","","","","","","","","tol_peg_3","3268","3268","0","[[1,2,0],[0,0],[0]]","4","[[1,2,0],[3,0],[0]]","7","0","","","","","","4","","","","",""
"","","","","","single-stim-button","239","838090","0.0-3.0-31.3-1.3","62ef8372cd41d2893d237b6b","C3","batch3","tol_toboard","355","","","","","","","","","tol_peg_2","355","355","0","[[1,2,0],[3,0],[0]]","4","[[1,2,0],[3,0],[0]]","7","0","","","","","","4","","","","",""
"","","","","","poldrack-single-stim","240","839092","0.0-3.0-32.0","62ef8372cd41d2893d237b6b","C3","batch3","tol_feedback","-1","","","","","true","","","","","1000","1000","500","","","","","","-1","none","true","3861","7864","","","","","",""
"","","","","","html-button-response","241","839858","0.0-3.0-33.0","62ef8372cd41d2893d237b6b","C3","batch3","tol_trial_num","765.5","<div class = centerbox><p class = center-block-text>problem <strong>9</strong> out of 25 problems</p></div>","0","","","","","","","","","","","","","","","","","","","","","","","","","",""
"","","","","","single-stim-button","242","843831","0.0-3.0-34.0-0.0","62ef8372cd41d2893d237b6b","C3","batch3","tol_tohand","3972","","","","","","","","","tol_peg_3","3972","3972","0","[[3,2,0],[0,0],[0]]","1","[[2,1,0],[3,0],[0]]","8","0","","","","","","6","","","","",""
"","","","","","single-stim-button","243","844280","0.0-3.0-34.0-1.0","62ef8372cd41d2893d237b6b","C3","batch3","tol_toboard","449","","","","","","","","","tol_peg_2","449","449","0","[[3,2,0],[1,0],[0]]","1","[[2,1,0],[3,0],[0]]","8","0","","","","","","6","","","","",""
"","","","","","single-stim-button","244","844682","0.0-3.0-34.1-0.1","62ef8372cd41d2893d237b6b","C3","batch3","tol_tohand","402","","","","","","","","","tol_peg_1","402","402","0","[[3,0,0],[1,0],[0]]","2","[[2,1,0],[3,0],[0]]","8","0","","","","","","6","","","","",""
"","","","","","single-stim-button","245","844928","0.0-3.0-34.1-1.1","62ef8372cd41d2893d237b6b","C3","batch3","tol_toboard","245","","","","","","","","","tol_peg_2","245","245","0","[[3,0,0],[1,2],[0]]","2","[[2,1,0],[3,0],[0]]","8","0","","","","","","6","","","","",""
"","","","","","single-stim-button","246","845266","0.0-3.0-34.2-0.2","62ef8372cd41d2893d237b6b","C3","batch3","tol_tohand","337","","","","","","","","","tol_peg_1","337","337","0","[[0,0,0],[1,2],[0]]","3","[[2,1,0],[3,0],[0]]","8","0","","","","","","6","","","","",""
"","","","","","single-stim-button","247","845749","0.0-3.0-34.2-1.2","62ef8372cd41d2893d237b6b","C3","batch3","tol_toboard","483","","","","","","","","","tol_peg_3","483","483","0","[[0,0,0],[1,2],[3]]","3","[[2,1,0],[3,0],[0]]","8","0","","","","","","6","","","","",""
"","","","","","single-stim-button","248","846471","0.0-3.0-34.3-0.3","62ef8372cd41d2893d237b6b","C3","batch3","tol_tohand","722","","","","","","","","","tol_peg_2","722","722","0","[[0,0,0],[1,0],[3]]","4","[[2,1,0],[3,0],[0]]","8","0","","","","","","6","","","","",""
"","","","","","single-stim-button","249","847168","0.0-3.0-34.3-1.3","62ef8372cd41d2893d237b6b","C3","batch3","tol_toboard","697","","","","","","","","","tol_peg_1","697","697","0","[[2,0,0],[1,0],[3]]","4","[[2,1,0],[3,0],[0]]","8","0","","","","","","6","","","","",""
"","","","","","single-stim-button","250","847474","0.0-3.0-34.4-0.4","62ef8372cd41d2893d237b6b","C3","batch3","tol_tohand","306","","","","","","","","","tol_peg_2","306","306","0","[[2,0,0],[0,0],[3]]","5","[[2,1,0],[3,0],[0]]","8","0","","","","","","6","","","","",""
"","","","","","single-stim-button","251","847880","0.0-3.0-34.4-1.4","62ef8372cd41d2893d237b6b","C3","batch3","tol_toboard","406","","","","","","","","","tol_peg_1","406","406","0","[[2,1,0],[0,0],[3]]","5","[[2,1,0],[3,0],[0]]","8","0","","","","","","6","","","","",""
"","","","","","single-stim-button","252","848770","0.0-3.0-34.5-0.5","62ef8372cd41d2893d237b6b","C3","batch3","tol_tohand","889","","","","","","","","","tol_peg_3","889","889","0","[[2,1,0],[0,0],[0]]","6","[[2,1,0],[3,0],[0]]","8","0","","","","","","6","","","","",""
"","","","","","single-stim-button","253","849068","0.0-3.0-34.5-1.5","62ef8372cd41d2893d237b6b","C3","batch3","tol_toboard","298","","","","","","","","","tol_peg_2","298","298","0","[[2,1,0],[3,0],[0]]","6","[[2,1,0],[3,0],[0]]","8","0","","","","","","6","","","","",""
"","","","","","poldrack-single-stim","254","850068","0.0-3.0-35.0","62ef8372cd41d2893d237b6b","C3","batch3","tol_feedback","-1","","","","","true","","","","","1000","1000","500","","","","","","-1","none","true","3972","6628","","","","","",""
"","","","","","html-button-response","255","850578","0.0-3.0-36.0","62ef8372cd41d2893d237b6b","C3","batch3","tol_trial_num","508.5","<div class = centerbox><p class = center-block-text>problem <strong>10</strong> out of 25 problems</p></div>","0","","","","","","","","","","","","","","","","","","","","","","","","","",""
"","","","","","single-stim-button","256","854368","0.0-3.0-37.0-0.0","62ef8372cd41d2893d237b6b","C3","batch3","tol_tohand","3790","","","","","","","","","tol_peg_2","3790","3790","0","[[3,0,0],[0,0],[2]]","1","[[3,0,0],[2,1],[0]]","9","0","","","","","","3","","","","",""
"","","","","","single-stim-button","257","855159","0.0-3.0-37.0-1.0","62ef8372cd41d2893d237b6b","C3","batch3","tol_toboard","791","","","","","","","","","tol_peg_1","791","791","0","[[3,1,0],[0,0],[2]]","1","[[3,0,0],[2,1],[0]]","9","0","","","","","","3","","","","",""
"","","","","","single-stim-button","258","855682","0.0-3.0-37.1-0.1","62ef8372cd41d2893d237b6b","C3","batch3","tol_tohand","523","","","","","","","","","tol_peg_3","523","523","0","[[3,1,0],[0,0],[0]]","2","[[3,0,0],[2,1],[0]]","9","0","","","","","","3","","","","",""
"","","","","","single-stim-button","259","856087","0.0-3.0-37.1-1.1","62ef8372cd41d2893d237b6b","C3","batch3","tol_toboard","405","","","","","","","","","tol_peg_2","405","405","0","[[3,1,0],[2,0],[0]]","2","[[3,0,0],[2,1],[0]]","9","0","","","","","","3","","","","",""
"","","","","","single-stim-button","260","856497","0.0-3.0-37.2-0.2","62ef8372cd41d2893d237b6b","C3","batch3","tol_tohand","410","","","","","","","","","tol_peg_1","410","410","0","[[3,0,0],[2,0],[0]]","3","[[3,0,0],[2,1],[0]]","9","0","","","","","","3","","","","",""
"","","","","","single-stim-button","261","856818","0.0-3.0-37.2-1.2","62ef8372cd41d2893d237b6b","C3","batch3","tol_toboard","321","","","","","","","","","tol_peg_2","321","321","0","[[3,0,0],[2,1],[0]]","3","[[3,0,0],[2,1],[0]]","9","0","","","","","","3","","","","",""
"","","","","","poldrack-single-stim","262","857834","0.0-3.0-38.0","62ef8372cd41d2893d237b6b","C3","batch3","tol_feedback","-1","","","","","true","","","","","1000","1000","500","","","","","","-1","none","true","3790","4723","","","","","",""
"","","","","","html-button-response","263","858478","0.0-3.0-39.0","62ef8372cd41d2893d237b6b","C3","batch3","tol_trial_num","643.0999999642372","<div class = centerbox><p class = center-block-text>problem <strong>11</strong> out of 25 problems</p></div>","0","","","","","","","","","","","","","","","","","","","","","","","","","",""
"","","","","","single-stim-button","264","860870","0.0-3.0-40.0-0.0","62ef8372cd41d2893d237b6b","C3","batch3","tol_tohand","2392","","","","","","","","","tol_peg_2","2392","2392","0","[[1,2,0],[0,0],[0]]","1","[[2,0,0],[1,3],[0]]","10","0","","","","","","6","","","","",""
"","","","","","single-stim-button","265","864985","0.0-3.0-40.0-1.0","62ef8372cd41d2893d237b6b","C3","batch3","tol_toboard","4114","","","","","","","","","tol_peg_2","4114","4114","0","[[1,2,0],[3,0],[0]]","1","[[2,0,0],[1,3],[0]]","10","0","","","","","","6","","","","",""
"","","","","","single-stim-button","266","865538","0.0-3.0-40.1-0.1","62ef8372cd41d2893d237b6b","C3","batch3","tol_tohand","553","","","","","","","","","tol_peg_1","553","553","0","[[1,0,0],[3,0],[0]]","2","[[2,0,0],[1,3],[0]]","10","0","","","","","","6","","","","",""
"","","","","","single-stim-button","267","866005","0.0-3.0-40.1-1.1","62ef8372cd41d2893d237b6b","C3","batch3","tol_toboard","467","","","","","","","","","tol_peg_3","467","467","0","[[1,0,0],[3,0],[2]]","2","[[2,0,0],[1,3],[0]]","10","0","","","","","","6","","","","",""
"","","","","","single-stim-button","268","869928","0.0-3.0-40.2-0.2","62ef8372cd41d2893d237b6b","C3","batch3","tol_tohand","3923","","","","","","","","","tol_peg_1","3923","3923","0","[[0,0,0],[3,0],[2]]","3","[[2,0,0],[1,3],[0]]","10","0","","","","","","6","","","","",""
"","","","","","single-stim-button","269","870300","0.0-3.0-40.2-1.2","62ef8372cd41d2893d237b6b","C3","batch3","tol_toboard","372","","","","","","","","","tol_peg_2","372","372","0","[[0,0,0],[3,1],[2]]","3","[[2,0,0],[1,3],[0]]","10","0","","","","","","6","","","","",""
"","","","","","single-stim-button","270","870677","0.0-3.0-40.3-0.3","62ef8372cd41d2893d237b6b","C3","batch3","tol_tohand","377","","","","","","","","","tol_peg_3","377","377","0","[[0,0,0],[3,1],[0]]","4","[[2,0,0],[1,3],[0]]","10","0","","","","","","6","","","","",""
"","","","","","single-stim-button","271","871091","0.0-3.0-40.3-1.3","62ef8372cd41d2893d237b6b","C3","batch3","tol_toboard","413","","","","","","","","","tol_peg_1","413","413","0","[[2,0,0],[3,1],[0]]","4","[[2,0,0],[1,3],[0]]","10","0","","","","","","6","","","","",""
"","","","","","single-stim-button","272","871911","0.0-3.0-40.4-0.4","62ef8372cd41d2893d237b6b","C3","batch3","tol_tohand","820","","","","","","","","","tol_peg_2","820","820","0","[[2,0,0],[3,0],[0]]","5","[[2,0,0],[1,3],[0]]","10","0","","","","","","6","","","","",""
"","","","","","single-stim-button","273","872830","0.0-3.0-40.4-1.4","62ef8372cd41d2893d237b6b","C3","batch3","tol_toboard","919","","","","","","","","","tol_peg_1","919","919","0","[[2,1,0],[3,0],[0]]","5","[[2,0,0],[1,3],[0]]","10","0","","","","","","6","","","","",""
"","","","","","single-stim-button","274","873269","0.0-3.0-40.5-0.5","62ef8372cd41d2893d237b6b","C3","batch3","tol_tohand","438","","","","","","","","","tol_peg_2","438","438","0","[[2,1,0],[0,0],[0]]","6","[[2,0,0],[1,3],[0]]","10","0","","","","","","6","","","","",""
"","","","","","single-stim-button","275","873830","0.0-3.0-40.5-1.5","62ef8372cd41d2893d237b6b","C3","batch3","tol_toboard","561","","","","","","","","","tol_peg_3","561","561","0","[[2,1,0],[0,0],[3]]","6","[[2,0,0],[1,3],[0]]","10","0","","","","","","6","","","","",""
"","","","","","single-stim-button","276","874380","0.0-3.0-40.6-0.6","62ef8372cd41d2893d237b6b","C3","batch3","tol_tohand","548","","","","","","","","","tol_peg_1","548","548","0","[[2,0,0],[0,0],[3]]","7","[[2,0,0],[1,3],[0]]","10","0","","","","","","6","","","","",""
"","","","","","single-stim-button","277","874767","0.0-3.0-40.6-1.6","62ef8372cd41d2893d237b6b","C3","batch3","tol_toboard","387","","","","","","","","","tol_peg_2","387","387","0","[[2,0,0],[1,0],[3]]","7","[[2,0,0],[1,3],[0]]","10","0","","","","","","6","","","","",""
"","","","","","single-stim-button","278","874984","0.0-3.0-40.7-0.7","62ef8372cd41d2893d237b6b","C3","batch3","tol_tohand","216","","","","","","","","","tol_peg_2","216","216","0","[[2,0,0],[0,0],[3]]","8","[[2,0,0],[1,3],[0]]","10","0","","","","","","6","","","","",""
"","","","","","single-stim-button","279","875602","0.0-3.0-40.7-1.7","62ef8372cd41d2893d237b6b","C3","batch3","tol_toboard","618","","","","","","","","","tol_peg_2","618","618","0","[[2,0,0],[1,0],[3]]","8","[[2,0,0],[1,3],[0]]","10","0","","","","","","6","","","","",""
"","","","","","single-stim-button","280","875955","0.0-3.0-40.8-0.8","62ef8372cd41d2893d237b6b","C3","batch3","tol_tohand","352","","","","","","","","","tol_peg_3","352","352","0","[[2,0,0],[1,0],[0]]","9","[[2,0,0],[1,3],[0]]","10","0","","","","","","6","","","","",""
"","","","","","single-stim-button","281","876246","0.0-3.0-40.8-1.8","62ef8372cd41d2893d237b6b","C3","batch3","tol_toboard","291","","","","","","","","","tol_peg_2","291","291","0","[[2,0,0],[1,3],[0]]","9","[[2,0,0],[1,3],[0]]","10","0","","","","","","6","","","","",""
"","","","","","poldrack-single-stim","282","877254","0.0-3.0-41.0","62ef8372cd41d2893d237b6b","C3","batch3","tol_feedback","-1","","","","","true","","","","","1000","1000","500","","","","","","-1","none","true","2392","9619","","","","","",""
"","","","","","html-button-response","283","877899","0.0-3.0-42.0","62ef8372cd41d2893d237b6b","C3","batch3","tol_trial_num","643.8000000119209","<div class = centerbox><p class = center-block-text>problem <strong>12</strong> out of 25 problems</p></div>","0","","","","","","","","","","","","","","","","","","","","","","","","","",""
"","","","","","single-stim-button","284","881803","0.0-3.0-43.0-0.0","62ef8372cd41d2893d237b6b","C3","batch3","tol_tohand","3904","","","","","","","","","tol_peg_1","3904","3904","0","[[1,0,0],[3,0],[0]]","1","[[2,3,0],[0,0],[1]]","11","0","","","","","","4","","","","",""
"","","","","","single-stim-button","285","882251","0.0-3.0-43.0-1.0","62ef8372cd41d2893d237b6b","C3","batch3","tol_toboard","448","","","","","","","","","tol_peg_2","448","448","0","[[1,0,0],[3,2],[0]]","1","[[2,3,0],[0,0],[1]]","11","0","","","","","","4","","","","",""
"","","","","","single-stim-button","286","882654","0.0-3.0-43.1-0.1","62ef8372cd41d2893d237b6b","C3","batch3","tol_tohand","403","","","","","","","","","tol_peg_1","403","403","0","[[0,0,0],[3,2],[0]]","2","[[2,3,0],[0,0],[1]]","11","0","","","","","","4","","","","",""
"","","","","","single-stim-button","287","883549","0.0-3.0-43.1-1.1","62ef8372cd41d2893d237b6b","C3","batch3","tol_toboard","895","","","","","","","","","tol_peg_3","895","895","0","[[0,0,0],[3,2],[1]]","2","[[2,3,0],[0,0],[1]]","11","0","","","","","","4","","","","",""
"","","","","","single-stim-button","288","884412","0.0-3.0-43.2-0.2","62ef8372cd41d2893d237b6b","C3","batch3","tol_tohand","863","","","","","","","","","tol_peg_2","863","863","0","[[0,0,0],[3,0],[1]]","3","[[2,3,0],[0,0],[1]]","11","0","","","","","","4","","","","",""
"","","","","","single-stim-button","289","884813","0.0-3.0-43.2-1.2","62ef8372cd41d2893d237b6b","C3","batch3","tol_toboard","401","","","","","","","","","tol_peg_1","401","401","0","[[2,0,0],[3,0],[1]]","3","[[2,3,0],[0,0],[1]]","11","0","","","","","","4","","","","",""
"","","","","","single-stim-button","290","885378","0.0-3.0-43.3-0.3","62ef8372cd41d2893d237b6b","C3","batch3","tol_tohand","563","","","","","","","","","tol_peg_2","563","563","0","[[2,0,0],[0,0],[1]]","4","[[2,3,0],[0,0],[1]]","11","0","","","","","","4","","","","",""
"","","","","","single-stim-button","291","886185","0.0-3.0-43.3-1.3","62ef8372cd41d2893d237b6b","C3","batch3","tol_toboard","807","","","","","","","","","tol_peg_2","807","807","0","[[2,0,0],[3,0],[1]]","4","[[2,3,0],[0,0],[1]]","11","0","","","","","","4","","","","",""
"","","","","","single-stim-button","292","886904","0.0-3.0-43.4-0.4","62ef8372cd41d2893d237b6b","C3","batch3","tol_tohand","718","","","","","","","","","tol_peg_3","718","718","0","[[2,0,0],[3,0],[0]]","5","[[2,3,0],[0,0],[1]]","11","0","","","","","","4","","","","",""
"","","","","","single-stim-button","293","887424","0.0-3.0-43.4-1.4","62ef8372cd41d2893d237b6b","C3","batch3","tol_toboard","520","","","","","","","","","tol_peg_2","520","520","0","[[2,0,0],[3,1],[0]]","5","[[2,3,0],[0,0],[1]]","11","0","","","","","","4","","","","",""
"","","","","","single-stim-button","294","887804","0.0-3.0-43.5-0.5","62ef8372cd41d2893d237b6b","C3","batch3","tol_tohand","380","","","","","","","","","tol_peg_1","380","380","0","[[0,0,0],[3,1],[0]]","6","[[2,3,0],[0,0],[1]]","11","0","","","","","","4","","","","",""
"","","","","","single-stim-button","295","888293","0.0-3.0-43.5-1.5","62ef8372cd41d2893d237b6b","C3","batch3","tol_toboard","488","","","","","","","","","tol_peg_3","488","488","0","[[0,0,0],[3,1],[2]]","6","[[2,3,0],[0,0],[1]]","11","0","","","","","","4","","","","",""
"","","","","","single-stim-button","296","890165","0.0-3.0-43.6-0.6","62ef8372cd41d2893d237b6b","C3","batch3","tol_tohand","1870","","","","","","","","","tol_peg_3","1870","1870","0","[[0,0,0],[3,1],[0]]","7","[[2,3,0],[0,0],[1]]","11","0","","","","","","4","","","","",""
"","","","","","single-stim-button","297","890758","0.0-3.0-43.6-1.6","62ef8372cd41d2893d237b6b","C3","batch3","tol_toboard","593","","","","","","","","","tol_peg_1","593","593","0","[[2,0,0],[3,1],[0]]","7","[[2,3,0],[0,0],[1]]","11","0","","","","","","4","","","","",""
"","","","","","single-stim-button","298","891242","0.0-3.0-43.7-0.7","62ef8372cd41d2893d237b6b","C3","batch3","tol_tohand","484","","","","","","","","","tol_peg_2","484","484","0","[[2,0,0],[3,0],[0]]","8","[[2,3,0],[0,0],[1]]","11","0","","","","","","4","","","","",""
"","","","","","single-stim-button","299","891601","0.0-3.0-43.7-1.7","62ef8372cd41d2893d237b6b","C3","batch3","tol_toboard","359","","","","","","","","","tol_peg_3","359","359","0","[[2,0,0],[3,0],[1]]","8","[[2,3,0],[0,0],[1]]","11","0","","","","","","4","","","","",""
"","","","","","single-stim-button","300","893244","0.0-3.0-43.8-0.8","62ef8372cd41d2893d237b6b","C3","batch3","tol_tohand","1642","","","","","","","","","tol_peg_2","1642","1642","0","[[2,0,0],[0,0],[1]]","9","[[2,3,0],[0,0],[1]]","11","0","","","","","","4","","","","",""
"","","","","","single-stim-button","301","893927","0.0-3.0-43.8-1.8","62ef8372cd41d2893d237b6b","C3","batch3","tol_toboard","682","","","","","","","","","tol_peg_2","682","682","0","[[2,0,0],[3,0],[1]]","9","[[2,3,0],[0,0],[1]]","11","0","","","","","","4","","","","",""
"","","","","","single-stim-button","302","894459","0.0-3.0-43.9-0.9","62ef8372cd41d2893d237b6b","C3","batch3","tol_tohand","532","","","","","","","","","tol_peg_1","532","532","0","[[0,0,0],[3,0],[1]]","10","[[2,3,0],[0,0],[1]]","11","0","","","","","","4","","","","",""
"","","","","","single-stim-button","303","899369","0.0-3.0-43.9-1.9","62ef8372cd41d2893d237b6b","C3","batch3","tol_toboard","4909","","","","","","","","","tol_peg_1","4909","4909","0","[[2,0,0],[3,0],[1]]","10","[[2,3,0],[0,0],[1]]","11","0","","","","","","4","","","","",""
"","","","","","single-stim-button","304","899805","0.0-3.0-43.10-0.10","62ef8372cd41d2893d237b6b","C3","batch3","tol_tohand","435","","","","","","","","","tol_peg_2","435","435","0","[[2,0,0],[0,0],[1]]","11","[[2,3,0],[0,0],[1]]","11","0","","","","","","4","","","","",""
"","","","","","single-stim-button","305","900137","0.0-3.0-43.10-1.10","62ef8372cd41d2893d237b6b","C3","batch3","tol_toboard","331","","","","","","","","","tol_peg_1","331","331","0","[[2,3,0],[0,0],[1]]","11","[[2,3,0],[0,0],[1]]","11","0","","","","","","4","","","","",""
"","","","","","poldrack-single-stim","306","901151","0.0-3.0-44.0","62ef8372cd41d2893d237b6b","C3","batch3","tol_feedback","-1","","","","","true","","","","","1000","1000","500","","","","","","-1","none","true","3904","11794","","","","","",""
"","","","","","html-button-response","307","902010","0.0-3.0-45.0","62ef8372cd41d2893d237b6b","C3","batch3","tol_trial_num","857.3000000119209","<div class = centerbox><p class = center-block-text>problem <strong>13</strong> out of 25 problems</p></div>","0","","","","","","","","","","","","","","","","","","","","","","","","","",""
"","","","","","single-stim-button","308","903715","0.0-3.0-46.0-0.0","62ef8372cd41d2893d237b6b","C3","batch3","tol_tohand","1705","","","","","","","","","tol_peg_1","1705","1705","0","[[1,0,0],[3,0],[0]]","1","[[0,0,0],[2,3],[1]]","12","0","","","","","","4","","","","",""
"","","","","","single-stim-button","309","904110","0.0-3.0-46.0-1.0","62ef8372cd41d2893d237b6b","C3","batch3","tol_toboard","395","","","","","","","","","tol_peg_2","395","395","0","[[1,0,0],[3,2],[0]]","1","[[0,0,0],[2,3],[1]]","12","0","","","","","","4","","","","",""
"","","","","","single-stim-button","310","904610","0.0-3.0-46.1-0.1","62ef8372cd41d2893d237b6b","C3","batch3","tol_tohand","498","","","","","","","","","tol_peg_1","498","498","0","[[0,0,0],[3,2],[0]]","2","[[0,0,0],[2,3],[1]]","12","0","","","","","","4","","","","",""
"","","","","","single-stim-button","311","905374","0.0-3.0-46.1-1.1","62ef8372cd41d2893d237b6b","C3","batch3","tol_toboard","764","","","","","","","","","tol_peg_3","764","764","0","[[0,0,0],[3,2],[1]]","2","[[0,0,0],[2,3],[1]]","12","0","","","","","","4","","","","",""
"","","","","","single-stim-button","312","906307","0.0-3.0-46.2-0.2","62ef8372cd41d2893d237b6b","C3","batch3","tol_tohand","933","","","","","","","","","tol_peg_2","933","933","0","[[0,0,0],[3,0],[1]]","3","[[0,0,0],[2,3],[1]]","12","0","","","","","","4","","","","",""
"","","","","","single-stim-button","313","906588","0.0-3.0-46.2-1.2","62ef8372cd41d2893d237b6b","C3","batch3","tol_toboard","281","","","","","","","","","tol_peg_1","281","281","0","[[2,0,0],[3,0],[1]]","3","[[0,0,0],[2,3],[1]]","12","0","","","","","","4","","","","",""
"","","","","","single-stim-button","314","910477","0.0-3.0-46.3-0.3","62ef8372cd41d2893d237b6b","C3","batch3","tol_tohand","3889","","","","","","","","","tol_peg_3","3889","3889","0","[[2,0,0],[3,0],[0]]","4","[[0,0,0],[2,3],[1]]","12","0","","","","","","4","","","","",""
"","","","","","single-stim-button","315","912133","0.0-3.0-46.3-1.3","62ef8372cd41d2893d237b6b","C3","batch3","tol_toboard","1656","","","","","","","","","tol_peg_3","1656","1656","0","[[2,0,0],[3,0],[1]]","4","[[0,0,0],[2,3],[1]]","12","0","","","","","","4","","","","",""
"","","","","","single-stim-button","316","912722","0.0-3.0-46.4-0.4","62ef8372cd41d2893d237b6b","C3","batch3","tol_tohand","588","","","","","","","","","tol_peg_1","588","588","0","[[0,0,0],[3,0],[1]]","5","[[0,0,0],[2,3],[1]]","12","0","","","","","","4","","","","",""
"","","","","","single-stim-button","317","913452","0.0-3.0-46.4-1.4","62ef8372cd41d2893d237b6b","C3","batch3","tol_toboard","729","","","","","","","","","tol_peg_1","729","729","0","[[2,0,0],[3,0],[1]]","5","[[0,0,0],[2,3],[1]]","12","0","","","","","","4","","","","",""
"","","","","","single-stim-button","318","913737","0.0-3.0-46.5-0.5","62ef8372cd41d2893d237b6b","C3","batch3","tol_tohand","284","","","","","","","","","tol_peg_2","284","284","0","[[2,0,0],[0,0],[1]]","6","[[0,0,0],[2,3],[1]]","12","0","","","","","","4","","","","",""
"","","","","","single-stim-button","319","913922","0.0-3.0-46.5-1.5","62ef8372cd41d2893d237b6b","C3","batch3","tol_toboard","185","","","","","","","","","tol_peg_1","185","185","0","[[2,3,0],[0,0],[1]]","6","[[0,0,0],[2,3],[1]]","12","0","","","","","","4","","","","",""
"","","","","","single-stim-button","320","914390","0.0-3.0-46.6-0.6","62ef8372cd41d2893d237b6b","C3","batch3","tol_tohand","468","","","","","","","","","tol_peg_1","468","468","0","[[2,0,0],[0,0],[1]]","7","[[0,0,0],[2,3],[1]]","12","0","","","","","","4","","","","",""
"","","","","","single-stim-button","321","915563","0.0-3.0-46.6-1.6","62ef8372cd41d2893d237b6b","C3","batch3","tol_toboard","1173","","","","","","","","","tol_peg_2","1173","1173","0","[[2,0,0],[3,0],[1]]","7","[[0,0,0],[2,3],[1]]","12","0","","","","","","4","","","","",""
"","","","","","single-stim-button","322","917507","0.0-3.0-46.7-0.7","62ef8372cd41d2893d237b6b","C3","batch3","tol_tohand","1944","","","","","","","","","tol_peg_3","1944","1944","0","[[2,0,0],[3,0],[0]]","8","[[0,0,0],[2,3],[1]]","12","0","","","","","","4","","","","",""
"","","","","","single-stim-button","323","917783","0.0-3.0-46.7-1.7","62ef8372cd41d2893d237b6b","C3","batch3","tol_toboard","275","","","","","","","","","tol_peg_2","275","275","0","[[2,0,0],[3,1],[0]]","8","[[0,0,0],[2,3],[1]]","12","0","","","","","","4","","","","",""
"","","","","","single-stim-button","324","918609","0.0-3.0-46.8-0.8","62ef8372cd41d2893d237b6b","C3","batch3","tol_tohand","826","","","","","","","","","tol_peg_1","826","826","0","[[0,0,0],[3,1],[0]]","9","[[0,0,0],[2,3],[1]]","12","0","","","","","","4","","","","",""
"","","","","","single-stim-button","325","919087","0.0-3.0-46.8-1.8","62ef8372cd41d2893d237b6b","C3","batch3","tol_toboard","478","","","","","","","","","tol_peg_3","478","478","0","[[0,0,0],[3,1],[2]]","9","[[0,0,0],[2,3],[1]]","12","0","","","","","","4","","","","",""
"","","","","","single-stim-button","326","919508","0.0-3.0-46.9-0.9","62ef8372cd41d2893d237b6b","C3","batch3","tol_tohand","421","","","","","","","","","tol_peg_2","421","421","0","[[0,0,0],[3,0],[2]]","10","[[0,0,0],[2,3],[1]]","12","0","","","","","","4","","","","",""
"","","","","","single-stim-button","327","919819","0.0-3.0-46.9-1.9","62ef8372cd41d2893d237b6b","C3","batch3","tol_toboard","311","","","","","","","","","tol_peg_1","311","311","0","[[1,0,0],[3,0],[2]]","10","[[0,0,0],[2,3],[1]]","12","0","","","","","","4","","","","",""
"","","","","","single-stim-button","328","920138","0.0-3.0-46.10-0.10","62ef8372cd41d2893d237b6b","C3","batch3","tol_tohand","318","","","","","","","","","tol_peg_2","318","318","0","[[1,0,0],[0,0],[2]]","11","[[0,0,0],[2,3],[1]]","12","0","","","","","","4","","","","",""
"","","","","","single-stim-button","329","920413","0.0-3.0-46.10-1.10","62ef8372cd41d2893d237b6b","C3","batch3","tol_toboard","275","","","","","","","","","tol_peg_1","275","275","0","[[1,3,0],[0,0],[2]]","11","[[0,0,0],[2,3],[1]]","12","0","","","","","","4","","","","",""
"","","","","","single-stim-button","330","920849","0.0-3.0-46.11-0.11","62ef8372cd41d2893d237b6b","C3","batch3","tol_tohand","435","","","","","","","","","tol_peg_3","435","435","0","[[1,3,0],[0,0],[0]]","12","[[0,0,0],[2,3],[1]]","12","0","","","","","","4","","","","",""
"","","","","","single-stim-button","331","922044","0.0-3.0-46.11-1.11","62ef8372cd41d2893d237b6b","C3","batch3","tol_toboard","1194","","","","","","","","","tol_peg_2","1194","1194","0","[[1,3,0],[2,0],[0]]","12","[[0,0,0],[2,3],[1]]","12","0","","","","","","4","","","","",""
"","","","","","single-stim-button","332","922391","0.0-3.0-46.12-0.12","62ef8372cd41d2893d237b6b","C3","batch3","tol_tohand","347","","","","","","","","","tol_peg_1","347","347","0","[[1,0,0],[2,0],[0]]","13","[[0,0,0],[2,3],[1]]","12","0","","","","","","4","","","","",""
"","","","","","single-stim-button","333","922653","0.0-3.0-46.12-1.12","62ef8372cd41d2893d237b6b","C3","batch3","tol_toboard","262","","","","","","","","","tol_peg_2","262","262","0","[[1,0,0],[2,3],[0]]","13","[[0,0,0],[2,3],[1]]","12","0","","","","","","4","","","","",""
"","","","","","single-stim-button","334","922917","0.0-3.0-46.13-0.13","62ef8372cd41d2893d237b6b","C3","batch3","tol_tohand","263","","","","","","","","","tol_peg_1","263","263","0","[[0,0,0],[2,3],[0]]","14","[[0,0,0],[2,3],[1]]","12","0","","","","","","4","","","","",""
"","","","","","single-stim-button","335","923407","0.0-3.0-46.13-1.13","62ef8372cd41d2893d237b6b","C3","batch3","tol_toboard","490","","","","","","","","","tol_peg_3","490","490","0","[[0,0,0],[2,3],[1]]","14","[[0,0,0],[2,3],[1]]","12","0","","","","","","4","","","","",""
"","","","","","poldrack-single-stim","336","924418","0.0-3.0-47.0","62ef8372cd41d2893d237b6b","C3","batch3","tol_feedback","-1","","","","","true","","","","","1000","1000","500","","","","","","-1","none","true","1705","12919","","","","","",""
"","","","","","html-button-response","337","927152","0.0-3.0-48.0","62ef8372cd41d2893d237b6b","C3","batch3","attention_check","2733.5","<p class = block-text>How many balls are in your board<br></p>","1","","","true","","","","","","","","","","","","","","","","","","","","","","",""
"","","","","","html-button-response","338","928532","0.0-3.0-49.0","62ef8372cd41d2893d237b6b","C3","batch3","tol_trial_num","1379.199999988079","<div class = centerbox><p class = center-block-text>problem <strong>14</strong> out of 25 problems</p></div>","0","","","","","","","","","","","","","","","","","","","","","","","","","",""
"","","","","","single-stim-button","339","933841","0.0-3.0-50.0-0.0","62ef8372cd41d2893d237b6b","C3","batch3","tol_tohand","5309","","","","","","","","","tol_peg_1","5309","5309","0","[[2,0,0],[3,0],[0]]","1","[[1,2,0],[3,0],[0]]","13","0","","","","","","4","","","","",""
"","","","","","single-stim-button","340","934930","0.0-3.0-50.0-1.0","62ef8372cd41d2893d237b6b","C3","batch3","tol_toboard","1087","","","","","","","","","tol_peg_3","1087","1087","0","[[2,0,0],[3,0],[1]]","1","[[1,2,0],[3,0],[0]]","13","0","","","","","","4","","","","",""
"","","","","","single-stim-button","341","935834","0.0-3.0-50.1-0.1","62ef8372cd41d2893d237b6b","C3","batch3","tol_tohand","904","","","","","","","","","tol_peg_1","904","904","0","[[0,0,0],[3,0],[1]]","2","[[1,2,0],[3,0],[0]]","13","0","","","","","","4","","","","",""
"","","","","","single-stim-button","342","936293","0.0-3.0-50.1-1.1","62ef8372cd41d2893d237b6b","C3","batch3","tol_toboard","458","","","","","","","","","tol_peg_2","458","458","0","[[0,0,0],[3,2],[1]]","2","[[1,2,0],[3,0],[0]]","13","0","","","","","","4","","","","",""
"","","","","","single-stim-button","343","936606","0.0-3.0-50.2-0.2","62ef8372cd41d2893d237b6b","C3","batch3","tol_tohand","313","","","","","","","","","tol_peg_3","313","313","0","[[0,0,0],[3,2],[0]]","3","[[1,2,0],[3,0],[0]]","13","0","","","","","","4","","","","",""
"","","","","","single-stim-button","344","937099","0.0-3.0-50.2-1.2","62ef8372cd41d2893d237b6b","C3","batch3","tol_toboard","492","","","","","","","","","tol_peg_1","492","492","0","[[1,0,0],[3,2],[0]]","3","[[1,2,0],[3,0],[0]]","13","0","","","","","","4","","","","",""
"","","","","","single-stim-button","345","937432","0.0-3.0-50.3-0.3","62ef8372cd41d2893d237b6b","C3","batch3","tol_tohand","332","","","","","","","","","tol_peg_2","332","332","0","[[1,0,0],[3,0],[0]]","4","[[1,2,0],[3,0],[0]]","13","0","","","","","","4","","","","",""
"","","","","","single-stim-button","346","937721","0.0-3.0-50.3-1.3","62ef8372cd41d2893d237b6b","C3","batch3","tol_toboard","289","","","","","","","","","tol_peg_1","289","289","0","[[1,2,0],[3,0],[0]]","4","[[1,2,0],[3,0],[0]]","13","0","","","","","","4","","","","",""
"","","","","","poldrack-single-stim","347","938722","0.0-3.0-51.0","62ef8372cd41d2893d237b6b","C3","batch3","tol_feedback","-1","","","","","true","","","","","1000","1000","500","","","","","","-1","none","true","5309","6858","","","","","",""
"","","","","","html-button-response","348","939452","0.0-3.0-52.0","62ef8372cd41d2893d237b6b","C3","batch3","tol_trial_num","728.6999999880791","<div class = centerbox><p class = center-block-text>problem <strong>15</strong> out of 25 problems</p></div>","0","","","","","","","","","","","","","","","","","","","","","","","","","",""
"","","","","","single-stim-button","349","941933","0.0-3.0-53.0-0.0","62ef8372cd41d2893d237b6b","C3","batch3","tol_tohand","2480","","","","","","","","","tol_peg_1","2480","2480","0","[[1,0,0],[3,0],[0]]","1","[[2,0,0],[3,0],[1]]","14","0","","","","","","3","","","","",""
"","","","","","single-stim-button","350","942322","0.0-3.0-53.0-1.0","62ef8372cd41d2893d237b6b","C3","batch3","tol_toboard","389","","","","","","","","","tol_peg_2","389","389","0","[[1,0,0],[3,2],[0]]","1","[[2,0,0],[3,0],[1]]","14","0","","","","","","3","","","","",""
"","","","","","single-stim-button","351","942651","0.0-3.0-53.1-0.1","62ef8372cd41d2893d237b6b","C3","batch3","tol_tohand","329","","","","","","","","","tol_peg_1","329","329","0","[[0,0,0],[3,2],[0]]","2","[[2,0,0],[3,0],[1]]","14","0","","","","","","3","","","","",""
"","","","","","single-stim-button","352","943032","0.0-3.0-53.1-1.1","62ef8372cd41d2893d237b6b","C3","batch3","tol_toboard","380","","","","","","","","","tol_peg_3","380","380","0","[[0,0,0],[3,2],[1]]","2","[[2,0,0],[3,0],[1]]","14","0","","","","","","3","","","","",""
"","","","","","single-stim-button","353","943388","0.0-3.0-53.2-0.2","62ef8372cd41d2893d237b6b","C3","batch3","tol_tohand","356","","","","","","","","","tol_peg_2","356","356","0","[[0,0,0],[3,0],[1]]","3","[[2,0,0],[3,0],[1]]","14","0","","","","","","3","","","","",""
"","","","","","single-stim-button","354","943637","0.0-3.0-53.2-1.2","62ef8372cd41d2893d237b6b","C3","batch3","tol_toboard","248","","","","","","","","","tol_peg_1","248","248","0","[[2,0,0],[3,0],[1]]","3","[[2,0,0],[3,0],[1]]","14","0","","","","","","3","","","","",""
"","","","","","poldrack-single-stim","355","944642","0.0-3.0-54.0","62ef8372cd41d2893d237b6b","C3","batch3","tol_feedback","-1","","","","","true","","","","","1000","1000","500","","","","","","-1","none","true","2480","3165","","","","","",""
