"success","timeout","failed_images","failed_audio","failed_video","trial_type","trial_index","time_elapsed","internal_node_id","subject_id","study_id","session_id","task","rt","stimulus","response","item","answer","correct","spm_correct","spm_rt","view_history","fiar_detect_rt","fiar_detect_correct","total_correct_fiar_detect","post_trial_gap","choices","mouse_click","stim_duration","block_duration","timing_post_trial","current_position","tol_num_moves_made","tol_target","tol_problem_id","tol_rt","key_press","possible_responses","tol_correct","preplanning","tol_rt_per_trial","tol_min_moves"
"true","false","[]","[]","[]","preload","0","621","0.0-0.0","62f14bb75eaad1e10e24f48e","B2","batch2","","","","","","","","","","","","","","","","","","","","","","","","","","","","","",""
"true","","","","","fullscreen","1","29733","0.0-1.0-0.0","62f14bb75eaad1e10e24f48e","B2","batch2","","","","","","","","","","","","","","","","","","","","","","","","","","","","","",""
"true","","","","","fullscreen","2","32222","0.0-2.0-0.0","62f14bb75eaad1e10e24f48e","B2","batch2","spm_fullscreen","","","","","","","","","","","","","","","","","","","","","","","","","","","","",""
"","","","","","html-button-response","3","49965","0.0-2.0-1.0","62f14bb75eaad1e10e24f48e","B2","batch2","","17742.5","<p class = block-text><b>Instructions</b> <br>This is a widely used intelligence test in research. <br>In this test, a figure with a missing piece will be presented.<br>Below the figure are alternative pieces to complete the figure, only one of which is correct.<br> Different figures might involve different principles for obtaining the missing piece<br>Your job is to select the most logical piece to complete the figure.</p>","0","","","","","","","","","","","","","","","","","","","","","","","","","",""
"","","","","","html-keyboard-response","4","50773","0.0-2.0-2.0-0.0","62f14bb75eaad1e10e24f48e","B2","batch2","spm_show_trial_num","null","<p class=block-text>Trial 1 out of 60</p>","null","","","","","","","","","","","","","","","","","","","","","","","","","",""
"","","","","","image-button-response","5","59853","0.0-2.0-2.0-1.0","62f14bb75eaad1e10e24f48e","B2","batch2","spm_respsonse","9077.600000143051","img/question_1_1.jpeg","3","mat_01","4","1","1","9077.600000143051","","","","","","","","","","","","","","","","","","","","",""
"","","","","","html-keyboard-response","6","60928","0.0-2.0-2.0-0.1","62f14bb75eaad1e10e24f48e","B2","batch2","spm_show_trial_num","null","<p class=block-text>Trial 2 out of 60</p>","null","","","","","","","","","","","","","","","","","","","","","","","","","",""
"","","","","","image-button-response","7","64069","0.0-2.0-2.0-1.1","62f14bb75eaad1e10e24f48e","B2","batch2","spm_respsonse","3139.9000000953674","img/question_1_2.jpeg","4","mat_02","5","1","1","3139.9000000953674","","","","","","","","","","","","","","","","","","","","",""
"","","","","","html-keyboard-response","8","65143","0.0-2.0-2.0-0.2","62f14bb75eaad1e10e24f48e","B2","batch2","spm_show_trial_num","null","<p class=block-text>Trial 3 out of 60</p>","null","","","","","","","","","","","","","","","","","","","","","","","","","",""
"","","","","","image-button-response","9","68783","0.0-2.0-2.0-1.2","62f14bb75eaad1e10e24f48e","B2","batch2","spm_respsonse","3639.2000000476837","img/question_1_3.jpeg","0","mat_03","1","1","1","3639.2000000476837","","","","","","","","","","","","","","","","","","","","",""
"","","","","","html-keyboard-response","10","69845","0.0-2.0-2.0-0.3","62f14bb75eaad1e10e24f48e","B2","batch2","spm_show_trial_num","null","<p class=block-text>Trial 4 out of 60</p>","null","","","","","","","","","","","","","","","","","","","","","","","","","",""
"","","","","","image-button-response","11","72780","0.0-2.0-2.0-1.3","62f14bb75eaad1e10e24f48e","B2","batch2","spm_respsonse","2933.4000000953674","img/question_1_4.jpeg","1","mat_04","2","1","1","2933.4000000953674","","","","","","","","","","","","","","","","","","","","",""
"","","","","","html-keyboard-response","12","73859","0.0-2.0-2.0-0.4","62f14bb75eaad1e10e24f48e","B2","batch2","spm_show_trial_num","null","<p class=block-text>Trial 5 out of 60</p>","null","","","","","","","","","","","","","","","","","","","","","","","","","",""
"","","","","","image-button-response","13","77340","0.0-2.0-2.0-1.4","62f14bb75eaad1e10e24f48e","B2","batch2","spm_respsonse","3479.9000000953674","img/question_1_5.jpeg","5","mat_05","6","1","1","3479.9000000953674","","","","","","","","","","","","","","","","","","","","",""
"","","","","","html-keyboard-response","14","78408","0.0-2.0-2.0-0.5","62f14bb75eaad1e10e24f48e","B2","batch2","spm_show_trial_num","null","<p class=block-text>Trial 6 out of 60</p>","null","","","","","","","","","","","","","","","","","","","","","","","","","",""
"","","","","","image-button-response","15","80892","0.0-2.0-2.0-1.5","62f14bb75eaad1e10e24f48e","B2","batch2","spm_respsonse","2482.7000000476837","img/question_1_6.jpeg","2","mat_06","3","1","1","2482.7000000476837","","","","","","","","","","","","","","","","","","","","",""
"","","","","","html-keyboard-response","16","81959","0.0-2.0-2.0-0.6","62f14bb75eaad1e10e24f48e","B2","batch2","spm_show_trial_num","null","<p class=block-text>Trial 7 out of 60</p>","null","","","","","","","","","","","","","","","","","","","","","","","","","",""
"","","","","","image-button-response","17","87555","0.0-2.0-2.0-1.6","62f14bb75eaad1e10e24f48e","B2","batch2","spm_respsonse","5594.600000143051","img/question_1_7.jpeg","5","mat_07","6","1","1","5594.600000143051","","","","","","","","","","","","","","","","","","","","",""
"","","","","","html-keyboard-response","18","88611","0.0-2.0-2.0-0.7","62f14bb75eaad1e10e24f48e","B2","batch2","spm_show_trial_num","null","<p class=block-text>Trial 8 out of 60</p>","null","","","","","","","","","","","","","","","","","","","","","","","","","",""
"","","","","","image-button-response","19","92498","0.0-2.0-2.0-1.7","62f14bb75eaad1e10e24f48e","B2","batch2","spm_respsonse","3886","img/question_1_8.jpeg","1","mat_08","2","1","1","3886","","","","","","","","","","","","","","","","","","","","",""
"","","","","","html-keyboard-response","20","93551","0.0-2.0-2.0-0.8","62f14bb75eaad1e10e24f48e","B2","batch2","spm_show_trial_num","null","<p class=block-text>Trial 9 out of 60</p>","null","","","","","","","","","","","","","","","","","","","","","","","","","",""
"","","","","","image-button-response","21","97755","0.0-2.0-2.0-1.8","62f14bb75eaad1e10e24f48e","B2","batch2","spm_respsonse","4202.299999952316","img/question_1_9.jpeg","0","mat_09","1","1","1","4202.299999952316","","","","","","","","","","","","","","","","","","","","",""
"","","","","","html-keyboard-response","22","98824","0.0-2.0-2.0-0.9","62f14bb75eaad1e10e24f48e","B2","batch2","spm_show_trial_num","null","<p class=block-text>Trial 10 out of 60</p>","null","","","","","","","","","","","","","","","","","","","","","","","","","",""
"","","","","","image-button-response","23","104268","0.0-2.0-2.0-1.9","62f14bb75eaad1e10e24f48e","B2","batch2","spm_respsonse","5443.700000047684","img/question_1_10.jpeg","2","mat_10","3","1","1","5443.700000047684","","","","","","","","","","","","","","","","","","","","",""
"","","","","","html-keyboard-response","24","105341","0.0-2.0-2.0-0.10","62f14bb75eaad1e10e24f48e","B2","batch2","spm_show_trial_num","null","<p class=block-text>Trial 11 out of 60</p>","null","","","","","","","","","","","","","","","","","","","","","","","","","",""
"","","","","","image-button-response","25","119789","0.0-2.0-2.0-1.10","62f14bb75eaad1e10e24f48e","B2","batch2","spm_respsonse","14447.099999904633","img/question_1_11.jpeg","3","mat_11","4","1","1","14447.099999904633","","","","","","","","","","","","","","","","","","","","",""
"","","","","","html-keyboard-response","26","120868","0.0-2.0-2.0-0.11","62f14bb75eaad1e10e24f48e","B2","batch2","spm_show_trial_num","null","<p class=block-text>Trial 12 out of 60</p>","null","","","","","","","","","","","","","","","","","","","","","","","","","",""
"","","","","","image-button-response","27","135052","0.0-2.0-2.0-1.11","62f14bb75eaad1e10e24f48e","B2","batch2","spm_respsonse","14183","img/question_1_12.jpeg","4","mat_12","5","1","1","14183","","","","","","","","","","","","","","","","","","","","",""
"","","","","","html-keyboard-response","28","136133","0.0-2.0-2.0-0.12","62f14bb75eaad1e10e24f48e","B2","batch2","spm_show_trial_num","null","<p class=block-text>Trial 13 out of 60</p>","null","","","","","","","","","","","","","","","","","","","","","","","","","",""
"","","","","","image-button-response","29","138876","0.0-2.0-2.0-1.12","62f14bb75eaad1e10e24f48e","B2","batch2","spm_respsonse","2742.0999999046326","img/question_2_1.jpeg","1","mat_13","2","1","1","2742.0999999046326","","","","","","","","","","","","","","","","","","","","",""
"","","","","","html-keyboard-response","30","139928","0.0-2.0-2.0-0.13","62f14bb75eaad1e10e24f48e","B2","batch2","spm_show_trial_num","null","<p class=block-text>Trial 14 out of 60</p>","null","","","","","","","","","","","","","","","","","","","","","","","","","",""
"","","","","","image-button-response","31","143408","0.0-2.0-2.0-1.13","62f14bb75eaad1e10e24f48e","B2","batch2","spm_respsonse","3479","img/question_2_2.jpeg","5","mat_14","6","1","1","3479","","","","","","","","","","","","","","","","","","","","",""
"","","","","","html-keyboard-response","32","144474","0.0-2.0-2.0-0.14","62f14bb75eaad1e10e24f48e","B2","batch2","spm_show_trial_num","null","<p class=block-text>Trial 15 out of 60</p>","null","","","","","","","","","","","","","","","","","","","","","","","","","",""
"","","","","","image-button-response","33","148919","0.0-2.0-2.0-1.14","62f14bb75eaad1e10e24f48e","B2","batch2","spm_respsonse","4443.199999809265","img/question_2_3.jpeg","0","mat_15","1","1","1","4443.199999809265","","","","","","","","","","","","","","","","","","","","",""
"","","","","","html-keyboard-response","34","149990","0.0-2.0-2.0-0.15","62f14bb75eaad1e10e24f48e","B2","batch2","spm_show_trial_num","null","<p class=block-text>Trial 16 out of 60</p>","null","","","","","","","","","","","","","","","","","","","","","","","","","",""
"","","","","","image-button-response","35","152937","0.0-2.0-2.0-1.15","62f14bb75eaad1e10e24f48e","B2","batch2","spm_respsonse","2945.5","img/question_2_4.jpeg","1","mat_16","2","1","1","2945.5","","","","","","","","","","","","","","","","","","","","",""
"","","","","","html-keyboard-response","36","154017","0.0-2.0-2.0-0.16","62f14bb75eaad1e10e24f48e","B2","batch2","spm_show_trial_num","null","<p class=block-text>Trial 17 out of 60</p>","null","","","","","","","","","","","","","","","","","","","","","","","","","",""
"","","","","","image-button-response","37","158170","0.0-2.0-2.0-1.16","62f14bb75eaad1e10e24f48e","B2","batch2","spm_respsonse","4152.299999952316","img/question_2_5.jpeg","0","mat_17","1","1","1","4152.299999952316","","","","","","","","","","","","","","","","","","","","",""
"","","","","","html-keyboard-response","38","159244","0.0-2.0-2.0-0.17","62f14bb75eaad1e10e24f48e","B2","batch2","spm_show_trial_num","null","<p class=block-text>Trial 18 out of 60</p>","null","","","","","","","","","","","","","","","","","","","","","","","","","",""
"","","","","","image-button-response","39","167860","0.0-2.0-2.0-1.17","62f14bb75eaad1e10e24f48e","B2","batch2","spm_respsonse","8615.5","img/question_2_6.jpeg","2","mat_18","3","1","1","8615.5","","","","","","","","","","","","","","","","","","","","",""
"","","","","","html-keyboard-response","40","168929","0.0-2.0-2.0-0.18","62f14bb75eaad1e10e24f48e","B2","batch2","spm_show_trial_num","null","<p class=block-text>Trial 19 out of 60</p>","null","","","","","","","","","","","","","","","","","","","","","","","","","",""
"","","","","","image-button-response","41","174261","0.0-2.0-2.0-1.18","62f14bb75eaad1e10e24f48e","B2","batch2","spm_respsonse","5330.5","img/question_2_7.jpeg","4","mat_19","5","1","1","5330.5","","","","","","","","","","","","","","","","","","","","",""
"","","","","","html-keyboard-response","42","175327","0.0-2.0-2.0-0.19","62f14bb75eaad1e10e24f48e","B2","batch2","spm_show_trial_num","null","<p class=block-text>Trial 20 out of 60</p>","null","","","","","","","","","","","","","","","","","","","","","","","","","",""
"","","","","","image-button-response","43","180808","0.0-2.0-2.0-1.19","62f14bb75eaad1e10e24f48e","B2","batch2","spm_respsonse","5479.199999809265","img/question_2_8.jpeg","5","mat_20","6","1","1","5479.199999809265","","","","","","","","","","","","","","","","","","","","",""
"","","","","","html-keyboard-response","44","181881","0.0-2.0-2.0-0.20","62f14bb75eaad1e10e24f48e","B2","batch2","spm_show_trial_num","null","<p class=block-text>Trial 21 out of 60</p>","null","","","","","","","","","","","","","","","","","","","","","","","","","",""
"","","","","","image-button-response","45","186756","0.0-2.0-2.0-1.20","62f14bb75eaad1e10e24f48e","B2","batch2","spm_respsonse","4873.799999952316","img/question_2_9.jpeg","3","mat_21","4","1","1","4873.799999952316","","","","","","","","","","","","","","","","","","","","",""
"","","","","","html-keyboard-response","46","187829","0.0-2.0-2.0-0.21","62f14bb75eaad1e10e24f48e","B2","batch2","spm_show_trial_num","null","<p class=block-text>Trial 22 out of 60</p>","null","","","","","","","","","","","","","","","","","","","","","","","","","",""
"","","","","","image-button-response","47","195311","0.0-2.0-2.0-1.21","62f14bb75eaad1e10e24f48e","B2","batch2","spm_respsonse","7480.200000047684","img/question_2_10.jpeg","2","mat_22","3","1","1","7480.200000047684","","","","","","","","","","","","","","","","","","","","",""
"","","","","","html-keyboard-response","48","196374","0.0-2.0-2.0-0.22","62f14bb75eaad1e10e24f48e","B2","batch2","spm_show_trial_num","null","<p class=block-text>Trial 23 out of 60</p>","null","","","","","","","","","","","","","","","","","","","","","","","","","",""
"","","","","","image-button-response","49","201395","0.0-2.0-2.0-1.22","62f14bb75eaad1e10e24f48e","B2","batch2","spm_respsonse","5019.399999856949","img/question_2_11.jpeg","3","mat_23","4","1","1","5019.399999856949","","","","","","","","","","","","","","","","","","","","",""
"","","","","","html-keyboard-response","50","202465","0.0-2.0-2.0-0.23","62f14bb75eaad1e10e24f48e","B2","batch2","spm_show_trial_num","null","<p class=block-text>Trial 24 out of 60</p>","null","","","","","","","","","","","","","","","","","","","","","","","","","",""
"","","","","","image-button-response","51","222011","0.0-2.0-2.0-1.23","62f14bb75eaad1e10e24f48e","B2","batch2","spm_respsonse","19544.299999952316","img/question_2_12.jpeg","4","mat_24","5","1","1","19544.299999952316","","","","","","","","","","","","","","","","","","","","",""
"","","","","","html-button-response","52","227316","0.0-2.0-3.0","62f14bb75eaad1e10e24f48e","B2","batch2","attention_check","5041.799999952316","<p class = block-text>Attention check: Please choose 1<br></p>","0","","","true","","","","","","","","","","","","","","","","","","","","","","",""
"","","","","","html-keyboard-response","53","228117","0.0-2.0-4.0-0.0","62f14bb75eaad1e10e24f48e","B2","batch2","spm_show_trial_num","null","<p class=block-text>Trial 25 out of 60</p>","null","","","","","","","","","","","","","","","","","","","","","","","","","",""
"","","","","","image-button-response","54","234487","0.0-2.0-4.0-1.0","62f14bb75eaad1e10e24f48e","B2","batch2","spm_respsonse","6369","img/question_3_1.jpeg","7","mat_25","8","1","1","6369","","","","","","","","","","","","","","","","","","","","",""
"","","","","","html-keyboard-response","55","235539","0.0-2.0-4.0-0.1","62f14bb75eaad1e10e24f48e","B2","batch2","spm_show_trial_num","null","<p class=block-text>Trial 26 out of 60</p>","null","","","","","","","","","","","","","","","","","","","","","","","","","",""
"","","","","","image-button-response","56","240951","0.0-2.0-4.0-1.1","62f14bb75eaad1e10e24f48e","B2","batch2","spm_respsonse","5411.099999904633","img/question_3_2.jpeg","1","mat_26","2","1","1","5411.099999904633","","","","","","","","","","","","","","","","","","","","",""
"","","","","","html-keyboard-response","57","242005","0.0-2.0-4.0-0.2","62f14bb75eaad1e10e24f48e","B2","batch2","spm_show_trial_num","null","<p class=block-text>Trial 27 out of 60</p>","null","","","","","","","","","","","","","","","","","","","","","","","","","",""
"","","","","","image-button-response","58","246668","0.0-2.0-4.0-1.2","62f14bb75eaad1e10e24f48e","B2","batch2","spm_respsonse","4661.799999952316","img/question_3_3.jpeg","2","mat_27","3","1","1","4661.799999952316","","","","","","","","","","","","","","","","","","","","",""
"","","","","","html-keyboard-response","59","247742","0.0-2.0-4.0-0.3","62f14bb75eaad1e10e24f48e","B2","batch2","spm_show_trial_num","null","<p class=block-text>Trial 28 out of 60</p>","null","","","","","","","","","","","","","","","","","","","","","","","","","",""
"","","","","","image-button-response","60","257430","0.0-2.0-4.0-1.3","62f14bb75eaad1e10e24f48e","B2","batch2","spm_respsonse","9687.100000143051","img/question_3_4.jpeg","7","mat_28","8","1","1","9687.100000143051","","","","","","","","","","","","","","","","","","","","",""
"","","","","","html-keyboard-response","61","258485","0.0-2.0-4.0-0.4","62f14bb75eaad1e10e24f48e","B2","batch2","spm_show_trial_num","null","<p class=block-text>Trial 29 out of 60</p>","null","","","","","","","","","","","","","","","","","","","","","","","","","",""
"","","","","","image-button-response","62","273888","0.0-2.0-4.0-1.4","62f14bb75eaad1e10e24f48e","B2","batch2","spm_respsonse","15401.5","img/question_3_5.jpeg","6","mat_29","7","1","1","15401.5","","","","","","","","","","","","","","","","","","","","",""
"","","","","","html-keyboard-response","63","274966","0.0-2.0-4.0-0.5","62f14bb75eaad1e10e24f48e","B2","batch2","spm_show_trial_num","null","<p class=block-text>Trial 30 out of 60</p>","null","","","","","","","","","","","","","","","","","","","","","","","","","",""
"","","","","","image-button-response","64","282218","0.0-2.0-4.0-1.5","62f14bb75eaad1e10e24f48e","B2","batch2","spm_respsonse","7250.700000047684","img/question_3_6.jpeg","7","mat_30","4","0","0","7250.700000047684","","","","","","","","","","","","","","","","","","","","",""
"","","","","","html-keyboard-response","65","283287","0.0-2.0-4.0-0.6","62f14bb75eaad1e10e24f48e","B2","batch2","spm_show_trial_num","null","<p class=block-text>Trial 31 out of 60</p>","null","","","","","","","","","","","","","","","","","","","","","","","","","",""
"","","","","","image-button-response","66","290306","0.0-2.0-4.0-1.6","62f14bb75eaad1e10e24f48e","B2","batch2","spm_respsonse","7017.799999952316","img/question_3_7.jpeg","4","mat_31","5","1","1","7017.799999952316","","","","","","","","","","","","","","","","","","","","",""
"","","","","","html-keyboard-response","67","291374","0.0-2.0-4.0-0.7","62f14bb75eaad1e10e24f48e","B2","batch2","spm_show_trial_num","null","<p class=block-text>Trial 32 out of 60</p>","null","","","","","","","","","","","","","","","","","","","","","","","","","",""
"","","","","","image-button-response","68","315414","0.0-2.0-4.0-1.7","62f14bb75eaad1e10e24f48e","B2","batch2","spm_respsonse","24038.299999952316","img/question_3_8.jpeg","0","mat_32","1","1","1","24038.299999952316","","","","","","","","","","","","","","","","","","","","",""
"","","","","","html-keyboard-response","69","316470","0.0-2.0-4.0-0.8","62f14bb75eaad1e10e24f48e","B2","batch2","spm_show_trial_num","null","<p class=block-text>Trial 33 out of 60</p>","null","","","","","","","","","","","","","","","","","","","","","","","","","",""
"","","","","","image-button-response","70","324057","0.0-2.0-4.0-1.8","62f14bb75eaad1e10e24f48e","B2","batch2","spm_respsonse","7585.599999904633","img/question_3_9.jpeg","6","mat_33","7","1","1","7585.599999904633","","","","","","","","","","","","","","","","","","","","",""
"","","","","","html-keyboard-response","71","325123","0.0-2.0-4.0-0.9","62f14bb75eaad1e10e24f48e","B2","batch2","spm_show_trial_num","null","<p class=block-text>Trial 34 out of 60</p>","null","","","","","","","","","","","","","","","","","","","","","","","","","",""
"","","","","","image-button-response","72","349047","0.0-2.0-4.0-1.9","62f14bb75eaad1e10e24f48e","B2","batch2","spm_respsonse","23921.900000095367","img/question_3_10.jpeg","5","mat_34","6","1","1","23921.900000095367","","","","","","","","","","","","","","","","","","","","",""
"","","","","","html-keyboard-response","73","350120","0.0-2.0-4.0-0.10","62f14bb75eaad1e10e24f48e","B2","batch2","spm_show_trial_num","null","<p class=block-text>Trial 35 out of 60</p>","null","","","","","","","","","","","","","","","","","","","","","","","","","",""
"","","","","","image-button-response","74","362838","0.0-2.0-4.0-1.10","62f14bb75eaad1e10e24f48e","B2","batch2","spm_respsonse","12716.699999809265","img/question_3_11.jpeg","0","mat_35","1","1","1","12716.699999809265","","","","","","","","","","","","","","","","","","","","",""
"","","","","","html-keyboard-response","75","363888","0.0-2.0-4.0-0.11","62f14bb75eaad1e10e24f48e","B2","batch2","spm_show_trial_num","null","<p class=block-text>Trial 36 out of 60</p>","null","","","","","","","","","","","","","","","","","","","","","","","","","",""
"","","","","","image-button-response","76","385708","0.0-2.0-4.0-1.11","62f14bb75eaad1e10e24f48e","B2","batch2","spm_respsonse","21818.5","img/question_3_12.jpeg","0","mat_36","2","0","0","21818.5","","","","","","","","","","","","","","","","","","","","",""
"","","","","","html-keyboard-response","77","386760","0.0-2.0-4.0-0.12","62f14bb75eaad1e10e24f48e","B2","batch2","spm_show_trial_num","null","<p class=block-text>Trial 37 out of 60</p>","null","","","","","","","","","","","","","","","","","","","","","","","","","",""
"","","","","","image-button-response","78","389784","0.0-2.0-4.0-1.12","62f14bb75eaad1e10e24f48e","B2","batch2","spm_respsonse","3023.5","img/question_4_1.jpeg","2","mat_37","3","1","1","3023.5","","","","","","","","","","","","","","","","","","","","",""
"","","","","","html-keyboard-response","79","390857","0.0-2.0-4.0-0.13","62f14bb75eaad1e10e24f48e","B2","batch2","spm_show_trial_num","null","<p class=block-text>Trial 38 out of 60</p>","null","","","","","","","","","","","","","","","","","","","","","","","","","",""
"","","","","","image-button-response","80","400027","0.0-2.0-4.0-1.13","62f14bb75eaad1e10e24f48e","B2","batch2","spm_respsonse","9168.299999952316","img/question_4_2.jpeg","3","mat_38","4","1","1","9168.299999952316","","","","","","","","","","","","","","","","","","","","",""
"","","","","","html-keyboard-response","81","401099","0.0-2.0-4.0-0.14","62f14bb75eaad1e10e24f48e","B2","batch2","spm_show_trial_num","null","<p class=block-text>Trial 39 out of 60</p>","null","","","","","","","","","","","","","","","","","","","","","","","","","",""
"","","","","","image-button-response","82","407608","0.0-2.0-4.0-1.14","62f14bb75eaad1e10e24f48e","B2","batch2","spm_respsonse","6507.200000047684","img/question_4_3.jpeg","2","mat_39","3","1","1","6507.200000047684","","","","","","","","","","","","","","","","","","","","",""
"","","","","","html-keyboard-response","83","408673","0.0-2.0-4.0-0.15","62f14bb75eaad1e10e24f48e","B2","batch2","spm_show_trial_num","null","<p class=block-text>Trial 40 out of 60</p>","null","","","","","","","","","","","","","","","","","","","","","","","","","",""
"","","","","","image-button-response","84","416344","0.0-2.0-4.0-1.15","62f14bb75eaad1e10e24f48e","B2","batch2","spm_respsonse","7669.599999904633","img/question_4_4.jpeg","6","mat_40","7","1","1","7669.599999904633","","","","","","","","","","","","","","","","","","","","",""
"","","","","","html-keyboard-response","85","417401","0.0-2.0-4.0-0.16","62f14bb75eaad1e10e24f48e","B2","batch2","spm_show_trial_num","null","<p class=block-text>Trial 41 out of 60</p>","null","","","","","","","","","","","","","","","","","","","","","","","","","",""
"","","","","","image-button-response","86","424847","0.0-2.0-4.0-1.16","62f14bb75eaad1e10e24f48e","B2","batch2","spm_respsonse","7444.099999904633","img/question_4_5.jpeg","7","mat_41","8","1","1","7444.099999904633","","","","","","","","","","","","","","","","","","","","",""
"","","","","","html-keyboard-response","87","425917","0.0-2.0-4.0-0.17","62f14bb75eaad1e10e24f48e","B2","batch2","spm_show_trial_num","null","<p class=block-text>Trial 42 out of 60</p>","null","","","","","","","","","","","","","","","","","","","","","","","","","",""
"","","","","","image-button-response","88","440405","0.0-2.0-4.0-1.17","62f14bb75eaad1e10e24f48e","B2","batch2","spm_respsonse","14486.5","img/question_4_6.jpeg","6","mat_42","6","0","0","14486.5","","","","","","","","","","","","","","","","","","","","",""
"","","","","","html-keyboard-response","89","441462","0.0-2.0-4.0-0.18","62f14bb75eaad1e10e24f48e","B2","batch2","spm_show_trial_num","null","<p class=block-text>Trial 43 out of 60</p>","null","","","","","","","","","","","","","","","","","","","","","","","","","",""
"","","","","","image-button-response","90","479510","0.0-2.0-4.0-1.18","62f14bb75eaad1e10e24f48e","B2","batch2","spm_respsonse","38046.40000009537","img/question_4_7.jpeg","4","mat_43","5","1","1","38046.40000009537","","","","","","","","","","","","","","","","","","","","",""
"","","","","","html-keyboard-response","91","480567","0.0-2.0-4.0-0.19","62f14bb75eaad1e10e24f48e","B2","batch2","spm_show_trial_num","null","<p class=block-text>Trial 44 out of 60</p>","null","","","","","","","","","","","","","","","","","","","","","","","","","",""
"","","","","","image-button-response","92","503985","0.0-2.0-4.0-1.19","62f14bb75eaad1e10e24f48e","B2","batch2","spm_respsonse","23416.799999952316","img/question_4_8.jpeg","3","mat_44","4","1","1","23416.799999952316","","","","","","","","","","","","","","","","","","","","",""
"","","","","","html-keyboard-response","93","505043","0.0-2.0-4.0-0.20","62f14bb75eaad1e10e24f48e","B2","batch2","spm_show_trial_num","null","<p class=block-text>Trial 45 out of 60</p>","null","","","","","","","","","","","","","","","","","","","","","","","","","",""
"","","","","","image-button-response","94","522387","0.0-2.0-4.0-1.20","62f14bb75eaad1e10e24f48e","B2","batch2","spm_respsonse","17342.400000095367","img/question_4_9.jpeg","3","mat_45","1","0","0","17342.400000095367","","","","","","","","","","","","","","","","","","","","",""
"","","","","","html-keyboard-response","95","523439","0.0-2.0-4.0-0.21","62f14bb75eaad1e10e24f48e","B2","batch2","spm_show_trial_num","null","<p class=block-text>Trial 46 out of 60</p>","null","","","","","","","","","","","","","","","","","","","","","","","","","",""
"","","","","","image-button-response","96","540801","0.0-2.0-4.0-1.21","62f14bb75eaad1e10e24f48e","B2","batch2","spm_respsonse","17361.200000047684","img/question_4_10.jpeg","4","mat_46","2","0","0","17361.200000047684","","","","","","","","","","","","","","","","","","","","",""
"","","","","","html-keyboard-response","97","541852","0.0-2.0-4.0-0.22","62f14bb75eaad1e10e24f48e","B2","batch2","spm_show_trial_num","null","<p class=block-text>Trial 47 out of 60</p>","null","","","","","","","","","","","","","","","","","","","","","","","","","",""
"","","","","","image-button-response","98","588363","0.0-2.0-4.0-1.22","62f14bb75eaad1e10e24f48e","B2","batch2","spm_respsonse","46509.59999990463","img/question_4_11.jpeg","1","mat_47","5","0","0","46509.59999990463","","","","","","","","","","","","","","","","","","","","",""
"","","","","","html-keyboard-response","99","589415","0.0-2.0-4.0-0.23","62f14bb75eaad1e10e24f48e","B2","batch2","spm_show_trial_num","null","<p class=block-text>Trial 48 out of 60</p>","null","","","","","","","","","","","","","","","","","","","","","","","","","",""
"","","","","","image-button-response","100","615591","0.0-2.0-4.0-1.23","62f14bb75eaad1e10e24f48e","B2","batch2","spm_respsonse","26174.900000095367","img/question_4_12.jpeg","7","mat_48","6","0","0","26174.900000095367","","","","","","","","","","","","","","","","","","","","",""
"","","","","","html-keyboard-response","101","616655","0.0-2.0-4.0-0.24","62f14bb75eaad1e10e24f48e","B2","batch2","spm_show_trial_num","null","<p class=block-text>Trial 49 out of 60</p>","null","","","","","","","","","","","","","","","","","","","","","","","","","",""
"","","","","","image-button-response","102","625890","0.0-2.0-4.0-1.24","62f14bb75eaad1e10e24f48e","B2","batch2","spm_respsonse","9233.5","img/question_5_1.jpeg","6","mat_49","7","1","1","9233.5","","","","","","","","","","","","","","","","","","","","",""
"","","","","","html-keyboard-response","103","626941","0.0-2.0-4.0-0.25","62f14bb75eaad1e10e24f48e","B2","batch2","spm_show_trial_num","null","<p class=block-text>Trial 50 out of 60</p>","null","","","","","","","","","","","","","","","","","","","","","","","","","",""
"","","","","","image-button-response","104","643615","0.0-2.0-4.0-1.25","62f14bb75eaad1e10e24f48e","B2","batch2","spm_respsonse","16673","img/question_5_2.jpeg","7","mat_50","6","0","0","16673","","","","","","","","","","","","","","","","","","","","",""
"","","","","","html-keyboard-response","105","644672","0.0-2.0-4.0-0.26","62f14bb75eaad1e10e24f48e","B2","batch2","spm_show_trial_num","null","<p class=block-text>Trial 51 out of 60</p>","null","","","","","","","","","","","","","","","","","","","","","","","","","",""
"","","","","","image-button-response","106","660928","0.0-2.0-4.0-1.26","62f14bb75eaad1e10e24f48e","B2","batch2","spm_respsonse","16255","img/question_5_3.jpeg","1","mat_51","8","0","0","16255","","","","","","","","","","","","","","","","","","","","",""
"","","","","","html-keyboard-response","107","661980","0.0-2.0-4.0-0.27","62f14bb75eaad1e10e24f48e","B2","batch2","spm_show_trial_num","null","<p class=block-text>Trial 52 out of 60</p>","null","","","","","","","","","","","","","","","","","","","","","","","","","",""
"","","","","","image-button-response","108","673611","0.0-2.0-4.0-1.27","62f14bb75eaad1e10e24f48e","B2","batch2","spm_respsonse","11630.200000047684","img/question_5_4.jpeg","1","mat_52","2","1","1","11630.200000047684","","","","","","","","","","","","","","","","","","","","",""
"","","","","","html-keyboard-response","109","674663","0.0-2.0-4.0-0.28","62f14bb75eaad1e10e24f48e","B2","batch2","spm_show_trial_num","null","<p class=block-text>Trial 53 out of 60</p>","null","","","","","","","","","","","","","","","","","","","","","","","","","",""
"","","","","","image-button-response","110","707296","0.0-2.0-4.0-1.28","62f14bb75eaad1e10e24f48e","B2","batch2","spm_respsonse","32631.400000095367","img/question_5_5.jpeg","0","mat_53","1","1","1","32631.400000095367","","","","","","","","","","","","","","","","","","","","",""
"","","","","","html-keyboard-response","111","708347","0.0-2.0-4.0-0.29","62f14bb75eaad1e10e24f48e","B2","batch2","spm_show_trial_num","null","<p class=block-text>Trial 54 out of 60</p>","null","","","","","","","","","","","","","","","","","","","","","","","","","",""
"","","","","","image-button-response","112","742489","0.0-2.0-4.0-1.29","62f14bb75eaad1e10e24f48e","B2","batch2","spm_respsonse","34141.09999990463","img/question_5_6.jpeg","4","mat_54","5","1","1","34141.09999990463","","","","","","","","","","","","","","","","","","","","",""
"","","","","","html-keyboard-response","113","743554","0.0-2.0-4.0-0.30","62f14bb75eaad1e10e24f48e","B2","batch2","spm_show_trial_num","null","<p class=block-text>Trial 55 out of 60</p>","null","","","","","","","","","","","","","","","","","","","","","","","","","",""
"","","","","","image-button-response","114","766803","0.0-2.0-4.0-1.30","62f14bb75eaad1e10e24f48e","B2","batch2","spm_respsonse","23247.900000095367","img/question_5_7.jpeg","0","mat_55","1","1","1","23247.900000095367","","","","","","","","","","","","","","","","","","","","",""
"","","","","","html-keyboard-response","115","767860","0.0-2.0-4.0-0.31","62f14bb75eaad1e10e24f48e","B2","batch2","spm_show_trial_num","null","<p class=block-text>Trial 56 out of 60</p>","null","","","","","","","","","","","","","","","","","","","","","","","","","",""
"","","","","","image-button-response","116","776715","0.0-2.0-4.0-1.31","62f14bb75eaad1e10e24f48e","B2","batch2","spm_respsonse","8853.600000143051","img/question_5_8.jpeg","5","mat_56","6","1","1","8853.600000143051","","","","","","","","","","","","","","","","","","","","",""
"","","","","","html-keyboard-response","117","777777","0.0-2.0-4.0-0.32","62f14bb75eaad1e10e24f48e","B2","batch2","spm_show_trial_num","null","<p class=block-text>Trial 57 out of 60</p>","null","","","","","","","","","","","","","","","","","","","","","","","","","",""
"","","","","","image-button-response","118","795429","0.0-2.0-4.0-1.32","62f14bb75eaad1e10e24f48e","B2","batch2","spm_respsonse","17651.5","img/question_5_9.jpeg","2","mat_57","3","1","1","17651.5","","","","","","","","","","","","","","","","","","","","",""
"","","","","","html-keyboard-response","119","796493","0.0-2.0-4.0-0.33","62f14bb75eaad1e10e24f48e","B2","batch2","spm_show_trial_num","null","<p class=block-text>Trial 58 out of 60</p>","null","","","","","","","","","","","","","","","","","","","","","","","","","",""
"","","","","","image-button-response","120","822556","0.0-2.0-4.0-1.33","62f14bb75eaad1e10e24f48e","B2","batch2","spm_respsonse","26061.5","img/question_5_10.jpeg","1","mat_58","2","1","1","26061.5","","","","","","","","","","","","","","","","","","","","",""
"","","","","","html-keyboard-response","121","823637","0.0-2.0-4.0-0.34","62f14bb75eaad1e10e24f48e","B2","batch2","spm_show_trial_num","null","<p class=block-text>Trial 59 out of 60</p>","null","","","","","","","","","","","","","","","","","","","","","","","","","",""
"","","","","","image-button-response","122","859255","0.0-2.0-4.0-1.34","62f14bb75eaad1e10e24f48e","B2","batch2","spm_respsonse","35616.60000014305","img/question_5_11.jpeg","3","mat_59","4","1","1","35616.60000014305","","","","","","","","","","","","","","","","","","","","",""
"","","","","","html-keyboard-response","123","860334","0.0-2.0-4.0-0.35","62f14bb75eaad1e10e24f48e","B2","batch2","spm_show_trial_num","null","<p class=block-text>Trial 60 out of 60</p>","null","","","","","","","","","","","","","","","","","","","","","","","","","",""
"","","","","","image-button-response","124","897286","0.0-2.0-4.0-1.35","62f14bb75eaad1e10e24f48e","B2","batch2","spm_respsonse","36951","img/question_5_12.jpeg","6","mat_60","5","0","0","36951","","","","","","","","","","","","","","","","","","","","",""
"","","","","","html-button-response","125","904337","0.0-2.0-5.0","62f14bb75eaad1e10e24f48e","B2","batch2","spm_goodbye","6797.799999952316","<p class= block-text>This concludes the Standard Progressive Matrix game. Thank you for your responses!<br> When you are ready, click the button continue</p>","0","","","","","","","","","","","","","","","","","","","","","","","","","",""
"true","","","","","fullscreen","126","912204","0.0-3.0-0.0","62f14bb75eaad1e10e24f48e","B2","batch2","","","","","","","","","","","","","","","","","","","","","","","","","","","","","",""
"","","","","","instructions","127","957411","0.0-3.0-1.0-0.0","62f14bb75eaad1e10e24f48e","B2","batch2","","45205.799999952316","","","","","","","","[{""page_index"":0,""viewing_time"":6067.5},{""page_index"":1,""viewing_time"":11321},{""page_index"":0,""viewing_time"":14456.799999952316},{""page_index"":1,""viewing_time"":13360.299999952316}]","","","","","","","","","","","","","","","","","","","",""
"","","","","","html-button-response","128","960965","0.0-3.0-1.0-1.0-0.0","62f14bb75eaad1e10e24f48e","B2","batch2","pattern_enter_quiz","3553.7999999523163","<p class=block-text> Let's answer a few questions <br>","0","","","","","","","","","","","","","","","","","","","","","","","","","",""
"","","","","","html-button-response","129","975727","0.0-3.0-1.0-1.0-1.0","62f14bb75eaad1e10e24f48e","B2","batch2","pattern_quiz","14760.900000095367","<p class = block-text>True or False: You will have as much time as you want to make each choice. <br></p>","1","","","true","","","","","","","","","","","","","","","","","","","","","","",""
"","","","","","html-button-response","130","979265","0.0-3.0-1.0-1.0-2.0","62f14bb75eaad1e10e24f48e","B2","batch2","pattern_quiz_feedback","3537.399999856949","<p class = block-text>Correct! You should make your choice <strong> as fast as you can</strong>.</p>","0","","","","","","","","","","","","","","","","","","","","","","","","","",""
"","","","","","html-button-response","131","996526","0.0-3.0-1.0-1.0-3.0","62f14bb75eaad1e10e24f48e","B2","batch2","pattern_quiz","17260.799999952316","<p class = block-text>True or False: You will look for 4 pieces in black or white color connected in a row either horizontally, vertically or diagonally. <br></p>","0","","","true","","","","","","","","","","","","","","","","","","","","","","",""
"","","","","","html-button-response","132","997715","0.0-3.0-1.0-1.0-4.0","62f14bb75eaad1e10e24f48e","B2","batch2","pattern_quiz_feedback","1187.7999999523163","<p class = block-text>Correct! </p>","0","","","","","","","","","","","","","","","","","","","","","","","","","",""
"","","","","","html-button-response","133","1000897","0.0-3.0-2.0","62f14bb75eaad1e10e24f48e","B2","batch2","pattern_enter_practice","3180.600000143051","<p class=block-text> Now that you've understood the game, let's do a few practice trials before we start!<br> <br>","0","","","","","","","","","","","","","","","","","","","","","","","","","",""
"","","","","","image-keyboard-response","134","1002988","0.0-3.0-3.0-0.0","62f14bb75eaad1e10e24f48e","B2","batch2","pattern_practice","2089.9000000953674","stim/prac_no_16_1.png","j","","j","true","","","","","","","","","","","","","","","","","","","","","","",""
"","","","","","html-keyboard-response","135","1004005","0.0-3.0-3.0-1.0","62f14bb75eaad1e10e24f48e","B2","batch2","pattern_feedback","null","<p style=""font-size:30px;color:green;"">Correct!</p>","null","","","","","","","","","","","","","","","","","","","","","","","","","",""
"","","","","","image-keyboard-response","136","1005244","0.0-3.0-3.0-0.1","62f14bb75eaad1e10e24f48e","B2","batch2","pattern_practice","1237.8999998569489","stim/prac_yes_16_ver_w1.png","f","","f","true","","","","","","","","","","","","","","","","","","","","","","",""
"","","","","","html-keyboard-response","137","1006267","0.0-3.0-3.0-1.1","62f14bb75eaad1e10e24f48e","B2","batch2","pattern_feedback","null","<p style=""font-size:30px;color:green;"">Correct!</p>","null","","","","","","","","","","","","","","","","","","","","","","","","","",""
"","","","","","image-keyboard-response","138","1007250","0.0-3.0-3.0-0.2","62f14bb75eaad1e10e24f48e","B2","batch2","pattern_practice","982.1000001430511","stim/prac_no_18_1.png","j","","j","true","","","","","","","","","","","","","","","","","","","","","","",""
"","","","","","html-keyboard-response","139","1008260","0.0-3.0-3.0-1.2","62f14bb75eaad1e10e24f48e","B2","batch2","pattern_feedback","null","<p style=""font-size:30px;color:green;"">Correct!</p>","null","","","","","","","","","","","","","","","","","","","","","","","","","",""
"","","","","","image-keyboard-response","140","1009146","0.0-3.0-3.0-0.3","62f14bb75eaad1e10e24f48e","B2","batch2","pattern_practice","885.2999999523163","stim/prac_yes_18_hor_w1.png","f","","f","true","","","","","","","","","","","","","","","","","","","","","","",""
"","","","","","html-keyboard-response","141","1010156","0.0-3.0-3.0-1.3","62f14bb75eaad1e10e24f48e","B2","batch2","pattern_feedback","null","<p style=""font-size:30px;color:green;"">Correct!</p>","null","","","","","","","","","","","","","","","","","","","","","","","","","",""
"","","","","","image-keyboard-response","142","1011112","0.0-3.0-3.0-0.4","62f14bb75eaad1e10e24f48e","B2","batch2","pattern_practice","955","stim/prac_yes_20_dia_b1.png","j","","f","false","","","","","","","","","","","","","","","","","","","","","","",""
"","","","","","html-keyboard-response","143","1012128","0.0-3.0-3.0-1.4","62f14bb75eaad1e10e24f48e","B2","batch2","pattern_feedback","null","<p style=""font-size:30px;color:red;"">Wrong.</p>","null","","","","","","","","","","","","","","","","","","","","","","","","","",""
"","","","","","html-button-response","144","1021896","0.0-3.0-4.0","62f14bb75eaad1e10e24f48e","B2","batch2","pattern_enter_official_trials","9767.200000047684","<p class=block-text> Good job! You are done with practice trials!<br>
        You responded correctly on 80% of the trials.<br>
        Press the button below to start official trials. Now you won't see any feedback about your response</p>","0","","","","","","","","","","","","","","","","","","","","","","","","","",""
"","","","","","html-keyboard-response","145","1022707","0.0-3.0-5.0-0.0","62f14bb75eaad1e10e24f48e","B2","batch2","pattern_show_trial_num","null","<p class=block-text>Trial 1 out of 78</p>","null","","","","","","","","","","","","","","","","","","","","","","","","","",""
"","","","","","image-keyboard-response","146","1024597","0.0-3.0-5.0-1.0","62f14bb75eaad1e10e24f48e","B2","batch2","pattern_response","1888.5999999046326","stim/no_67_1.png","j","pattern_39","j","true","","","","1888.5999999046326","true","1","","","","","","","","","","","","","","","","",""
"","","","","","html-keyboard-response","147","1025898","0.0-3.0-5.0-0.1","62f14bb75eaad1e10e24f48e","B2","batch2","pattern_show_trial_num","null","<p class=block-text>Trial 2 out of 78</p>","null","","","","","","","","","","","","","","","","","","","","","","","","","",""
"","","","","","image-keyboard-response","148","1026953","0.0-3.0-5.0-1.1","62f14bb75eaad1e10e24f48e","B2","batch2","pattern_response","1054.3000001907349","stim/yes_30_ver_b1_b.png","f","pattern_54","f","true","","","","1054.3000001907349","true","2","","","","","","","","","","","","","","","","",""
"","","","","","html-keyboard-response","149","1028275","0.0-3.0-5.0-0.2","62f14bb75eaad1e10e24f48e","B2","batch2","pattern_show_trial_num","null","<p class=block-text>Trial 3 out of 78</p>","null","","","","","","","","","","","","","","","","","","","","","","","","","",""
"","","","","","image-keyboard-response","150","1029307","0.0-3.0-5.0-1.2","62f14bb75eaad1e10e24f48e","B2","batch2","pattern_response","1030.7000000476837","stim/no_36_1_b.png","j","pattern_17","j","true","","","","1030.7000000476837","true","3","","","","","","","","","","","","","","","","",""
"","","","","","html-keyboard-response","151","1030626","0.0-3.0-5.0-0.3","62f14bb75eaad1e10e24f48e","B2","batch2","pattern_show_trial_num","null","<p class=block-text>Trial 4 out of 78</p>","null","","","","","","","","","","","","","","","","","","","","","","","","","",""
"","","","","","image-keyboard-response","152","1032051","0.0-3.0-5.0-1.3","62f14bb75eaad1e10e24f48e","B2","batch2","pattern_response","1423.7999999523163","stim/yes_26_dia_w2_w.png","f","pattern_50","f","true","","","","1423.7999999523163","true","4","","","","","","","","","","","","","","","","",""
"","","","","","html-keyboard-response","153","1033367","0.0-3.0-5.0-0.4","62f14bb75eaad1e10e24f48e","B2","batch2","pattern_show_trial_num","null","<p class=block-text>Trial 5 out of 78</p>","null","","","","","","","","","","","","","","","","","","","","","","","","","",""
"","","","","","image-keyboard-response","154","1034483","0.0-3.0-5.0-1.4","62f14bb75eaad1e10e24f48e","B2","batch2","pattern_response","1115.5999999046326","stim/no_25_1_b.png","j","pattern_09","j","true","","","","1115.5999999046326","true","5","","","","","","","","","","","","","","","","",""
"","","","","","html-keyboard-response","155","1035807","0.0-3.0-5.0-0.5","62f14bb75eaad1e10e24f48e","B2","batch2","pattern_show_trial_num","null","<p class=block-text>Trial 6 out of 78</p>","null","","","","","","","","","","","","","","","","","","","","","","","","","",""
"","","","","","image-keyboard-response","156","1037140","0.0-3.0-5.0-1.5","62f14bb75eaad1e10e24f48e","B2","batch2","pattern_response","1332.2000000476837","stim/yes_49_hor_w1_b.png","j","pattern_70","f","false","","","","1332.2000000476837","false","5","","","","","","","","","","","","","","","","",""
"","","","","","html-keyboard-response","157","1038466","0.0-3.0-5.0-0.6","62f14bb75eaad1e10e24f48e","B2","batch2","pattern_show_trial_num","null","<p class=block-text>Trial 7 out of 78</p>","null","","","","","","","","","","","","","","","","","","","","","","","","","",""
"","","","","","image-keyboard-response","158","1039556","0.0-3.0-5.0-1.6","62f14bb75eaad1e10e24f48e","B2","batch2","pattern_response","1088.6000001430511","stim/no_33_1_b.png","j","pattern_15","j","true","","","","1088.6000001430511","true","6","","","","","","","","","","","","","","","","",""
"","","","","","html-keyboard-response","159","1040881","0.0-3.0-5.0-0.7","62f14bb75eaad1e10e24f48e","B2","batch2","pattern_show_trial_num","null","<p class=block-text>Trial 8 out of 78</p>","null","","","","","","","","","","","","","","","","","","","","","","","","","",""
"","","","","","image-keyboard-response","160","1042577","0.0-3.0-5.0-1.7","62f14bb75eaad1e10e24f48e","B2","batch2","pattern_response","1695.5999999046326","stim/yes_63_dia_b1.png","j","pattern_78","f","false","","","","1695.5999999046326","false","6","","","","","","","","","","","","","","","","",""
"","","","","","html-keyboard-response","161","1043878","0.0-3.0-5.0-0.8","62f14bb75eaad1e10e24f48e","B2","batch2","pattern_show_trial_num","null","<p class=block-text>Trial 9 out of 78</p>","null","","","","","","","","","","","","","","","","","","","","","","","","","",""
"","","","","","image-keyboard-response","162","1045009","0.0-3.0-5.0-1.8","62f14bb75eaad1e10e24f48e","B2","batch2","pattern_response","1130.0999999046326","stim/no_43_2_b.png","j","pattern_23","j","true","","","","1130.0999999046326","true","7","","","","","","","","","","","","","","","","",""
"","","","","","html-keyboard-response","163","1046336","0.0-3.0-5.0-0.9","62f14bb75eaad1e10e24f48e","B2","batch2","pattern_show_trial_num","null","<p class=block-text>Trial 10 out of 78</p>","null","","","","","","","","","","","","","","","","","","","","","","","","","",""
"","","","","","image-keyboard-response","164","1047564","0.0-3.0-5.0-1.9","62f14bb75eaad1e10e24f48e","B2","batch2","pattern_response","1226.7000000476837","stim/no_30_1_b.png","j","pattern_13","j","true","","","","1226.7000000476837","true","8","","","","","","","","","","","","","","","","",""
"","","","","","html-keyboard-response","165","1048889","0.0-3.0-5.0-0.10","62f14bb75eaad1e10e24f48e","B2","batch2","pattern_show_trial_num","null","<p class=block-text>Trial 11 out of 78</p>","null","","","","","","","","","","","","","","","","","","","","","","","","","",""
"","","","","","image-keyboard-response","166","1050348","0.0-3.0-5.0-1.10","62f14bb75eaad1e10e24f48e","B2","batch2","pattern_response","1458.1000001430511","stim/no_28_2.png","j","pattern_11","j","true","","","","1458.1000001430511","true","9","","","","","","","","","","","","","","","","",""
"","","","","","html-keyboard-response","167","1051672","0.0-3.0-5.0-0.11","62f14bb75eaad1e10e24f48e","B2","batch2","pattern_show_trial_num","null","<p class=block-text>Trial 12 out of 78</p>","null","","","","","","","","","","","","","","","","","","","","","","","","","",""
"","","","","","image-keyboard-response","168","1052940","0.0-3.0-5.0-1.11","62f14bb75eaad1e10e24f48e","B2","batch2","pattern_response","1267","stim/no_39_1_w.png","j","pattern_21","j","true","","","","1267","true","10","","","","","","","","","","","","","","","","",""
"","","","","","html-keyboard-response","169","1054256","0.0-3.0-5.0-0.12","62f14bb75eaad1e10e24f48e","B2","batch2","pattern_show_trial_num","null","<p class=block-text>Trial 13 out of 78</p>","null","","","","","","","","","","","","","","","","","","","","","","","","","",""
"","","","","","image-keyboard-response","170","1055064","0.0-3.0-5.0-1.12","62f14bb75eaad1e10e24f48e","B2","batch2","pattern_response","806.3000001907349","stim/no_12_1.png","j","pattern_01","j","true","","","","806.3000001907349","true","11","","","","","","","","","","","","","","","","",""
"","","","","","html-keyboard-response","171","1056393","0.0-3.0-5.0-0.13","62f14bb75eaad1e10e24f48e","B2","batch2","pattern_show_trial_num","null","<p class=block-text>Trial 14 out of 78</p>","null","","","","","","","","","","","","","","","","","","","","","","","","","",""
"","","","","","image-keyboard-response","172","1058022","0.0-3.0-5.0-1.13","62f14bb75eaad1e10e24f48e","B2","batch2","pattern_response","1628.1000001430511","stim/no_58_1_w.png","j","pattern_35","j","true","","","","1628.1000001430511","true","12","","","","","","","","","","","","","","","","",""
"","","","","","html-keyboard-response","173","1059348","0.0-3.0-5.0-0.14","62f14bb75eaad1e10e24f48e","B2","batch2","pattern_show_trial_num","null","<p class=block-text>Trial 15 out of 78</p>","null","","","","","","","","","","","","","","","","","","","","","","","","","",""
"","","","","","image-keyboard-response","174","1060658","0.0-3.0-5.0-1.14","62f14bb75eaad1e10e24f48e","B2","batch2","pattern_response","1309.2999999523163","stim/yes_42_dia_w1_w.png","j","pattern_64","f","false","","","","1309.2999999523163","false","12","","","","","","","","","","","","","","","","",""
"","","","","","html-keyboard-response","175","1061964","0.0-3.0-5.0-0.15","62f14bb75eaad1e10e24f48e","B2","batch2","pattern_show_trial_num","null","<p class=block-text>Trial 16 out of 78</p>","null","","","","","","","","","","","","","","","","","","","","","","","","","",""
"","","","","","image-keyboard-response","176","1062950","0.0-3.0-5.0-1.15","62f14bb75eaad1e10e24f48e","B2","batch2","pattern_response","985.9000000953674","stim/yes_33_dia_w1_w.png","j","pattern_56","f","false","","","","985.9000000953674","false","12","","","","","","","","","","","","","","","","",""
"","","","","","html-keyboard-response","177","1064271","0.0-3.0-5.0-0.16","62f14bb75eaad1e10e24f48e","B2","batch2","pattern_show_trial_num","null","<p class=block-text>Trial 17 out of 78</p>","null","","","","","","","","","","","","","","","","","","","","","","","","","",""
"","","","","","image-keyboard-response","178","1065244","0.0-3.0-5.0-1.16","62f14bb75eaad1e10e24f48e","B2","batch2","pattern_response","972.2999999523163","stim/yes_15_dia_b1u_b.png","f","pattern_44","f","true","","","","972.2999999523163","true","13","","","","","","","","","","","","","","","","",""
"","","","","","html-keyboard-response","179","1066562","0.0-3.0-5.0-0.17","62f14bb75eaad1e10e24f48e","B2","batch2","pattern_show_trial_num","null","<p class=block-text>Trial 18 out of 78</p>","null","","","","","","","","","","","","","","","","","","","","","","","","","",""
"","","","","","image-keyboard-response","180","1067509","0.0-3.0-5.0-1.17","62f14bb75eaad1e10e24f48e","B2","batch2","pattern_response","946.0999999046326","stim/yes_70_ver_b1.png","f","pattern_80","f","true","","","","946.0999999046326","true","14","","","","","","","","","","","","","","","","",""
"","","","","","html-keyboard-response","181","1068837","0.0-3.0-5.0-0.18","62f14bb75eaad1e10e24f48e","B2","batch2","pattern_show_trial_num","null","<p class=block-text>Trial 19 out of 78</p>","null","","","","","","","","","","","","","","","","","","","","","","","","","",""
"","","","","","image-keyboard-response","182","1069620","0.0-3.0-5.0-1.18","62f14bb75eaad1e10e24f48e","B2","batch2","pattern_response","782.2999999523163","stim/yes_29_hor_b1_b.png","f","pattern_52","f","true","","","","782.2999999523163","true","15","","","","","","","","","","","","","","","","",""
"","","","","","html-keyboard-response","183","1070930","0.0-3.0-5.0-0.19","62f14bb75eaad1e10e24f48e","B2","batch2","pattern_show_trial_num","null","<p class=block-text>Trial 20 out of 78</p>","null","","","","","","","","","","","","","","","","","","","","","","","","","",""
"","","","","","image-keyboard-response","184","1071821","0.0-3.0-5.0-1.19","62f14bb75eaad1e10e24f48e","B2","batch2","pattern_response","889.8999998569489","stim/yes_46_ver_b1_b.png","f","pattern_68","f","true","","","","889.8999998569489","true","16","","","","","","","","","","","","","","","","",""
"","","","","","html-keyboard-response","185","1073139","0.0-3.0-5.0-0.20","62f14bb75eaad1e10e24f48e","B2","batch2","pattern_show_trial_num","null","<p class=block-text>Trial 21 out of 78</p>","null","","","","","","","","","","","","","","","","","","","","","","","","","",""
"","","","","","image-keyboard-response","186","1073947","0.0-3.0-5.0-1.20","62f14bb75eaad1e10e24f48e","B2","batch2","pattern_response","807","stim/yes_36_ver_w1_w.png","f","pattern_58","f","true","","","","807","true","17","","","","","","","","","","","","","","","","",""
"","","","","","html-keyboard-response","187","1075264","0.0-3.0-5.0-0.21","62f14bb75eaad1e10e24f48e","B2","batch2","pattern_show_trial_num","null","<p class=block-text>Trial 22 out of 78</p>","null","","","","","","","","","","","","","","","","","","","","","","","","","",""
"","","","","","image-keyboard-response","188","1076899","0.0-3.0-5.0-1.21","62f14bb75eaad1e10e24f48e","B2","batch2","pattern_response","1633.5999999046326","stim/no_51_1.png","j","pattern_31","j","true","","","","1633.5999999046326","true","18","","","","","","","","","","","","","","","","",""
"","","","","","html-keyboard-response","189","1078202","0.0-3.0-5.0-0.22","62f14bb75eaad1e10e24f48e","B2","batch2","pattern_show_trial_num","null","<p class=block-text>Trial 23 out of 78</p>","null","","","","","","","","","","","","","","","","","","","","","","","","","",""
"","","","","","image-keyboard-response","190","1078949","0.0-3.0-5.0-1.22","62f14bb75eaad1e10e24f48e","B2","batch2","pattern_response","746.5999999046326","stim/yes_17_ver_b1_b.png","f","pattern_46","f","true","","","","746.5999999046326","true","19","","","","","","","","","","","","","","","","",""
"","","","","","html-keyboard-response","191","1080279","0.0-3.0-5.0-0.23","62f14bb75eaad1e10e24f48e","B2","batch2","pattern_show_trial_num","null","<p class=block-text>Trial 24 out of 78</p>","null","","","","","","","","","","","","","","","","","","","","","","","","","",""
"","","","","","image-keyboard-response","192","1081696","0.0-3.0-5.0-1.23","62f14bb75eaad1e10e24f48e","B2","batch2","pattern_response","1415.2999999523163","stim/no_45_1_w.png","j","pattern_25","j","true","","","","1415.2999999523163","true","20","","","","","","","","","","","","","","","","",""
"","","","","","html-keyboard-response","193","1083002","0.0-3.0-5.0-0.24","62f14bb75eaad1e10e24f48e","B2","batch2","pattern_show_trial_num","null","<p class=block-text>Trial 25 out of 78</p>","null","","","","","","","","","","","","","","","","","","","","","","","","","",""
"","","","","","image-keyboard-response","194","1083934","0.0-3.0-5.0-1.24","62f14bb75eaad1e10e24f48e","B2","batch2","pattern_response","931.0999999046326","stim/no_18_1_b.png","f","pattern_05","j","false","","","","931.0999999046326","false","20","","","","","","","","","","","","","","","","",""
"","","","","","html-keyboard-response","195","1085262","0.0-3.0-5.0-0.25","62f14bb75eaad1e10e24f48e","B2","batch2","pattern_show_trial_num","null","<p class=block-text>Trial 26 out of 78</p>","null","","","","","","","","","","","","","","","","","","","","","","","","","",""
"","","","","","image-keyboard-response","196","1086662","0.0-3.0-5.0-1.25","62f14bb75eaad1e10e24f48e","B2","batch2","pattern_response","1399.1000001430511","stim/yes_51_dia_b1.png","j","pattern_72","f","false","","","","1399.1000001430511","false","20","","","","","","","","","","","","","","","","",""
"","","","","","html-keyboard-response","197","1087972","0.0-3.0-5.0-0.26","62f14bb75eaad1e10e24f48e","B2","batch2","pattern_show_trial_num","null","<p class=block-text>Trial 27 out of 78</p>","null","","","","","","","","","","","","","","","","","","","","","","","","","",""
"","","","","","image-keyboard-response","198","1089234","0.0-3.0-5.0-1.26","62f14bb75eaad1e10e24f48e","B2","batch2","pattern_response","1261","stim/no_47_1_b.png","j","pattern_27","j","true","","","","1261","true","21","","","","","","","","","","","","","","","","",""
"","","","","","html-keyboard-response","199","1090554","0.0-3.0-5.0-0.27","62f14bb75eaad1e10e24f48e","B2","batch2","pattern_show_trial_num","null","<p class=block-text>Trial 28 out of 78</p>","null","","","","","","","","","","","","","","","","","","","","","","","","","",""
"","","","","","image-keyboard-response","200","1091691","0.0-3.0-5.0-1.27","62f14bb75eaad1e10e24f48e","B2","batch2","pattern_response","1135.7999999523163","stim/no_22_1_b.png","j","pattern_07","j","true","","","","1135.7999999523163","true","22","","","","","","","","","","","","","","","","",""
"","","","","","html-keyboard-response","201","1093020","0.0-3.0-5.0-0.28","62f14bb75eaad1e10e24f48e","B2","batch2","pattern_show_trial_num","null","<p class=block-text>Trial 29 out of 78</p>","null","","","","","","","","","","","","","","","","","","","","","","","","","",""
"","","","","","image-keyboard-response","202","1094369","0.0-3.0-5.0-1.28","62f14bb75eaad1e10e24f48e","B2","batch2","pattern_response","1348.2999999523163","stim/yes_39_hor_w1_w.png","j","pattern_62","f","false","","","","1348.2999999523163","false","22","","","","","","","","","","","","","","","","",""
"","","","","","html-keyboard-response","203","1095682","0.0-3.0-5.0-0.29","62f14bb75eaad1e10e24f48e","B2","batch2","pattern_show_trial_num","null","<p class=block-text>Trial 30 out of 78</p>","null","","","","","","","","","","","","","","","","","","","","","","","","","",""
"","","","","","image-keyboard-response","204","1096685","0.0-3.0-5.0-1.29","62f14bb75eaad1e10e24f48e","B2","batch2","pattern_response","1002.4000000953674","stim/yes_37_hor_w1_w.png","f","pattern_60","f","true","","","","1002.4000000953674","true","23","","","","","","","","","","","","","","","","",""
"","","","","","html-keyboard-response","205","1097991","0.0-3.0-5.0-0.30","62f14bb75eaad1e10e24f48e","B2","batch2","pattern_show_trial_num","null","<p class=block-text>Trial 31 out of 78</p>","null","","","","","","","","","","","","","","","","","","","","","","","","","",""
"","","","","","image-keyboard-response","206","1099722","0.0-3.0-5.0-1.30","62f14bb75eaad1e10e24f48e","B2","batch2","pattern_response","1730.6999998092651","stim/yes_53_ver_b1_b.png","f","pattern_74","f","true","","","","1730.6999998092651","true","24","","","","","","","","","","","","","","","","",""
"","","","","","html-keyboard-response","207","1101050","0.0-3.0-5.0-0.31","62f14bb75eaad1e10e24f48e","B2","batch2","pattern_show_trial_num","null","<p class=block-text>Trial 32 out of 78</p>","null","","","","","","","","","","","","","","","","","","","","","","","","","",""
"","","","","","image-keyboard-response","208","1102215","0.0-3.0-5.0-1.31","62f14bb75eaad1e10e24f48e","B2","batch2","pattern_response","1163.8999998569489","stim/yes_44_ver_w1_w.png","f","pattern_66","f","true","","","","1163.8999998569489","true","25","","","","","","","","","","","","","","","","",""
"","","","","","html-keyboard-response","209","1103542","0.0-3.0-5.0-0.32","62f14bb75eaad1e10e24f48e","B2","batch2","pattern_show_trial_num","null","<p class=block-text>Trial 33 out of 78</p>","null","","","","","","","","","","","","","","","","","","","","","","","","","",""
"","","","","","image-keyboard-response","210","1104385","0.0-3.0-5.0-1.32","62f14bb75eaad1e10e24f48e","B2","batch2","pattern_response","842.3000001907349","stim/no_15_1_w.png","j","pattern_03","j","true","","","","842.3000001907349","true","26","","","","","","","","","","","","","","","","",""
"","","","","","html-keyboard-response","211","1105693","0.0-3.0-5.0-0.33","62f14bb75eaad1e10e24f48e","B2","batch2","pattern_show_trial_num","null","<p class=block-text>Trial 34 out of 78</p>","null","","","","","","","","","","","","","","","","","","","","","","","","","",""
"","","","","","image-keyboard-response","212","1106488","0.0-3.0-5.0-1.33","62f14bb75eaad1e10e24f48e","B2","batch2","pattern_response","793.9000000953674","stim/yes_12_hor_w1_w.png","f","pattern_42","f","true","","","","793.9000000953674","true","27","","","","","","","","","","","","","","","","",""
"","","","","","html-keyboard-response","213","1107817","0.0-3.0-5.0-0.34","62f14bb75eaad1e10e24f48e","B2","batch2","pattern_show_trial_num","null","<p class=block-text>Trial 35 out of 78</p>","null","","","","","","","","","","","","","","","","","","","","","","","","","",""
"","","","","","image-keyboard-response","214","1109418","0.0-3.0-5.0-1.34","62f14bb75eaad1e10e24f48e","B2","batch2","pattern_response","1601.0999999046326","stim/yes_58_dia_w1_w.png","j","pattern_76","f","false","","","","1601.0999999046326","false","27","","","","","","","","","","","","","","","","",""
"","","","","","html-keyboard-response","215","1110724","0.0-3.0-5.0-0.35","62f14bb75eaad1e10e24f48e","B2","batch2","pattern_show_trial_num","null","<p class=block-text>Trial 36 out of 78</p>","null","","","","","","","","","","","","","","","","","","","","","","","","","",""
"","","","","","image-keyboard-response","216","1112887","0.0-3.0-5.0-1.35","62f14bb75eaad1e10e24f48e","B2","batch2","pattern_response","2161.4000000953674","stim/no_53_1_b.png","j","pattern_33","j","true","","","","2161.4000000953674","true","28","","","","","","","","","","","","","","","","",""
"","","","","","html-keyboard-response","217","1114216","0.0-3.0-5.0-0.36","62f14bb75eaad1e10e24f48e","B2","batch2","pattern_show_trial_num","null","<p class=block-text>Trial 37 out of 78</p>","null","","","","","","","","","","","","","","","","","","","","","","","","","",""
"","","","","","image-keyboard-response","218","1116069","0.0-3.0-5.0-1.36","62f14bb75eaad1e10e24f48e","B2","batch2","pattern_response","1852.2999999523163","stim/no_37_2_w.png","j","pattern_19","j","true","","","","1852.2999999523163","true","29","","","","","","","","","","","","","","","","",""
"","","","","","html-keyboard-response","219","1117396","0.0-3.0-5.0-0.37","62f14bb75eaad1e10e24f48e","B2","batch2","pattern_show_trial_num","null","<p class=block-text>Trial 38 out of 78</p>","null","","","","","","","","","","","","","","","","","","","","","","","","","",""
"","","","","","image-keyboard-response","220","1119196","0.0-3.0-5.0-1.37","62f14bb75eaad1e10e24f48e","B2","batch2","pattern_response","1799.7000000476837","stim/no_49_2_b.png","j","pattern_29","j","true","","","","1799.7000000476837","true","30","","","","","","","","","","","","","","","","",""
"","","","","","html-keyboard-response","221","1120522","0.0-3.0-5.0-0.38","62f14bb75eaad1e10e24f48e","B2","batch2","pattern_show_trial_num","null","<p class=block-text>Trial 39 out of 78</p>","null","","","","","","","","","","","","","","","","","","","","","","","","","",""
"","","","","","image-keyboard-response","222","1121714","0.0-3.0-5.0-1.38","62f14bb75eaad1e10e24f48e","B2","batch2","pattern_response","1191.2000000476837","stim/yes_23_ver_b1.png","f","pattern_48","f","true","","","","1191.2000000476837","true","31","","","","","","","","","","","","","","","","",""
"","","","","","image-keyboard-response","223","1125691","0.0-3.0-6.0","62f14bb75eaad1e10e24f48e","B2","batch2","attention_check","3462.100000143051","stim/empty_board.png","j","","j","true","","","","","","","500","[""f"",""j""]","","","","","","","","","","","","","","",""
"","","","","","html-keyboard-response","224","1126492","0.0-3.0-7.0-0.0","62f14bb75eaad1e10e24f48e","B2","batch2","pattern_show_trial_num","null","<p class=block-text>Trial 40 out of 78</p>","null","","","","","","","","","","","","","","","","","","","","","","","","","",""
"","","","","","image-keyboard-response","225","1129750","0.0-3.0-7.0-1.0","62f14bb75eaad1e10e24f48e","B2","batch2","pattern_response","3256.7000000476837","stim/yes_67_hor_b1.png","j","pattern_79","f","false","","","","3256.7000000476837","false","31","","","","","","","","","","","","","","","","",""
"","","","","","html-keyboard-response","226","1131066","0.0-3.0-7.0-0.1","62f14bb75eaad1e10e24f48e","B2","batch2","pattern_show_trial_num","null","<p class=block-text>Trial 41 out of 78</p>","null","","","","","","","","","","","","","","","","","","","","","","","","","",""
"","","","","","image-keyboard-response","227","1132363","0.0-3.0-7.0-1.1","62f14bb75eaad1e10e24f48e","B2","batch2","pattern_response","1295.9000000953674","stim/no_44_1.png","j","pattern_24","j","true","","","","1295.9000000953674","true","32","","","","","","","","","","","","","","","","",""
"","","","","","html-keyboard-response","228","1133681","0.0-3.0-7.0-0.2","62f14bb75eaad1e10e24f48e","B2","batch2","pattern_show_trial_num","null","<p class=block-text>Trial 42 out of 78</p>","null","","","","","","","","","","","","","","","","","","","","","","","","","",""
"","","","","","image-keyboard-response","229","1135671","0.0-3.0-7.0-1.2","62f14bb75eaad1e10e24f48e","B2","batch2","pattern_response","1989.6000001430511","stim/no_46_1_b.png","j","pattern_26","j","true","","","","1989.6000001430511","true","33","","","","","","","","","","","","","","","","",""
"","","","","","html-keyboard-response","230","1136988","0.0-3.0-7.0-0.3","62f14bb75eaad1e10e24f48e","B2","batch2","pattern_show_trial_num","null","<p class=block-text>Trial 43 out of 78</p>","null","","","","","","","","","","","","","","","","","","","","","","","","","",""
"","","","","","image-keyboard-response","231","1138062","0.0-3.0-7.0-1.3","62f14bb75eaad1e10e24f48e","B2","batch2","pattern_response","1072.8999998569489","stim/no_29_1_b.png","j","pattern_12","j","true","","","","1072.8999998569489","true","34","","","","","","","","","","","","","","","","",""
"","","","","","html-keyboard-response","232","1139388","0.0-3.0-7.0-0.4","62f14bb75eaad1e10e24f48e","B2","batch2","pattern_show_trial_num","null","<p class=block-text>Trial 44 out of 78</p>","null","","","","","","","","","","","","","","","","","","","","","","","","","",""
"","","","","","image-keyboard-response","233","1140572","0.0-3.0-7.0-1.4","62f14bb75eaad1e10e24f48e","B2","batch2","pattern_response","1183.3000001907349","stim/yes_29_ver_w1.png","j","pattern_53","f","false","","","","1183.3000001907349","false","34","","","","","","","","","","","","","","","","",""
"","","","","","html-keyboard-response","234","1141881","0.0-3.0-7.0-0.5","62f14bb75eaad1e10e24f48e","B2","batch2","pattern_show_trial_num","null","<p class=block-text>Trial 45 out of 78</p>","null","","","","","","","","","","","","","","","","","","","","","","","","","",""
"","","","","","image-keyboard-response","235","1142906","0.0-3.0-7.0-1.5","62f14bb75eaad1e10e24f48e","B2","batch2","pattern_response","1024.5999999046326","stim/yes_22_ver_w1.png","f","pattern_47","f","true","","","","1024.5999999046326","true","35","","","","","","","","","","","","","","","","",""
"","","","","","html-keyboard-response","236","1144236","0.0-3.0-7.0-0.6","62f14bb75eaad1e10e24f48e","B2","batch2","pattern_show_trial_num","null","<p class=block-text>Trial 46 out of 78</p>","null","","","","","","","","","","","","","","","","","","","","","","","","","",""
"","","","","","image-keyboard-response","237","1145834","0.0-3.0-7.0-1.6","62f14bb75eaad1e10e24f48e","B2","batch2","pattern_response","1597.7999999523163","stim/no_36_2_w.png","j","pattern_18","j","true","","","","1597.7999999523163","true","36","","","","","","","","","","","","","","","","",""
"","","","","","html-keyboard-response","238","1147154","0.0-3.0-7.0-0.7","62f14bb75eaad1e10e24f48e","B2","batch2","pattern_show_trial_num","null","<p class=block-text>Trial 47 out of 78</p>","null","","","","","","","","","","","","","","","","","","","","","","","","","",""
"","","","","","image-keyboard-response","239","1148915","0.0-3.0-7.0-1.7","62f14bb75eaad1e10e24f48e","B2","batch2","pattern_response","1760","stim/no_50_1.png","j","pattern_30","j","true","","","","1760","true","37","","","","","","","","","","","","","","","","",""
"","","","","","html-keyboard-response","240","1150233","0.0-3.0-7.0-0.8","62f14bb75eaad1e10e24f48e","B2","batch2","pattern_show_trial_num","null","<p class=block-text>Trial 48 out of 78</p>","null","","","","","","","","","","","","","","","","","","","","","","","","","",""
"","","","","","image-keyboard-response","241","1151374","0.0-3.0-7.0-1.8","62f14bb75eaad1e10e24f48e","B2","batch2","pattern_response","1140.2999999523163","stim/no_23_1.png","j","pattern_08","j","true","","","","1140.2999999523163","true","38","","","","","","","","","","","","","","","","",""
"","","","","","html-keyboard-response","242","1152696","0.0-3.0-7.0-0.9","62f14bb75eaad1e10e24f48e","B2","batch2","pattern_show_trial_num","null","<p class=block-text>Trial 49 out of 78</p>","null","","","","","","","","","","","","","","","","","","","","","","","","","",""
"","","","","","image-keyboard-response","243","1154051","0.0-3.0-7.0-1.9","62f14bb75eaad1e10e24f48e","B2","batch2","pattern_response","1354.2000000476837","stim/no_32_1_w.png","j","pattern_14","j","true","","","","1354.2000000476837","true","39","","","","","","","","","","","","","","","","",""
"","","","","","html-keyboard-response","244","1155369","0.0-3.0-7.0-0.10","62f14bb75eaad1e10e24f48e","B2","batch2","pattern_show_trial_num","null","<p class=block-text>Trial 50 out of 78</p>","null","","","","","","","","","","","","","","","","","","","","","","","","","",""
"","","","","","image-keyboard-response","245","1157154","0.0-3.0-7.0-1.10","62f14bb75eaad1e10e24f48e","B2","batch2","pattern_response","1784.2999999523163","stim/no_65_1_b.png","j","pattern_38","j","true","","","","1784.2999999523163","true","40","","","","","","","","","","","","","","","","",""
"","","","","","html-keyboard-response","246","1158473","0.0-3.0-7.0-0.11","62f14bb75eaad1e10e24f48e","B2","batch2","pattern_show_trial_num","null","<p class=block-text>Trial 51 out of 78</p>","null","","","","","","","","","","","","","","","","","","","","","","","","","",""
"","","","","","image-keyboard-response","247","1160043","0.0-3.0-7.0-1.11","62f14bb75eaad1e10e24f48e","B2","batch2","pattern_response","1569","stim/no_62_1_w.png","j","pattern_36","j","true","","","","1569","true","41","","","","","","","","","","","","","","","","",""
"","","","","","html-keyboard-response","248","1161349","0.0-3.0-7.0-0.12","62f14bb75eaad1e10e24f48e","B2","batch2","pattern_show_trial_num","null","<p class=block-text>Trial 52 out of 78</p>","null","","","","","","","","","","","","","","","","","","","","","","","","","",""
"","","","","","image-keyboard-response","249","1162539","0.0-3.0-7.0-1.12","62f14bb75eaad1e10e24f48e","B2","batch2","pattern_response","1189.1000001430511","stim/yes_31_hor_b1.png","j","pattern_55","f","false","","","","1189.1000001430511","false","41","","","","","","","","","","","","","","","","",""
"","","","","","html-keyboard-response","250","1163854","0.0-3.0-7.0-0.13","62f14bb75eaad1e10e24f48e","B2","batch2","pattern_show_trial_num","null","<p class=block-text>Trial 53 out of 78</p>","null","","","","","","","","","","","","","","","","","","","","","","","","","",""
"","","","","","image-keyboard-response","251","1164993","0.0-3.0-7.0-1.13","62f14bb75eaad1e10e24f48e","B2","batch2","pattern_response","1137.7000000476837","stim/yes_45_hor_b2_b.png","f","pattern_67","f","true","","","","1137.7000000476837","true","42","","","","","","","","","","","","","","","","",""
"","","","","","html-keyboard-response","252","1166301","0.0-3.0-7.0-0.14","62f14bb75eaad1e10e24f48e","B2","batch2","pattern_show_trial_num","null","<p class=block-text>Trial 54 out of 78</p>","null","","","","","","","","","","","","","","","","","","","","","","","","","",""
"","","","","","image-keyboard-response","253","1167211","0.0-3.0-7.0-1.14","62f14bb75eaad1e10e24f48e","B2","batch2","pattern_response","908.3999998569489","stim/yes_14_hor_b1_w.png","f","pattern_43","f","true","","","","908.3999998569489","true","43","","","","","","","","","","","","","","","","",""
"","","","","","html-keyboard-response","254","1168532","0.0-3.0-7.0-0.15","62f14bb75eaad1e10e24f48e","B2","batch2","pattern_show_trial_num","null","<p class=block-text>Trial 55 out of 78</p>","null","","","","","","","","","","","","","","","","","","","","","","","","","",""
"","","","","","image-keyboard-response","255","1169596","0.0-3.0-7.0-1.15","62f14bb75eaad1e10e24f48e","B2","batch2","pattern_response","1063.2000000476837","stim/yes_17_dia_w1.png","f","pattern_45","f","true","","","","1063.2000000476837","true","44","","","","","","","","","","","","","","","","",""
"","","","","","html-keyboard-response","256","1170915","0.0-3.0-7.0-0.16","62f14bb75eaad1e10e24f48e","B2","batch2","pattern_show_trial_num","null","<p class=block-text>Trial 56 out of 78</p>","null","","","","","","","","","","","","","","","","","","","","","","","","","",""
"","","","","","image-keyboard-response","257","1172172","0.0-3.0-7.0-1.16","62f14bb75eaad1e10e24f48e","B2","batch2","pattern_response","1255.9000000953674","stim/no_38_1_b.png","j","pattern_20","j","true","","","","1255.9000000953674","true","45","","","","","","","","","","","","","","","","",""
"","","","","","html-keyboard-response","258","1173496","0.0-3.0-7.0-0.17","62f14bb75eaad1e10e24f48e","B2","batch2","pattern_show_trial_num","null","<p class=block-text>Trial 57 out of 78</p>","null","","","","","","","","","","","","","","","","","","","","","","","","","",""
"","","","","","image-keyboard-response","259","1174779","0.0-3.0-7.0-1.17","62f14bb75eaad1e10e24f48e","B2","batch2","pattern_response","1282","stim/no_70_2.png","j","pattern_40","j","true","","","","1282","true","46","","","","","","","","","","","","","","","","",""
"","","","","","html-keyboard-response","260","1176095","0.0-3.0-7.0-0.18","62f14bb75eaad1e10e24f48e","B2","batch2","pattern_show_trial_num","null","<p class=block-text>Trial 58 out of 78</p>","null","","","","","","","","","","","","","","","","","","","","","","","","","",""
"","","","","","image-keyboard-response","261","1176880","0.0-3.0-7.0-1.18","62f14bb75eaad1e10e24f48e","B2","batch2","pattern_response","784.4000000953674","stim/no_13_2_b.png","j","pattern_02","j","true","","","","784.4000000953674","true","47","","","","","","","","","","","","","","","","",""
"","","","","","html-keyboard-response","262","1178201","0.0-3.0-7.0-0.19","62f14bb75eaad1e10e24f48e","B2","batch2","pattern_show_trial_num","null","<p class=block-text>Trial 59 out of 78</p>","null","","","","","","","","","","","","","","","","","","","","","","","","","",""
"","","","","","image-keyboard-response","263","1179301","0.0-3.0-7.0-1.19","62f14bb75eaad1e10e24f48e","B2","batch2","pattern_response","1099.0999999046326","stim/no_42_1_w.png","j","pattern_22","j","true","","","","1099.0999999046326","true","48","","","","","","","","","","","","","","","","",""
"","","","","","html-keyboard-response","264","1180630","0.0-3.0-7.0-0.20","62f14bb75eaad1e10e24f48e","B2","batch2","pattern_show_trial_num","null","<p class=block-text>Trial 60 out of 78</p>","null","","","","","","","","","","","","","","","","","","","","","","","","","",""
"","","","","","image-keyboard-response","265","1181622","0.0-3.0-7.0-1.20","62f14bb75eaad1e10e24f48e","B2","batch2","pattern_response","990.7000000476837","stim/yes_38_hor_b1_b.png","j","pattern_61","f","false","","","","990.7000000476837","false","48","","","","","","","","","","","","","","","","",""
"","","","","","html-keyboard-response","266","1182938","0.0-3.0-7.0-0.21","62f14bb75eaad1e10e24f48e","B2","batch2","pattern_show_trial_num","null","<p class=block-text>Trial 61 out of 78</p>","null","","","","","","","","","","","","","","","","","","","","","","","","","",""
"","","","","","image-keyboard-response","267","1184181","0.0-3.0-7.0-1.21","62f14bb75eaad1e10e24f48e","B2","batch2","pattern_response","1241.8999998569489","stim/yes_37_dia_w1.png","j","pattern_59","f","false","","","","1241.8999998569489","false","48","","","","","","","","","","","","","","","","",""
"","","","","","html-keyboard-response","268","1185482","0.0-3.0-7.0-0.22","62f14bb75eaad1e10e24f48e","B2","batch2","pattern_show_trial_num","null","<p class=block-text>Trial 62 out of 78</p>","null","","","","","","","","","","","","","","","","","","","","","","","","","",""
"","","","","","image-keyboard-response","269","1187099","0.0-3.0-7.0-1.22","62f14bb75eaad1e10e24f48e","B2","batch2","pattern_response","1617","stim/no_55_1_w.png","j","pattern_34","j","true","","","","1617","true","49","","","","","","","","","","","","","","","","",""
"","","","","","html-keyboard-response","270","1188415","0.0-3.0-7.0-0.23","62f14bb75eaad1e10e24f48e","B2","batch2","pattern_show_trial_num","null","<p class=block-text>Trial 63 out of 78</p>","null","","","","","","","","","","","","","","","","","","","","","","","","","",""
"","","","","","image-keyboard-response","271","1189535","0.0-3.0-7.0-1.23","62f14bb75eaad1e10e24f48e","B2","batch2","pattern_response","1119.4000000953674","stim/yes_43_ver_w1_w.png","f","pattern_65","f","true","","","","1119.4000000953674","true","50","","","","","","","","","","","","","","","","",""
"","","","","","html-keyboard-response","272","1190850","0.0-3.0-7.0-0.24","62f14bb75eaad1e10e24f48e","B2","batch2","pattern_show_trial_num","null","<p class=block-text>Trial 64 out of 78</p>","null","","","","","","","","","","","","","","","","","","","","","","","","","",""
"","","","","","image-keyboard-response","273","1192278","0.0-3.0-7.0-1.24","62f14bb75eaad1e10e24f48e","B2","batch2","pattern_response","1426.2000000476837","stim/yes_60_ver_b1_b.png","f","pattern_77","f","true","","","","1426.2000000476837","true","51","","","","","","","","","","","","","","","","",""
"","","","","","html-keyboard-response","274","1193602","0.0-3.0-7.0-0.25","62f14bb75eaad1e10e24f48e","B2","batch2","pattern_show_trial_num","null","<p class=block-text>Trial 65 out of 78</p>","null","","","","","","","","","","","","","","","","","","","","","","","","","",""
"","","","","","image-keyboard-response","275","1195146","0.0-3.0-7.0-1.25","62f14bb75eaad1e10e24f48e","B2","batch2","pattern_response","1543.0999999046326","stim/yes_55_hor_w1_w.png","j","pattern_75","f","false","","","","1543.0999999046326","false","51","","","","","","","","","","","","","","","","",""
"","","","","","html-keyboard-response","276","1196463","0.0-3.0-7.0-0.26","62f14bb75eaad1e10e24f48e","B2","batch2","pattern_show_trial_num","null","<p class=block-text>Trial 66 out of 78</p>","null","","","","","","","","","","","","","","","","","","","","","","","","","",""
"","","","","","image-keyboard-response","277","1197549","0.0-3.0-7.0-1.26","62f14bb75eaad1e10e24f48e","B2","batch2","pattern_response","1085.2999999523163","stim/yes_28_ver_b1.png","f","pattern_51","f","true","","","","1085.2999999523163","true","52","","","","","","","","","","","","","","","","",""
"","","","","","html-keyboard-response","278","1198875","0.0-3.0-7.0-0.27","62f14bb75eaad1e10e24f48e","B2","batch2","pattern_show_trial_num","null","<p class=block-text>Trial 67 out of 78</p>","null","","","","","","","","","","","","","","","","","","","","","","","","","",""
"","","","","","image-keyboard-response","279","1200896","0.0-3.0-7.0-1.27","62f14bb75eaad1e10e24f48e","B2","batch2","pattern_response","2020.2000000476837","stim/no_48_1_w.png","j","pattern_28","j","true","","","","2020.2000000476837","true","53","","","","","","","","","","","","","","","","",""
"","","","","","html-keyboard-response","280","1202226","0.0-3.0-7.0-0.28","62f14bb75eaad1e10e24f48e","B2","batch2","pattern_show_trial_num","null","<p class=block-text>Trial 68 out of 78</p>","null","","","","","","","","","","","","","","","","","","","","","","","","","",""
"","","","","","image-keyboard-response","281","1203498","0.0-3.0-7.0-1.28","62f14bb75eaad1e10e24f48e","B2","batch2","pattern_response","1270.6000001430511","stim/yes_50_dia_w1.png","j","pattern_71","f","false","","","","1270.6000001430511","false","53","","","","","","","","","","","","","","","","",""
"","","","","","html-keyboard-response","282","1204824","0.0-3.0-7.0-0.29","62f14bb75eaad1e10e24f48e","B2","batch2","pattern_show_trial_num","null","<p class=block-text>Trial 69 out of 78</p>","null","","","","","","","","","","","","","","","","","","","","","","","","","",""
"","","","","","image-keyboard-response","283","1206442","0.0-3.0-7.0-1.29","62f14bb75eaad1e10e24f48e","B2","batch2","pattern_response","1617.3000001907349","stim/yes_52_ver_w1.png","f","pattern_73","f","true","","","","1617.3000001907349","true","54","","","","","","","","","","","","","","","","",""
"","","","","","html-keyboard-response","284","1207746","0.0-3.0-7.0-0.30","62f14bb75eaad1e10e24f48e","B2","batch2","pattern_show_trial_num","null","<p class=block-text>Trial 70 out of 78</p>","null","","","","","","","","","","","","","","","","","","","","","","","","","",""
"","","","","","image-keyboard-response","285","1209779","0.0-3.0-7.0-1.30","62f14bb75eaad1e10e24f48e","B2","batch2","pattern_response","2031.6000001430511","stim/yes_40_dia_b1_b.png","f","pattern_63","f","true","","","","2031.6000001430511","true","55","","","","","","","","","","","","","","","","",""
"","","","","","html-keyboard-response","286","1211098","0.0-3.0-7.0-0.31","62f14bb75eaad1e10e24f48e","B2","batch2","pattern_show_trial_num","null","<p class=block-text>Trial 71 out of 78</p>","null","","","","","","","","","","","","","","","","","","","","","","","","","",""
"","","","","","image-keyboard-response","287","1212405","0.0-3.0-7.0-1.31","62f14bb75eaad1e10e24f48e","B2","batch2","pattern_response","1306.5","stim/no_20_1_w.png","j","pattern_06","j","true","","","","1306.5","true","56","","","","","","","","","","","","","","","","",""
"","","","","","html-keyboard-response","288","1213726","0.0-3.0-7.0-0.32","62f14bb75eaad1e10e24f48e","B2","batch2","pattern_show_trial_num","null","<p class=block-text>Trial 72 out of 78</p>","null","","","","","","","","","","","","","","","","","","","","","","","","","",""
"","","","","","image-keyboard-response","289","1215281","0.0-3.0-7.0-1.32","62f14bb75eaad1e10e24f48e","B2","batch2","pattern_response","1554.5999999046326","stim/no_52_1.png","j","pattern_32","j","true","","","","1554.5999999046326","true","57","","","","","","","","","","","","","","","","",""
"","","","","","html-keyboard-response","290","1216588","0.0-3.0-7.0-0.33","62f14bb75eaad1e10e24f48e","B2","batch2","pattern_show_trial_num","null","<p class=block-text>Trial 73 out of 78</p>","null","","","","","","","","","","","","","","","","","","","","","","","","","",""
"","","","","","image-keyboard-response","291","1218189","0.0-3.0-7.0-1.33","62f14bb75eaad1e10e24f48e","B2","batch2","pattern_response","1600.2000000476837","stim/yes_35_dia_b1.png","f","pattern_57","f","true","","","","1600.2000000476837","true","58","","","","","","","","","","","","","","","","",""
"","","","","","html-keyboard-response","292","1219510","0.0-3.0-7.0-0.34","62f14bb75eaad1e10e24f48e","B2","batch2","pattern_show_trial_num","null","<p class=block-text>Trial 74 out of 78</p>","null","","","","","","","","","","","","","","","","","","","","","","","","","",""
"","","","","","image-keyboard-response","293","1221780","0.0-3.0-7.0-1.34","62f14bb75eaad1e10e24f48e","B2","batch2","pattern_response","2269.7000000476837","stim/yes_48_dia_w1_w.png","j","pattern_69","f","false","","","","2269.7000000476837","false","58","","","","","","","","","","","","","","","","",""
"","","","","","html-keyboard-response","294","1223094","0.0-3.0-7.0-0.35","62f14bb75eaad1e10e24f48e","B2","batch2","pattern_show_trial_num","null","<p class=block-text>Trial 75 out of 78</p>","null","","","","","","","","","","","","","","","","","","","","","","","","","",""
"","","","","","image-keyboard-response","295","1224390","0.0-3.0-7.0-1.35","62f14bb75eaad1e10e24f48e","B2","batch2","pattern_response","1295.1000001430511","stim/no_26_1_w.png","j","pattern_10","j","true","","","","1295.1000001430511","true","59","","","","","","","","","","","","","","","","",""
"","","","","","html-keyboard-response","296","1225710","0.0-3.0-7.0-0.36","62f14bb75eaad1e10e24f48e","B2","batch2","pattern_show_trial_num","null","<p class=block-text>Trial 76 out of 78</p>","null","","","","","","","","","","","","","","","","","","","","","","","","","",""
"","","","","","image-keyboard-response","297","1226977","0.0-3.0-7.0-1.36","62f14bb75eaad1e10e24f48e","B2","batch2","pattern_response","1266.2000000476837","stim/no_34_1_b.png","j","pattern_16","j","true","","","","1266.2000000476837","true","60","","","","","","","","","","","","","","","","",""
"","","","","","html-keyboard-response","298","1228281","0.0-3.0-7.0-0.37","62f14bb75eaad1e10e24f48e","B2","batch2","pattern_show_trial_num","null","<p class=block-text>Trial 77 out of 78</p>","null","","","","","","","","","","","","","","","","","","","","","","","","","",""
"","","","","","image-keyboard-response","299","1229491","0.0-3.0-7.0-1.37","62f14bb75eaad1e10e24f48e","B2","batch2","pattern_response","1208.9000000953674","stim/no_17_1_w.png","j","pattern_04","j","true","","","","1208.9000000953674","true","61","","","","","","","","","","","","","","","","",""
"","","","","","html-keyboard-response","300","1230816","0.0-3.0-7.0-0.38","62f14bb75eaad1e10e24f48e","B2","batch2","pattern_show_trial_num","null","<p class=block-text>Trial 78 out of 78</p>","null","","","","","","","","","","","","","","","","","","","","","","","","","",""
"","","","","","image-keyboard-response","301","1231619","0.0-3.0-7.0-1.38","62f14bb75eaad1e10e24f48e","B2","batch2","pattern_response","801.6000001430511","stim/yes_25_hor_b1_b.png","f","pattern_49","f","true","","","","801.6000001430511","true","62","","","","","","","","","","","","","","","","",""
"","","","","","html-button-response","302","1238868","0.0-3.0-8.0","62f14bb75eaad1e10e24f48e","B2","batch2","","6743.5","<p class = block-text>This concludes the 4-in-a-row detection game.Thank you for your responses!<br>
            You responded correctly on 79% of the trials.<br>
            When you are ready, press ""Continue"" button to continue </p>","0","","","","","","","","","","","","","","","","","","","","","","","","","",""
"true","","","","","fullscreen","303","1243666","0.0-4.0-0.0","62f14bb75eaad1e10e24f48e","B2","batch2","","","","","","","","","","","","","","","","","","","","","","","","","","","","","",""
"","","","","","instructions","304","1346602","0.0-4.0-1.0-0.0-0.0","62f14bb75eaad1e10e24f48e","B2","batch2","tol-instructions","102935.20000004768","","","","","","","","[{""page_index"":0,""viewing_time"":18970.099999904633},{""page_index"":1,""viewing_time"":8250.400000095367},{""page_index"":2,""viewing_time"":6247.099999904633},{""page_index"":3,""viewing_time"":18063.900000095367},{""page_index"":4,""viewing_time"":11211.299999952316},{""page_index"":5,""viewing_time"":30153.099999904633},{""page_index"":6,""viewing_time"":10039.200000047684}]","","","","","","","","","","","","","","","","","","","",""
"","","","","","html-button-response","305","1348037","0.0-4.0-1.0-1.0-0.0","62f14bb75eaad1e10e24f48e","B2","batch2","tol_enter_quiz","1434.9000000953674","<p class=block-text> Let's answer a few questions <br>","0","","","","","","","","","","","","","","","","","","","","","","","","","",""
"","","","","","html-button-response","306","1352910","0.0-4.0-1.0-1.0-1.0","62f14bb75eaad1e10e24f48e","B2","batch2","tol_quiz","4871.799999952316","<p class = block-text>True or False: You can only move the ball on top of a peg. <br></p>","0","","","true","","","","","","","","","","","","","","","","","","","","","","",""
"","","","","","html-button-response","307","1355255","0.0-4.0-1.0-1.0-2.0","62f14bb75eaad1e10e24f48e","B2","batch2","tol_quiz_feedback","2344.2999999523163","<p class = block-text>Correct! You can only move the ball on top of a peg.</p>","0","","","","","","","","","","","","","","","","","","","","","","","","","",""
"","","","","","html-button-response","308","1361614","0.0-4.0-1.0-1.0-3.0","62f14bb75eaad1e10e24f48e","B2","batch2","tol_quiz","6358.5","<p class = block-text>True or False: You should try to match your board with the target board with fewest moves possible. <br></p>","0","","","true","","","","","","","","","","","","","","","","","","","","","","",""
"","","","","","html-button-response","309","1362785","0.0-4.0-1.0-1.0-4.0","62f14bb75eaad1e10e24f48e","B2","batch2","tol_quiz_feedback","1170.4000000953674","<p class = block-text>Correct! </p>","0","","","","","","","","","","","","","","","","","","","","","","","","","",""
"","","","","","html-button-response","310","1365694","0.0-4.0-2.0","62f14bb75eaad1e10e24f48e","B2","batch2","","2907.7000000476837","<p class=block-text> Now that you've understood the game, let's practice a few easier examples before we start!<br> <br>","0","","","","","","","","","","","","","","","","","","","","","","","","","",""
"","","","","","single-stim-button","311","1373135","0.0-4.0-3.0-0.0","62f14bb75eaad1e10e24f48e","B2","batch2","tol_practice","7440","","","","","","","","","","","","","","tol_peg_2","7440","7440","0","[[1,2,0],[0,0],[0]]","1","[[1,2,0],[0,0],[3]]","practice","7440","","","","","",""
"","","","","","single-stim-button","312","1374998","0.0-4.0-3.0-1.0","62f14bb75eaad1e10e24f48e","B2","batch2","tol_practice","1863","","","","","","","","","","","","","","tol_peg_3","1863","1863","0","[[1,2,0],[0,0],[3]]","1","[[1,2,0],[0,0],[3]]","practice","1863","","","","","",""
"","","","","","poldrack-single-stim","313","1376011","0.0-4.0-4.0","62f14bb75eaad1e10e24f48e","B2","batch2","tol_feedback","-1","","","","","true","","","","","","","","","","1000","1000","500","","","","","","-1","none","true","","0",""
"","","","","","single-stim-button","314","1380016","0.0-4.0-5.0-0.0","62f14bb75eaad1e10e24f48e","B2","batch2","tol_practice","4005","","","","","","","","","","","","","","tol_peg_1","4005","4005","0","[[1,0,0],[3,0],[0]]","2","[[0,0,0],[3,1],[2]]","practice","4005","","","","","",""
"","","","","","single-stim-button","315","1381354","0.0-4.0-5.0-1.0","62f14bb75eaad1e10e24f48e","B2","batch2","tol_practice","1338","","","","","","","","","","","","","","tol_peg_3","1338","1338","0","[[1,0,0],[3,0],[2]]","2","[[0,0,0],[3,1],[2]]","practice","1338","","","","","",""
"","","","","","single-stim-button","316","1382237","0.0-4.0-5.1-0.1","62f14bb75eaad1e10e24f48e","B2","batch2","tol_practice","883","","","","","","","","","","","","","","tol_peg_1","883","883","0","[[0,0,0],[3,0],[2]]","3","[[0,0,0],[3,1],[2]]","practice","883","","","","","",""
"","","","","","single-stim-button","317","1382993","0.0-4.0-5.1-1.1","62f14bb75eaad1e10e24f48e","B2","batch2","tol_practice","754","","","","","","","","","","","","","","tol_peg_2","754","754","0","[[0,0,0],[3,1],[2]]","3","[[0,0,0],[3,1],[2]]","practice","754","","","","","",""
"","","","","","poldrack-single-stim","318","1383999","0.0-4.0-6.0","62f14bb75eaad1e10e24f48e","B2","batch2","tol_feedback","-1","","","","","true","","","","","","","","","","1000","1000","500","","","","","","-1","none","true","","0",""
"","","","","","single-stim-button","319","1387192","0.0-4.0-7.0-0.0","62f14bb75eaad1e10e24f48e","B2","batch2","tol_practice","3192","","","","","","","","","","","","","","tol_peg_2","3192","3192","0","[[1,2,0],[0,0],[0]]","4","[[1,0,0],[2,0],[3]]","practice","3192","","","","","",""
"","","","","","single-stim-button","320","1388313","0.0-4.0-7.0-1.0","62f14bb75eaad1e10e24f48e","B2","batch2","tol_practice","1120","","","","","","","","","","","","","","tol_peg_3","1120","1120","0","[[1,2,0],[0,0],[3]]","4","[[1,0,0],[2,0],[3]]","practice","1120","","","","","",""
"","","","","","single-stim-button","321","1389461","0.0-4.0-7.1-0.1","62f14bb75eaad1e10e24f48e","B2","batch2","tol_practice","1147","","","","","","","","","","","","","","tol_peg_1","1147","1147","0","[[1,0,0],[0,0],[3]]","5","[[1,0,0],[2,0],[3]]","practice","1147","","","","","",""
"","","","","","single-stim-button","322","1390109","0.0-4.0-7.1-1.1","62f14bb75eaad1e10e24f48e","B2","batch2","tol_practice","648","","","","","","","","","","","","","","tol_peg_2","648","648","0","[[1,0,0],[2,0],[3]]","5","[[1,0,0],[2,0],[3]]","practice","648","","","","","",""
"","","","","","poldrack-single-stim","323","1391121","0.0-4.0-8.0","62f14bb75eaad1e10e24f48e","B2","batch2","tol_feedback","-1","","","","","true","","","","","","","","","","1000","1000","500","","","","","","-1","none","true","","0",""
"","","","","","html-button-response","324","1394716","0.0-4.0-9.0","62f14bb75eaad1e10e24f48e","B2","batch2","tol_instruction","3595.0999999046326","<div class = centerbox><p class = center-block-text>Great job! You are done with practice trials<br>You are about to start official trials.<br> <br> Problem <strong>1</strong> out of 25 problems</p></div>","0","","","","","","","","","","","","","","","","","","","","","","","","","",""
"","","","","","single-stim-button","325","1400530","0.0-4.0-10.0-0.0","62f14bb75eaad1e10e24f48e","B2","batch2","tol_tohand","4805","","","","","","","","","","","","","","tol_peg_2","4805","4805","0","[[1,2,0],[0,0],[0]]","1","[[1,3,0],[2,0],[0]]","0","0","","","","","","3"
"","","","","","single-stim-button","326","1401323","0.0-4.0-10.0-1.0","62f14bb75eaad1e10e24f48e","B2","batch2","tol_toboard","793","","","","","","","","","","","","","","tol_peg_3","793","793","0","[[1,2,0],[0,0],[3]]","1","[[1,3,0],[2,0],[0]]","0","0","","","","","","3"
"","","","","","single-stim-button","327","1402212","0.0-4.0-10.1-0.1","62f14bb75eaad1e10e24f48e","B2","batch2","tol_tohand","888","","","","","","","","","","","","","","tol_peg_1","888","888","0","[[1,0,0],[0,0],[3]]","2","[[1,3,0],[2,0],[0]]","0","0","","","","","","3"
"","","","","","single-stim-button","328","1402868","0.0-4.0-10.1-1.1","62f14bb75eaad1e10e24f48e","B2","batch2","tol_toboard","656","","","","","","","","","","","","","","tol_peg_2","656","656","0","[[1,0,0],[2,0],[3]]","2","[[1,3,0],[2,0],[0]]","0","0","","","","","","3"
"","","","","","single-stim-button","329","1404335","0.0-4.0-10.2-0.2","62f14bb75eaad1e10e24f48e","B2","batch2","tol_tohand","1465","","","","","","","","","","","","","","tol_peg_3","1465","1465","0","[[1,0,0],[2,0],[0]]","3","[[1,3,0],[2,0],[0]]","0","0","","","","","","3"
"","","","","","single-stim-button","330","1405040","0.0-4.0-10.2-1.2","62f14bb75eaad1e10e24f48e","B2","batch2","tol_toboard","704","","","","","","","","","","","","","","tol_peg_1","704","704","0","[[1,3,0],[2,0],[0]]","3","[[1,3,0],[2,0],[0]]","0","0","","","","","","3"
"","","","","","poldrack-single-stim","331","1406049","0.0-4.0-11.0","62f14bb75eaad1e10e24f48e","B2","batch2","tol_feedback","-1","","","","","true","","","","","","","","","","1000","1000","500","","","","","","-1","none","true","4805","7158",""
"","","","","","html-button-response","332","1408448","0.0-4.0-12.0","62f14bb75eaad1e10e24f48e","B2","batch2","tol_trial_num","2398.100000143051","<div class = centerbox><p class = center-block-text>problem <strong>2</strong> out of 25 problems</p></div>","0","","","","","","","","","","","","","","","","","","","","","","","","","",""
"","","","","","single-stim-button","333","1413088","0.0-4.0-13.0-0.0","62f14bb75eaad1e10e24f48e","B2","batch2","tol_tohand","4639","","","","","","","","","","","","","","tol_peg_1","4639","4639","0","[[1,0,0],[3,0],[0]]","1","[[2,1,3],[0,0],[0]]","1","0","","","","","","5"
"","","","","","single-stim-button","334","1415386","0.0-4.0-13.0-1.0","62f14bb75eaad1e10e24f48e","B2","batch2","tol_toboard","2297","","","","","","","","","","","","","","tol_peg_3","2297","2297","0","[[1,0,0],[3,0],[2]]","1","[[2,1,3],[0,0],[0]]","1","0","","","","","","5"
"","","","","","single-stim-button","335","1416144","0.0-4.0-13.1-0.1","62f14bb75eaad1e10e24f48e","B2","batch2","tol_tohand","758","","","","","","","","","","","","","","tol_peg_1","758","758","0","[[0,0,0],[3,0],[2]]","2","[[2,1,3],[0,0],[0]]","1","0","","","","","","5"
"","","","","","single-stim-button","336","1417349","0.0-4.0-13.1-1.1","62f14bb75eaad1e10e24f48e","B2","batch2","tol_toboard","1204","","","","","","","","","","","","","","tol_peg_2","1204","1204","0","[[0,0,0],[3,1],[2]]","2","[[2,1,3],[0,0],[0]]","1","0","","","","","","5"
"","","","","","single-stim-button","337","1418121","0.0-4.0-13.2-0.2","62f14bb75eaad1e10e24f48e","B2","batch2","tol_tohand","772","","","","","","","","","","","","","","tol_peg_3","772","772","0","[[0,0,0],[3,1],[0]]","3","[[2,1,3],[0,0],[0]]","1","0","","","","","","5"
"","","","","","single-stim-button","338","1419096","0.0-4.0-13.2-1.2","62f14bb75eaad1e10e24f48e","B2","batch2","tol_toboard","974","","","","","","","","","","","","","","tol_peg_1","974","974","0","[[2,0,0],[3,1],[0]]","3","[[2,1,3],[0,0],[0]]","1","0","","","","","","5"
"","","","","","single-stim-button","339","1419905","0.0-4.0-13.3-0.3","62f14bb75eaad1e10e24f48e","B2","batch2","tol_tohand","808","","","","","","","","","","","","","","tol_peg_2","808","808","0","[[2,0,0],[3,0],[0]]","4","[[2,1,3],[0,0],[0]]","1","0","","","","","","5"
"","","","","","single-stim-button","340","1421092","0.0-4.0-13.3-1.3","62f14bb75eaad1e10e24f48e","B2","batch2","tol_toboard","1187","","","","","","","","","","","","","","tol_peg_3","1187","1187","0","[[2,0,0],[3,0],[1]]","4","[[2,1,3],[0,0],[0]]","1","0","","","","","","5"
"","","","","","single-stim-button","341","1421629","0.0-4.0-13.4-0.4","62f14bb75eaad1e10e24f48e","B2","batch2","tol_tohand","537","","","","","","","","","","","","","","tol_peg_2","537","537","0","[[2,0,0],[0,0],[1]]","5","[[2,1,3],[0,0],[0]]","1","0","","","","","","5"
"","","","","","single-stim-button","342","1422188","0.0-4.0-13.4-1.4","62f14bb75eaad1e10e24f48e","B2","batch2","tol_toboard","558","","","","","","","","","","","","","","tol_peg_1","558","558","0","[[2,3,0],[0,0],[1]]","5","[[2,1,3],[0,0],[0]]","1","0","","","","","","5"
"","","","","","single-stim-button","343","1422901","0.0-4.0-13.5-0.5","62f14bb75eaad1e10e24f48e","B2","batch2","tol_tohand","712","","","","","","","","","","","","","","tol_peg_3","712","712","0","[[2,3,0],[0,0],[0]]","6","[[2,1,3],[0,0],[0]]","1","0","","","","","","5"
"","","","","","single-stim-button","344","1424491","0.0-4.0-13.5-1.5","62f14bb75eaad1e10e24f48e","B2","batch2","tol_toboard","1588","","","","","","","","","","","","","","tol_peg_1","1588","1588","0","[[2,3,1],[0,0],[0]]","6","[[2,1,3],[0,0],[0]]","1","0","","","","","","5"
"","","","","","single-stim-button","345","1425503","0.0-4.0-13.6-0.6","62f14bb75eaad1e10e24f48e","B2","batch2","tol_tohand","1012","","","","","","","","","","","","","","tol_peg_1","1012","1012","0","[[2,3,0],[0,0],[0]]","7","[[2,1,3],[0,0],[0]]","1","0","","","","","","5"
"","","","","","single-stim-button","346","1426150","0.0-4.0-13.6-1.6","62f14bb75eaad1e10e24f48e","B2","batch2","tol_toboard","647","","","","","","","","","","","","","","tol_peg_2","647","647","0","[[2,3,0],[1,0],[0]]","7","[[2,1,3],[0,0],[0]]","1","0","","","","","","5"
