"success","timeout","failed_images","failed_audio","failed_video","trial_type","trial_index","time_elapsed","internal_node_id","subject_id","study_id","session_id","view_history","rt","stimulus","response","task","correct","answer","item","fiar_detect_rt","fiar_detect_correct","total_correct_fiar_detect","post_trial_gap","choices","mouse_click","stim_duration","block_duration","timing_post_trial","current_position","tol_num_moves_made","tol_target","tol_problem_id","tol_rt","key_press","possible_responses","tol_correct","preplanning","tol_rt_per_trial","tol_min_moves","spm_correct","spm_rt"
"true","false","[]","[]","[]","preload","0","48016","0.0-0.0","62fb383ce16d6921d1c2c2b8","F1","batch6","","","","","","","","","","","","","","","","","","","","","","","","","","","","","",""
"true","","","","","fullscreen","1","3508919","0.0-1.0-0.0","62fb383ce16d6921d1c2c2b8","F1","batch6","","","","","","","","","","","","","","","","","","","","","","","","","","","","","",""
"true","","","","","fullscreen","2","3720946","0.0-2.0-0.0","62fb383ce16d6921d1c2c2b8","F1","batch6","","","","","","","","","","","","","","","","","","","","","","","","","","","","","",""
"","","","","","instructions","3","3873313","0.0-2.0-1.0-0.0","62fb383ce16d6921d1c2c2b8","F1","batch6","[{""page_index"":0,""viewing_time"":142522.69999999925},{""page_index"":1,""viewing_time"":9838.800000000745}]","152361.80000000075","","","","","","","","","","","","","","","","","","","","","","","","","","","",""
"","","","","","html-button-response","4","3874424","0.0-2.0-1.0-1.0-0.0","62fb383ce16d6921d1c2c2b8","F1","batch6","","1108.5","<p class=block-text> Let's answer a few questions <br>","0","pattern_enter_quiz","","","","","","","","","","","","","","","","","","","","","","","","",""
"","","","","","html-button-response","5","3878152","0.0-2.0-1.0-1.0-1.0","62fb383ce16d6921d1c2c2b8","F1","batch6","","3725.89999999851","<p class = block-text>True or False: You will have as much time as you want to make each choice. <br></p>","1","pattern_quiz","true","","","","","","","","","","","","","","","","","","","","","","","",""
"","","","","","html-button-response","6","3880234","0.0-2.0-1.0-1.0-2.0","62fb383ce16d6921d1c2c2b8","F1","batch6","","2080.39999999851","<p class = block-text>Correct! You should make your choice <strong> as fast as you can</strong>.</p>","0","pattern_quiz_feedback","","","","","","","","","","","","","","","","","","","","","","","","",""
"","","","","","html-button-response","7","3883275","0.0-2.0-1.0-1.0-3.0","62fb383ce16d6921d1c2c2b8","F1","batch6","","3040","<p class = block-text>True or False: You will look for 4 pieces in black or white color connected in a row either horizontally, vertically or diagonally. <br></p>","0","pattern_quiz","true","","","","","","","","","","","","","","","","","","","","","","","",""
"","","","","","html-button-response","8","3884256","0.0-2.0-1.0-1.0-4.0","62fb383ce16d6921d1c2c2b8","F1","batch6","","978.5","<p class = block-text>Correct! </p>","0","pattern_quiz_feedback","","","","","","","","","","","","","","","","","","","","","","","","",""
"","","","","","html-button-response","9","3885411","0.0-2.0-2.0","62fb383ce16d6921d1c2c2b8","F1","batch6","","1153.199999999255","<p class=block-text> Now that you've understood the game, let's do a few practice trials before we start!<br> <br>","0","pattern_enter_practice","","","","","","","","","","","","","","","","","","","","","","","","",""
"","","","","","image-keyboard-response","10","3889404","0.0-2.0-3.0-0.0","62fb383ce16d6921d1c2c2b8","F1","batch6","","3989.89999999851","stim/prac_no_16_1.png","f","pattern_practice","false","j","","","","","","","","","","","","","","","","","","","","","","",""
"","","","","","html-keyboard-response","11","3890424","0.0-2.0-3.0-1.0","62fb383ce16d6921d1c2c2b8","F1","batch6","","null","<p style=""font-size:30px;color:red;"">Wrong.</p>","null","pattern_feedback","","","","","","","","","","","","","","","","","","","","","","","","",""
"","","","","","image-keyboard-response","12","3890490","0.0-2.0-3.0-0.1","62fb383ce16d6921d1c2c2b8","F1","batch6","","64.70000000298023","stim/prac_yes_16_ver_w1.png","f","pattern_practice","true","f","","","","","","","","","","","","","","","","","","","","","","",""
"","","","","","html-keyboard-response","13","3891518","0.0-2.0-3.0-1.1","62fb383ce16d6921d1c2c2b8","F1","batch6","","null","<p style=""font-size:30px;color:green;"">Correct!</p>","null","pattern_feedback","","","","","","","","","","","","","","","","","","","","","","","","",""
"","","","","","image-keyboard-response","14","3892483","0.0-2.0-3.0-0.2","62fb383ce16d6921d1c2c2b8","F1","batch6","","963.3999999985099","stim/prac_yes_18_hor_w1.png","f","pattern_practice","true","f","","","","","","","","","","","","","","","","","","","","","","",""
"","","","","","html-keyboard-response","15","3893511","0.0-2.0-3.0-1.2","62fb383ce16d6921d1c2c2b8","F1","batch6","","null","<p style=""font-size:30px;color:green;"">Correct!</p>","null","pattern_feedback","","","","","","","","","","","","","","","","","","","","","","","","",""
"","","","","","image-keyboard-response","16","3894774","0.0-2.0-3.0-0.3","62fb383ce16d6921d1c2c2b8","F1","batch6","","1261.5999999977648","stim/prac_no_18_1.png","j","pattern_practice","true","j","","","","","","","","","","","","","","","","","","","","","","",""
"","","","","","html-keyboard-response","17","3895798","0.0-2.0-3.0-1.3","62fb383ce16d6921d1c2c2b8","F1","batch6","","null","<p style=""font-size:30px;color:green;"">Correct!</p>","null","pattern_feedback","","","","","","","","","","","","","","","","","","","","","","","","",""
"","","","","","image-keyboard-response","18","3896563","0.0-2.0-3.0-0.4","62fb383ce16d6921d1c2c2b8","F1","batch6","","763.1000000014901","stim/prac_yes_20_dia_b1.png","f","pattern_practice","true","f","","","","","","","","","","","","","","","","","","","","","","",""
"","","","","","html-keyboard-response","19","3897585","0.0-2.0-3.0-1.4","62fb383ce16d6921d1c2c2b8","F1","batch6","","null","<p style=""font-size:30px;color:green;"">Correct!</p>","null","pattern_feedback","","","","","","","","","","","","","","","","","","","","","","","","",""
"","","","","","html-button-response","20","3898960","0.0-2.0-4.0","62fb383ce16d6921d1c2c2b8","F1","batch6","","1372.6000000014901","<p class=block-text> Good job! You are done with practice trials!<br>
        You responded correctly on 80% of the trials.<br>
        Press the button below to start official trials. Now you won't see any feedback about your response</p>","0","pattern_enter_official_trials","","","","","","","","","","","","","","","","","","","","","","","","",""
"","","","","","html-keyboard-response","21","3899774","0.0-2.0-5.0-0.0","62fb383ce16d6921d1c2c2b8","F1","batch6","","null","<p class=block-text>Trial 1 out of 78</p>","null","pattern_show_trial_num","","","","","","","","","","","","","","","","","","","","","","","","",""
"","","","","","image-keyboard-response","22","3901370","0.0-2.0-5.0-1.0","62fb383ce16d6921d1c2c2b8","F1","batch6","","1595.199999999255","stim/yes_63_dia_b1.png","j","pattern_response","false","f","pattern_78","1595.199999999255","false","0","","","","","","","","","","","","","","","","","","",""
"","","","","","html-keyboard-response","23","3902690","0.0-2.0-5.0-0.1","62fb383ce16d6921d1c2c2b8","F1","batch6","","null","<p class=block-text>Trial 2 out of 78</p>","null","pattern_show_trial_num","","","","","","","","","","","","","","","","","","","","","","","","",""
"","","","","","image-keyboard-response","24","3903368","0.0-2.0-5.0-1.1","62fb383ce16d6921d1c2c2b8","F1","batch6","","676.8999999985099","stim/yes_29_hor_b1_b.png","j","pattern_response","false","f","pattern_52","676.8999999985099","false","0","","","","","","","","","","","","","","","","","","",""
"","","","","","html-keyboard-response","25","3904694","0.0-2.0-5.0-0.2","62fb383ce16d6921d1c2c2b8","F1","batch6","","null","<p class=block-text>Trial 3 out of 78</p>","null","pattern_show_trial_num","","","","","","","","","","","","","","","","","","","","","","","","",""
"","","","","","image-keyboard-response","26","3906934","0.0-2.0-5.0-1.2","62fb383ce16d6921d1c2c2b8","F1","batch6","","2239.199999999255","stim/yes_12_hor_w1_w.png","f","pattern_response","true","f","pattern_42","2239.199999999255","true","1","","","","","","","","","","","","","","","","","","",""
"","","","","","html-keyboard-response","27","3908253","0.0-2.0-5.0-0.3","62fb383ce16d6921d1c2c2b8","F1","batch6","","null","<p class=block-text>Trial 4 out of 78</p>","null","pattern_show_trial_num","","","","","","","","","","","","","","","","","","","","","","","","",""
"","","","","","image-keyboard-response","28","3908824","0.0-2.0-5.0-1.3","62fb383ce16d6921d1c2c2b8","F1","batch6","","569.3000000007451","stim/no_22_1_b.png","f","pattern_response","false","j","pattern_07","569.3000000007451","false","1","","","","","","","","","","","","","","","","","","",""
"","","","","","html-keyboard-response","29","3910142","0.0-2.0-5.0-0.4","62fb383ce16d6921d1c2c2b8","F1","batch6","","null","<p class=block-text>Trial 5 out of 78</p>","null","pattern_show_trial_num","","","","","","","","","","","","","","","","","","","","","","","","",""
"","","","","","image-keyboard-response","30","3910867","0.0-2.0-5.0-1.4","62fb383ce16d6921d1c2c2b8","F1","batch6","","723.3000000007451","stim/yes_39_hor_w1_w.png","f","pattern_response","true","f","pattern_62","723.3000000007451","true","2","","","","","","","","","","","","","","","","","","",""
"","","","","","html-keyboard-response","31","3912189","0.0-2.0-5.0-0.5","62fb383ce16d6921d1c2c2b8","F1","batch6","","null","<p class=block-text>Trial 6 out of 78</p>","null","pattern_show_trial_num","","","","","","","","","","","","","","","","","","","","","","","","",""
"","","","","","image-keyboard-response","32","3912735","0.0-2.0-5.0-1.5","62fb383ce16d6921d1c2c2b8","F1","batch6","","544.4000000022352","stim/yes_15_dia_b1u_b.png","f","pattern_response","true","f","pattern_44","544.4000000022352","true","3","","","","","","","","","","","","","","","","","","",""
"","","","","","html-keyboard-response","33","3914045","0.0-2.0-5.0-0.6","62fb383ce16d6921d1c2c2b8","F1","batch6","","null","<p class=block-text>Trial 7 out of 78</p>","null","pattern_show_trial_num","","","","","","","","","","","","","","","","","","","","","","","","",""
"","","","","","image-keyboard-response","34","3914622","0.0-2.0-5.0-1.6","62fb383ce16d6921d1c2c2b8","F1","batch6","","574.5","stim/no_18_1_b.png","j","pattern_response","true","j","pattern_05","574.5","true","4","","","","","","","","","","","","","","","","","","",""
"","","","","","html-keyboard-response","35","3915948","0.0-2.0-5.0-0.7","62fb383ce16d6921d1c2c2b8","F1","batch6","","null","<p class=block-text>Trial 8 out of 78</p>","null","pattern_show_trial_num","","","","","","","","","","","","","","","","","","","","","","","","",""
"","","","","","image-keyboard-response","36","3916802","0.0-2.0-5.0-1.7","62fb383ce16d6921d1c2c2b8","F1","batch6","","852.8999999985099","stim/yes_30_ver_b1_b.png","j","pattern_response","false","f","pattern_54","852.8999999985099","false","4","","","","","","","","","","","","","","","","","","",""
"","","","","","html-keyboard-response","37","3918119","0.0-2.0-5.0-0.8","62fb383ce16d6921d1c2c2b8","F1","batch6","","null","<p class=block-text>Trial 9 out of 78</p>","null","pattern_show_trial_num","","","","","","","","","","","","","","","","","","","","","","","","",""
"","","","","","image-keyboard-response","38","3919332","0.0-2.0-5.0-1.8","62fb383ce16d6921d1c2c2b8","F1","batch6","","1211.2999999970198","stim/no_39_1_w.png","j","pattern_response","true","j","pattern_21","1211.2999999970198","true","5","","","","","","","","","","","","","","","","","","",""
"","","","","","html-keyboard-response","39","3920652","0.0-2.0-5.0-0.9","62fb383ce16d6921d1c2c2b8","F1","batch6","","null","<p class=block-text>Trial 10 out of 78</p>","null","pattern_show_trial_num","","","","","","","","","","","","","","","","","","","","","","","","",""
"","","","","","image-keyboard-response","40","3921343","0.0-2.0-5.0-1.9","62fb383ce16d6921d1c2c2b8","F1","batch6","","688.0999999977648","stim/yes_36_ver_w1_w.png","f","pattern_response","true","f","pattern_58","688.0999999977648","true","6","","","","","","","","","","","","","","","","","","",""
"","","","","","html-keyboard-response","41","3922662","0.0-2.0-5.0-0.10","62fb383ce16d6921d1c2c2b8","F1","batch6","","null","<p class=block-text>Trial 11 out of 78</p>","null","pattern_show_trial_num","","","","","","","","","","","","","","","","","","","","","","","","",""
"","","","","","image-keyboard-response","42","3924276","0.0-2.0-5.0-1.10","62fb383ce16d6921d1c2c2b8","F1","batch6","","1612.2000000029802","stim/no_33_1_b.png","j","pattern_response","true","j","pattern_15","1612.2000000029802","true","7","","","","","","","","","","","","","","","","","","",""
"","","","","","html-keyboard-response","43","3925602","0.0-2.0-5.0-0.11","62fb383ce16d6921d1c2c2b8","F1","batch6","","null","<p class=block-text>Trial 12 out of 78</p>","null","pattern_show_trial_num","","","","","","","","","","","","","","","","","","","","","","","","",""
"","","","","","image-keyboard-response","44","3926558","0.0-2.0-5.0-1.11","62fb383ce16d6921d1c2c2b8","F1","batch6","","954.3000000007451","stim/no_28_2.png","j","pattern_response","true","j","pattern_11","954.3000000007451","true","8","","","","","","","","","","","","","","","","","","",""
"","","","","","html-keyboard-response","45","3927876","0.0-2.0-5.0-0.12","62fb383ce16d6921d1c2c2b8","F1","batch6","","null","<p class=block-text>Trial 13 out of 78</p>","null","pattern_show_trial_num","","","","","","","","","","","","","","","","","","","","","","","","",""
"","","","","","image-keyboard-response","46","3928824","0.0-2.0-5.0-1.12","62fb383ce16d6921d1c2c2b8","F1","batch6","","947.1000000014901","stim/no_43_2_b.png","j","pattern_response","true","j","pattern_23","947.1000000014901","true","9","","","","","","","","","","","","","","","","","","",""
"","","","","","html-keyboard-response","47","3930141","0.0-2.0-5.0-0.13","62fb383ce16d6921d1c2c2b8","F1","batch6","","null","<p class=block-text>Trial 14 out of 78</p>","null","pattern_show_trial_num","","","","","","","","","","","","","","","","","","","","","","","","",""
"","","","","","image-keyboard-response","48","3930960","0.0-2.0-5.0-1.13","62fb383ce16d6921d1c2c2b8","F1","batch6","","817.1000000014901","stim/yes_23_ver_b1.png","j","pattern_response","false","f","pattern_48","817.1000000014901","false","9","","","","","","","","","","","","","","","","","","",""
"","","","","","html-keyboard-response","49","3932282","0.0-2.0-5.0-0.14","62fb383ce16d6921d1c2c2b8","F1","batch6","","null","<p class=block-text>Trial 15 out of 78</p>","null","pattern_show_trial_num","","","","","","","","","","","","","","","","","","","","","","","","",""
"","","","","","image-keyboard-response","50","3933789","0.0-2.0-5.0-1.14","62fb383ce16d6921d1c2c2b8","F1","batch6","","1505.699999999255","stim/no_47_1_b.png","j","pattern_response","true","j","pattern_27","1505.699999999255","true","10","","","","","","","","","","","","","","","","","","",""
"","","","","","html-keyboard-response","51","3935108","0.0-2.0-5.0-0.15","62fb383ce16d6921d1c2c2b8","F1","batch6","","null","<p class=block-text>Trial 16 out of 78</p>","null","pattern_show_trial_num","","","","","","","","","","","","","","","","","","","","","","","","",""
"","","","","","image-keyboard-response","52","3936196","0.0-2.0-5.0-1.15","62fb383ce16d6921d1c2c2b8","F1","batch6","","1085.7000000029802","stim/no_12_1.png","j","pattern_response","true","j","pattern_01","1085.7000000029802","true","11","","","","","","","","","","","","","","","","","","",""
"","","","","","html-keyboard-response","53","3937511","0.0-2.0-5.0-0.16","62fb383ce16d6921d1c2c2b8","F1","batch6","","null","<p class=block-text>Trial 17 out of 78</p>","null","pattern_show_trial_num","","","","","","","","","","","","","","","","","","","","","","","","",""
"","","","","","image-keyboard-response","54","3938923","0.0-2.0-5.0-1.16","62fb383ce16d6921d1c2c2b8","F1","batch6","","1411.300000000745","stim/yes_49_hor_w1_b.png","f","pattern_response","true","f","pattern_70","1411.300000000745","true","12","","","","","","","","","","","","","","","","","","",""
"","","","","","html-keyboard-response","55","3940249","0.0-2.0-5.0-0.17","62fb383ce16d6921d1c2c2b8","F1","batch6","","null","<p class=block-text>Trial 18 out of 78</p>","null","pattern_show_trial_num","","","","","","","","","","","","","","","","","","","","","","","","",""
"","","","","","image-keyboard-response","56","3941640","0.0-2.0-5.0-1.17","62fb383ce16d6921d1c2c2b8","F1","batch6","","1389.9000000022352","stim/no_25_1_b.png","j","pattern_response","true","j","pattern_09","1389.9000000022352","true","13","","","","","","","","","","","","","","","","","","",""
"","","","","","html-keyboard-response","57","3942963","0.0-2.0-5.0-0.18","62fb383ce16d6921d1c2c2b8","F1","batch6","","null","<p class=block-text>Trial 19 out of 78</p>","null","pattern_show_trial_num","","","","","","","","","","","","","","","","","","","","","","","","",""
"","","","","","image-keyboard-response","58","3945263","0.0-2.0-5.0-1.18","62fb383ce16d6921d1c2c2b8","F1","batch6","","2297.199999999255","stim/no_58_1_w.png","j","pattern_response","true","j","pattern_35","2297.199999999255","true","14","","","","","","","","","","","","","","","","","","",""
"","","","","","html-keyboard-response","59","3946578","0.0-2.0-5.0-0.19","62fb383ce16d6921d1c2c2b8","F1","batch6","","null","<p class=block-text>Trial 20 out of 78</p>","null","pattern_show_trial_num","","","","","","","","","","","","","","","","","","","","","","","","",""
"","","","","","image-keyboard-response","60","3948710","0.0-2.0-5.0-1.19","62fb383ce16d6921d1c2c2b8","F1","batch6","","2130.7999999970198","stim/no_51_1.png","j","pattern_response","true","j","pattern_31","2130.7999999970198","true","15","","","","","","","","","","","","","","","","","","",""
"","","","","","html-keyboard-response","61","3950034","0.0-2.0-5.0-0.20","62fb383ce16d6921d1c2c2b8","F1","batch6","","null","<p class=block-text>Trial 21 out of 78</p>","null","pattern_show_trial_num","","","","","","","","","","","","","","","","","","","","","","","","",""
"","","","","","image-keyboard-response","62","3951304","0.0-2.0-5.0-1.20","62fb383ce16d6921d1c2c2b8","F1","batch6","","1268.300000000745","stim/yes_42_dia_w1_w.png","j","pattern_response","false","f","pattern_64","1268.300000000745","false","15","","","","","","","","","","","","","","","","","","",""
"","","","","","html-keyboard-response","63","3952626","0.0-2.0-5.0-0.21","62fb383ce16d6921d1c2c2b8","F1","batch6","","null","<p class=block-text>Trial 22 out of 78</p>","null","pattern_show_trial_num","","","","","","","","","","","","","","","","","","","","","","","","",""
"","","","","","image-keyboard-response","64","3953654","0.0-2.0-5.0-1.21","62fb383ce16d6921d1c2c2b8","F1","batch6","","1024.9000000022352","stim/yes_33_dia_w1_w.png","f","pattern_response","true","f","pattern_56","1024.9000000022352","true","16","","","","","","","","","","","","","","","","","","",""
"","","","","","html-keyboard-response","65","3954972","0.0-2.0-5.0-0.22","62fb383ce16d6921d1c2c2b8","F1","batch6","","null","<p class=block-text>Trial 23 out of 78</p>","null","pattern_show_trial_num","","","","","","","","","","","","","","","","","","","","","","","","",""
"","","","","","image-keyboard-response","66","3955921","0.0-2.0-5.0-1.22","62fb383ce16d6921d1c2c2b8","F1","batch6","","946.8999999985099","stim/yes_26_dia_w2_w.png","f","pattern_response","true","f","pattern_50","946.8999999985099","true","17","","","","","","","","","","","","","","","","","","",""
"","","","","","html-keyboard-response","67","3957246","0.0-2.0-5.0-0.23","62fb383ce16d6921d1c2c2b8","F1","batch6","","null","<p class=block-text>Trial 24 out of 78</p>","null","pattern_show_trial_num","","","","","","","","","","","","","","","","","","","","","","","","",""
"","","","","","image-keyboard-response","68","3958050","0.0-2.0-5.0-1.23","62fb383ce16d6921d1c2c2b8","F1","batch6","","802.3999999985099","stim/yes_17_ver_b1_b.png","j","pattern_response","false","f","pattern_46","802.3999999985099","false","17","","","","","","","","","","","","","","","","","","",""
"","","","","","html-keyboard-response","69","3959369","0.0-2.0-5.0-0.24","62fb383ce16d6921d1c2c2b8","F1","batch6","","null","<p class=block-text>Trial 25 out of 78</p>","null","pattern_show_trial_num","","","","","","","","","","","","","","","","","","","","","","","","",""
"","","","","","image-keyboard-response","70","3960128","0.0-2.0-5.0-1.24","62fb383ce16d6921d1c2c2b8","F1","batch6","","757.5","stim/no_15_1_w.png","j","pattern_response","true","j","pattern_03","757.5","true","18","","","","","","","","","","","","","","","","","","",""
"","","","","","html-keyboard-response","71","3961441","0.0-2.0-5.0-0.25","62fb383ce16d6921d1c2c2b8","F1","batch6","","null","<p class=block-text>Trial 26 out of 78</p>","null","pattern_show_trial_num","","","","","","","","","","","","","","","","","","","","","","","","",""
"","","","","","image-keyboard-response","72","3962223","0.0-2.0-5.0-1.25","62fb383ce16d6921d1c2c2b8","F1","batch6","","780.3000000007451","stim/yes_70_ver_b1.png","f","pattern_response","true","f","pattern_80","780.3000000007451","true","19","","","","","","","","","","","","","","","","","","",""
"","","","","","html-keyboard-response","73","3963547","0.0-2.0-5.0-0.26","62fb383ce16d6921d1c2c2b8","F1","batch6","","null","<p class=block-text>Trial 27 out of 78</p>","null","pattern_show_trial_num","","","","","","","","","","","","","","","","","","","","","","","","",""
"","","","","","image-keyboard-response","74","3964466","0.0-2.0-5.0-1.26","62fb383ce16d6921d1c2c2b8","F1","batch6","","917.5","stim/yes_46_ver_b1_b.png","f","pattern_response","true","f","pattern_68","917.5","true","20","","","","","","","","","","","","","","","","","","",""
"","","","","","html-keyboard-response","75","3965789","0.0-2.0-5.0-0.27","62fb383ce16d6921d1c2c2b8","F1","batch6","","null","<p class=block-text>Trial 28 out of 78</p>","null","pattern_show_trial_num","","","","","","","","","","","","","","","","","","","","","","","","",""
"","","","","","image-keyboard-response","76","3966981","0.0-2.0-5.0-1.27","62fb383ce16d6921d1c2c2b8","F1","batch6","","1178.5","stim/yes_44_ver_w1_w.png","j","pattern_response","false","f","pattern_66","1178.5","false","20","","","","","","","","","","","","","","","","","","",""
"","","","","","html-keyboard-response","77","3968294","0.0-2.0-5.0-0.28","62fb383ce16d6921d1c2c2b8","F1","batch6","","null","<p class=block-text>Trial 29 out of 78</p>","null","pattern_show_trial_num","","","","","","","","","","","","","","","","","","","","","","","","",""
"","","","","","image-keyboard-response","78","3969247","0.0-2.0-5.0-1.28","62fb383ce16d6921d1c2c2b8","F1","batch6","","952.1999999992549","stim/yes_58_dia_w1_w.png","f","pattern_response","true","f","pattern_76","952.1999999992549","true","21","","","","","","","","","","","","","","","","","","",""
"","","","","","html-keyboard-response","79","3970562","0.0-2.0-5.0-0.29","62fb383ce16d6921d1c2c2b8","F1","batch6","","null","<p class=block-text>Trial 30 out of 78</p>","null","pattern_show_trial_num","","","","","","","","","","","","","","","","","","","","","","","","",""
"","","","","","image-keyboard-response","80","3971800","0.0-2.0-5.0-1.29","62fb383ce16d6921d1c2c2b8","F1","batch6","","1236.0999999977648","stim/no_53_1_b.png","j","pattern_response","true","j","pattern_33","1236.0999999977648","true","22","","","","","","","","","","","","","","","","","","",""
"","","","","","html-keyboard-response","81","3973114","0.0-2.0-5.0-0.30","62fb383ce16d6921d1c2c2b8","F1","batch6","","null","<p class=block-text>Trial 31 out of 78</p>","null","pattern_show_trial_num","","","","","","","","","","","","","","","","","","","","","","","","",""
"","","","","","image-keyboard-response","82","3975852","0.0-2.0-5.0-1.30","62fb383ce16d6921d1c2c2b8","F1","batch6","","2735.2999999970198","stim/no_67_1.png","j","pattern_response","true","j","pattern_39","2735.2999999970198","true","23","","","","","","","","","","","","","","","","","","",""
"","","","","","html-keyboard-response","83","3977172","0.0-2.0-5.0-0.31","62fb383ce16d6921d1c2c2b8","F1","batch6","","null","<p class=block-text>Trial 32 out of 78</p>","null","pattern_show_trial_num","","","","","","","","","","","","","","","","","","","","","","","","",""
"","","","","","image-keyboard-response","84","3978103","0.0-2.0-5.0-1.31","62fb383ce16d6921d1c2c2b8","F1","batch6","","928.2999999970198","stim/yes_37_hor_w1_w.png","f","pattern_response","true","f","pattern_60","928.2999999970198","true","24","","","","","","","","","","","","","","","","","","",""
"","","","","","html-keyboard-response","85","3979419","0.0-2.0-5.0-0.32","62fb383ce16d6921d1c2c2b8","F1","batch6","","null","<p class=block-text>Trial 33 out of 78</p>","null","pattern_show_trial_num","","","","","","","","","","","","","","","","","","","","","","","","",""
"","","","","","image-keyboard-response","86","3981258","0.0-2.0-5.0-1.32","62fb383ce16d6921d1c2c2b8","F1","batch6","","1837.199999999255","stim/no_36_1_b.png","j","pattern_response","true","j","pattern_17","1837.199999999255","true","25","","","","","","","","","","","","","","","","","","",""
"","","","","","html-keyboard-response","87","3982572","0.0-2.0-5.0-0.33","62fb383ce16d6921d1c2c2b8","F1","batch6","","null","<p class=block-text>Trial 34 out of 78</p>","null","pattern_show_trial_num","","","","","","","","","","","","","","","","","","","","","","","","",""
"","","","","","image-keyboard-response","88","3984009","0.0-2.0-5.0-1.33","62fb383ce16d6921d1c2c2b8","F1","batch6","","1435.2000000029802","stim/no_30_1_b.png","j","pattern_response","true","j","pattern_13","1435.2000000029802","true","26","","","","","","","","","","","","","","","","","","",""
"","","","","","html-keyboard-response","89","3985324","0.0-2.0-5.0-0.34","62fb383ce16d6921d1c2c2b8","F1","batch6","","null","<p class=block-text>Trial 35 out of 78</p>","null","pattern_show_trial_num","","","","","","","","","","","","","","","","","","","","","","","","",""
"","","","","","image-keyboard-response","90","3986993","0.0-2.0-5.0-1.34","62fb383ce16d6921d1c2c2b8","F1","batch6","","1667","stim/no_45_1_w.png","j","pattern_response","true","j","pattern_25","1667","true","27","","","","","","","","","","","","","","","","","","",""
"","","","","","html-keyboard-response","91","3988307","0.0-2.0-5.0-0.35","62fb383ce16d6921d1c2c2b8","F1","batch6","","null","<p class=block-text>Trial 36 out of 78</p>","null","pattern_show_trial_num","","","","","","","","","","","","","","","","","","","","","","","","",""
"","","","","","image-keyboard-response","92","3989960","0.0-2.0-5.0-1.35","62fb383ce16d6921d1c2c2b8","F1","batch6","","1651.300000000745","stim/no_49_2_b.png","j","pattern_response","true","j","pattern_29","1651.300000000745","true","28","","","","","","","","","","","","","","","","","","",""
"","","","","","html-keyboard-response","93","3991285","0.0-2.0-5.0-0.36","62fb383ce16d6921d1c2c2b8","F1","batch6","","null","<p class=block-text>Trial 37 out of 78</p>","null","pattern_show_trial_num","","","","","","","","","","","","","","","","","","","","","","","","",""
"","","","","","image-keyboard-response","94","3992089","0.0-2.0-5.0-1.36","62fb383ce16d6921d1c2c2b8","F1","batch6","","802.6999999992549","stim/yes_53_ver_b1_b.png","f","pattern_response","true","f","pattern_74","802.6999999992549","true","29","","","","","","","","","","","","","","","","","","",""
"","","","","","html-keyboard-response","95","3993404","0.0-2.0-5.0-0.37","62fb383ce16d6921d1c2c2b8","F1","batch6","","null","<p class=block-text>Trial 38 out of 78</p>","null","pattern_show_trial_num","","","","","","","","","","","","","","","","","","","","","","","","",""
"","","","","","image-keyboard-response","96","3995559","0.0-2.0-5.0-1.37","62fb383ce16d6921d1c2c2b8","F1","batch6","","2154","stim/no_37_2_w.png","j","pattern_response","true","j","pattern_19","2154","true","30","","","","","","","","","","","","","","","","","","",""
"","","","","","html-keyboard-response","97","3996873","0.0-2.0-5.0-0.38","62fb383ce16d6921d1c2c2b8","F1","batch6","","null","<p class=block-text>Trial 39 out of 78</p>","null","pattern_show_trial_num","","","","","","","","","","","","","","","","","","","","","","","","",""
"","","","","","image-keyboard-response","98","3998649","0.0-2.0-5.0-1.38","62fb383ce16d6921d1c2c2b8","F1","batch6","","1773.5","stim/yes_51_dia_b1.png","j","pattern_response","false","f","pattern_72","1773.5","false","30","","","","","","","","","","","","","","","","","","",""
"","","","","","image-keyboard-response","99","4002211","0.0-2.0-6.0","62fb383ce16d6921d1c2c2b8","F1","batch6","","3057.599999997765","stim/empty_board.png","j","attention_check","true","j","","","","","500","[""f"",""j""]","","","","","","","","","","","","","","","","",""
"","","","","","html-keyboard-response","100","4003026","0.0-2.0-7.0-0.0","62fb383ce16d6921d1c2c2b8","F1","batch6","","null","<p class=block-text>Trial 40 out of 78</p>","null","pattern_show_trial_num","","","","","","","","","","","","","","","","","","","","","","","","",""
"","","","","","image-keyboard-response","101","4005615","0.0-2.0-7.0-1.0","62fb383ce16d6921d1c2c2b8","F1","batch6","","2584.89999999851","stim/no_13_2_b.png","j","pattern_response","true","j","pattern_02","2584.89999999851","true","31","","","","","","","","","","","","","","","","","","",""
"","","","","","html-keyboard-response","102","4006944","0.0-2.0-7.0-0.1","62fb383ce16d6921d1c2c2b8","F1","batch6","","null","<p class=block-text>Trial 41 out of 78</p>","null","pattern_show_trial_num","","","","","","","","","","","","","","","","","","","","","","","","",""
"","","","","","image-keyboard-response","103","4008224","0.0-2.0-7.0-1.1","62fb383ce16d6921d1c2c2b8","F1","batch6","","1278.5","stim/yes_29_ver_w1.png","j","pattern_response","false","f","pattern_53","1278.5","false","31","","","","","","","","","","","","","","","","","","",""
"","","","","","html-keyboard-response","104","4009544","0.0-2.0-7.0-0.2","62fb383ce16d6921d1c2c2b8","F1","batch6","","null","<p class=block-text>Trial 42 out of 78</p>","null","pattern_show_trial_num","","","","","","","","","","","","","","","","","","","","","","","","",""
"","","","","","image-keyboard-response","105","4011032","0.0-2.0-7.0-1.2","62fb383ce16d6921d1c2c2b8","F1","batch6","","1486.199999999255","stim/no_70_2.png","f","pattern_response","false","j","pattern_40","1486.199999999255","false","31","","","","","","","","","","","","","","","","","","",""
"","","","","","html-keyboard-response","106","4012349","0.0-2.0-7.0-0.3","62fb383ce16d6921d1c2c2b8","F1","batch6","","null","<p class=block-text>Trial 43 out of 78</p>","null","pattern_show_trial_num","","","","","","","","","","","","","","","","","","","","","","","","",""
"","","","","","image-keyboard-response","107","4021464","0.0-2.0-7.0-1.3","62fb383ce16d6921d1c2c2b8","F1","batch6","","9113","stim/yes_40_dia_b1_b.png","f","pattern_response","true","f","pattern_63","9113","true","32","","","","","","","","","","","","","","","","","","",""
"","","","","","html-keyboard-response","108","4022780","0.0-2.0-7.0-0.4","62fb383ce16d6921d1c2c2b8","F1","batch6","","null","<p class=block-text>Trial 44 out of 78</p>","null","pattern_show_trial_num","","","","","","","","","","","","","","","","","","","","","","","","",""
"","","","","","image-keyboard-response","109","4023789","0.0-2.0-7.0-1.4","62fb383ce16d6921d1c2c2b8","F1","batch6","","1005.1000000014901","stim/yes_38_hor_b1_b.png","j","pattern_response","false","f","pattern_61","1005.1000000014901","false","32","","","","","","","","","","","","","","","","","","",""
"","","","","","html-keyboard-response","110","4025106","0.0-2.0-7.0-0.5","62fb383ce16d6921d1c2c2b8","F1","batch6","","null","<p class=block-text>Trial 45 out of 78</p>","null","pattern_show_trial_num","","","","","","","","","","","","","","","","","","","","","","","","",""
"","","","","","image-keyboard-response","111","4026987","0.0-2.0-7.0-1.5","62fb383ce16d6921d1c2c2b8","F1","batch6","","1880","stim/no_55_1_w.png","j","pattern_response","true","j","pattern_34","1880","true","33","","","","","","","","","","","","","","","","","","",""
"","","","","","html-keyboard-response","112","4028298","0.0-2.0-7.0-0.6","62fb383ce16d6921d1c2c2b8","F1","batch6","","null","<p class=block-text>Trial 46 out of 78</p>","null","pattern_show_trial_num","","","","","","","","","","","","","","","","","","","","","","","","",""
"","","","","","image-keyboard-response","113","4029858","0.0-2.0-7.0-1.6","62fb383ce16d6921d1c2c2b8","F1","batch6","","1557.800000000745","stim/no_38_1_b.png","j","pattern_response","true","j","pattern_20","1557.800000000745","true","34","","","","","","","","","","","","","","","","","","",""
"","","","","","html-keyboard-response","114","4031167","0.0-2.0-7.0-0.7","62fb383ce16d6921d1c2c2b8","F1","batch6","","null","<p class=block-text>Trial 47 out of 78</p>","null","pattern_show_trial_num","","","","","","","","","","","","","","","","","","","","","","","","",""
"","","","","","image-keyboard-response","115","4032102","0.0-2.0-7.0-1.7","62fb383ce16d6921d1c2c2b8","F1","batch6","","933.6999999992549","stim/no_26_1_w.png","j","pattern_response","true","j","pattern_10","933.6999999992549","true","35","","","","","","","","","","","","","","","","","","",""
"","","","","","html-keyboard-response","116","4033423","0.0-2.0-7.0-0.8","62fb383ce16d6921d1c2c2b8","F1","batch6","","null","<p class=block-text>Trial 48 out of 78</p>","null","pattern_show_trial_num","","","","","","","","","","","","","","","","","","","","","","","","",""
"","","","","","image-keyboard-response","117","4034615","0.0-2.0-7.0-1.8","62fb383ce16d6921d1c2c2b8","F1","batch6","","1189.199999999255","stim/no_29_1_b.png","j","pattern_response","true","j","pattern_12","1189.199999999255","true","36","","","","","","","","","","","","","","","","","","",""
"","","","","","html-keyboard-response","118","4035933","0.0-2.0-7.0-0.9","62fb383ce16d6921d1c2c2b8","F1","batch6","","null","<p class=block-text>Trial 49 out of 78</p>","null","pattern_show_trial_num","","","","","","","","","","","","","","","","","","","","","","","","",""
"","","","","","image-keyboard-response","119","4037435","0.0-2.0-7.0-1.9","62fb383ce16d6921d1c2c2b8","F1","batch6","","1499.8999999985099","stim/yes_67_hor_b1.png","f","pattern_response","true","f","pattern_79","1499.8999999985099","true","37","","","","","","","","","","","","","","","","","","",""
"","","","","","html-keyboard-response","120","4038762","0.0-2.0-7.0-0.10","62fb383ce16d6921d1c2c2b8","F1","batch6","","null","<p class=block-text>Trial 50 out of 78</p>","null","pattern_show_trial_num","","","","","","","","","","","","","","","","","","","","","","","","",""
"","","","","","image-keyboard-response","121","4039746","0.0-2.0-7.0-1.10","62fb383ce16d6921d1c2c2b8","F1","batch6","","981.8999999985099","stim/no_32_1_w.png","j","pattern_response","true","j","pattern_14","981.8999999985099","true","38","","","","","","","","","","","","","","","","","","",""
"","","","","","html-keyboard-response","122","4041072","0.0-2.0-7.0-0.11","62fb383ce16d6921d1c2c2b8","F1","batch6","","null","<p class=block-text>Trial 51 out of 78</p>","null","pattern_show_trial_num","","","","","","","","","","","","","","","","","","","","","","","","",""
"","","","","","image-keyboard-response","123","4042621","0.0-2.0-7.0-1.11","62fb383ce16d6921d1c2c2b8","F1","batch6","","1546.6000000014901","stim/yes_14_hor_b1_w.png","f","pattern_response","true","f","pattern_43","1546.6000000014901","true","39","","","","","","","","","","","","","","","","","","",""
"","","","","","html-keyboard-response","124","4043946","0.0-2.0-7.0-0.12","62fb383ce16d6921d1c2c2b8","F1","batch6","","null","<p class=block-text>Trial 52 out of 78</p>","null","pattern_show_trial_num","","","","","","","","","","","","","","","","","","","","","","","","",""
"","","","","","image-keyboard-response","125","4044808","0.0-2.0-7.0-1.12","62fb383ce16d6921d1c2c2b8","F1","batch6","","860.8999999985099","stim/no_48_1_w.png","j","pattern_response","true","j","pattern_28","860.8999999985099","true","40","","","","","","","","","","","","","","","","","","",""
"","","","","","html-keyboard-response","126","4046137","0.0-2.0-7.0-0.13","62fb383ce16d6921d1c2c2b8","F1","batch6","","null","<p class=block-text>Trial 53 out of 78</p>","null","pattern_show_trial_num","","","","","","","","","","","","","","","","","","","","","","","","",""
"","","","","","image-keyboard-response","127","4047381","0.0-2.0-7.0-1.13","62fb383ce16d6921d1c2c2b8","F1","batch6","","1241.300000000745","stim/no_62_1_w.png","f","pattern_response","false","j","pattern_36","1241.300000000745","false","40","","","","","","","","","","","","","","","","","","",""
"","","","","","html-keyboard-response","128","4048705","0.0-2.0-7.0-0.14","62fb383ce16d6921d1c2c2b8","F1","batch6","","null","<p class=block-text>Trial 54 out of 78</p>","null","pattern_show_trial_num","","","","","","","","","","","","","","","","","","","","","","","","",""
"","","","","","image-keyboard-response","129","4049689","0.0-2.0-7.0-1.14","62fb383ce16d6921d1c2c2b8","F1","batch6","","982.2000000029802","stim/yes_37_dia_w1.png","j","pattern_response","false","f","pattern_59","982.2000000029802","false","40","","","","","","","","","","","","","","","","","","",""
"","","","","","html-keyboard-response","130","4051015","0.0-2.0-7.0-0.15","62fb383ce16d6921d1c2c2b8","F1","batch6","","null","<p class=block-text>Trial 55 out of 78</p>","null","pattern_show_trial_num","","","","","","","","","","","","","","","","","","","","","","","","",""
"","","","","","image-keyboard-response","131","4051842","0.0-2.0-7.0-1.15","62fb383ce16d6921d1c2c2b8","F1","batch6","","826","stim/no_20_1_w.png","j","pattern_response","true","j","pattern_06","826","true","41","","","","","","","","","","","","","","","","","","",""
"","","","","","html-keyboard-response","132","4053159","0.0-2.0-7.0-0.16","62fb383ce16d6921d1c2c2b8","F1","batch6","","null","<p class=block-text>Trial 56 out of 78</p>","null","pattern_show_trial_num","","","","","","","","","","","","","","","","","","","","","","","","",""
"","","","","","image-keyboard-response","133","4054187","0.0-2.0-7.0-1.16","62fb383ce16d6921d1c2c2b8","F1","batch6","","1026.300000000745","stim/yes_45_hor_b2_b.png","j","pattern_response","false","f","pattern_67","1026.300000000745","false","41","","","","","","","","","","","","","","","","","","",""
"","","","","","html-keyboard-response","134","4055508","0.0-2.0-7.0-0.17","62fb383ce16d6921d1c2c2b8","F1","batch6","","null","<p class=block-text>Trial 57 out of 78</p>","null","pattern_show_trial_num","","","","","","","","","","","","","","","","","","","","","","","","",""
"","","","","","image-keyboard-response","135","4056587","0.0-2.0-7.0-1.17","62fb383ce16d6921d1c2c2b8","F1","batch6","","1077.0999999977648","stim/yes_50_dia_w1.png","f","pattern_response","true","f","pattern_71","1077.0999999977648","true","42","","","","","","","","","","","","","","","","","","",""
"","","","","","html-keyboard-response","136","4057899","0.0-2.0-7.0-0.18","62fb383ce16d6921d1c2c2b8","F1","batch6","","null","<p class=block-text>Trial 58 out of 78</p>","null","pattern_show_trial_num","","","","","","","","","","","","","","","","","","","","","","","","",""
"","","","","","image-keyboard-response","137","4058766","0.0-2.0-7.0-1.18","62fb383ce16d6921d1c2c2b8","F1","batch6","","865.7000000029802","stim/no_34_1_b.png","j","pattern_response","true","j","pattern_16","865.7000000029802","true","43","","","","","","","","","","","","","","","","","","",""
"","","","","","html-keyboard-response","138","4060079","0.0-2.0-7.0-0.19","62fb383ce16d6921d1c2c2b8","F1","batch6","","null","<p class=block-text>Trial 59 out of 78</p>","null","pattern_show_trial_num","","","","","","","","","","","","","","","","","","","","","","","","",""
"","","","","","image-keyboard-response","139","4060889","0.0-2.0-7.0-1.19","62fb383ce16d6921d1c2c2b8","F1","batch6","","808.3999999985099","stim/yes_25_hor_b1_b.png","f","pattern_response","true","f","pattern_49","808.3999999985099","true","44","","","","","","","","","","","","","","","","","","",""
"","","","","","html-keyboard-response","140","4062201","0.0-2.0-7.0-0.20","62fb383ce16d6921d1c2c2b8","F1","batch6","","null","<p class=block-text>Trial 60 out of 78</p>","null","pattern_show_trial_num","","","","","","","","","","","","","","","","","","","","","","","","",""
"","","","","","image-keyboard-response","141","4063099","0.0-2.0-7.0-1.20","62fb383ce16d6921d1c2c2b8","F1","batch6","","897.2999999970198","stim/no_46_1_b.png","j","pattern_response","true","j","pattern_26","897.2999999970198","true","45","","","","","","","","","","","","","","","","","","",""
"","","","","","html-keyboard-response","142","4064422","0.0-2.0-7.0-0.21","62fb383ce16d6921d1c2c2b8","F1","batch6","","null","<p class=block-text>Trial 61 out of 78</p>","null","pattern_show_trial_num","","","","","","","","","","","","","","","","","","","","","","","","",""
"","","","","","image-keyboard-response","143","4065396","0.0-2.0-7.0-1.21","62fb383ce16d6921d1c2c2b8","F1","batch6","","971.3000000007451","stim/no_36_2_w.png","j","pattern_response","true","j","pattern_18","971.3000000007451","true","46","","","","","","","","","","","","","","","","","","",""
"","","","","","html-keyboard-response","144","4066713","0.0-2.0-7.0-0.22","62fb383ce16d6921d1c2c2b8","F1","batch6","","null","<p class=block-text>Trial 62 out of 78</p>","null","pattern_show_trial_num","","","","","","","","","","","","","","","","","","","","","","","","",""
"","","","","","image-keyboard-response","145","4067559","0.0-2.0-7.0-1.22","62fb383ce16d6921d1c2c2b8","F1","batch6","","843.3000000007451","stim/no_65_1_b.png","f","pattern_response","false","j","pattern_38","843.3000000007451","false","46","","","","","","","","","","","","","","","","","","",""
"","","","","","html-keyboard-response","146","4068880","0.0-2.0-7.0-0.23","62fb383ce16d6921d1c2c2b8","F1","batch6","","null","<p class=block-text>Trial 63 out of 78</p>","null","pattern_show_trial_num","","","","","","","","","","","","","","","","","","","","","","","","",""
"","","","","","image-keyboard-response","147","4069840","0.0-2.0-7.0-1.23","62fb383ce16d6921d1c2c2b8","F1","batch6","","959.6000000014901","stim/yes_43_ver_w1_w.png","f","pattern_response","true","f","pattern_65","959.6000000014901","true","47","","","","","","","","","","","","","","","","","","",""
"","","","","","html-keyboard-response","148","4071160","0.0-2.0-7.0-0.24","62fb383ce16d6921d1c2c2b8","F1","batch6","","null","<p class=block-text>Trial 64 out of 78</p>","null","pattern_show_trial_num","","","","","","","","","","","","","","","","","","","","","","","","",""
"","","","","","image-keyboard-response","149","4071840","0.0-2.0-7.0-1.24","62fb383ce16d6921d1c2c2b8","F1","batch6","","678.6999999992549","stim/yes_60_ver_b1_b.png","j","pattern_response","false","f","pattern_77","678.6999999992549","false","47","","","","","","","","","","","","","","","","","","",""
"","","","","","html-keyboard-response","150","4073158","0.0-2.0-7.0-0.25","62fb383ce16d6921d1c2c2b8","F1","batch6","","null","<p class=block-text>Trial 65 out of 78</p>","null","pattern_show_trial_num","","","","","","","","","","","","","","","","","","","","","","","","",""
"","","","","","image-keyboard-response","151","4073874","0.0-2.0-7.0-1.25","62fb383ce16d6921d1c2c2b8","F1","batch6","","714.5","stim/no_50_1.png","j","pattern_response","true","j","pattern_30","714.5","true","48","","","","","","","","","","","","","","","","","","",""
"","","","","","html-keyboard-response","152","4075179","0.0-2.0-7.0-0.26","62fb383ce16d6921d1c2c2b8","F1","batch6","","null","<p class=block-text>Trial 66 out of 78</p>","null","pattern_show_trial_num","","","","","","","","","","","","","","","","","","","","","","","","",""
"","","","","","image-keyboard-response","153","4075841","0.0-2.0-7.0-1.26","62fb383ce16d6921d1c2c2b8","F1","batch6","","659.9000000022352","stim/no_23_1.png","j","pattern_response","true","j","pattern_08","659.9000000022352","true","49","","","","","","","","","","","","","","","","","","",""
"","","","","","html-keyboard-response","154","4077156","0.0-2.0-7.0-0.27","62fb383ce16d6921d1c2c2b8","F1","batch6","","null","<p class=block-text>Trial 67 out of 78</p>","null","pattern_show_trial_num","","","","","","","","","","","","","","","","","","","","","","","","",""
"","","","","","image-keyboard-response","155","4078184","0.0-2.0-7.0-1.27","62fb383ce16d6921d1c2c2b8","F1","batch6","","1024.300000000745","stim/no_42_1_w.png","j","pattern_response","true","j","pattern_22","1024.300000000745","true","50","","","","","","","","","","","","","","","","","","",""
"","","","","","html-keyboard-response","156","4079499","0.0-2.0-7.0-0.28","62fb383ce16d6921d1c2c2b8","F1","batch6","","null","<p class=block-text>Trial 68 out of 78</p>","null","pattern_show_trial_num","","","","","","","","","","","","","","","","","","","","","","","","",""
"","","","","","image-keyboard-response","157","4080142","0.0-2.0-7.0-1.28","62fb383ce16d6921d1c2c2b8","F1","batch6","","641.8000000007451","stim/yes_28_ver_b1.png","f","pattern_response","true","f","pattern_51","641.8000000007451","true","51","","","","","","","","","","","","","","","","","","",""
"","","","","","html-keyboard-response","158","4081457","0.0-2.0-7.0-0.29","62fb383ce16d6921d1c2c2b8","F1","batch6","","null","<p class=block-text>Trial 69 out of 78</p>","null","pattern_show_trial_num","","","","","","","","","","","","","","","","","","","","","","","","",""
"","","","","","image-keyboard-response","159","4082120","0.0-2.0-7.0-1.29","62fb383ce16d6921d1c2c2b8","F1","batch6","","662.3000000007451","stim/yes_35_dia_b1.png","f","pattern_response","true","f","pattern_57","662.3000000007451","true","52","","","","","","","","","","","","","","","","","","",""
"","","","","","html-keyboard-response","160","4083436","0.0-2.0-7.0-0.30","62fb383ce16d6921d1c2c2b8","F1","batch6","","null","<p class=block-text>Trial 70 out of 78</p>","null","pattern_show_trial_num","","","","","","","","","","","","","","","","","","","","","","","","",""
"","","","","","image-keyboard-response","161","4085220","0.0-2.0-7.0-1.30","62fb383ce16d6921d1c2c2b8","F1","batch6","","1782.5","stim/no_52_1.png","j","pattern_response","true","j","pattern_32","1782.5","true","53","","","","","","","","","","","","","","","","","","",""
"","","","","","html-keyboard-response","162","4086531","0.0-2.0-7.0-0.31","62fb383ce16d6921d1c2c2b8","F1","batch6","","null","<p class=block-text>Trial 71 out of 78</p>","null","pattern_show_trial_num","","","","","","","","","","","","","","","","","","","","","","","","",""
"","","","","","image-keyboard-response","163","4087479","0.0-2.0-7.0-1.31","62fb383ce16d6921d1c2c2b8","F1","batch6","","946.6999999992549","stim/yes_31_hor_b1.png","j","pattern_response","false","f","pattern_55","946.6999999992549","false","53","","","","","","","","","","","","","","","","","","",""
"","","","","","html-keyboard-response","164","4088793","0.0-2.0-7.0-0.32","62fb383ce16d6921d1c2c2b8","F1","batch6","","null","<p class=block-text>Trial 72 out of 78</p>","null","pattern_show_trial_num","","","","","","","","","","","","","","","","","","","","","","","","",""
"","","","","","image-keyboard-response","165","4089779","0.0-2.0-7.0-1.32","62fb383ce16d6921d1c2c2b8","F1","batch6","","985.1000000014901","stim/yes_17_dia_w1.png","f","pattern_response","true","f","pattern_45","985.1000000014901","true","54","","","","","","","","","","","","","","","","","","",""
"","","","","","html-keyboard-response","166","4091102","0.0-2.0-7.0-0.33","62fb383ce16d6921d1c2c2b8","F1","batch6","","null","<p class=block-text>Trial 73 out of 78</p>","null","pattern_show_trial_num","","","","","","","","","","","","","","","","","","","","","","","","",""
"","","","","","image-keyboard-response","167","4092222","0.0-2.0-7.0-1.33","62fb383ce16d6921d1c2c2b8","F1","batch6","","1117.5","stim/yes_52_ver_w1.png","f","pattern_response","true","f","pattern_73","1117.5","true","55","","","","","","","","","","","","","","","","","","",""
"","","","","","html-keyboard-response","168","4093528","0.0-2.0-7.0-0.34","62fb383ce16d6921d1c2c2b8","F1","batch6","","null","<p class=block-text>Trial 74 out of 78</p>","null","pattern_show_trial_num","","","","","","","","","","","","","","","","","","","","","","","","",""
"","","","","","image-keyboard-response","169","4094388","0.0-2.0-7.0-1.34","62fb383ce16d6921d1c2c2b8","F1","batch6","","858.8999999985099","stim/yes_48_dia_w1_w.png","j","pattern_response","false","f","pattern_69","858.8999999985099","false","55","","","","","","","","","","","","","","","","","","",""
"","","","","","html-keyboard-response","170","4095713","0.0-2.0-7.0-0.35","62fb383ce16d6921d1c2c2b8","F1","batch6","","null","<p class=block-text>Trial 75 out of 78</p>","null","pattern_show_trial_num","","","","","","","","","","","","","","","","","","","","","","","","",""
"","","","","","image-keyboard-response","171","4096424","0.0-2.0-7.0-1.35","62fb383ce16d6921d1c2c2b8","F1","batch6","","710","stim/no_17_1_w.png","j","pattern_response","true","j","pattern_04","710","true","56","","","","","","","","","","","","","","","","","","",""
"","","","","","html-keyboard-response","172","4097739","0.0-2.0-7.0-0.36","62fb383ce16d6921d1c2c2b8","F1","batch6","","null","<p class=block-text>Trial 76 out of 78</p>","null","pattern_show_trial_num","","","","","","","","","","","","","","","","","","","","","","","","",""
"","","","","","image-keyboard-response","173","4099281","0.0-2.0-7.0-1.36","62fb383ce16d6921d1c2c2b8","F1","batch6","","1541.5999999977648","stim/no_44_1.png","j","pattern_response","true","j","pattern_24","1541.5999999977648","true","57","","","","","","","","","","","","","","","","","","",""
"","","","","","html-keyboard-response","174","4100595","0.0-2.0-7.0-0.37","62fb383ce16d6921d1c2c2b8","F1","batch6","","null","<p class=block-text>Trial 77 out of 78</p>","null","pattern_show_trial_num","","","","","","","","","","","","","","","","","","","","","","","","",""
"","","","","","image-keyboard-response","175","4101433","0.0-2.0-7.0-1.37","62fb383ce16d6921d1c2c2b8","F1","batch6","","836.3000000007451","stim/yes_22_ver_w1.png","f","pattern_response","true","f","pattern_47","836.3000000007451","true","58","","","","","","","","","","","","","","","","","","",""
"","","","","","html-keyboard-response","176","4102750","0.0-2.0-7.0-0.38","62fb383ce16d6921d1c2c2b8","F1","batch6","","null","<p class=block-text>Trial 78 out of 78</p>","null","pattern_show_trial_num","","","","","","","","","","","","","","","","","","","","","","","","",""
"","","","","","image-keyboard-response","177","4104392","0.0-2.0-7.0-1.38","62fb383ce16d6921d1c2c2b8","F1","batch6","","1640.1000000014901","stim/yes_55_hor_w1_w.png","f","pattern_response","true","f","pattern_75","1640.1000000014901","true","59","","","","","","","","","","","","","","","","","","",""
"","","","","","html-button-response","178","4108119","0.0-2.0-8.0","62fb383ce16d6921d1c2c2b8","F1","batch6","","3213.89999999851","<p class = block-text>This concludes the 4-in-a-row detection game.Thank you for your responses!<br>
            You responded correctly on 76% of the trials.<br>
            When you are ready, press ""Continue"" button to continue </p>","0","","","","","","","","","","","","","","","","","","","","","","","","","",""
"true","","","","","fullscreen","179","4110310","0.0-3.0-0.0","62fb383ce16d6921d1c2c2b8","F1","batch6","","","","","","","","","","","","","","","","","","","","","","","","","","","","","",""
"","","","","","instructions","180","4185176","0.0-3.0-1.0-0.0-0.0","62fb383ce16d6921d1c2c2b8","F1","batch6","[{""page_index"":0,""viewing_time"":51505.5},{""page_index"":1,""viewing_time"":6085.800000000745},{""page_index"":2,""viewing_time"":3399.300000000745},{""page_index"":3,""viewing_time"":3427.2999999970198},{""page_index"":4,""viewing_time"":6259},{""page_index"":5,""viewing_time"":2647.2000000029802},{""page_index"":6,""viewing_time"":1540.0999999977648}]","74864.5","","","tol-instructions","","","","","","","","","","","","","","","","","","","","","","","","",""
"","","","","","html-button-response","181","4185966","0.0-3.0-1.0-1.0-0.0","62fb383ce16d6921d1c2c2b8","F1","batch6","","788.2000000029802","<p class=block-text> Let's answer a few questions <br>","0","tol_enter_quiz","","","","","","","","","","","","","","","","","","","","","","","","",""
"","","","","","html-button-response","182","4190888","0.0-3.0-1.0-1.0-1.0","62fb383ce16d6921d1c2c2b8","F1","batch6","","4918.70000000298","<p class = block-text>True or False: You can only move the ball on top of a peg. <br></p>","1","tol_quiz","false","","","","","","","","","","","","","","","","","","","","","","","",""
"","","","","","html-button-response","183","4192598","0.0-3.0-1.0-1.0-2.0","62fb383ce16d6921d1c2c2b8","F1","batch6","","1708.5","<p class = block-text>Incorrect. Remember, you can only move the ball on top of a peg.</p>","0","tol_quiz_feedback","","","","","","","","","","","","","","","","","","","","","","","","",""
"","","","","","html-button-response","184","4195092","0.0-3.0-1.0-1.0-3.0","62fb383ce16d6921d1c2c2b8","F1","batch6","","2491.89999999851","<p class = block-text>True or False: You should try to match your board with the target board with fewest moves possible. <br></p>","0","tol_quiz","true","","","","","","","","","","","","","","","","","","","","","","","",""
"","","","","","html-button-response","185","4195794","0.0-3.0-1.0-1.0-4.0","62fb383ce16d6921d1c2c2b8","F1","batch6","","701.0999999977648","<p class = block-text>Correct! </p>","0","tol_quiz_feedback","","","","","","","","","","","","","","","","","","","","","","","","",""
"","","","","","html-button-response","186","4197599","0.0-3.0-1.0-2.0-0.0","62fb383ce16d6921d1c2c2b8","F1","batch6","","1802.199999999255","<p class = block-text>You made too many incorrect choices.</p><p class = block-text>You will now repeat the instructions and quiz</p>","0","","","","","","","","","","","","","","","","","","","","","","","","","",""
"","","","","","instructions","187","4200814","0.0-3.0-1.1-0.1-0.1","62fb383ce16d6921d1c2c2b8","F1","batch6","[{""page_index"":0,""viewing_time"":670},{""page_index"":1,""viewing_time"":529.7999999970198},{""page_index"":2,""viewing_time"":193.80000000074506},{""page_index"":3,""viewing_time"":210.69999999925494},{""page_index"":4,""viewing_time"":410},{""page_index"":5,""viewing_time"":213.60000000149012},{""page_index"":6,""viewing_time"":985.3000000007451}]","3213.5","","","tol-instructions","","","","","","","","","","","","","","","","","","","","","","","","",""
"","","","","","html-button-response","188","4201989","0.0-3.0-1.1-1.1-0.1","62fb383ce16d6921d1c2c2b8","F1","batch6","","1173.8999999985099","<p class=block-text> Let's answer a few questions <br>","0","tol_enter_quiz","","","","","","","","","","","","","","","","","","","","","","","","",""
"","","","","","html-button-response","189","4203649","0.0-3.0-1.1-1.1-1.1","62fb383ce16d6921d1c2c2b8","F1","batch6","","1658.5999999977648","<p class = block-text>True or False: You can only move the ball on top of a peg. <br></p>","0","tol_quiz","true","","","","","","","","","","","","","","","","","","","","","","","",""
"","","","","","html-button-response","190","4204569","0.0-3.0-1.1-1.1-2.1","62fb383ce16d6921d1c2c2b8","F1","batch6","","918.1999999992549","<p class = block-text>Correct! You can only move the ball on top of a peg.</p>","0","tol_quiz_feedback","","","","","","","","","","","","","","","","","","","","","","","","",""
"","","","","","html-button-response","191","4205734","0.0-3.0-1.1-1.1-3.1","62fb383ce16d6921d1c2c2b8","F1","batch6","","1164","<p class = block-text>True or False: You should try to match your board with the target board with fewest moves possible. <br></p>","0","tol_quiz","true","","","","","","","","","","","","","","","","","","","","","","","",""
"","","","","","html-button-response","192","4206299","0.0-3.0-1.1-1.1-4.1","62fb383ce16d6921d1c2c2b8","F1","batch6","","564","<p class = block-text>Correct! </p>","0","tol_quiz_feedback","","","","","","","","","","","","","","","","","","","","","","","","",""
"","","","","","html-button-response","193","4207528","0.0-3.0-2.0","62fb383ce16d6921d1c2c2b8","F1","batch6","","1228.0999999977648","<p class=block-text> Now that you've understood the game, let's practice a few easier examples before we start!<br> <br>","0","","","","","","","","","","","","","","","","","","","","","","","","","",""
"","","","","","single-stim-button","194","4219597","0.0-3.0-3.0-0.0","62fb383ce16d6921d1c2c2b8","F1","batch6","","12066","","","tol_practice","","","","","","","","","tol_peg_1","12066","12066","0","[[1,0,0],[3,0],[0]]","1","[[1,2,0],[0,0],[3]]","practice","12066","","","","","","","",""
"","","","","","single-stim-button","195","4222303","0.0-3.0-3.0-1.0","62fb383ce16d6921d1c2c2b8","F1","batch6","","2704","","","tol_practice","","","","","","","","","tol_peg_1","2704","2704","0","[[1,2,0],[3,0],[0]]","1","[[1,2,0],[0,0],[3]]","practice","2704","","","","","","","",""
"","","","","","single-stim-button","196","4224138","0.0-3.0-3.1-0.1","62fb383ce16d6921d1c2c2b8","F1","batch6","","1833","","","tol_practice","","","","","","","","","tol_peg_2","1833","1833","0","[[1,2,0],[0,0],[0]]","2","[[1,2,0],[0,0],[3]]","practice","1833","","","","","","","",""
"","","","","","single-stim-button","197","4225524","0.0-3.0-3.1-1.1","62fb383ce16d6921d1c2c2b8","F1","batch6","","1386","","","tol_practice","","","","","","","","","tol_peg_1","1386","1386","0","[[1,2,3],[0,0],[0]]","2","[[1,2,0],[0,0],[3]]","practice","1386","","","","","","","",""
"","","","","","single-stim-button","198","4242466","0.0-3.0-3.2-0.2","62fb383ce16d6921d1c2c2b8","F1","batch6","","16941","","","tol_practice","","","","","","","","","tol_peg_1","16941","16941","0","[[1,2,0],[0,0],[0]]","3","[[1,2,0],[0,0],[3]]","practice","16941","","","","","","","",""
"","","","","","single-stim-button","199","4243272","0.0-3.0-3.2-1.2","62fb383ce16d6921d1c2c2b8","F1","batch6","","805","","","tol_practice","","","","","","","","","tol_peg_1","805","805","0","[[1,2,3],[0,0],[0]]","3","[[1,2,0],[0,0],[3]]","practice","805","","","","","","","",""
"","","","","","single-stim-button","200","4252035","0.0-3.0-3.3-0.3","62fb383ce16d6921d1c2c2b8","F1","batch6","","8761","","","tol_practice","","","","","","","","","tol_peg_1","8761","8761","0","[[1,2,0],[0,0],[0]]","4","[[1,2,0],[0,0],[3]]","practice","8761","","","","","","","",""
"","","","","","single-stim-button","201","4253920","0.0-3.0-3.3-1.3","62fb383ce16d6921d1c2c2b8","F1","batch6","","1884","","","tol_practice","","","","","","","","","tol_peg_3","1884","1884","0","[[1,2,0],[0,0],[3]]","4","[[1,2,0],[0,0],[3]]","practice","1884","","","","","","","",""
"","","","","","poldrack-single-stim","202","4254923","0.0-3.0-4.0","62fb383ce16d6921d1c2c2b8","F1","batch6","","-1","","","tol_feedback","true","","","","","","","","","1000","1000","500","","","","","","-1","none","true","","0","","",""
"","","","","","single-stim-button","203","4257843","0.0-3.0-5.0-0.0","62fb383ce16d6921d1c2c2b8","F1","batch6","","2918","","","tol_practice","","","","","","","","","tol_peg_1","2918","2918","0","[[1,0,0],[3,0],[0]]","5","[[0,0,0],[3,1],[2]]","practice","2918","","","","","","","",""
"","","","","","single-stim-button","204","4259585","0.0-3.0-5.0-1.0","62fb383ce16d6921d1c2c2b8","F1","batch6","","1741","","","tol_practice","","","","","","","","","tol_peg_3","1741","1741","0","[[1,0,0],[3,0],[2]]","5","[[0,0,0],[3,1],[2]]","practice","1741","","","","","","","",""
"","","","","","single-stim-button","205","4260982","0.0-3.0-5.1-0.1","62fb383ce16d6921d1c2c2b8","F1","batch6","","1395","","","tol_practice","","","","","","","","","tol_peg_2","1395","1395","0","[[1,0,0],[0,0],[2]]","6","[[0,0,0],[3,1],[2]]","practice","1395","","","","","","","",""
"","","","","","single-stim-button","206","4262388","0.0-3.0-5.1-1.1","62fb383ce16d6921d1c2c2b8","F1","batch6","","1406","","","tol_practice","","","","","","","","","tol_peg_1","1406","1406","0","[[1,3,0],[0,0],[2]]","6","[[0,0,0],[3,1],[2]]","practice","1406","","","","","","","",""
"","","","","","single-stim-button","207","4263600","0.0-3.0-5.2-0.2","62fb383ce16d6921d1c2c2b8","F1","batch6","","1211","","","tol_practice","","","","","","","","","tol_peg_1","1211","1211","0","[[1,0,0],[0,0],[2]]","7","[[0,0,0],[3,1],[2]]","practice","1211","","","","","","","",""
"","","","","","single-stim-button","208","4264711","0.0-3.0-5.2-1.2","62fb383ce16d6921d1c2c2b8","F1","batch6","","1110","","","tol_practice","","","","","","","","","tol_peg_1","1110","1110","0","[[1,3,0],[0,0],[2]]","7","[[0,0,0],[3,1],[2]]","practice","1110","","","","","","","",""
"","","","","","single-stim-button","209","4264895","0.0-3.0-5.3-0.3","62fb383ce16d6921d1c2c2b8","F1","batch6","","183","","","tol_practice","","","","","","","","","tol_peg_1","183","183","0","[[1,0,0],[0,0],[2]]","8","[[0,0,0],[3,1],[2]]","practice","183","","","","","","","",""
"","","","","","single-stim-button","210","4266891","0.0-3.0-5.3-1.3","62fb383ce16d6921d1c2c2b8","F1","batch6","","1996","","","tol_practice","","","","","","","","","tol_peg_2","1996","1996","0","[[1,0,0],[3,0],[2]]","8","[[0,0,0],[3,1],[2]]","practice","1996","","","","","","","",""
"","","","","","single-stim-button","211","4268196","0.0-3.0-5.4-0.4","62fb383ce16d6921d1c2c2b8","F1","batch6","","1304","","","tol_practice","","","","","","","","","tol_peg_1","1304","1304","0","[[0,0,0],[3,0],[2]]","9","[[0,0,0],[3,1],[2]]","practice","1304","","","","","","","",""
"","","","","","single-stim-button","212","4270876","0.0-3.0-5.4-1.4","62fb383ce16d6921d1c2c2b8","F1","batch6","","2679","","","tol_practice","","","","","","","","","tol_peg_2","2679","2679","0","[[0,0,0],[3,1],[2]]","9","[[0,0,0],[3,1],[2]]","practice","2679","","","","","","","",""
"","","","","","poldrack-single-stim","213","4271888","0.0-3.0-6.0","62fb383ce16d6921d1c2c2b8","F1","batch6","","-1","","","tol_feedback","true","","","","","","","","","1000","1000","500","","","","","","-1","none","true","","0","","",""
"","","","","","single-stim-button","214","4274482","0.0-3.0-7.0-0.0","62fb383ce16d6921d1c2c2b8","F1","batch6","","2592","","","tol_practice","","","","","","","","","tol_peg_1","2592","2592","0","[[1,0,0],[3,0],[0]]","10","[[1,0,0],[2,0],[3]]","practice","2592","","","","","","","",""
"","","","","","single-stim-button","215","4275746","0.0-3.0-7.0-1.0","62fb383ce16d6921d1c2c2b8","F1","batch6","","1263","","","tol_practice","","","","","","","","","tol_peg_2","1263","1263","0","[[1,0,0],[3,2],[0]]","10","[[1,0,0],[2,0],[3]]","practice","1263","","","","","","","",""
"","","","","","single-stim-button","216","4278171","0.0-3.0-7.1-0.1","62fb383ce16d6921d1c2c2b8","F1","batch6","","2424","","","tol_practice","","","","","","","","","tol_peg_1","2424","2424","0","[[0,0,0],[3,2],[0]]","11","[[1,0,0],[2,0],[3]]","practice","2424","","","","","","","",""
"","","","","","single-stim-button","217","4279607","0.0-3.0-7.1-1.1","62fb383ce16d6921d1c2c2b8","F1","batch6","","1435","","","tol_practice","","","","","","","","","tol_peg_3","1435","1435","0","[[0,0,0],[3,2],[1]]","11","[[1,0,0],[2,0],[3]]","practice","1435","","","","","","","",""
"","","","","","single-stim-button","218","4281065","0.0-3.0-7.2-0.2","62fb383ce16d6921d1c2c2b8","F1","batch6","","1456","","","tol_practice","","","","","","","","","tol_peg_2","1456","1456","0","[[0,0,0],[3,0],[1]]","12","[[1,0,0],[2,0],[3]]","practice","1456","","","","","","","",""
"","","","","","single-stim-button","219","4282369","0.0-3.0-7.2-1.2","62fb383ce16d6921d1c2c2b8","F1","batch6","","1303","","","tol_practice","","","","","","","","","tol_peg_1","1303","1303","0","[[2,0,0],[3,0],[1]]","12","[[1,0,0],[2,0],[3]]","practice","1303","","","","","","","",""
"","","","","","single-stim-button","220","4283754","0.0-3.0-7.3-0.3","62fb383ce16d6921d1c2c2b8","F1","batch6","","1385","","","tol_practice","","","","","","","","","tol_peg_2","1385","1385","0","[[2,0,0],[0,0],[1]]","13","[[1,0,0],[2,0],[3]]","practice","1385","","","","","","","",""
"","","","","","single-stim-button","221","4285333","0.0-3.0-7.3-1.3","62fb383ce16d6921d1c2c2b8","F1","batch6","","1579","","","tol_practice","","","","","","","","","tol_peg_1","1579","1579","0","[[2,3,0],[0,0],[1]]","13","[[1,0,0],[2,0],[3]]","practice","1579","","","","","","","",""
"","","","","","single-stim-button","222","4287076","0.0-3.0-7.4-0.4","62fb383ce16d6921d1c2c2b8","F1","batch6","","1742","","","tol_practice","","","","","","","","","tol_peg_1","1742","1742","0","[[2,0,0],[0,0],[1]]","14","[[1,0,0],[2,0],[3]]","practice","1742","","","","","","","",""
"","","","","","single-stim-button","223","4288452","0.0-3.0-7.4-1.4","62fb383ce16d6921d1c2c2b8","F1","batch6","","1374","","","tol_practice","","","","","","","","","tol_peg_2","1374","1374","0","[[2,0,0],[3,0],[1]]","14","[[1,0,0],[2,0],[3]]","practice","1374","","","","","","","",""
"","","","","","single-stim-button","224","4289480","0.0-3.0-7.5-0.5","62fb383ce16d6921d1c2c2b8","F1","batch6","","1027","","","tol_practice","","","","","","","","","tol_peg_1","1027","1027","0","[[0,0,0],[3,0],[1]]","15","[[1,0,0],[2,0],[3]]","practice","1027","","","","","","","",""
"","","","","","single-stim-button","225","4290907","0.0-3.0-7.5-1.5","62fb383ce16d6921d1c2c2b8","F1","batch6","","1426","","","tol_practice","","","","","","","","","tol_peg_2","1426","1426","0","[[0,0,0],[3,2],[1]]","15","[[1,0,0],[2,0],[3]]","practice","1426","","","","","","","",""
"","","","","","single-stim-button","226","4291773","0.0-3.0-7.6-0.6","62fb383ce16d6921d1c2c2b8","F1","batch6","","866","","","tol_practice","","","","","","","","","tol_peg_3","866","866","0","[[0,0,0],[3,2],[0]]","16","[[1,0,0],[2,0],[3]]","practice","866","","","","","","","",""
"","","","","","single-stim-button","227","4292996","0.0-3.0-7.6-1.6","62fb383ce16d6921d1c2c2b8","F1","batch6","","1221","","","tol_practice","","","","","","","","","tol_peg_1","1221","1221","0","[[1,0,0],[3,2],[0]]","16","[[1,0,0],[2,0],[3]]","practice","1221","","","","","","","",""
"","","","","","single-stim-button","228","4294228","0.0-3.0-7.7-0.7","62fb383ce16d6921d1c2c2b8","F1","batch6","","1232","","","tol_practice","","","","","","","","","tol_peg_2","1232","1232","0","[[1,0,0],[3,0],[0]]","17","[[1,0,0],[2,0],[3]]","practice","1232","","","","","","","",""
"","","","","","single-stim-button","229","4295980","0.0-3.0-7.7-1.7","62fb383ce16d6921d1c2c2b8","F1","batch6","","1751","","","tol_practice","","","","","","","","","tol_peg_3","1751","1751","0","[[1,0,0],[3,0],[2]]","17","[[1,0,0],[2,0],[3]]","practice","1751","","","","","","","",""
"","","","","","single-stim-button","230","4296970","0.0-3.0-7.8-0.8","62fb383ce16d6921d1c2c2b8","F1","batch6","","989","","","tol_practice","","","","","","","","","tol_peg_2","989","989","0","[[1,0,0],[0,0],[2]]","18","[[1,0,0],[2,0],[3]]","practice","989","","","","","","","",""
"","","","","","single-stim-button","231","4297998","0.0-3.0-7.8-1.8","62fb383ce16d6921d1c2c2b8","F1","batch6","","1027","","","tol_practice","","","","","","","","","tol_peg_1","1027","1027","0","[[1,3,0],[0,0],[2]]","18","[[1,0,0],[2,0],[3]]","practice","1027","","","","","","","",""
"","","","","","single-stim-button","232","4298975","0.0-3.0-7.9-0.9","62fb383ce16d6921d1c2c2b8","F1","batch6","","977","","","tol_practice","","","","","","","","","tol_peg_3","977","977","0","[[1,3,0],[0,0],[0]]","19","[[1,0,0],[2,0],[3]]","practice","977","","","","","","","",""
"","","","","","single-stim-button","233","4300208","0.0-3.0-7.9-1.9","62fb383ce16d6921d1c2c2b8","F1","batch6","","1232","","","tol_practice","","","","","","","","","tol_peg_2","1232","1232","0","[[1,3,0],[2,0],[0]]","19","[[1,0,0],[2,0],[3]]","practice","1232","","","","","","","",""
"","","","","","single-stim-button","234","4301187","0.0-3.0-7.10-0.10","62fb383ce16d6921d1c2c2b8","F1","batch6","","977","","","tol_practice","","","","","","","","","tol_peg_1","977","977","0","[[1,0,0],[2,0],[0]]","20","[[1,0,0],[2,0],[3]]","practice","977","","","","","","","",""
"","","","","","single-stim-button","235","4302328","0.0-3.0-7.10-1.10","62fb383ce16d6921d1c2c2b8","F1","batch6","","1140","","","tol_practice","","","","","","","","","tol_peg_3","1140","1140","0","[[1,0,0],[2,0],[3]]","20","[[1,0,0],[2,0],[3]]","practice","1140","","","","","","","",""
"","","","","","poldrack-single-stim","236","4303332","0.0-3.0-8.0","62fb383ce16d6921d1c2c2b8","F1","batch6","","-1","","","tol_feedback","true","","","","","","","","","1000","1000","500","","","","","","-1","none","true","","0","","",""
"","","","","","html-button-response","237","4308069","0.0-3.0-9.0","62fb383ce16d6921d1c2c2b8","F1","batch6","","4734.79999999702","<div class = centerbox><p class = center-block-text>Great job! You are done with practice trials<br>You are about to start official trials.<br> <br> Problem <strong>1</strong> out of 25 problems</p></div>","0","tol_instruction","","","","","","","","","","","","","","","","","","","","","","","","",""
"","","","","","single-stim-button","238","4312735","0.0-3.0-10.0-0.0","62fb383ce16d6921d1c2c2b8","F1","batch6","","3659","","","tol_tohand","","","","","","","","","tol_peg_2","3659","3659","0","[[1,2,0],[0,0],[0]]","1","[[1,3,0],[2,0],[0]]","0","0","","","","","","3","",""
"","","","","","single-stim-button","239","4313345","0.0-3.0-10.0-1.0","62fb383ce16d6921d1c2c2b8","F1","batch6","","608","","","tol_toboard","","","","","","","","","tol_peg_3","608","608","0","[[1,2,0],[0,0],[3]]","1","[[1,3,0],[2,0],[0]]","0","0","","","","","","3","",""
"","","","","","single-stim-button","240","4313756","0.0-3.0-10.1-0.1","62fb383ce16d6921d1c2c2b8","F1","batch6","","411","","","tol_tohand","","","","","","","","","tol_peg_1","411","411","0","[[1,0,0],[0,0],[3]]","2","[[1,3,0],[2,0],[0]]","0","0","","","","","","3","",""
"","","","","","single-stim-button","241","4314069","0.0-3.0-10.1-1.1","62fb383ce16d6921d1c2c2b8","F1","batch6","","311","","","tol_toboard","","","","","","","","","tol_peg_2","311","311","0","[[1,0,0],[2,0],[3]]","2","[[1,3,0],[2,0],[0]]","0","0","","","","","","3","",""
"","","","","","single-stim-button","242","4315024","0.0-3.0-10.2-0.2","62fb383ce16d6921d1c2c2b8","F1","batch6","","955","","","tol_tohand","","","","","","","","","tol_peg_1","955","955","0","[[0,0,0],[2,0],[3]]","3","[[1,3,0],[2,0],[0]]","0","0","","","","","","3","",""
"","","","","","single-stim-button","243","4315473","0.0-3.0-10.2-1.2","62fb383ce16d6921d1c2c2b8","F1","batch6","","448","","","tol_toboard","","","","","","","","","tol_peg_2","448","448","0","[[0,0,0],[2,1],[3]]","3","[[1,3,0],[2,0],[0]]","0","0","","","","","","3","",""
"","","","","","single-stim-button","244","4315866","0.0-3.0-10.3-0.3","62fb383ce16d6921d1c2c2b8","F1","batch6","","392","","","tol_tohand","","","","","","","","","tol_peg_3","392","392","0","[[0,0,0],[2,1],[0]]","4","[[1,3,0],[2,0],[0]]","0","0","","","","","","3","",""
"","","","","","single-stim-button","245","4316196","0.0-3.0-10.3-1.3","62fb383ce16d6921d1c2c2b8","F1","batch6","","330","","","tol_toboard","","","","","","","","","tol_peg_1","330","330","0","[[3,0,0],[2,1],[0]]","4","[[1,3,0],[2,0],[0]]","0","0","","","","","","3","",""
"","","","","","single-stim-button","246","4317857","0.0-3.0-10.4-0.4","62fb383ce16d6921d1c2c2b8","F1","batch6","","1659","","","tol_tohand","","","","","","","","","tol_peg_1","1659","1659","0","[[0,0,0],[2,1],[0]]","5","[[1,3,0],[2,0],[0]]","0","0","","","","","","3","",""
"","","","","","single-stim-button","247","4318532","0.0-3.0-10.4-1.4","62fb383ce16d6921d1c2c2b8","F1","batch6","","675","","","tol_toboard","","","","","","","","","tol_peg_3","675","675","0","[[0,0,0],[2,1],[3]]","5","[[1,3,0],[2,0],[0]]","0","0","","","","","","3","",""
"","","","","","single-stim-button","248","4318916","0.0-3.0-10.5-0.5","62fb383ce16d6921d1c2c2b8","F1","batch6","","384","","","tol_tohand","","","","","","","","","tol_peg_2","384","384","0","[[0,0,0],[2,0],[3]]","6","[[1,3,0],[2,0],[0]]","0","0","","","","","","3","",""
"","","","","","single-stim-button","249","4319247","0.0-3.0-10.5-1.5","62fb383ce16d6921d1c2c2b8","F1","batch6","","330","","","tol_toboard","","","","","","","","","tol_peg_1","330","330","0","[[1,0,0],[2,0],[3]]","6","[[1,3,0],[2,0],[0]]","0","0","","","","","","3","",""
"","","","","","single-stim-button","250","4319817","0.0-3.0-10.6-0.6","62fb383ce16d6921d1c2c2b8","F1","batch6","","568","","","tol_tohand","","","","","","","","","tol_peg_3","568","568","0","[[1,0,0],[2,0],[0]]","7","[[1,3,0],[2,0],[0]]","0","0","","","","","","3","",""
"","","","","","single-stim-button","251","4320205","0.0-3.0-10.6-1.6","62fb383ce16d6921d1c2c2b8","F1","batch6","","387","","","tol_toboard","","","","","","","","","tol_peg_1","387","387","0","[[1,3,0],[2,0],[0]]","7","[[1,3,0],[2,0],[0]]","0","0","","","","","","3","",""
"","","","","","poldrack-single-stim","252","4321211","0.0-3.0-11.0","62fb383ce16d6921d1c2c2b8","F1","batch6","","-1","","","tol_feedback","true","","","","","","","","","1000","1000","500","","","","","","-1","none","true","3659","8028","","",""
"","","","","","html-button-response","253","4321992","0.0-3.0-12.0","62fb383ce16d6921d1c2c2b8","F1","batch6","","779.5999999977648","<div class = centerbox><p class = center-block-text>problem <strong>2</strong> out of 25 problems</p></div>","0","tol_trial_num","","","","","","","","","","","","","","","","","","","","","","","","",""
"","","","","","single-stim-button","254","4325947","0.0-3.0-13.0-0.0","62fb383ce16d6921d1c2c2b8","F1","batch6","","3955","","","tol_tohand","","","","","","","","","tol_peg_2","3955","3955","0","[[1,2,0],[0,0],[0]]","1","[[2,1,3],[0,0],[0]]","1","0","","","","","","5","",""
"","","","","","single-stim-button","255","4326241","0.0-3.0-13.0-1.0","62fb383ce16d6921d1c2c2b8","F1","batch6","","292","","","tol_toboard","","","","","","","","","tol_peg_3","292","292","0","[[1,2,0],[0,0],[3]]","1","[[2,1,3],[0,0],[0]]","1","0","","","","","","5","",""
"","","","","","single-stim-button","256","4326795","0.0-3.0-13.1-0.1","62fb383ce16d6921d1c2c2b8","F1","batch6","","554","","","tol_tohand","","","","","","","","","tol_peg_1","554","554","0","[[1,0,0],[0,0],[3]]","2","[[2,1,3],[0,0],[0]]","1","0","","","","","","5","",""
"","","","","","single-stim-button","257","4327189","0.0-3.0-13.1-1.1","62fb383ce16d6921d1c2c2b8","F1","batch6","","392","","","tol_toboard","","","","","","","","","tol_peg_2","392","392","0","[[1,0,0],[2,0],[3]]","2","[[2,1,3],[0,0],[0]]","1","0","","","","","","5","",""
"","","","","","single-stim-button","258","4327653","0.0-3.0-13.2-0.2","62fb383ce16d6921d1c2c2b8","F1","batch6","","464","","","tol_tohand","","","","","","","","","tol_peg_1","464","464","0","[[0,0,0],[2,0],[3]]","3","[[2,1,3],[0,0],[0]]","1","0","","","","","","5","",""
"","","","","","single-stim-button","259","4329668","0.0-3.0-13.2-1.2","62fb383ce16d6921d1c2c2b8","F1","batch6","","2014","","","tol_toboard","","","","","","","","","tol_peg_2","2014","2014","0","[[0,0,0],[2,1],[3]]","3","[[2,1,3],[0,0],[0]]","1","0","","","","","","5","",""
"","","","","","single-stim-button","260","4330040","0.0-3.0-13.3-0.3","62fb383ce16d6921d1c2c2b8","F1","batch6","","370","","","tol_tohand","","","","","","","","","tol_peg_3","370","370","0","[[0,0,0],[2,1],[0]]","4","[[2,1,3],[0,0],[0]]","1","0","","","","","","5","",""
"","","","","","single-stim-button","261","4331287","0.0-3.0-13.3-1.3","62fb383ce16d6921d1c2c2b8","F1","batch6","","1245","","","tol_toboard","","","","","","","","","tol_peg_3","1245","1245","0","[[0,0,0],[2,1],[3]]","4","[[2,1,3],[0,0],[0]]","1","0","","","","","","5","",""
"","","","","","single-stim-button","262","4332489","0.0-3.0-13.4-0.4","62fb383ce16d6921d1c2c2b8","F1","batch6","","1200","","","tol_tohand","","","","","","","","","tol_peg_2","1200","1200","0","[[0,0,0],[2,0],[3]]","5","[[2,1,3],[0,0],[0]]","1","0","","","","","","5","",""
"","","","","","single-stim-button","263","4333520","0.0-3.0-13.4-1.4","62fb383ce16d6921d1c2c2b8","F1","batch6","","1030","","","tol_toboard","","","","","","","","","tol_peg_2","1030","1030","0","[[0,0,0],[2,1],[3]]","5","[[2,1,3],[0,0],[0]]","1","0","","","","","","5","",""
"","","","","","single-stim-button","264","4334315","0.0-3.0-13.5-0.5","62fb383ce16d6921d1c2c2b8","F1","batch6","","793","","","tol_tohand","","","","","","","","","tol_peg_3","793","793","0","[[0,0,0],[2,1],[0]]","6","[[2,1,3],[0,0],[0]]","1","0","","","","","","5","",""
"","","","","","single-stim-button","265","4334724","0.0-3.0-13.5-1.5","62fb383ce16d6921d1c2c2b8","F1","batch6","","408","","","tol_toboard","","","","","","","","","tol_peg_1","408","408","0","[[3,0,0],[2,1],[0]]","6","[[2,1,3],[0,0],[0]]","1","0","","","","","","5","",""
"","","","","","single-stim-button","266","4335397","0.0-3.0-13.6-0.6","62fb383ce16d6921d1c2c2b8","F1","batch6","","672","","","tol_tohand","","","","","","","","","tol_peg_2","672","672","0","[[3,0,0],[2,0],[0]]","7","[[2,1,3],[0,0],[0]]","1","0","","","","","","5","",""
"","","","","","single-stim-button","267","4335754","0.0-3.0-13.6-1.6","62fb383ce16d6921d1c2c2b8","F1","batch6","","357","","","tol_toboard","","","","","","","","","tol_peg_3","357","357","0","[[3,0,0],[2,0],[1]]","7","[[2,1,3],[0,0],[0]]","1","0","","","","","","5","",""
"","","","","","single-stim-button","268","4336148","0.0-3.0-13.7-0.7","62fb383ce16d6921d1c2c2b8","F1","batch6","","393","","","tol_tohand","","","","","","","","","tol_peg_2","393","393","0","[[3,0,0],[0,0],[1]]","8","[[2,1,3],[0,0],[0]]","1","0","","","","","","5","",""
"","","","","","single-stim-button","269","4336960","0.0-3.0-13.7-1.7","62fb383ce16d6921d1c2c2b8","F1","batch6","","812","","","tol_toboard","","","","","","","","","tol_peg_2","812","812","0","[[3,0,0],[2,0],[1]]","8","[[2,1,3],[0,0],[0]]","1","0","","","","","","5","",""
"","","","","","single-stim-button","270","4337709","0.0-3.0-13.8-0.8","62fb383ce16d6921d1c2c2b8","F1","batch6","","748","","","tol_tohand","","","","","","","","","tol_peg_1","748","748","0","[[0,0,0],[2,0],[1]]","9","[[2,1,3],[0,0],[0]]","1","0","","","","","","5","",""
"","","","","","single-stim-button","271","4339186","0.0-3.0-13.8-1.8","62fb383ce16d6921d1c2c2b8","F1","batch6","","1477","","","tol_toboard","","","","","","","","","tol_peg_2","1477","1477","0","[[0,0,0],[2,3],[1]]","9","[[2,1,3],[0,0],[0]]","1","0","","","","","","5","",""
"","","","","","single-stim-button","272","4340578","0.0-3.0-13.9-0.9","62fb383ce16d6921d1c2c2b8","F1","batch6","","1391","","","tol_tohand","","","","","","","","","tol_peg_2","1391","1391","0","[[0,0,0],[2,0],[1]]","10","[[2,1,3],[0,0],[0]]","1","0","","","","","","5","",""
"","","","","","single-stim-button","273","4341320","0.0-3.0-13.9-1.9","62fb383ce16d6921d1c2c2b8","F1","batch6","","740","","","tol_toboard","","","","","","","","","tol_peg_1","740","740","0","[[3,0,0],[2,0],[1]]","10","[[2,1,3],[0,0],[0]]","1","0","","","","","","5","",""
"","","","","","single-stim-button","274","4342107","0.0-3.0-13.10-0.10","62fb383ce16d6921d1c2c2b8","F1","batch6","","785","","","tol_tohand","","","","","","","","","tol_peg_2","785","785","0","[[3,0,0],[0,0],[1]]","11","[[2,1,3],[0,0],[0]]","1","0","","","","","","5","",""
"","","","","","single-stim-button","275","4342480","0.0-3.0-13.10-1.10","62fb383ce16d6921d1c2c2b8","F1","batch6","","371","","","tol_toboard","","","","","","","","","tol_peg_1","371","371","0","[[3,2,0],[0,0],[1]]","11","[[2,1,3],[0,0],[0]]","1","0","","","","","","5","",""
"","","","","","single-stim-button","276","4343195","0.0-3.0-13.11-0.11","62fb383ce16d6921d1c2c2b8","F1","batch6","","714","","","tol_tohand","","","","","","","","","tol_peg_3","714","714","0","[[3,2,0],[0,0],[0]]","12","[[2,1,3],[0,0],[0]]","1","0","","","","","","5","",""
"","","","","","single-stim-button","277","4343701","0.0-3.0-13.11-1.11","62fb383ce16d6921d1c2c2b8","F1","batch6","","504","","","tol_toboard","","","","","","","","","tol_peg_2","504","504","0","[[3,2,0],[1,0],[0]]","12","[[2,1,3],[0,0],[0]]","1","0","","","","","","5","",""
"","","","","","single-stim-button","278","4344173","0.0-3.0-13.12-0.12","62fb383ce16d6921d1c2c2b8","F1","batch6","","471","","","tol_tohand","","","","","","","","","tol_peg_1","471","471","0","[[3,0,0],[1,0],[0]]","13","[[2,1,3],[0,0],[0]]","1","0","","","","","","5","",""
"","","","","","single-stim-button","279","4344948","0.0-3.0-13.12-1.12","62fb383ce16d6921d1c2c2b8","F1","batch6","","774","","","tol_toboard","","","","","","","","","tol_peg_3","774","774","0","[[3,0,0],[1,0],[2]]","13","[[2,1,3],[0,0],[0]]","1","0","","","","","","5","",""
"","","","","","single-stim-button","280","4347080","0.0-3.0-13.13-0.13","62fb383ce16d6921d1c2c2b8","F1","batch6","","2130","","","tol_tohand","","","","","","","","","tol_peg_1","2130","2130","0","[[0,0,0],[1,0],[2]]","14","[[2,1,3],[0,0],[0]]","1","0","","","","","","5","",""
"","","","","","single-stim-button","281","4347556","0.0-3.0-13.13-1.13","62fb383ce16d6921d1c2c2b8","F1","batch6","","475","","","tol_toboard","","","","","","","","","tol_peg_2","475","475","0","[[0,0,0],[1,3],[2]]","14","[[2,1,3],[0,0],[0]]","1","0","","","","","","5","",""
"","","","","","single-stim-button","282","4347945","0.0-3.0-13.14-0.14","62fb383ce16d6921d1c2c2b8","F1","batch6","","388","","","tol_tohand","","","","","","","","","tol_peg_3","388","388","0","[[0,0,0],[1,3],[0]]","15","[[2,1,3],[0,0],[0]]","1","0","","","","","","5","",""
"","","","","","single-stim-button","283","4348283","0.0-3.0-13.14-1.14","62fb383ce16d6921d1c2c2b8","F1","batch6","","337","","","tol_toboard","","","","","","","","","tol_peg_1","337","337","0","[[2,0,0],[1,3],[0]]","15","[[2,1,3],[0,0],[0]]","1","0","","","","","","5","",""
"","","","","","single-stim-button","284","4349592","0.0-3.0-13.15-0.15","62fb383ce16d6921d1c2c2b8","F1","batch6","","1308","","","tol_tohand","","","","","","","","","tol_peg_2","1308","1308","0","[[2,0,0],[1,0],[0]]","16","[[2,1,3],[0,0],[0]]","1","0","","","","","","5","",""
"","","","","","single-stim-button","285","4349885","0.0-3.0-13.15-1.15","62fb383ce16d6921d1c2c2b8","F1","batch6","","293","","","tol_toboard","","","","","","","","","tol_peg_3","293","293","0","[[2,0,0],[1,0],[3]]","16","[[2,1,3],[0,0],[0]]","1","0","","","","","","5","",""
"","","","","","single-stim-button","286","4350240","0.0-3.0-13.16-0.16","62fb383ce16d6921d1c2c2b8","F1","batch6","","354","","","tol_tohand","","","","","","","","","tol_peg_2","354","354","0","[[2,0,0],[0,0],[3]]","17","[[2,1,3],[0,0],[0]]","1","0","","","","","","5","",""
"","","","","","single-stim-button","287","4350581","0.0-3.0-13.16-1.16","62fb383ce16d6921d1c2c2b8","F1","batch6","","340","","","tol_toboard","","","","","","","","","tol_peg_1","340","340","0","[[2,1,0],[0,0],[3]]","17","[[2,1,3],[0,0],[0]]","1","0","","","","","","5","",""
"","","","","","single-stim-button","288","4351225","0.0-3.0-13.17-0.17","62fb383ce16d6921d1c2c2b8","F1","batch6","","643","","","tol_tohand","","","","","","","","","tol_peg_3","643","643","0","[[2,1,0],[0,0],[0]]","18","[[2,1,3],[0,0],[0]]","1","0","","","","","","5","",""
"","","","","","single-stim-button","289","4351613","0.0-3.0-13.17-1.17","62fb383ce16d6921d1c2c2b8","F1","batch6","","386","","","tol_toboard","","","","","","","","","tol_peg_1","386","386","0","[[2,1,3],[0,0],[0]]","18","[[2,1,3],[0,0],[0]]","1","0","","","","","","5","",""
"","","","","","poldrack-single-stim","290","4352618","0.0-3.0-14.0","62fb383ce16d6921d1c2c2b8","F1","batch6","","-1","","","tol_feedback","true","","","","","","","","","1000","1000","500","","","","","","-1","none","true","3955","17333","","",""
"","","","","","html-button-response","291","4355775","0.0-3.0-15.0","62fb383ce16d6921d1c2c2b8","F1","batch6","","3156.199999999255","<div class = centerbox><p class = center-block-text>problem <strong>3</strong> out of 25 problems</p></div>","0","tol_trial_num","","","","","","","","","","","","","","","","","","","","","","","","",""
"","","","","","single-stim-button","292","4357737","0.0-3.0-16.0-0.0","62fb383ce16d6921d1c2c2b8","F1","batch6","","1961","","","tol_tohand","","","","","","","","","tol_peg_1","1961","1961","0","[[2,0,0],[0,0],[1]]","1","[[1,2,0],[3,0],[0]]","2","0","","","","","","4","",""
"","","","","","single-stim-button","293","4358084","0.0-3.0-16.0-1.0","62fb383ce16d6921d1c2c2b8","F1","batch6","","346","","","tol_toboard","","","","","","","","","tol_peg_2","346","346","0","[[2,0,0],[3,0],[1]]","1","[[1,2,0],[3,0],[0]]","2","0","","","","","","4","",""
"","","","","","single-stim-button","294","4358620","0.0-3.0-16.1-0.1","62fb383ce16d6921d1c2c2b8","F1","batch6","","535","","","tol_tohand","","","","","","","","","tol_peg_1","535","535","0","[[0,0,0],[3,0],[1]]","2","[[1,2,0],[3,0],[0]]","2","0","","","","","","4","",""
"","","","","","single-stim-button","295","4358967","0.0-3.0-16.1-1.1","62fb383ce16d6921d1c2c2b8","F1","batch6","","347","","","tol_toboard","","","","","","","","","tol_peg_2","347","347","0","[[0,0,0],[3,2],[1]]","2","[[1,2,0],[3,0],[0]]","2","0","","","","","","4","",""
"","","","","","single-stim-button","296","4359323","0.0-3.0-16.2-0.2","62fb383ce16d6921d1c2c2b8","F1","batch6","","355","","","tol_tohand","","","","","","","","","tol_peg_3","355","355","0","[[0,0,0],[3,2],[0]]","3","[[1,2,0],[3,0],[0]]","2","0","","","","","","4","",""
"","","","","","single-stim-button","297","4359642","0.0-3.0-16.2-1.2","62fb383ce16d6921d1c2c2b8","F1","batch6","","317","","","tol_toboard","","","","","","","","","tol_peg_1","317","317","0","[[1,0,0],[3,2],[0]]","3","[[1,2,0],[3,0],[0]]","2","0","","","","","","4","",""
"","","","","","single-stim-button","298","4360352","0.0-3.0-16.3-0.3","62fb383ce16d6921d1c2c2b8","F1","batch6","","710","","","tol_tohand","","","","","","","","","tol_peg_2","710","710","0","[[1,0,0],[3,0],[0]]","4","[[1,2,0],[3,0],[0]]","2","0","","","","","","4","",""
"","","","","","single-stim-button","299","4360628","0.0-3.0-16.3-1.3","62fb383ce16d6921d1c2c2b8","F1","batch6","","274","","","tol_toboard","","","","","","","","","tol_peg_1","274","274","0","[[1,2,0],[3,0],[0]]","4","[[1,2,0],[3,0],[0]]","2","0","","","","","","4","",""
"","","","","","poldrack-single-stim","300","4361632","0.0-3.0-17.0","62fb383ce16d6921d1c2c2b8","F1","batch6","","-1","","","tol_feedback","true","","","","","","","","","1000","1000","500","","","","","","-1","none","true","1961","3561","","",""
"","","","","","html-button-response","301","4362414","0.0-3.0-18.0","62fb383ce16d6921d1c2c2b8","F1","batch6","","780.2999999970198","<div class = centerbox><p class = center-block-text>problem <strong>4</strong> out of 25 problems</p></div>","0","tol_trial_num","","","","","","","","","","","","","","","","","","","","","","","","",""
"","","","","","single-stim-button","302","4365188","0.0-3.0-19.0-0.0","62fb383ce16d6921d1c2c2b8","F1","batch6","","2774","","","tol_tohand","","","","","","","","","tol_peg_2","2774","2774","0","[[3,0,0],[2,0],[0]]","1","[[3,0,0],[1,0],[2]]","3","0","","","","","","3","",""
"","","","","","single-stim-button","303","4365447","0.0-3.0-19.0-1.0","62fb383ce16d6921d1c2c2b8","F1","batch6","","257","","","tol_toboard","","","","","","","","","tol_peg_1","257","257","0","[[3,1,0],[2,0],[0]]","1","[[3,0,0],[1,0],[2]]","3","0","","","","","","3","",""
"","","","","","single-stim-button","304","4366067","0.0-3.0-19.1-0.1","62fb383ce16d6921d1c2c2b8","F1","batch6","","619","","","tol_tohand","","","","","","","","","tol_peg_2","619","619","0","[[3,1,0],[0,0],[0]]","2","[[3,0,0],[1,0],[2]]","3","0","","","","","","3","",""
"","","","","","single-stim-button","305","4366458","0.0-3.0-19.1-1.1","62fb383ce16d6921d1c2c2b8","F1","batch6","","391","","","tol_toboard","","","","","","","","","tol_peg_1","391","391","0","[[3,1,2],[0,0],[0]]","2","[[3,0,0],[1,0],[2]]","3","0","","","","","","3","",""
"","","","","","single-stim-button","306","4372238","0.0-3.0-19.2-0.2","62fb383ce16d6921d1c2c2b8","F1","batch6","","5778","","","tol_tohand","","","","","","","","","tol_peg_1","5778","5778","0","[[3,1,0],[0,0],[0]]","3","[[3,0,0],[1,0],[2]]","3","0","","","","","","3","",""
"","","","","","single-stim-button","307","4372665","0.0-3.0-19.2-1.2","62fb383ce16d6921d1c2c2b8","F1","batch6","","426","","","tol_toboard","","","","","","","","","tol_peg_3","426","426","0","[[3,1,0],[0,0],[2]]","3","[[3,0,0],[1,0],[2]]","3","0","","","","","","3","",""
"","","","","","single-stim-button","308","4373146","0.0-3.0-19.3-0.3","62fb383ce16d6921d1c2c2b8","F1","batch6","","478","","","tol_tohand","","","","","","","","","tol_peg_1","478","478","0","[[3,0,0],[0,0],[2]]","4","[[3,0,0],[1,0],[2]]","3","0","","","","","","3","",""
"","","","","","single-stim-button","309","4373548","0.0-3.0-19.3-1.3","62fb383ce16d6921d1c2c2b8","F1","batch6","","402","","","tol_toboard","","","","","","","","","tol_peg_2","402","402","0","[[3,0,0],[1,0],[2]]","4","[[3,0,0],[1,0],[2]]","3","0","","","","","","3","",""
"","","","","","poldrack-single-stim","310","4374555","0.0-3.0-20.0","62fb383ce16d6921d1c2c2b8","F1","batch6","","-1","","","tol_feedback","true","","","","","","","","","1000","1000","500","","","","","","-1","none","true","2774","9649","","",""
"","","","","","html-button-response","311","4375409","0.0-3.0-21.0","62fb383ce16d6921d1c2c2b8","F1","batch6","","852.4000000022352","<div class = centerbox><p class = center-block-text>problem <strong>5</strong> out of 25 problems</p></div>","0","tol_trial_num","","","","","","","","","","","","","","","","","","","","","","","","",""
"","","","","","single-stim-button","312","4379371","0.0-3.0-22.0-0.0","62fb383ce16d6921d1c2c2b8","F1","batch6","","3961","","","tol_tohand","","","","","","","","","tol_peg_2","3961","3961","0","[[1,0,0],[0,0],[3]]","1","[[0,0,0],[1,2],[3]]","4","0","","","","","","7","",""
"","","","","","single-stim-button","313","4379955","0.0-3.0-22.0-1.0","62fb383ce16d6921d1c2c2b8","F1","batch6","","583","","","tol_toboard","","","","","","","","","tol_peg_2","583","583","0","[[1,0,0],[2,0],[3]]","1","[[0,0,0],[1,2],[3]]","4","0","","","","","","7","",""
"","","","","","single-stim-button","314","4380398","0.0-3.0-22.1-0.1","62fb383ce16d6921d1c2c2b8","F1","batch6","","442","","","tol_tohand","","","","","","","","","tol_peg_3","442","442","0","[[1,0,0],[2,0],[0]]","2","[[0,0,0],[1,2],[3]]","4","0","","","","","","7","",""
"","","","","","single-stim-button","315","4380795","0.0-3.0-22.1-1.1","62fb383ce16d6921d1c2c2b8","F1","batch6","","395","","","tol_toboard","","","","","","","","","tol_peg_1","395","395","0","[[1,3,0],[2,0],[0]]","2","[[0,0,0],[1,2],[3]]","4","0","","","","","","7","",""
"","","","","","single-stim-button","316","4381824","0.0-3.0-22.2-0.2","62fb383ce16d6921d1c2c2b8","F1","batch6","","1029","","","tol_tohand","","","","","","","","","tol_peg_2","1029","1029","0","[[1,3,0],[0,0],[0]]","3","[[0,0,0],[1,2],[3]]","4","0","","","","","","7","",""
"","","","","","single-stim-button","317","4383127","0.0-3.0-22.2-1.2","62fb383ce16d6921d1c2c2b8","F1","batch6","","1303","","","tol_toboard","","","","","","","","","tol_peg_2","1303","1303","0","[[1,3,0],[2,0],[0]]","3","[[0,0,0],[1,2],[3]]","4","0","","","","","","7","",""
"","","","","","single-stim-button","318","4383630","0.0-3.0-22.3-0.3","62fb383ce16d6921d1c2c2b8","F1","batch6","","502","","","tol_tohand","","","","","","","","","tol_peg_1","502","502","0","[[1,0,0],[2,0],[0]]","4","[[0,0,0],[1,2],[3]]","4","0","","","","","","7","",""
"","","","","","single-stim-button","319","4384138","0.0-3.0-22.3-1.3","62fb383ce16d6921d1c2c2b8","F1","batch6","","507","","","tol_toboard","","","","","","","","","tol_peg_2","507","507","0","[[1,0,0],[2,3],[0]]","4","[[0,0,0],[1,2],[3]]","4","0","","","","","","7","",""
"","","","","","single-stim-button","320","4384466","0.0-3.0-22.4-0.4","62fb383ce16d6921d1c2c2b8","F1","batch6","","328","","","tol_tohand","","","","","","","","","tol_peg_1","328","328","0","[[0,0,0],[2,3],[0]]","5","[[0,0,0],[1,2],[3]]","4","0","","","","","","7","",""
"","","","","","single-stim-button","321","4384974","0.0-3.0-22.4-1.4","62fb383ce16d6921d1c2c2b8","F1","batch6","","508","","","tol_toboard","","","","","","","","","tol_peg_3","508","508","0","[[0,0,0],[2,3],[1]]","5","[[0,0,0],[1,2],[3]]","4","0","","","","","","7","",""
"","","","","","single-stim-button","322","4385832","0.0-3.0-22.5-0.5","62fb383ce16d6921d1c2c2b8","F1","batch6","","858","","","tol_tohand","","","","","","","","","tol_peg_2","858","858","0","[[0,0,0],[2,0],[1]]","6","[[0,0,0],[1,2],[3]]","4","0","","","","","","7","",""
"","","","","","single-stim-button","323","4386097","0.0-3.0-22.5-1.5","62fb383ce16d6921d1c2c2b8","F1","batch6","","263","","","tol_toboard","","","","","","","","","tol_peg_1","263","263","0","[[3,0,0],[2,0],[1]]","6","[[0,0,0],[1,2],[3]]","4","0","","","","","","7","",""
"","","","","","single-stim-button","324","4386563","0.0-3.0-22.6-0.6","62fb383ce16d6921d1c2c2b8","F1","batch6","","466","","","tol_tohand","","","","","","","","","tol_peg_2","466","466","0","[[3,0,0],[0,0],[1]]","7","[[0,0,0],[1,2],[3]]","4","0","","","","","","7","",""
"","","","","","single-stim-button","325","4386939","0.0-3.0-22.6-1.6","62fb383ce16d6921d1c2c2b8","F1","batch6","","376","","","tol_toboard","","","","","","","","","tol_peg_1","376","376","0","[[3,2,0],[0,0],[1]]","7","[[0,0,0],[1,2],[3]]","4","0","","","","","","7","",""
"","","","","","single-stim-button","326","4387758","0.0-3.0-22.7-0.7","62fb383ce16d6921d1c2c2b8","F1","batch6","","817","","","tol_tohand","","","","","","","","","tol_peg_3","817","817","0","[[3,2,0],[0,0],[0]]","8","[[0,0,0],[1,2],[3]]","4","0","","","","","","7","",""
"","","","","","single-stim-button","327","4388007","0.0-3.0-22.7-1.7","62fb383ce16d6921d1c2c2b8","F1","batch6","","249","","","tol_toboard","","","","","","","","","tol_peg_2","249","249","0","[[3,2,0],[1,0],[0]]","8","[[0,0,0],[1,2],[3]]","4","0","","","","","","7","",""
"","","","","","single-stim-button","328","4388707","0.0-3.0-22.8-0.8","62fb383ce16d6921d1c2c2b8","F1","batch6","","700","","","tol_tohand","","","","","","","","","tol_peg_1","700","700","0","[[3,0,0],[1,0],[0]]","9","[[0,0,0],[1,2],[3]]","4","0","","","","","","7","",""
"","","","","","single-stim-button","329","4389092","0.0-3.0-22.8-1.8","62fb383ce16d6921d1c2c2b8","F1","batch6","","383","","","tol_toboard","","","","","","","","","tol_peg_2","383","383","0","[[3,0,0],[1,2],[0]]","9","[[0,0,0],[1,2],[3]]","4","0","","","","","","7","",""
"","","","","","single-stim-button","330","4389604","0.0-3.0-22.9-0.9","62fb383ce16d6921d1c2c2b8","F1","batch6","","511","","","tol_tohand","","","","","","","","","tol_peg_1","511","511","0","[[0,0,0],[1,2],[0]]","10","[[0,0,0],[1,2],[3]]","4","0","","","","","","7","",""
"","","","","","single-stim-button","331","4390006","0.0-3.0-22.9-1.9","62fb383ce16d6921d1c2c2b8","F1","batch6","","401","","","tol_toboard","","","","","","","","","tol_peg_3","401","401","0","[[0,0,0],[1,2],[3]]","10","[[0,0,0],[1,2],[3]]","4","0","","","","","","7","",""
"","","","","","poldrack-single-stim","332","4391011","0.0-3.0-23.0","62fb383ce16d6921d1c2c2b8","F1","batch6","","-1","","","tol_feedback","true","","","","","","","","","1000","1000","500","","","","","","-1","none","true","3961","9614","","",""
"","","","","","html-button-response","333","4392181","0.0-3.0-24.0","62fb383ce16d6921d1c2c2b8","F1","batch6","","1168.8999999985099","<div class = centerbox><p class = center-block-text>problem <strong>6</strong> out of 25 problems</p></div>","0","tol_trial_num","","","","","","","","","","","","","","","","","","","","","","","","",""
"","","","","","single-stim-button","334","4394881","0.0-3.0-25.0-0.0","62fb383ce16d6921d1c2c2b8","F1","batch6","","2698","","","tol_tohand","","","","","","","","","tol_peg_2","2698","2698","0","[[0,0,0],[1,0],[3]]","1","[[1,0,0],[2,3],[0]]","5","0","","","","","","6","",""
"","","","","","single-stim-button","335","4395255","0.0-3.0-25.0-1.0","62fb383ce16d6921d1c2c2b8","F1","batch6","","373","","","tol_toboard","","","","","","","","","tol_peg_1","373","373","0","[[2,0,0],[1,0],[3]]","1","[[1,0,0],[2,3],[0]]","5","0","","","","","","6","",""
"","","","","","single-stim-button","336","4396050","0.0-3.0-25.1-0.1","62fb383ce16d6921d1c2c2b8","F1","batch6","","795","","","tol_tohand","","","","","","","","","tol_peg_2","795","795","0","[[2,0,0],[0,0],[3]]","2","[[1,0,0],[2,3],[0]]","5","0","","","","","","6","",""
"","","","","","single-stim-button","337","4396405","0.0-3.0-25.1-1.1","62fb383ce16d6921d1c2c2b8","F1","batch6","","355","","","tol_toboard","","","","","","","","","tol_peg_1","355","355","0","[[2,1,0],[0,0],[3]]","2","[[1,0,0],[2,3],[0]]","5","0","","","","","","6","",""
"","","","","","single-stim-button","338","4398007","0.0-3.0-25.2-0.2","62fb383ce16d6921d1c2c2b8","F1","batch6","","1601","","","tol_tohand","","","","","","","","","tol_peg_1","1601","1601","0","[[2,0,0],[0,0],[3]]","3","[[1,0,0],[2,3],[0]]","5","0","","","","","","6","",""
"","","","","","single-stim-button","339","4398638","0.0-3.0-25.2-1.2","62fb383ce16d6921d1c2c2b8","F1","batch6","","629","","","tol_toboard","","","","","","","","","tol_peg_2","629","629","0","[[2,0,0],[1,0],[3]]","3","[[1,0,0],[2,3],[0]]","5","0","","","","","","6","",""
"","","","","","single-stim-button","340","4399020","0.0-3.0-25.3-0.3","62fb383ce16d6921d1c2c2b8","F1","batch6","","382","","","tol_tohand","","","","","","","","","tol_peg_1","382","382","0","[[0,0,0],[1,0],[3]]","4","[[1,0,0],[2,3],[0]]","5","0","","","","","","6","",""
"","","","","","single-stim-button","341","4399424","0.0-3.0-25.3-1.3","62fb383ce16d6921d1c2c2b8","F1","batch6","","403","","","tol_toboard","","","","","","","","","tol_peg_2","403","403","0","[[0,0,0],[1,2],[3]]","4","[[1,0,0],[2,3],[0]]","5","0","","","","","","6","",""
"","","","","","single-stim-button","342","4399826","0.0-3.0-25.4-0.4","62fb383ce16d6921d1c2c2b8","F1","batch6","","402","","","tol_tohand","","","","","","","","","tol_peg_3","402","402","0","[[0,0,0],[1,2],[0]]","5","[[1,0,0],[2,3],[0]]","5","0","","","","","","6","",""
"","","","","","single-stim-button","343","4400218","0.0-3.0-25.4-1.4","62fb383ce16d6921d1c2c2b8","F1","batch6","","392","","","tol_toboard","","","","","","","","","tol_peg_1","392","392","0","[[3,0,0],[1,2],[0]]","5","[[1,0,0],[2,3],[0]]","5","0","","","","","","6","",""
"","","","","","single-stim-button","344","4400765","0.0-3.0-25.5-0.5","62fb383ce16d6921d1c2c2b8","F1","batch6","","546","","","tol_tohand","","","","","","","","","tol_peg_2","546","546","0","[[3,0,0],[1,0],[0]]","6","[[1,0,0],[2,3],[0]]","5","0","","","","","","6","",""
"","","","","","single-stim-button","345","4401293","0.0-3.0-25.5-1.5","62fb383ce16d6921d1c2c2b8","F1","batch6","","527","","","tol_toboard","","","","","","","","","tol_peg_1","527","527","0","[[3,2,0],[1,0],[0]]","6","[[1,0,0],[2,3],[0]]","5","0","","","","","","6","",""
