"success","timeout","failed_images","failed_audio","failed_video","trial_type","trial_index","time_elapsed","internal_node_id","subject_id","study_id","session_id","view_history","rt","stimulus","response","task","correct","answer","item","fiar_detect_rt","fiar_detect_correct","total_correct_fiar_detect","post_trial_gap","choices","mouse_click","stim_duration","block_duration","timing_post_trial","current_position","tol_num_moves_made","tol_target","tol_problem_id","tol_rt","key_press","possible_responses","tol_correct","preplanning","tol_rt_per_trial","tol_min_moves","spm_correct","spm_rt"
"true","false","[]","[]","[]","preload","0","35569","0.0-0.0","62fd65d2cb867728e4015273","E1","batch5","","","","","","","","","","","","","","","","","","","","","","","","","","","","","",""
"true","","","","","fullscreen","1","43963","0.0-1.0-0.0","62fd65d2cb867728e4015273","E1","batch5","","","","","","","","","","","","","","","","","","","","","","","","","","","","","",""
"true","","","","","fullscreen","2","48261","0.0-2.0-0.0","62fd65d2cb867728e4015273","E1","batch5","","","","","","","","","","","","","","","","","","","","","","","","","","","","","",""
"","","","","","instructions","3","69123","0.0-2.0-1.0-0.0","62fd65d2cb867728e4015273","E1","batch5","[{""page_index"":0,""viewing_time"":14954.5},{""page_index"":1,""viewing_time"":5906.699999988079}]","20861.69999998808","","","","","","","","","","","","","","","","","","","","","","","","","","","",""
"","","","","","html-button-response","4","70124","0.0-2.0-1.0-1.0-0.0","62fd65d2cb867728e4015273","E1","batch5","","999.9000000357628","<p class=block-text> Let's answer a few questions <br>","0","pattern_enter_quiz","","","","","","","","","","","","","","","","","","","","","","","","",""
"","","","","","html-button-response","5","74984","0.0-2.0-1.0-1.0-1.0","62fd65d2cb867728e4015273","E1","batch5","","4858.399999976158","<p class = block-text>True or False: You will have as much time as you want to make each choice. <br></p>","1","pattern_quiz","true","","","","","","","","","","","","","","","","","","","","","","","",""
"","","","","","html-button-response","6","78022","0.0-2.0-1.0-1.0-2.0","62fd65d2cb867728e4015273","E1","batch5","","3035.699999988079","<p class = block-text>Correct! You should make your choice <strong> as fast as you can</strong>.</p>","0","pattern_quiz_feedback","","","","","","","","","","","","","","","","","","","","","","","","",""
"","","","","","html-button-response","7","82016","0.0-2.0-1.0-1.0-3.0","62fd65d2cb867728e4015273","E1","batch5","","3992.7999999523163","<p class = block-text>True or False: You will look for 4 pieces in black or white color connected in a row either horizontally, vertically or diagonally. <br></p>","0","pattern_quiz","true","","","","","","","","","","","","","","","","","","","","","","","",""
"","","","","","html-button-response","8","82826","0.0-2.0-1.0-1.0-4.0","62fd65d2cb867728e4015273","E1","batch5","","808.6000000238419","<p class = block-text>Correct! </p>","0","pattern_quiz_feedback","","","","","","","","","","","","","","","","","","","","","","","","",""
"","","","","","html-button-response","9","84738","0.0-2.0-2.0","62fd65d2cb867728e4015273","E1","batch5","","1910.3999999761581","<p class=block-text> Now that you've understood the game, let's do a few practice trials before we start!<br> <br>","0","pattern_enter_practice","","","","","","","","","","","","","","","","","","","","","","","","",""
"","","","","","image-keyboard-response","10","86214","0.0-2.0-3.0-0.0","62fd65d2cb867728e4015273","E1","batch5","","1464.199999988079","stim/prac_yes_16_ver_w1.png","f","pattern_practice","true","f","","","","","","","","","","","","","","","","","","","","","","",""
"","","","","","html-keyboard-response","11","87234","0.0-2.0-3.0-1.0","62fd65d2cb867728e4015273","E1","batch5","","null","<p style=""font-size:30px;color:green;"">Correct!</p>","null","pattern_feedback","","","","","","","","","","","","","","","","","","","","","","","","",""
"","","","","","image-keyboard-response","12","88685","0.0-2.0-3.0-0.1","62fd65d2cb867728e4015273","E1","batch5","","1449.3999999761581","stim/prac_yes_20_dia_b1.png","f","pattern_practice","true","f","","","","","","","","","","","","","","","","","","","","","","",""
"","","","","","html-keyboard-response","13","89701","0.0-2.0-3.0-1.1","62fd65d2cb867728e4015273","E1","batch5","","null","<p style=""font-size:30px;color:green;"">Correct!</p>","null","pattern_feedback","","","","","","","","","","","","","","","","","","","","","","","","",""
"","","","","","image-keyboard-response","14","90613","0.0-2.0-3.0-0.2","62fd65d2cb867728e4015273","E1","batch5","","911.1000000238419","stim/prac_yes_18_hor_w1.png","f","pattern_practice","true","f","","","","","","","","","","","","","","","","","","","","","","",""
"","","","","","html-keyboard-response","15","91628","0.0-2.0-3.0-1.2","62fd65d2cb867728e4015273","E1","batch5","","null","<p style=""font-size:30px;color:green;"">Correct!</p>","null","pattern_feedback","","","","","","","","","","","","","","","","","","","","","","","","",""
"","","","","","image-keyboard-response","16","92693","0.0-2.0-3.0-0.3","62fd65d2cb867728e4015273","E1","batch5","","1064.2000000476837","stim/prac_no_18_1.png","j","pattern_practice","true","j","","","","","","","","","","","","","","","","","","","","","","",""
"","","","","","html-keyboard-response","17","93717","0.0-2.0-3.0-1.3","62fd65d2cb867728e4015273","E1","batch5","","null","<p style=""font-size:30px;color:green;"">Correct!</p>","null","pattern_feedback","","","","","","","","","","","","","","","","","","","","","","","","",""
"","","","","","image-keyboard-response","18","95509","0.0-2.0-3.0-0.4","62fd65d2cb867728e4015273","E1","batch5","","1790.1000000238419","stim/prac_no_16_1.png","j","pattern_practice","true","j","","","","","","","","","","","","","","","","","","","","","","",""
"","","","","","html-keyboard-response","19","96524","0.0-2.0-3.0-1.4","62fd65d2cb867728e4015273","E1","batch5","","null","<p style=""font-size:30px;color:green;"">Correct!</p>","null","pattern_feedback","","","","","","","","","","","","","","","","","","","","","","","","",""
"","","","","","html-button-response","20","98408","0.0-2.0-4.0","62fd65d2cb867728e4015273","E1","batch5","","1881.5999999642372","<p class=block-text> Good job! You are done with practice trials!<br>
        You responded correctly on 100% of the trials.<br>
        Press the button below to start official trials. Now you won't see any feedback about your response</p>","0","pattern_enter_official_trials","","","","","","","","","","","","","","","","","","","","","","","","",""
"","","","","","html-keyboard-response","21","99220","0.0-2.0-5.0-0.0","62fd65d2cb867728e4015273","E1","batch5","","null","<p class=block-text>Trial 1 out of 78</p>","null","pattern_show_trial_num","","","","","","","","","","","","","","","","","","","","","","","","",""
"","","","","","image-keyboard-response","22","104597","0.0-2.0-5.0-1.0","62fd65d2cb867728e4015273","E1","batch5","","5375.5","stim/no_58_1_w.png","j","pattern_response","true","j","pattern_35","5375.5","true","1","","","","","","","","","","","","","","","","","","",""
"","","","","","html-keyboard-response","23","105916","0.0-2.0-5.0-0.1","62fd65d2cb867728e4015273","E1","batch5","","null","<p class=block-text>Trial 2 out of 78</p>","null","pattern_show_trial_num","","","","","","","","","","","","","","","","","","","","","","","","",""
"","","","","","image-keyboard-response","24","107693","0.0-2.0-5.0-1.1","62fd65d2cb867728e4015273","E1","batch5","","1775.3999999761581","stim/no_18_1_b.png","j","pattern_response","true","j","pattern_05","1775.3999999761581","true","2","","","","","","","","","","","","","","","","","","",""
"","","","","","html-keyboard-response","25","109011","0.0-2.0-5.0-0.2","62fd65d2cb867728e4015273","E1","batch5","","null","<p class=block-text>Trial 3 out of 78</p>","null","pattern_show_trial_num","","","","","","","","","","","","","","","","","","","","","","","","",""
"","","","","","image-keyboard-response","26","110788","0.0-2.0-5.0-1.2","62fd65d2cb867728e4015273","E1","batch5","","1775.4000000357628","stim/yes_51_dia_b1.png","f","pattern_response","true","f","pattern_72","1775.4000000357628","true","3","","","","","","","","","","","","","","","","","","",""
"","","","","","html-keyboard-response","27","112107","0.0-2.0-5.0-0.3","62fd65d2cb867728e4015273","E1","batch5","","null","<p class=block-text>Trial 4 out of 78</p>","null","pattern_show_trial_num","","","","","","","","","","","","","","","","","","","","","","","","",""
"","","","","","image-keyboard-response","28","116403","0.0-2.0-5.0-1.3","62fd65d2cb867728e4015273","E1","batch5","","4295","stim/no_49_2_b.png","j","pattern_response","true","j","pattern_29","4295","true","4","","","","","","","","","","","","","","","","","","",""
"","","","","","html-keyboard-response","29","117715","0.0-2.0-5.0-0.4","62fd65d2cb867728e4015273","E1","batch5","","null","<p class=block-text>Trial 5 out of 78</p>","null","pattern_show_trial_num","","","","","","","","","","","","","","","","","","","","","","","","",""
"","","","","","image-keyboard-response","30","121667","0.0-2.0-5.0-1.4","62fd65d2cb867728e4015273","E1","batch5","","3950.699999988079","stim/no_45_1_w.png","j","pattern_response","true","j","pattern_25","3950.699999988079","true","5","","","","","","","","","","","","","","","","","","",""
"","","","","","html-keyboard-response","31","122978","0.0-2.0-5.0-0.5","62fd65d2cb867728e4015273","E1","batch5","","null","<p class=block-text>Trial 6 out of 78</p>","null","pattern_show_trial_num","","","","","","","","","","","","","","","","","","","","","","","","",""
"","","","","","image-keyboard-response","32","124412","0.0-2.0-5.0-1.5","62fd65d2cb867728e4015273","E1","batch5","","1432.4000000357628","stim/yes_37_hor_w1_w.png","f","pattern_response","true","f","pattern_60","1432.4000000357628","true","6","","","","","","","","","","","","","","","","","","",""
"","","","","","html-keyboard-response","33","125733","0.0-2.0-5.0-0.6","62fd65d2cb867728e4015273","E1","batch5","","null","<p class=block-text>Trial 7 out of 78</p>","null","pattern_show_trial_num","","","","","","","","","","","","","","","","","","","","","","","","",""
"","","","","","image-keyboard-response","34","127868","0.0-2.0-5.0-1.6","62fd65d2cb867728e4015273","E1","batch5","","2134.199999988079","stim/no_28_2.png","j","pattern_response","true","j","pattern_11","2134.199999988079","true","7","","","","","","","","","","","","","","","","","","",""
"","","","","","html-keyboard-response","35","129188","0.0-2.0-5.0-0.7","62fd65d2cb867728e4015273","E1","batch5","","null","<p class=block-text>Trial 8 out of 78</p>","null","pattern_show_trial_num","","","","","","","","","","","","","","","","","","","","","","","","",""
"","","","","","image-keyboard-response","36","130420","0.0-2.0-5.0-1.7","62fd65d2cb867728e4015273","E1","batch5","","1229.5","stim/yes_12_hor_w1_w.png","f","pattern_response","true","f","pattern_42","1229.5","true","8","","","","","","","","","","","","","","","","","","",""
"","","","","","html-keyboard-response","37","131739","0.0-2.0-5.0-0.8","62fd65d2cb867728e4015273","E1","batch5","","null","<p class=block-text>Trial 9 out of 78</p>","null","pattern_show_trial_num","","","","","","","","","","","","","","","","","","","","","","","","",""
"","","","","","image-keyboard-response","38","132795","0.0-2.0-5.0-1.8","62fd65d2cb867728e4015273","E1","batch5","","1054.5","stim/yes_15_dia_b1u_b.png","f","pattern_response","true","f","pattern_44","1054.5","true","9","","","","","","","","","","","","","","","","","","",""
"","","","","","html-keyboard-response","39","134107","0.0-2.0-5.0-0.9","62fd65d2cb867728e4015273","E1","batch5","","null","<p class=block-text>Trial 10 out of 78</p>","null","pattern_show_trial_num","","","","","","","","","","","","","","","","","","","","","","","","",""
"","","","","","image-keyboard-response","40","135091","0.0-2.0-5.0-1.9","62fd65d2cb867728e4015273","E1","batch5","","983.5","stim/no_12_1.png","j","pattern_response","true","j","pattern_01","983.5","true","10","","","","","","","","","","","","","","","","","","",""
"","","","","","html-keyboard-response","41","136413","0.0-2.0-5.0-0.10","62fd65d2cb867728e4015273","E1","batch5","","null","<p class=block-text>Trial 11 out of 78</p>","null","pattern_show_trial_num","","","","","","","","","","","","","","","","","","","","","","","","",""
"","","","","","image-keyboard-response","42","139907","0.0-2.0-5.0-1.10","62fd65d2cb867728e4015273","E1","batch5","","3493.400000035763","stim/no_36_1_b.png","j","pattern_response","true","j","pattern_17","3493.400000035763","true","11","","","","","","","","","","","","","","","","","","",""
"","","","","","html-keyboard-response","43","141224","0.0-2.0-5.0-0.11","62fd65d2cb867728e4015273","E1","batch5","","null","<p class=block-text>Trial 12 out of 78</p>","null","pattern_show_trial_num","","","","","","","","","","","","","","","","","","","","","","","","",""
"","","","","","image-keyboard-response","44","144203","0.0-2.0-5.0-1.11","62fd65d2cb867728e4015273","E1","batch5","","2977.699999988079","stim/no_33_1_b.png","j","pattern_response","true","j","pattern_15","2977.699999988079","true","12","","","","","","","","","","","","","","","","","","",""
"","","","","","html-keyboard-response","45","145520","0.0-2.0-5.0-0.12","62fd65d2cb867728e4015273","E1","batch5","","null","<p class=block-text>Trial 13 out of 78</p>","null","pattern_show_trial_num","","","","","","","","","","","","","","","","","","","","","","","","",""
"","","","","","image-keyboard-response","46","153267","0.0-2.0-5.0-1.12","62fd65d2cb867728e4015273","E1","batch5","","7745.399999976158","stim/yes_70_ver_b1.png","j","pattern_response","false","f","pattern_80","7745.399999976158","false","12","","","","","","","","","","","","","","","","","","",""
"","","","","","html-keyboard-response","47","154587","0.0-2.0-5.0-0.13","62fd65d2cb867728e4015273","E1","batch5","","null","<p class=block-text>Trial 14 out of 78</p>","null","pattern_show_trial_num","","","","","","","","","","","","","","","","","","","","","","","","",""
"","","","","","image-keyboard-response","48","156019","0.0-2.0-5.0-1.13","62fd65d2cb867728e4015273","E1","batch5","","1430.699999988079","stim/yes_49_hor_w1_b.png","f","pattern_response","true","f","pattern_70","1430.699999988079","true","13","","","","","","","","","","","","","","","","","","",""
"","","","","","html-keyboard-response","49","157338","0.0-2.0-5.0-0.14","62fd65d2cb867728e4015273","E1","batch5","","null","<p class=block-text>Trial 15 out of 78</p>","null","pattern_show_trial_num","","","","","","","","","","","","","","","","","","","","","","","","",""
"","","","","","image-keyboard-response","50","158811","0.0-2.0-5.0-1.14","62fd65d2cb867728e4015273","E1","batch5","","1471.800000011921","stim/yes_44_ver_w1_w.png","f","pattern_response","true","f","pattern_66","1471.800000011921","true","14","","","","","","","","","","","","","","","","","","",""
"","","","","","html-keyboard-response","51","160132","0.0-2.0-5.0-0.15","62fd65d2cb867728e4015273","E1","batch5","","null","<p class=block-text>Trial 16 out of 78</p>","null","pattern_show_trial_num","","","","","","","","","","","","","","","","","","","","","","","","",""
"","","","","","image-keyboard-response","52","161811","0.0-2.0-5.0-1.15","62fd65d2cb867728e4015273","E1","batch5","","1677.2000000476837","stim/yes_30_ver_b1_b.png","f","pattern_response","true","f","pattern_54","1677.2000000476837","true","15","","","","","","","","","","","","","","","","","","",""
"","","","","","html-keyboard-response","53","163127","0.0-2.0-5.0-0.16","62fd65d2cb867728e4015273","E1","batch5","","null","<p class=block-text>Trial 17 out of 78</p>","null","pattern_show_trial_num","","","","","","","","","","","","","","","","","","","","","","","","",""
"","","","","","image-keyboard-response","54","165763","0.0-2.0-5.0-1.16","62fd65d2cb867728e4015273","E1","batch5","","2634.199999988079","stim/yes_42_dia_w1_w.png","f","pattern_response","true","f","pattern_64","2634.199999988079","true","16","","","","","","","","","","","","","","","","","","",""
"","","","","","html-keyboard-response","55","167079","0.0-2.0-5.0-0.17","62fd65d2cb867728e4015273","E1","batch5","","null","<p class=block-text>Trial 18 out of 78</p>","null","pattern_show_trial_num","","","","","","","","","","","","","","","","","","","","","","","","",""
"","","","","","image-keyboard-response","56","168123","0.0-2.0-5.0-1.17","62fd65d2cb867728e4015273","E1","batch5","","1042.0999999642372","stim/yes_29_hor_b1_b.png","f","pattern_response","true","f","pattern_52","1042.0999999642372","true","17","","","","","","","","","","","","","","","","","","",""
"","","","","","html-keyboard-response","57","169439","0.0-2.0-5.0-0.18","62fd65d2cb867728e4015273","E1","batch5","","null","<p class=block-text>Trial 19 out of 78</p>","null","pattern_show_trial_num","","","","","","","","","","","","","","","","","","","","","","","","",""
"","","","","","image-keyboard-response","58","171002","0.0-2.0-5.0-1.18","62fd65d2cb867728e4015273","E1","batch5","","1562.1000000238419","stim/no_30_1_b.png","j","pattern_response","true","j","pattern_13","1562.1000000238419","true","18","","","","","","","","","","","","","","","","","","",""
"","","","","","html-keyboard-response","59","172323","0.0-2.0-5.0-0.19","62fd65d2cb867728e4015273","E1","batch5","","null","<p class=block-text>Trial 20 out of 78</p>","null","pattern_show_trial_num","","","","","","","","","","","","","","","","","","","","","","","","",""
"","","","","","image-keyboard-response","60","175178","0.0-2.0-5.0-1.19","62fd65d2cb867728e4015273","E1","batch5","","2853.5","stim/no_25_1_b.png","j","pattern_response","true","j","pattern_09","2853.5","true","19","","","","","","","","","","","","","","","","","","",""
"","","","","","html-keyboard-response","61","176494","0.0-2.0-5.0-0.20","62fd65d2cb867728e4015273","E1","batch5","","null","<p class=block-text>Trial 21 out of 78</p>","null","pattern_show_trial_num","","","","","","","","","","","","","","","","","","","","","","","","",""
"","","","","","image-keyboard-response","62","182394","0.0-2.0-5.0-1.20","62fd65d2cb867728e4015273","E1","batch5","","5898.5","stim/no_53_1_b.png","j","pattern_response","true","j","pattern_33","5898.5","true","20","","","","","","","","","","","","","","","","","","",""
"","","","","","html-keyboard-response","63","183715","0.0-2.0-5.0-0.21","62fd65d2cb867728e4015273","E1","batch5","","null","<p class=block-text>Trial 22 out of 78</p>","null","pattern_show_trial_num","","","","","","","","","","","","","","","","","","","","","","","","",""
"","","","","","image-keyboard-response","64","184962","0.0-2.0-5.0-1.21","62fd65d2cb867728e4015273","E1","batch5","","1245.2000000476837","stim/no_15_1_w.png","j","pattern_response","true","j","pattern_03","1245.2000000476837","true","21","","","","","","","","","","","","","","","","","","",""
"","","","","","html-keyboard-response","65","186281","0.0-2.0-5.0-0.22","62fd65d2cb867728e4015273","E1","batch5","","null","<p class=block-text>Trial 23 out of 78</p>","null","pattern_show_trial_num","","","","","","","","","","","","","","","","","","","","","","","","",""
"","","","","","image-keyboard-response","66","192297","0.0-2.0-5.0-1.22","62fd65d2cb867728e4015273","E1","batch5","","6015","stim/yes_53_ver_b1_b.png","j","pattern_response","false","f","pattern_74","6015","false","21","","","","","","","","","","","","","","","","","","",""
"","","","","","html-keyboard-response","67","193605","0.0-2.0-5.0-0.23","62fd65d2cb867728e4015273","E1","batch5","","null","<p class=block-text>Trial 24 out of 78</p>","null","pattern_show_trial_num","","","","","","","","","","","","","","","","","","","","","","","","",""
"","","","","","image-keyboard-response","68","194993","0.0-2.0-5.0-1.23","62fd65d2cb867728e4015273","E1","batch5","","1386.5","stim/yes_23_ver_b1.png","f","pattern_response","true","f","pattern_48","1386.5","true","22","","","","","","","","","","","","","","","","","","",""
"","","","","","html-keyboard-response","69","196310","0.0-2.0-5.0-0.24","62fd65d2cb867728e4015273","E1","batch5","","null","<p class=block-text>Trial 25 out of 78</p>","null","pattern_show_trial_num","","","","","","","","","","","","","","","","","","","","","","","","",""
"","","","","","image-keyboard-response","70","197426","0.0-2.0-5.0-1.24","62fd65d2cb867728e4015273","E1","batch5","","1113.800000011921","stim/yes_33_dia_w1_w.png","f","pattern_response","true","f","pattern_56","1113.800000011921","true","23","","","","","","","","","","","","","","","","","","",""
"","","","","","html-keyboard-response","71","198743","0.0-2.0-5.0-0.25","62fd65d2cb867728e4015273","E1","batch5","","null","<p class=block-text>Trial 26 out of 78</p>","null","pattern_show_trial_num","","","","","","","","","","","","","","","","","","","","","","","","",""
"","","","","","image-keyboard-response","72","205465","0.0-2.0-5.0-1.25","62fd65d2cb867728e4015273","E1","batch5","","6721.199999988079","stim/yes_63_dia_b1.png","f","pattern_response","true","f","pattern_78","6721.199999988079","true","24","","","","","","","","","","","","","","","","","","",""
"","","","","","html-keyboard-response","73","206782","0.0-2.0-5.0-0.26","62fd65d2cb867728e4015273","E1","batch5","","null","<p class=block-text>Trial 27 out of 78</p>","null","pattern_show_trial_num","","","","","","","","","","","","","","","","","","","","","","","","",""
"","","","","","image-keyboard-response","74","208041","0.0-2.0-5.0-1.26","62fd65d2cb867728e4015273","E1","batch5","","1257.9000000357628","stim/yes_46_ver_b1_b.png","f","pattern_response","true","f","pattern_68","1257.9000000357628","true","25","","","","","","","","","","","","","","","","","","",""
"","","","","","html-keyboard-response","75","209357","0.0-2.0-5.0-0.27","62fd65d2cb867728e4015273","E1","batch5","","null","<p class=block-text>Trial 28 out of 78</p>","null","pattern_show_trial_num","","","","","","","","","","","","","","","","","","","","","","","","",""
"","","","","","image-keyboard-response","76","211921","0.0-2.0-5.0-1.27","62fd65d2cb867728e4015273","E1","batch5","","2562.699999988079","stim/no_39_1_w.png","j","pattern_response","true","j","pattern_21","2562.699999988079","true","26","","","","","","","","","","","","","","","","","","",""
"","","","","","html-keyboard-response","77","213239","0.0-2.0-5.0-0.28","62fd65d2cb867728e4015273","E1","batch5","","null","<p class=block-text>Trial 29 out of 78</p>","null","pattern_show_trial_num","","","","","","","","","","","","","","","","","","","","","","","","",""
"","","","","","image-keyboard-response","78","216281","0.0-2.0-5.0-1.28","62fd65d2cb867728e4015273","E1","batch5","","3040.699999988079","stim/no_43_2_b.png","j","pattern_response","true","j","pattern_23","3040.699999988079","true","27","","","","","","","","","","","","","","","","","","",""
"","","","","","html-keyboard-response","79","217602","0.0-2.0-5.0-0.29","62fd65d2cb867728e4015273","E1","batch5","","null","<p class=block-text>Trial 30 out of 78</p>","null","pattern_show_trial_num","","","","","","","","","","","","","","","","","","","","","","","","",""
"","","","","","image-keyboard-response","80","223328","0.0-2.0-5.0-1.29","62fd65d2cb867728e4015273","E1","batch5","","5725","stim/no_67_1.png","j","pattern_response","true","j","pattern_39","5725","true","28","","","","","","","","","","","","","","","","","","",""
"","","","","","html-keyboard-response","81","224646","0.0-2.0-5.0-0.30","62fd65d2cb867728e4015273","E1","batch5","","null","<p class=block-text>Trial 31 out of 78</p>","null","pattern_show_trial_num","","","","","","","","","","","","","","","","","","","","","","","","",""
"","","","","","image-keyboard-response","82","225744","0.0-2.0-5.0-1.30","62fd65d2cb867728e4015273","E1","batch5","","1097.199999988079","stim/yes_39_hor_w1_w.png","f","pattern_response","true","f","pattern_62","1097.199999988079","true","29","","","","","","","","","","","","","","","","","","",""
"","","","","","html-keyboard-response","83","227065","0.0-2.0-5.0-0.31","62fd65d2cb867728e4015273","E1","batch5","","null","<p class=block-text>Trial 32 out of 78</p>","null","pattern_show_trial_num","","","","","","","","","","","","","","","","","","","","","","","","",""
"","","","","","image-keyboard-response","84","229208","0.0-2.0-5.0-1.31","62fd65d2cb867728e4015273","E1","batch5","","2142.099999964237","stim/no_22_1_b.png","j","pattern_response","true","j","pattern_07","2142.099999964237","true","30","","","","","","","","","","","","","","","","","","",""
"","","","","","html-keyboard-response","85","230525","0.0-2.0-5.0-0.32","62fd65d2cb867728e4015273","E1","batch5","","null","<p class=block-text>Trial 33 out of 78</p>","null","pattern_show_trial_num","","","","","","","","","","","","","","","","","","","","","","","","",""
"","","","","","image-keyboard-response","86","236912","0.0-2.0-5.0-1.32","62fd65d2cb867728e4015273","E1","batch5","","6386.699999988079","stim/yes_58_dia_w1_w.png","j","pattern_response","false","f","pattern_76","6386.699999988079","false","30","","","","","","","","","","","","","","","","","","",""
"","","","","","html-keyboard-response","87","238230","0.0-2.0-5.0-0.33","62fd65d2cb867728e4015273","E1","batch5","","null","<p class=block-text>Trial 34 out of 78</p>","null","pattern_show_trial_num","","","","","","","","","","","","","","","","","","","","","","","","",""
"","","","","","image-keyboard-response","88","241120","0.0-2.0-5.0-1.33","62fd65d2cb867728e4015273","E1","batch5","","2888","stim/no_47_1_b.png","j","pattern_response","true","j","pattern_27","2888","true","31","","","","","","","","","","","","","","","","","","",""
"","","","","","html-keyboard-response","89","242437","0.0-2.0-5.0-0.34","62fd65d2cb867728e4015273","E1","batch5","","null","<p class=block-text>Trial 35 out of 78</p>","null","pattern_show_trial_num","","","","","","","","","","","","","","","","","","","","","","","","",""
"","","","","","image-keyboard-response","90","243632","0.0-2.0-5.0-1.34","62fd65d2cb867728e4015273","E1","batch5","","1194","stim/yes_17_ver_b1_b.png","f","pattern_response","true","f","pattern_46","1194","true","32","","","","","","","","","","","","","","","","","","",""
"","","","","","html-keyboard-response","91","244951","0.0-2.0-5.0-0.35","62fd65d2cb867728e4015273","E1","batch5","","null","<p class=block-text>Trial 36 out of 78</p>","null","pattern_show_trial_num","","","","","","","","","","","","","","","","","","","","","","","","",""
"","","","","","image-keyboard-response","92","246016","0.0-2.0-5.0-1.35","62fd65d2cb867728e4015273","E1","batch5","","1063.9000000357628","stim/yes_36_ver_w1_w.png","f","pattern_response","true","f","pattern_58","1063.9000000357628","true","33","","","","","","","","","","","","","","","","","","",""
"","","","","","html-keyboard-response","93","247326","0.0-2.0-5.0-0.36","62fd65d2cb867728e4015273","E1","batch5","","null","<p class=block-text>Trial 37 out of 78</p>","null","pattern_show_trial_num","","","","","","","","","","","","","","","","","","","","","","","","",""
"","","","","","image-keyboard-response","94","250800","0.0-2.0-5.0-1.36","62fd65d2cb867728e4015273","E1","batch5","","3472.900000035763","stim/no_37_2_w.png","j","pattern_response","true","j","pattern_19","3472.900000035763","true","34","","","","","","","","","","","","","","","","","","",""
"","","","","","html-keyboard-response","95","252119","0.0-2.0-5.0-0.37","62fd65d2cb867728e4015273","E1","batch5","","null","<p class=block-text>Trial 38 out of 78</p>","null","pattern_show_trial_num","","","","","","","","","","","","","","","","","","","","","","","","",""
"","","","","","image-keyboard-response","96","257464","0.0-2.0-5.0-1.37","62fd65d2cb867728e4015273","E1","batch5","","5343.699999988079","stim/no_51_1.png","j","pattern_response","true","j","pattern_31","5343.699999988079","true","35","","","","","","","","","","","","","","","","","","",""
"","","","","","html-keyboard-response","97","258781","0.0-2.0-5.0-0.38","62fd65d2cb867728e4015273","E1","batch5","","null","<p class=block-text>Trial 39 out of 78</p>","null","pattern_show_trial_num","","","","","","","","","","","","","","","","","","","","","","","","",""
"","","","","","image-keyboard-response","98","260175","0.0-2.0-5.0-1.38","62fd65d2cb867728e4015273","E1","batch5","","1392","stim/yes_26_dia_w2_w.png","f","pattern_response","true","f","pattern_50","1392","true","36","","","","","","","","","","","","","","","","","","",""
"","","","","","image-keyboard-response","99","263311","0.0-2.0-6.0","62fd65d2cb867728e4015273","E1","batch5","","2630","stim/empty_board.png","j","attention_check","true","j","","","","","500","[""f"",""j""]","","","","","","","","","","","","","","","","",""
"","","","","","html-keyboard-response","100","264118","0.0-2.0-7.0-0.0","62fd65d2cb867728e4015273","E1","batch5","","null","<p class=block-text>Trial 40 out of 78</p>","null","pattern_show_trial_num","","","","","","","","","","","","","","","","","","","","","","","","",""
"","","","","","image-keyboard-response","101","269263","0.0-2.0-7.0-1.0","62fd65d2cb867728e4015273","E1","batch5","","5143.400000035763","stim/yes_37_dia_w1.png","j","pattern_response","false","f","pattern_59","5143.400000035763","false","36","","","","","","","","","","","","","","","","","","",""
"","","","","","html-keyboard-response","102","270580","0.0-2.0-7.0-0.1","62fd65d2cb867728e4015273","E1","batch5","","null","<p class=block-text>Trial 41 out of 78</p>","null","pattern_show_trial_num","","","","","","","","","","","","","","","","","","","","","","","","",""
"","","","","","image-keyboard-response","103","271783","0.0-2.0-7.0-1.1","62fd65d2cb867728e4015273","E1","batch5","","1201","stim/yes_43_ver_w1_w.png","f","pattern_response","true","f","pattern_65","1201","true","37","","","","","","","","","","","","","","","","","","",""
"","","","","","html-keyboard-response","104","273103","0.0-2.0-7.0-0.2","62fd65d2cb867728e4015273","E1","batch5","","null","<p class=block-text>Trial 42 out of 78</p>","null","pattern_show_trial_num","","","","","","","","","","","","","","","","","","","","","","","","",""
"","","","","","image-keyboard-response","105","274487","0.0-2.0-7.0-1.2","62fd65d2cb867728e4015273","E1","batch5","","1383.1000000238419","stim/yes_55_hor_w1_w.png","f","pattern_response","true","f","pattern_75","1383.1000000238419","true","38","","","","","","","","","","","","","","","","","","",""
"","","","","","html-keyboard-response","106","275808","0.0-2.0-7.0-0.3","62fd65d2cb867728e4015273","E1","batch5","","null","<p class=block-text>Trial 43 out of 78</p>","null","pattern_show_trial_num","","","","","","","","","","","","","","","","","","","","","","","","",""
"","","","","","image-keyboard-response","107","280047","0.0-2.0-7.0-1.3","62fd65d2cb867728e4015273","E1","batch5","","4237.899999976158","stim/no_48_1_w.png","j","pattern_response","true","j","pattern_28","4237.899999976158","true","39","","","","","","","","","","","","","","","","","","",""
"","","","","","html-keyboard-response","108","281363","0.0-2.0-7.0-0.4","62fd65d2cb867728e4015273","E1","batch5","","null","<p class=block-text>Trial 44 out of 78</p>","null","pattern_show_trial_num","","","","","","","","","","","","","","","","","","","","","","","","",""
"","","","","","image-keyboard-response","109","285910","0.0-2.0-7.0-1.4","62fd65d2cb867728e4015273","E1","batch5","","4545.5","stim/yes_50_dia_w1.png","j","pattern_response","false","f","pattern_71","4545.5","false","39","","","","","","","","","","","","","","","","","","",""
"","","","","","html-keyboard-response","110","287230","0.0-2.0-7.0-0.5","62fd65d2cb867728e4015273","E1","batch5","","null","<p class=block-text>Trial 45 out of 78</p>","null","pattern_show_trial_num","","","","","","","","","","","","","","","","","","","","","","","","",""
"","","","","","image-keyboard-response","111","288662","0.0-2.0-7.0-1.5","62fd65d2cb867728e4015273","E1","batch5","","1430.800000011921","stim/no_20_1_w.png","j","pattern_response","true","j","pattern_06","1430.800000011921","true","40","","","","","","","","","","","","","","","","","","",""
"","","","","","html-keyboard-response","112","289980","0.0-2.0-7.0-0.6","62fd65d2cb867728e4015273","E1","batch5","","null","<p class=block-text>Trial 46 out of 78</p>","null","pattern_show_trial_num","","","","","","","","","","","","","","","","","","","","","","","","",""
"","","","","","image-keyboard-response","113","293758","0.0-2.0-7.0-1.6","62fd65d2cb867728e4015273","E1","batch5","","3776.699999988079","stim/yes_40_dia_b1_b.png","j","pattern_response","false","f","pattern_63","3776.699999988079","false","40","","","","","","","","","","","","","","","","","","",""
"","","","","","html-keyboard-response","114","295078","0.0-2.0-7.0-0.7","62fd65d2cb867728e4015273","E1","batch5","","null","<p class=block-text>Trial 47 out of 78</p>","null","pattern_show_trial_num","","","","","","","","","","","","","","","","","","","","","","","","",""
"","","","","","image-keyboard-response","115","298814","0.0-2.0-7.0-1.7","62fd65d2cb867728e4015273","E1","batch5","","3734.600000023842","stim/no_46_1_b.png","j","pattern_response","true","j","pattern_26","3734.600000023842","true","41","","","","","","","","","","","","","","","","","","",""
"","","","","","html-keyboard-response","116","300135","0.0-2.0-7.0-0.8","62fd65d2cb867728e4015273","E1","batch5","","null","<p class=block-text>Trial 48 out of 78</p>","null","pattern_show_trial_num","","","","","","","","","","","","","","","","","","","","","","","","",""
"","","","","","image-keyboard-response","117","301894","0.0-2.0-7.0-1.8","62fd65d2cb867728e4015273","E1","batch5","","1757","stim/yes_38_hor_b1_b.png","f","pattern_response","true","f","pattern_61","1757","true","42","","","","","","","","","","","","","","","","","","",""
"","","","","","html-keyboard-response","118","303211","0.0-2.0-7.0-0.9","62fd65d2cb867728e4015273","E1","batch5","","null","<p class=block-text>Trial 49 out of 78</p>","null","pattern_show_trial_num","","","","","","","","","","","","","","","","","","","","","","","","",""
"","","","","","image-keyboard-response","119","304758","0.0-2.0-7.0-1.9","62fd65d2cb867728e4015273","E1","batch5","","1545.6000000238419","stim/yes_31_hor_b1.png","f","pattern_response","true","f","pattern_55","1545.6000000238419","true","43","","","","","","","","","","","","","","","","","","",""
"","","","","","html-keyboard-response","120","306074","0.0-2.0-7.0-0.10","62fd65d2cb867728e4015273","E1","batch5","","null","<p class=block-text>Trial 50 out of 78</p>","null","pattern_show_trial_num","","","","","","","","","","","","","","","","","","","","","","","","",""
"","","","","","image-keyboard-response","121","309878","0.0-2.0-7.0-1.10","62fd65d2cb867728e4015273","E1","batch5","","3802.800000011921","stim/no_55_1_w.png","j","pattern_response","true","j","pattern_34","3802.800000011921","true","44","","","","","","","","","","","","","","","","","","",""
"","","","","","html-keyboard-response","122","311198","0.0-2.0-7.0-0.11","62fd65d2cb867728e4015273","E1","batch5","","null","<p class=block-text>Trial 51 out of 78</p>","null","pattern_show_trial_num","","","","","","","","","","","","","","","","","","","","","","","","",""
"","","","","","image-keyboard-response","123","312413","0.0-2.0-7.0-1.11","62fd65d2cb867728e4015273","E1","batch5","","1213.300000011921","stim/yes_52_ver_w1.png","f","pattern_response","true","f","pattern_73","1213.300000011921","true","45","","","","","","","","","","","","","","","","","","",""
"","","","","","html-keyboard-response","124","313731","0.0-2.0-7.0-0.12","62fd65d2cb867728e4015273","E1","batch5","","null","<p class=block-text>Trial 52 out of 78</p>","null","pattern_show_trial_num","","","","","","","","","","","","","","","","","","","","","","","","",""
"","","","","","image-keyboard-response","125","314894","0.0-2.0-7.0-1.12","62fd65d2cb867728e4015273","E1","batch5","","1161.7999999523163","stim/yes_17_dia_w1.png","f","pattern_response","true","f","pattern_45","1161.7999999523163","true","46","","","","","","","","","","","","","","","","","","",""
"","","","","","html-keyboard-response","126","316215","0.0-2.0-7.0-0.13","62fd65d2cb867728e4015273","E1","batch5","","null","<p class=block-text>Trial 53 out of 78</p>","null","pattern_show_trial_num","","","","","","","","","","","","","","","","","","","","","","","","",""
"","","","","","image-keyboard-response","127","317477","0.0-2.0-7.0-1.13","62fd65d2cb867728e4015273","E1","batch5","","1261.5999999642372","stim/yes_29_ver_w1.png","f","pattern_response","true","f","pattern_53","1261.5999999642372","true","47","","","","","","","","","","","","","","","","","","",""
"","","","","","html-keyboard-response","128","318798","0.0-2.0-7.0-0.14","62fd65d2cb867728e4015273","E1","batch5","","null","<p class=block-text>Trial 54 out of 78</p>","null","pattern_show_trial_num","","","","","","","","","","","","","","","","","","","","","","","","",""
"","","","","","image-keyboard-response","129","322197","0.0-2.0-7.0-1.14","62fd65d2cb867728e4015273","E1","batch5","","3396.899999976158","stim/no_50_1.png","j","pattern_response","true","j","pattern_30","3396.899999976158","true","48","","","","","","","","","","","","","","","","","","",""
"","","","","","html-keyboard-response","130","323506","0.0-2.0-7.0-0.15","62fd65d2cb867728e4015273","E1","batch5","","null","<p class=block-text>Trial 55 out of 78</p>","null","pattern_show_trial_num","","","","","","","","","","","","","","","","","","","","","","","","",""
"","","","","","image-keyboard-response","131","329893","0.0-2.0-7.0-1.15","62fd65d2cb867728e4015273","E1","batch5","","6385.600000023842","stim/no_70_2.png","j","pattern_response","true","j","pattern_40","6385.600000023842","true","49","","","","","","","","","","","","","","","","","","",""
"","","","","","html-keyboard-response","132","331210","0.0-2.0-7.0-0.16","62fd65d2cb867728e4015273","E1","batch5","","null","<p class=block-text>Trial 56 out of 78</p>","null","pattern_show_trial_num","","","","","","","","","","","","","","","","","","","","","","","","",""
"","","","","","image-keyboard-response","133","333725","0.0-2.0-7.0-1.16","62fd65d2cb867728e4015273","E1","batch5","","2513.199999988079","stim/no_34_1_b.png","j","pattern_response","true","j","pattern_16","2513.199999988079","true","50","","","","","","","","","","","","","","","","","","",""
"","","","","","html-keyboard-response","134","335044","0.0-2.0-7.0-0.17","62fd65d2cb867728e4015273","E1","batch5","","null","<p class=block-text>Trial 57 out of 78</p>","null","pattern_show_trial_num","","","","","","","","","","","","","","","","","","","","","","","","",""
"","","","","","image-keyboard-response","135","337061","0.0-2.0-7.0-1.17","62fd65d2cb867728e4015273","E1","batch5","","2015","stim/yes_35_dia_b1.png","f","pattern_response","true","f","pattern_57","2015","true","51","","","","","","","","","","","","","","","","","","",""
"","","","","","html-keyboard-response","136","338378","0.0-2.0-7.0-0.18","62fd65d2cb867728e4015273","E1","batch5","","null","<p class=block-text>Trial 58 out of 78</p>","null","pattern_show_trial_num","","","","","","","","","","","","","","","","","","","","","","","","",""
"","","","","","image-keyboard-response","137","339484","0.0-2.0-7.0-1.18","62fd65d2cb867728e4015273","E1","batch5","","1105.6000000238419","stim/yes_28_ver_b1.png","f","pattern_response","true","f","pattern_51","1105.6000000238419","true","52","","","","","","","","","","","","","","","","","","",""
"","","","","","html-keyboard-response","138","340804","0.0-2.0-7.0-0.19","62fd65d2cb867728e4015273","E1","batch5","","null","<p class=block-text>Trial 59 out of 78</p>","null","pattern_show_trial_num","","","","","","","","","","","","","","","","","","","","","","","","",""
"","","","","","image-keyboard-response","139","347445","0.0-2.0-7.0-1.19","62fd65d2cb867728e4015273","E1","batch5","","6639","stim/no_65_1_b.png","j","pattern_response","true","j","pattern_38","6639","true","53","","","","","","","","","","","","","","","","","","",""
"","","","","","html-keyboard-response","140","348762","0.0-2.0-7.0-0.20","62fd65d2cb867728e4015273","E1","batch5","","null","<p class=block-text>Trial 60 out of 78</p>","null","pattern_show_trial_num","","","","","","","","","","","","","","","","","","","","","","","","",""
"","","","","","image-keyboard-response","141","350020","0.0-2.0-7.0-1.20","62fd65d2cb867728e4015273","E1","batch5","","1256.7999999523163","stim/no_17_1_w.png","j","pattern_response","true","j","pattern_04","1256.7999999523163","true","54","","","","","","","","","","","","","","","","","","",""
"","","","","","html-keyboard-response","142","351341","0.0-2.0-7.0-0.21","62fd65d2cb867728e4015273","E1","batch5","","null","<p class=block-text>Trial 61 out of 78</p>","null","pattern_show_trial_num","","","","","","","","","","","","","","","","","","","","","","","","",""
"","","","","","image-keyboard-response","143","355908","0.0-2.0-7.0-1.21","62fd65d2cb867728e4015273","E1","batch5","","4565.699999988079","stim/no_62_1_w.png","j","pattern_response","true","j","pattern_36","4565.699999988079","true","55","","","","","","","","","","","","","","","","","","",""
"","","","","","html-keyboard-response","144","357224","0.0-2.0-7.0-0.22","62fd65d2cb867728e4015273","E1","batch5","","null","<p class=block-text>Trial 62 out of 78</p>","null","pattern_show_trial_num","","","","","","","","","","","","","","","","","","","","","","","","",""
"","","","","","image-keyboard-response","145","360444","0.0-2.0-7.0-1.22","62fd65d2cb867728e4015273","E1","batch5","","3219.300000011921","stim/no_23_1.png","j","pattern_response","true","j","pattern_08","3219.300000011921","true","56","","","","","","","","","","","","","","","","","","",""
"","","","","","html-keyboard-response","146","361764","0.0-2.0-7.0-0.23","62fd65d2cb867728e4015273","E1","batch5","","null","<p class=block-text>Trial 63 out of 78</p>","null","pattern_show_trial_num","","","","","","","","","","","","","","","","","","","","","","","","",""
"","","","","","image-keyboard-response","147","365372","0.0-2.0-7.0-1.23","62fd65d2cb867728e4015273","E1","batch5","","3606.300000011921","stim/no_42_1_w.png","j","pattern_response","true","j","pattern_22","3606.300000011921","true","57","","","","","","","","","","","","","","","","","","",""
"","","","","","html-keyboard-response","148","366693","0.0-2.0-7.0-0.24","62fd65d2cb867728e4015273","E1","batch5","","null","<p class=block-text>Trial 64 out of 78</p>","null","pattern_show_trial_num","","","","","","","","","","","","","","","","","","","","","","","","",""
"","","","","","image-keyboard-response","149","369915","0.0-2.0-7.0-1.24","62fd65d2cb867728e4015273","E1","batch5","","3220.7000000476837","stim/no_29_1_b.png","j","pattern_response","true","j","pattern_12","3220.7000000476837","true","58","","","","","","","","","","","","","","","","","","",""
"","","","","","html-keyboard-response","150","371229","0.0-2.0-7.0-0.25","62fd65d2cb867728e4015273","E1","batch5","","null","<p class=block-text>Trial 65 out of 78</p>","null","pattern_show_trial_num","","","","","","","","","","","","","","","","","","","","","","","","",""
"","","","","","image-keyboard-response","151","375539","0.0-2.0-7.0-1.25","62fd65d2cb867728e4015273","E1","batch5","","4309.099999964237","stim/yes_60_ver_b1_b.png","f","pattern_response","true","f","pattern_77","4309.099999964237","true","59","","","","","","","","","","","","","","","","","","",""
"","","","","","html-keyboard-response","152","376860","0.0-2.0-7.0-0.26","62fd65d2cb867728e4015273","E1","batch5","","null","<p class=block-text>Trial 66 out of 78</p>","null","pattern_show_trial_num","","","","","","","","","","","","","","","","","","","","","","","","",""
"","","","","","image-keyboard-response","153","377819","0.0-2.0-7.0-1.26","62fd65d2cb867728e4015273","E1","batch5","","957.1000000238419","stim/yes_22_ver_w1.png","f","pattern_response","true","f","pattern_47","957.1000000238419","true","60","","","","","","","","","","","","","","","","","","",""
"","","","","","html-keyboard-response","154","379127","0.0-2.0-7.0-0.27","62fd65d2cb867728e4015273","E1","batch5","","null","<p class=block-text>Trial 67 out of 78</p>","null","pattern_show_trial_num","","","","","","","","","","","","","","","","","","","","","","","","",""
"","","","","","image-keyboard-response","155","380083","0.0-2.0-7.0-1.27","62fd65d2cb867728e4015273","E1","batch5","","954.1999999880791","stim/yes_25_hor_b1_b.png","f","pattern_response","true","f","pattern_49","954.1999999880791","true","61","","","","","","","","","","","","","","","","","","",""
"","","","","","html-keyboard-response","156","381395","0.0-2.0-7.0-0.28","62fd65d2cb867728e4015273","E1","batch5","","null","<p class=block-text>Trial 68 out of 78</p>","null","pattern_show_trial_num","","","","","","","","","","","","","","","","","","","","","","","","",""
"","","","","","image-keyboard-response","157","382547","0.0-2.0-7.0-1.28","62fd65d2cb867728e4015273","E1","batch5","","1151.300000011921","stim/yes_45_hor_b2_b.png","f","pattern_response","true","f","pattern_67","1151.300000011921","true","62","","","","","","","","","","","","","","","","","","",""
"","","","","","html-keyboard-response","158","383864","0.0-2.0-7.0-0.29","62fd65d2cb867728e4015273","E1","batch5","","null","<p class=block-text>Trial 69 out of 78</p>","null","pattern_show_trial_num","","","","","","","","","","","","","","","","","","","","","","","","",""
"","","","","","image-keyboard-response","159","385659","0.0-2.0-7.0-1.29","62fd65d2cb867728e4015273","E1","batch5","","1793.7999999523163","stim/yes_48_dia_w1_w.png","f","pattern_response","true","f","pattern_69","1793.7999999523163","true","63","","","","","","","","","","","","","","","","","","",""
"","","","","","html-keyboard-response","160","386976","0.0-2.0-7.0-0.30","62fd65d2cb867728e4015273","E1","batch5","","null","<p class=block-text>Trial 70 out of 78</p>","null","pattern_show_trial_num","","","","","","","","","","","","","","","","","","","","","","","","",""
"","","","","","image-keyboard-response","161","390579","0.0-2.0-7.0-1.30","62fd65d2cb867728e4015273","E1","batch5","","3601.699999988079","stim/no_38_1_b.png","j","pattern_response","true","j","pattern_20","3601.699999988079","true","64","","","","","","","","","","","","","","","","","","",""
"","","","","","html-keyboard-response","162","391898","0.0-2.0-7.0-0.31","62fd65d2cb867728e4015273","E1","batch5","","null","<p class=block-text>Trial 71 out of 78</p>","null","pattern_show_trial_num","","","","","","","","","","","","","","","","","","","","","","","","",""
"","","","","","image-keyboard-response","163","392763","0.0-2.0-7.0-1.31","62fd65d2cb867728e4015273","E1","batch5","","863.3000000119209","stim/yes_14_hor_b1_w.png","f","pattern_response","true","f","pattern_43","863.3000000119209","true","65","","","","","","","","","","","","","","","","","","",""
"","","","","","html-keyboard-response","164","394081","0.0-2.0-7.0-0.32","62fd65d2cb867728e4015273","E1","batch5","","null","<p class=block-text>Trial 72 out of 78</p>","null","pattern_show_trial_num","","","","","","","","","","","","","","","","","","","","","","","","",""
"","","","","","image-keyboard-response","165","395147","0.0-2.0-7.0-1.32","62fd65d2cb867728e4015273","E1","batch5","","1064.7999999523163","stim/yes_67_hor_b1.png","f","pattern_response","true","f","pattern_79","1064.7999999523163","true","66","","","","","","","","","","","","","","","","","","",""
"","","","","","html-keyboard-response","166","396463","0.0-2.0-7.0-0.33","62fd65d2cb867728e4015273","E1","batch5","","null","<p class=block-text>Trial 73 out of 78</p>","null","pattern_show_trial_num","","","","","","","","","","","","","","","","","","","","","","","","",""
"","","","","","image-keyboard-response","167","399698","0.0-2.0-7.0-1.33","62fd65d2cb867728e4015273","E1","batch5","","3234","stim/no_44_1.png","j","pattern_response","true","j","pattern_24","3234","true","67","","","","","","","","","","","","","","","","","","",""
"","","","","","html-keyboard-response","168","401015","0.0-2.0-7.0-0.34","62fd65d2cb867728e4015273","E1","batch5","","null","<p class=block-text>Trial 74 out of 78</p>","null","pattern_show_trial_num","","","","","","","","","","","","","","","","","","","","","","","","",""
"","","","","","image-keyboard-response","169","406298","0.0-2.0-7.0-1.34","62fd65d2cb867728e4015273","E1","batch5","","5282.5","stim/no_52_1.png","j","pattern_response","true","j","pattern_32","5282.5","true","68","","","","","","","","","","","","","","","","","","",""
"","","","","","html-keyboard-response","170","407617","0.0-2.0-7.0-0.35","62fd65d2cb867728e4015273","E1","batch5","","null","<p class=block-text>Trial 75 out of 78</p>","null","pattern_show_trial_num","","","","","","","","","","","","","","","","","","","","","","","","",""
"","","","","","image-keyboard-response","171","411530","0.0-2.0-7.0-1.35","62fd65d2cb867728e4015273","E1","batch5","","3911.300000011921","stim/no_36_2_w.png","j","pattern_response","true","j","pattern_18","3911.300000011921","true","69","","","","","","","","","","","","","","","","","","",""
"","","","","","html-keyboard-response","172","412851","0.0-2.0-7.0-0.36","62fd65d2cb867728e4015273","E1","batch5","","null","<p class=block-text>Trial 76 out of 78</p>","null","pattern_show_trial_num","","","","","","","","","","","","","","","","","","","","","","","","",""
"","","","","","image-keyboard-response","173","414594","0.0-2.0-7.0-1.36","62fd65d2cb867728e4015273","E1","batch5","","1741.300000011921","stim/no_26_1_w.png","j","pattern_response","true","j","pattern_10","1741.300000011921","true","70","","","","","","","","","","","","","","","","","","",""
"","","","","","html-keyboard-response","174","415910","0.0-2.0-7.0-0.37","62fd65d2cb867728e4015273","E1","batch5","","null","<p class=block-text>Trial 77 out of 78</p>","null","pattern_show_trial_num","","","","","","","","","","","","","","","","","","","","","","","","",""
"","","","","","image-keyboard-response","175","418169","0.0-2.0-7.0-1.37","62fd65d2cb867728e4015273","E1","batch5","","2256.900000035763","stim/no_32_1_w.png","j","pattern_response","true","j","pattern_14","2256.900000035763","true","71","","","","","","","","","","","","","","","","","","",""
"","","","","","html-keyboard-response","176","419482","0.0-2.0-7.0-0.38","62fd65d2cb867728e4015273","E1","batch5","","null","<p class=block-text>Trial 78 out of 78</p>","null","pattern_show_trial_num","","","","","","","","","","","","","","","","","","","","","","","","",""
"","","","","","image-keyboard-response","177","420914","0.0-2.0-7.0-1.38","62fd65d2cb867728e4015273","E1","batch5","","1429.699999988079","stim/no_13_2_b.png","j","pattern_response","true","j","pattern_02","1429.699999988079","true","72","","","","","","","","","","","","","","","","","","",""
"","","","","","html-button-response","178","426689","0.0-2.0-8.0","62fd65d2cb867728e4015273","E1","batch5","","5271.699999988079","<p class = block-text>This concludes the 4-in-a-row detection game.Thank you for your responses!<br>
            You responded correctly on 92% of the trials.<br>
            When you are ready, press ""Continue"" button to continue </p>","0","","","","","","","","","","","","","","","","","","","","","","","","","",""
"true","","","","","fullscreen","179","430442","0.0-3.0-0.0","62fd65d2cb867728e4015273","E1","batch5","","","","","","","","","","","","","","","","","","","","","","","","","","","","","",""
"","","","","","instructions","180","473243","0.0-3.0-1.0-0.0-0.0","62fd65d2cb867728e4015273","E1","batch5","[{""page_index"":0,""viewing_time"":7609.300000011921},{""page_index"":1,""viewing_time"":4781.300000011921},{""page_index"":2,""viewing_time"":5400.599999964237},{""page_index"":3,""viewing_time"":10294.800000011921},{""page_index"":4,""viewing_time"":5445.300000011921},{""page_index"":5,""viewing_time"":6649.099999964237},{""page_index"":6,""viewing_time"":2621.800000011921}]","42802.60000002384","","","tol-instructions","","","","","","","","","","","","","","","","","","","","","","","","",""
"","","","","","html-button-response","181","474222","0.0-3.0-1.0-1.0-0.0","62fd65d2cb867728e4015273","E1","batch5","","977.6000000238419","<p class=block-text> Let's answer a few questions <br>","0","tol_enter_quiz","","","","","","","","","","","","","","","","","","","","","","","","",""
"","","","","","html-button-response","182","478103","0.0-3.0-1.0-1.0-1.0","62fd65d2cb867728e4015273","E1","batch5","","3880","<p class = block-text>True or False: You can only move the ball on top of a peg. <br></p>","1","tol_quiz","false","","","","","","","","","","","","","","","","","","","","","","","",""
"","","","","","html-button-response","183","480590","0.0-3.0-1.0-1.0-2.0","62fd65d2cb867728e4015273","E1","batch5","","2485.300000011921","<p class = block-text>Incorrect. Remember, you can only move the ball on top of a peg.</p>","0","tol_quiz_feedback","","","","","","","","","","","","","","","","","","","","","","","","",""
"","","","","","html-button-response","184","483886","0.0-3.0-1.0-1.0-3.0","62fd65d2cb867728e4015273","E1","batch5","","3295.199999988079","<p class = block-text>True or False: You should try to match your board with the target board with fewest moves possible. <br></p>","0","tol_quiz","true","","","","","","","","","","","","","","","","","","","","","","","",""
"","","","","","html-button-response","185","484663","0.0-3.0-1.0-1.0-4.0","62fd65d2cb867728e4015273","E1","batch5","","774.9000000357628","<p class = block-text>Correct! </p>","0","tol_quiz_feedback","","","","","","","","","","","","","","","","","","","","","","","","",""
"","","","","","html-button-response","186","486992","0.0-3.0-1.0-2.0-0.0","62fd65d2cb867728e4015273","E1","batch5","","2327.7999999523163","<p class = block-text>You made too many incorrect choices.</p><p class = block-text>You will now repeat the instructions and quiz</p>","0","","","","","","","","","","","","","","","","","","","","","","","","","",""
"","","","","","instructions","187","493843","0.0-3.0-1.1-0.1-0.1","62fd65d2cb867728e4015273","E1","batch5","[{""page_index"":0,""viewing_time"":1483.8999999761581},{""page_index"":1,""viewing_time"":697.5},{""page_index"":2,""viewing_time"":472.30000001192093},{""page_index"":3,""viewing_time"":720.0999999642372},{""page_index"":4,""viewing_time"":551.5},{""page_index"":5,""viewing_time"":618.8000000119209},{""page_index"":6,""viewing_time"":2306.5}]","6851","","","tol-instructions","","","","","","","","","","","","","","","","","","","","","","","","",""
"","","","","","html-button-response","188","494743","0.0-3.0-1.1-1.1-0.1","62fd65d2cb867728e4015273","E1","batch5","","898.8000000119209","<p class=block-text> Let's answer a few questions <br>","0","tol_enter_quiz","","","","","","","","","","","","","","","","","","","","","","","","",""
"","","","","","html-button-response","189","497275","0.0-3.0-1.1-1.1-1.1","62fd65d2cb867728e4015273","E1","batch5","","2530.300000011921","<p class = block-text>True or False: You can only move the ball on top of a peg. <br></p>","1","tol_quiz","false","","","","","","","","","","","","","","","","","","","","","","","",""
"","","","","","html-button-response","190","498467","0.0-3.0-1.1-1.1-2.1","62fd65d2cb867728e4015273","E1","batch5","","1191.300000011921","<p class = block-text>Incorrect. Remember, you can only move the ball on top of a peg.</p>","0","tol_quiz_feedback","","","","","","","","","","","","","","","","","","","","","","","","",""
"","","","","","html-button-response","191","500661","0.0-3.0-1.1-1.1-3.1","62fd65d2cb867728e4015273","E1","batch5","","2192.900000035763","<p class = block-text>True or False: You should try to match your board with the target board with fewest moves possible. <br></p>","0","tol_quiz","true","","","","","","","","","","","","","","","","","","","","","","","",""
"","","","","","html-button-response","192","501291","0.0-3.0-1.1-1.1-4.1","62fd65d2cb867728e4015273","E1","batch5","","628.8000000119209","<p class = block-text>Correct! </p>","0","tol_quiz_feedback","","","","","","","","","","","","","","","","","","","","","","","","",""
"","","","","","html-button-response","193","502157","0.0-3.0-1.1-2.1-0.1","62fd65d2cb867728e4015273","E1","batch5","","865.1000000238419","<p class = block-text>You made too many incorrect choices.</p><p class = block-text>You will now repeat the instructions and quiz</p>","0","","","","","","","","","","","","","","","","","","","","","","","","","",""
"","","","","","instructions","194","506657","0.0-3.0-1.2-0.2-0.2","62fd65d2cb867728e4015273","E1","batch5","[{""page_index"":0,""viewing_time"":921.6999999880791},{""page_index"":1,""viewing_time"":630.1000000238419},{""page_index"":2,""viewing_time"":427.39999997615814},{""page_index"":3,""viewing_time"":281.30000001192093},{""page_index"":4,""viewing_time"":562.5},{""page_index"":5,""viewing_time"":585.1000000238419},{""page_index"":6,""viewing_time"":1091.2999999523163}]","4499.699999988079","","","tol-instructions","","","","","","","","","","","","","","","","","","","","","","","","",""
"","","","","","html-button-response","195","507468","0.0-3.0-1.2-1.2-0.2","62fd65d2cb867728e4015273","E1","batch5","","809","<p class=block-text> Let's answer a few questions <br>","0","tol_enter_quiz","","","","","","","","","","","","","","","","","","","","","","","","",""
"","","","","","html-button-response","196","508728","0.0-3.0-1.2-1.2-1.2","62fd65d2cb867728e4015273","E1","batch5","","1258.800000011921","<p class = block-text>True or False: You can only move the ball on top of a peg. <br></p>","0","tol_quiz","true","","","","","","","","","","","","","","","","","","","","","","","",""
"","","","","","html-button-response","197","509594","0.0-3.0-1.2-1.2-2.2","62fd65d2cb867728e4015273","E1","batch5","","865.1999999880791","<p class = block-text>Correct! You can only move the ball on top of a peg.</p>","0","tol_quiz_feedback","","","","","","","","","","","","","","","","","","","","","","","","",""
"","","","","","html-button-response","198","511147","0.0-3.0-1.2-1.2-3.2","62fd65d2cb867728e4015273","E1","batch5","","1551.5","<p class = block-text>True or False: You should try to match your board with the target board with fewest moves possible. <br></p>","0","tol_quiz","true","","","","","","","","","","","","","","","","","","","","","","","",""
"","","","","","html-button-response","199","511754","0.0-3.0-1.2-1.2-4.2","62fd65d2cb867728e4015273","E1","batch5","","606.3000000119209","<p class = block-text>Correct! </p>","0","tol_quiz_feedback","","","","","","","","","","","","","","","","","","","","","","","","",""
"","","","","","html-button-response","200","513262","0.0-3.0-2.0","62fd65d2cb867728e4015273","E1","batch5","","1506.5","<p class=block-text> Now that you've understood the game, let's practice a few easier examples before we start!<br> <br>","0","","","","","","","","","","","","","","","","","","","","","","","","","",""
"","","","","","single-stim-button","201","518102","0.0-3.0-3.0-0.0","62fd65d2cb867728e4015273","E1","batch5","","4838","","","tol_practice","","","","","","","","","tol_peg_2","4838","4838","0","[[1,2,0],[0,0],[0]]","1","[[1,2,0],[0,0],[3]]","practice","4838","","","","","","","",""
"","","","","","single-stim-button","202","519495","0.0-3.0-3.0-1.0","62fd65d2cb867728e4015273","E1","batch5","","1392","","","tol_practice","","","","","","","","","tol_peg_3","1392","1392","0","[[1,2,0],[0,0],[3]]","1","[[1,2,0],[0,0],[3]]","practice","1392","","","","","","","",""
"","","","","","poldrack-single-stim","203","520502","0.0-3.0-4.0","62fd65d2cb867728e4015273","E1","batch5","","-1","","","tol_feedback","true","","","","","","","","","1000","1000","500","","","","","","-1","none","true","","0","","",""
"","","","","","single-stim-button","204","523905","0.0-3.0-5.0-0.0","62fd65d2cb867728e4015273","E1","batch5","","3402","","","tol_practice","","","","","","","","","tol_peg_1","3402","3402","0","[[1,0,0],[3,0],[0]]","2","[[0,0,0],[3,1],[2]]","practice","3402","","","","","","","",""
"","","","","","single-stim-button","205","525513","0.0-3.0-5.0-1.0","62fd65d2cb867728e4015273","E1","batch5","","1608","","","tol_practice","","","","","","","","","tol_peg_3","1608","1608","0","[[1,0,0],[3,0],[2]]","2","[[0,0,0],[3,1],[2]]","practice","1608","","","","","","","",""
"","","","","","single-stim-button","206","526391","0.0-3.0-5.1-0.1","62fd65d2cb867728e4015273","E1","batch5","","877","","","tol_practice","","","","","","","","","tol_peg_1","877","877","0","[[0,0,0],[3,0],[2]]","3","[[0,0,0],[3,1],[2]]","practice","877","","","","","","","",""
"","","","","","single-stim-button","207","527190","0.0-3.0-5.1-1.1","62fd65d2cb867728e4015273","E1","batch5","","798","","","tol_practice","","","","","","","","","tol_peg_2","798","798","0","[[0,0,0],[3,1],[2]]","3","[[0,0,0],[3,1],[2]]","practice","798","","","","","","","",""
"","","","","","poldrack-single-stim","208","528195","0.0-3.0-6.0","62fd65d2cb867728e4015273","E1","batch5","","-1","","","tol_feedback","true","","","","","","","","","1000","1000","500","","","","","","-1","none","true","","0","","",""
"","","","","","single-stim-button","209","530205","0.0-3.0-7.0-0.0","62fd65d2cb867728e4015273","E1","batch5","","2010","","","tol_practice","","","","","","","","","tol_peg_2","2010","2010","0","[[1,2,0],[0,0],[0]]","4","[[1,0,0],[2,0],[3]]","practice","2010","","","","","","","",""
"","","","","","single-stim-button","210","530903","0.0-3.0-7.0-1.0","62fd65d2cb867728e4015273","E1","batch5","","696","","","tol_practice","","","","","","","","","tol_peg_3","696","696","0","[[1,2,0],[0,0],[3]]","4","[[1,0,0],[2,0],[3]]","practice","696","","","","","","","",""
"","","","","","single-stim-button","211","532062","0.0-3.0-7.1-0.1","62fd65d2cb867728e4015273","E1","batch5","","1158","","","tol_practice","","","","","","","","","tol_peg_1","1158","1158","0","[[1,0,0],[0,0],[3]]","5","[[1,0,0],[2,0],[3]]","practice","1158","","","","","","","",""
"","","","","","single-stim-button","212","532737","0.0-3.0-7.1-1.1","62fd65d2cb867728e4015273","E1","batch5","","674","","","tol_practice","","","","","","","","","tol_peg_2","674","674","0","[[1,0,0],[2,0],[3]]","5","[[1,0,0],[2,0],[3]]","practice","674","","","","","","","",""
"","","","","","poldrack-single-stim","213","533741","0.0-3.0-8.0","62fd65d2cb867728e4015273","E1","batch5","","-1","","","tol_feedback","true","","","","","","","","","1000","1000","500","","","","","","-1","none","true","","0","","",""
"","","","","","html-button-response","214","535875","0.0-3.0-9.0","62fd65d2cb867728e4015273","E1","batch5","","2132.800000011921","<div class = centerbox><p class = center-block-text>Great job! You are done with practice trials<br>You are about to start official trials.<br> <br> Problem <strong>1</strong> out of 25 problems</p></div>","0","tol_instruction","","","","","","","","","","","","","","","","","","","","","","","","",""
"","","","","","single-stim-button","215","541310","0.0-3.0-10.0-0.0","62fd65d2cb867728e4015273","E1","batch5","","4424","","","tol_tohand","","","","","","","","","tol_peg_1","4424","4424","0","[[1,0,0],[3,0],[0]]","1","[[1,3,0],[2,0],[0]]","0","0","","","","","","3","",""
"","","","","","single-stim-button","216","542310","0.0-3.0-10.0-1.0","62fd65d2cb867728e4015273","E1","batch5","","1000","","","tol_toboard","","","","","","","","","tol_peg_3","1000","1000","0","[[1,0,0],[3,0],[2]]","1","[[1,3,0],[2,0],[0]]","0","0","","","","","","3","",""
"","","","","","single-stim-button","217","543120","0.0-3.0-10.1-0.1","62fd65d2cb867728e4015273","E1","batch5","","810","","","tol_tohand","","","","","","","","","tol_peg_2","810","810","0","[[1,0,0],[0,0],[2]]","2","[[1,3,0],[2,0],[0]]","0","0","","","","","","3","",""
"","","","","","single-stim-button","218","544133","0.0-3.0-10.1-1.1","62fd65d2cb867728e4015273","E1","batch5","","1012","","","tol_toboard","","","","","","","","","tol_peg_1","1012","1012","0","[[1,3,0],[0,0],[2]]","2","[[1,3,0],[2,0],[0]]","0","0","","","","","","3","",""
"","","","","","single-stim-button","219","544955","0.0-3.0-10.2-0.2","62fd65d2cb867728e4015273","E1","batch5","","820","","","tol_tohand","","","","","","","","","tol_peg_3","820","820","0","[[1,3,0],[0,0],[0]]","3","[[1,3,0],[2,0],[0]]","0","0","","","","","","3","",""
"","","","","","single-stim-button","220","545641","0.0-3.0-10.2-1.2","62fd65d2cb867728e4015273","E1","batch5","","685","","","tol_toboard","","","","","","","","","tol_peg_2","685","685","0","[[1,3,0],[2,0],[0]]","3","[[1,3,0],[2,0],[0]]","0","0","","","","","","3","",""
"","","","","","poldrack-single-stim","221","546654","0.0-3.0-11.0","62fd65d2cb867728e4015273","E1","batch5","","-1","","","tol_feedback","true","","","","","","","","","1000","1000","500","","","","","","-1","none","true","4424","6054","","",""
"","","","","","html-button-response","222","547599","0.0-3.0-12.0","62fd65d2cb867728e4015273","E1","batch5","","943.4000000357628","<div class = centerbox><p class = center-block-text>problem <strong>2</strong> out of 25 problems</p></div>","0","tol_trial_num","","","","","","","","","","","","","","","","","","","","","","","","",""
"","","","","","single-stim-button","223","550186","0.0-3.0-13.0-0.0","62fd65d2cb867728e4015273","E1","batch5","","2587","","","tol_tohand","","","","","","","","","tol_peg_1","2587","2587","0","[[1,0,0],[3,0],[0]]","1","[[2,1,3],[0,0],[0]]","1","0","","","","","","5","",""
"","","","","","single-stim-button","224","551379","0.0-3.0-13.0-1.0","62fd65d2cb867728e4015273","E1","batch5","","1191","","","tol_toboard","","","","","","","","","tol_peg_3","1191","1191","0","[[1,0,0],[3,0],[2]]","1","[[2,1,3],[0,0],[0]]","1","0","","","","","","5","",""
"","","","","","single-stim-button","225","554326","0.0-3.0-13.1-0.1","62fd65d2cb867728e4015273","E1","batch5","","2947","","","tol_tohand","","","","","","","","","tol_peg_1","2947","2947","0","[[0,0,0],[3,0],[2]]","2","[[2,1,3],[0,0],[0]]","1","0","","","","","","5","",""
"","","","","","single-stim-button","226","555058","0.0-3.0-13.1-1.1","62fd65d2cb867728e4015273","E1","batch5","","730","","","tol_toboard","","","","","","","","","tol_peg_2","730","730","0","[[0,0,0],[3,1],[2]]","2","[[2,1,3],[0,0],[0]]","1","0","","","","","","5","",""
"","","","","","single-stim-button","227","555710","0.0-3.0-13.2-0.2","62fd65d2cb867728e4015273","E1","batch5","","652","","","tol_tohand","","","","","","","","","tol_peg_3","652","652","0","[[0,0,0],[3,1],[0]]","3","[[2,1,3],[0,0],[0]]","1","0","","","","","","5","",""
"","","","","","single-stim-button","228","556644","0.0-3.0-13.2-1.2","62fd65d2cb867728e4015273","E1","batch5","","933","","","tol_toboard","","","","","","","","","tol_peg_1","933","933","0","[[2,0,0],[3,1],[0]]","3","[[2,1,3],[0,0],[0]]","1","0","","","","","","5","",""
"","","","","","single-stim-button","229","557285","0.0-3.0-13.3-0.3","62fd65d2cb867728e4015273","E1","batch5","","640","","","tol_tohand","","","","","","","","","tol_peg_2","640","640","0","[[2,0,0],[3,0],[0]]","4","[[2,1,3],[0,0],[0]]","1","0","","","","","","5","",""
"","","","","","single-stim-button","230","557938","0.0-3.0-13.3-1.3","62fd65d2cb867728e4015273","E1","batch5","","651","","","tol_toboard","","","","","","","","","tol_peg_1","651","651","0","[[2,1,0],[3,0],[0]]","4","[[2,1,3],[0,0],[0]]","1","0","","","","","","5","",""
"","","","","","single-stim-button","231","558512","0.0-3.0-13.4-0.4","62fd65d2cb867728e4015273","E1","batch5","","573","","","tol_tohand","","","","","","","","","tol_peg_2","573","573","0","[[2,1,0],[0,0],[0]]","5","[[2,1,3],[0,0],[0]]","1","0","","","","","","5","",""
"","","","","","single-stim-button","232","559085","0.0-3.0-13.4-1.4","62fd65d2cb867728e4015273","E1","batch5","","573","","","tol_toboard","","","","","","","","","tol_peg_1","573","573","0","[[2,1,3],[0,0],[0]]","5","[[2,1,3],[0,0],[0]]","1","0","","","","","","5","",""
"","","","","","poldrack-single-stim","233","560090","0.0-3.0-14.0","62fd65d2cb867728e4015273","E1","batch5","","-1","","","tol_feedback","true","","","","","","","","","1000","1000","500","","","","","","-1","none","true","2587","7399","","",""
"","","","","","html-button-response","234","561178","0.0-3.0-15.0","62fd65d2cb867728e4015273","E1","batch5","","1087","<div class = centerbox><p class = center-block-text>problem <strong>3</strong> out of 25 problems</p></div>","0","tol_trial_num","","","","","","","","","","","","","","","","","","","","","","","","",""
"","","","","","single-stim-button","235","563473","0.0-3.0-16.0-0.0","62fd65d2cb867728e4015273","E1","batch5","","2294","","","tol_tohand","","","","","","","","","tol_peg_1","2294","2294","0","[[2,0,0],[0,0],[1]]","1","[[1,2,0],[3,0],[0]]","2","0","","","","","","4","",""
"","","","","","single-stim-button","236","564171","0.0-3.0-16.0-1.0","62fd65d2cb867728e4015273","E1","batch5","","696","","","tol_toboard","","","","","","","","","tol_peg_2","696","696","0","[[2,0,0],[3,0],[1]]","1","[[1,2,0],[3,0],[0]]","2","0","","","","","","4","",""
"","","","","","single-stim-button","237","566173","0.0-3.0-16.1-0.1","62fd65d2cb867728e4015273","E1","batch5","","2002","","","tol_tohand","","","","","","","","","tol_peg_1","2002","2002","0","[[0,0,0],[3,0],[1]]","2","[[1,2,0],[3,0],[0]]","2","0","","","","","","4","",""
"","","","","","single-stim-button","238","567017","0.0-3.0-16.1-1.1","62fd65d2cb867728e4015273","E1","batch5","","843","","","tol_toboard","","","","","","","","","tol_peg_2","843","843","0","[[0,0,0],[3,2],[1]]","2","[[1,2,0],[3,0],[0]]","2","0","","","","","","4","",""
"","","","","","single-stim-button","239","567546","0.0-3.0-16.2-0.2","62fd65d2cb867728e4015273","E1","batch5","","527","","","tol_tohand","","","","","","","","","tol_peg_3","527","527","0","[[0,0,0],[3,2],[0]]","3","[[1,2,0],[3,0],[0]]","2","0","","","","","","4","",""
"","","","","","single-stim-button","240","568288","0.0-3.0-16.2-1.2","62fd65d2cb867728e4015273","E1","batch5","","742","","","tol_toboard","","","","","","","","","tol_peg_1","742","742","0","[[1,0,0],[3,2],[0]]","3","[[1,2,0],[3,0],[0]]","2","0","","","","","","4","",""
"","","","","","single-stim-button","241","568885","0.0-3.0-16.3-0.3","62fd65d2cb867728e4015273","E1","batch5","","595","","","tol_tohand","","","","","","","","","tol_peg_2","595","595","0","[[1,0,0],[3,0],[0]]","4","[[1,2,0],[3,0],[0]]","2","0","","","","","","4","",""
"","","","","","single-stim-button","242","569515","0.0-3.0-16.3-1.3","62fd65d2cb867728e4015273","E1","batch5","","629","","","tol_toboard","","","","","","","","","tol_peg_1","629","629","0","[[1,2,0],[3,0],[0]]","4","[[1,2,0],[3,0],[0]]","2","0","","","","","","4","",""
"","","","","","poldrack-single-stim","243","570523","0.0-3.0-17.0","62fd65d2cb867728e4015273","E1","batch5","","-1","","","tol_feedback","true","","","","","","","","","1000","1000","500","","","","","","-1","none","true","2294","5418","","",""
"","","","","","html-button-response","244","571450","0.0-3.0-18.0","62fd65d2cb867728e4015273","E1","batch5","","925.9000000357628","<div class = centerbox><p class = center-block-text>problem <strong>4</strong> out of 25 problems</p></div>","0","tol_trial_num","","","","","","","","","","","","","","","","","","","","","","","","",""
"","","","","","single-stim-button","245","574634","0.0-3.0-19.0-0.0","62fd65d2cb867728e4015273","E1","batch5","","3182","","","tol_tohand","","","","","","","","","tol_peg_2","3182","3182","0","[[3,0,0],[2,0],[0]]","1","[[3,0,0],[1,0],[2]]","3","0","","","","","","3","",""
"","","","","","single-stim-button","246","575253","0.0-3.0-19.0-1.0","62fd65d2cb867728e4015273","E1","batch5","","618","","","tol_toboard","","","","","","","","","tol_peg_1","618","618","0","[[3,1,0],[2,0],[0]]","1","[[3,0,0],[1,0],[2]]","3","0","","","","","","3","",""
"","","","","","single-stim-button","247","575770","0.0-3.0-19.1-0.1","62fd65d2cb867728e4015273","E1","batch5","","517","","","tol_tohand","","","","","","","","","tol_peg_2","517","517","0","[[3,1,0],[0,0],[0]]","2","[[3,0,0],[1,0],[2]]","3","0","","","","","","3","",""
"","","","","","single-stim-button","248","576468","0.0-3.0-19.1-1.1","62fd65d2cb867728e4015273","E1","batch5","","697","","","tol_toboard","","","","","","","","","tol_peg_3","697","697","0","[[3,1,0],[0,0],[2]]","2","[[3,0,0],[1,0],[2]]","3","0","","","","","","3","",""
"","","","","","single-stim-button","249","577030","0.0-3.0-19.2-0.2","62fd65d2cb867728e4015273","E1","batch5","","562","","","tol_tohand","","","","","","","","","tol_peg_1","562","562","0","[[3,0,0],[0,0],[2]]","3","[[3,0,0],[1,0],[2]]","3","0","","","","","","3","",""
"","","","","","single-stim-button","250","577536","0.0-3.0-19.2-1.2","62fd65d2cb867728e4015273","E1","batch5","","505","","","tol_toboard","","","","","","","","","tol_peg_2","505","505","0","[[3,0,0],[1,0],[2]]","3","[[3,0,0],[1,0],[2]]","3","0","","","","","","3","",""
"","","","","","poldrack-single-stim","251","578547","0.0-3.0-20.0","62fd65d2cb867728e4015273","E1","batch5","","-1","","","tol_feedback","true","","","","","","","","","1000","1000","500","","","","","","-1","none","true","3182","4261","","",""
"","","","","","html-button-response","252","579280","0.0-3.0-21.0","62fd65d2cb867728e4015273","E1","batch5","","732.2999999523163","<div class = centerbox><p class = center-block-text>problem <strong>5</strong> out of 25 problems</p></div>","0","tol_trial_num","","","","","","","","","","","","","","","","","","","","","","","","",""
"","","","","","single-stim-button","253","589102","0.0-3.0-22.0-0.0","62fd65d2cb867728e4015273","E1","batch5","","9821","","","tol_tohand","","","","","","","","","tol_peg_3","9821","9821","0","[[1,0,0],[2,0],[0]]","1","[[0,0,0],[1,2],[3]]","4","0","","","","","","7","",""
"","","","","","single-stim-button","254","589787","0.0-3.0-22.0-1.0","62fd65d2cb867728e4015273","E1","batch5","","683","","","tol_toboard","","","","","","","","","tol_peg_2","683","683","0","[[1,0,0],[2,3],[0]]","1","[[0,0,0],[1,2],[3]]","4","0","","","","","","7","",""
"","","","","","single-stim-button","255","590351","0.0-3.0-22.1-0.1","62fd65d2cb867728e4015273","E1","batch5","","563","","","tol_tohand","","","","","","","","","tol_peg_1","563","563","0","[[0,0,0],[2,3],[0]]","2","[[0,0,0],[1,2],[3]]","4","0","","","","","","7","",""
"","","","","","single-stim-button","256","591071","0.0-3.0-22.1-1.1","62fd65d2cb867728e4015273","E1","batch5","","719","","","tol_toboard","","","","","","","","","tol_peg_3","719","719","0","[[0,0,0],[2,3],[1]]","2","[[0,0,0],[1,2],[3]]","4","0","","","","","","7","",""
"","","","","","single-stim-button","257","594266","0.0-3.0-22.2-0.2","62fd65d2cb867728e4015273","E1","batch5","","3195","","","tol_tohand","","","","","","","","","tol_peg_2","3195","3195","0","[[0,0,0],[2,0],[1]]","3","[[0,0,0],[1,2],[3]]","4","0","","","","","","7","",""
"","","","","","single-stim-button","258","595099","0.0-3.0-22.2-1.2","62fd65d2cb867728e4015273","E1","batch5","","831","","","tol_toboard","","","","","","","","","tol_peg_1","831","831","0","[[3,0,0],[2,0],[1]]","3","[[0,0,0],[1,2],[3]]","4","0","","","","","","7","",""
"","","","","","single-stim-button","259","595672","0.0-3.0-22.3-0.3","62fd65d2cb867728e4015273","E1","batch5","","573","","","tol_tohand","","","","","","","","","tol_peg_2","573","573","0","[[3,0,0],[0,0],[1]]","4","[[0,0,0],[1,2],[3]]","4","0","","","","","","7","",""
"","","","","","single-stim-button","260","596347","0.0-3.0-22.3-1.3","62fd65d2cb867728e4015273","E1","batch5","","674","","","tol_toboard","","","","","","","","","tol_peg_1","674","674","0","[[3,2,0],[0,0],[1]]","4","[[0,0,0],[1,2],[3]]","4","0","","","","","","7","",""
"","","","","","single-stim-button","261","596977","0.0-3.0-22.4-0.4","62fd65d2cb867728e4015273","E1","batch5","","629","","","tol_tohand","","","","","","","","","tol_peg_3","629","629","0","[[3,2,0],[0,0],[0]]","5","[[0,0,0],[1,2],[3]]","4","0","","","","","","7","",""
"","","","","","single-stim-button","262","597562","0.0-3.0-22.4-1.4","62fd65d2cb867728e4015273","E1","batch5","","584","","","tol_toboard","","","","","","","","","tol_peg_2","584","584","0","[[3,2,0],[1,0],[0]]","5","[[0,0,0],[1,2],[3]]","4","0","","","","","","7","",""
"","","","","","single-stim-button","263","598124","0.0-3.0-22.5-0.5","62fd65d2cb867728e4015273","E1","batch5","","561","","","tol_tohand","","","","","","","","","tol_peg_1","561","561","0","[[3,0,0],[1,0],[0]]","6","[[0,0,0],[1,2],[3]]","4","0","","","","","","7","",""
"","","","","","single-stim-button","264","598699","0.0-3.0-22.5-1.5","62fd65d2cb867728e4015273","E1","batch5","","573","","","tol_toboard","","","","","","","","","tol_peg_2","573","573","0","[[3,0,0],[1,2],[0]]","6","[[0,0,0],[1,2],[3]]","4","0","","","","","","7","",""
"","","","","","single-stim-button","265","599250","0.0-3.0-22.6-0.6","62fd65d2cb867728e4015273","E1","batch5","","551","","","tol_tohand","","","","","","","","","tol_peg_1","551","551","0","[[0,0,0],[1,2],[0]]","7","[[0,0,0],[1,2],[3]]","4","0","","","","","","7","",""
"","","","","","single-stim-button","266","600037","0.0-3.0-22.6-1.6","62fd65d2cb867728e4015273","E1","batch5","","786","","","tol_toboard","","","","","","","","","tol_peg_3","786","786","0","[[0,0,0],[1,2],[3]]","7","[[0,0,0],[1,2],[3]]","4","0","","","","","","7","",""
"","","","","","poldrack-single-stim","267","601045","0.0-3.0-23.0","62fd65d2cb867728e4015273","E1","batch5","","-1","","","tol_feedback","true","","","","","","","","","1000","1000","500","","","","","","-1","none","true","9821","15893","","",""
"","","","","","html-button-response","268","601702","0.0-3.0-24.0","62fd65d2cb867728e4015273","E1","batch5","","656.5","<div class = centerbox><p class = center-block-text>problem <strong>6</strong> out of 25 problems</p></div>","0","tol_trial_num","","","","","","","","","","","","","","","","","","","","","","","","",""
"","","","","","single-stim-button","269","610681","0.0-3.0-25.0-0.0","62fd65d2cb867728e4015273","E1","batch5","","8977","","","tol_tohand","","","","","","","","","tol_peg_3","8977","8977","0","[[0,0,0],[1,2],[0]]","1","[[1,0,0],[2,3],[0]]","5","0","","","","","","6","",""
"","","","","","single-stim-button","270","611557","0.0-3.0-25.0-1.0","62fd65d2cb867728e4015273","E1","batch5","","876","","","tol_toboard","","","","","","","","","tol_peg_1","876","876","0","[[3,0,0],[1,2],[0]]","1","[[1,0,0],[2,3],[0]]","5","0","","","","","","6","",""
"","","","","","single-stim-button","271","612008","0.0-3.0-25.1-0.1","62fd65d2cb867728e4015273","E1","batch5","","451","","","tol_tohand","","","","","","","","","tol_peg_2","451","451","0","[[3,0,0],[1,0],[0]]","2","[[1,0,0],[2,3],[0]]","5","0","","","","","","6","",""
"","","","","","single-stim-button","272","612739","0.0-3.0-25.1-1.1","62fd65d2cb867728e4015273","E1","batch5","","731","","","tol_toboard","","","","","","","","","tol_peg_3","731","731","0","[[3,0,0],[1,0],[2]]","2","[[1,0,0],[2,3],[0]]","5","0","","","","","","6","",""
"","","","","","single-stim-button","273","617172","0.0-3.0-25.2-0.2","62fd65d2cb867728e4015273","E1","batch5","","4432","","","tol_tohand","","","","","","","","","tol_peg_2","4432","4432","0","[[3,0,0],[0,0],[2]]","3","[[1,0,0],[2,3],[0]]","5","0","","","","","","6","",""
"","","","","","single-stim-button","274","617667","0.0-3.0-25.2-1.2","62fd65d2cb867728e4015273","E1","batch5","","494","","","tol_toboard","","","","","","","","","tol_peg_1","494","494","0","[[3,1,0],[0,0],[2]]","3","[[1,0,0],[2,3],[0]]","5","0","","","","","","6","",""
"","","","","","single-stim-button","275","618230","0.0-3.0-25.3-0.3","62fd65d2cb867728e4015273","E1","batch5","","561","","","tol_tohand","","","","","","","","","tol_peg_3","561","561","0","[[3,1,0],[0,0],[0]]","4","[[1,0,0],[2,3],[0]]","5","0","","","","","","6","",""
"","","","","","single-stim-button","276","618792","0.0-3.0-25.3-1.3","62fd65d2cb867728e4015273","E1","batch5","","562","","","tol_toboard","","","","","","","","","tol_peg_2","562","562","0","[[3,1,0],[2,0],[0]]","4","[[1,0,0],[2,3],[0]]","5","0","","","","","","6","",""
"","","","","","single-stim-button","277","619422","0.0-3.0-25.4-0.4","62fd65d2cb867728e4015273","E1","batch5","","629","","","tol_tohand","","","","","","","","","tol_peg_1","629","629","0","[[3,0,0],[2,0],[0]]","5","[[1,0,0],[2,3],[0]]","5","0","","","","","","6","",""
"","","","","","single-stim-button","278","619940","0.0-3.0-25.4-1.4","62fd65d2cb867728e4015273","E1","batch5","","516","","","tol_toboard","","","","","","","","","tol_peg_2","516","516","0","[[3,0,0],[2,1],[0]]","5","[[1,0,0],[2,3],[0]]","5","0","","","","","","6","",""
"","","","","","single-stim-button","279","620536","0.0-3.0-25.5-0.5","62fd65d2cb867728e4015273","E1","batch5","","596","","","tol_tohand","","","","","","","","","tol_peg_1","596","596","0","[[0,0,0],[2,1],[0]]","6","[[1,0,0],[2,3],[0]]","5","0","","","","","","6","",""
"","","","","","single-stim-button","280","621189","0.0-3.0-25.5-1.5","62fd65d2cb867728e4015273","E1","batch5","","651","","","tol_toboard","","","","","","","","","tol_peg_3","651","651","0","[[0,0,0],[2,1],[3]]","6","[[1,0,0],[2,3],[0]]","5","0","","","","","","6","",""
"","","","","","single-stim-button","281","621976","0.0-3.0-25.6-0.6","62fd65d2cb867728e4015273","E1","batch5","","786","","","tol_tohand","","","","","","","","","tol_peg_2","786","786","0","[[0,0,0],[2,0],[3]]","7","[[1,0,0],[2,3],[0]]","5","0","","","","","","6","",""
"","","","","","single-stim-button","282","622617","0.0-3.0-25.6-1.6","62fd65d2cb867728e4015273","E1","batch5","","640","","","tol_toboard","","","","","","","","","tol_peg_1","640","640","0","[[1,0,0],[2,0],[3]]","7","[[1,0,0],[2,3],[0]]","5","0","","","","","","6","",""
"","","","","","single-stim-button","283","623472","0.0-3.0-25.7-0.7","62fd65d2cb867728e4015273","E1","batch5","","855","","","tol_tohand","","","","","","","","","tol_peg_3","855","855","0","[[1,0,0],[2,0],[0]]","8","[[1,0,0],[2,3],[0]]","5","0","","","","","","6","",""
"","","","","","single-stim-button","284","623945","0.0-3.0-25.7-1.7","62fd65d2cb867728e4015273","E1","batch5","","472","","","tol_toboard","","","","","","","","","tol_peg_2","472","472","0","[[1,0,0],[2,3],[0]]","8","[[1,0,0],[2,3],[0]]","5","0","","","","","","6","",""
"","","","","","poldrack-single-stim","285","624950","0.0-3.0-26.0","62fd65d2cb867728e4015273","E1","batch5","","-1","","","tol_feedback","true","","","","","","","","","1000","1000","500","","","","","","-1","none","true","8977","17287","","",""
"","","","","","html-button-response","286","625588","0.0-3.0-27.0","62fd65d2cb867728e4015273","E1","batch5","","636.2999999523163","<div class = centerbox><p class = center-block-text>problem <strong>7</strong> out of 25 problems</p></div>","0","tol_trial_num","","","","","","","","","","","","","","","","","","","","","","","","",""
"","","","","","single-stim-button","287","628108","0.0-3.0-28.0-0.0","62fd65d2cb867728e4015273","E1","batch5","","2519","","","tol_tohand","","","","","","","","","tol_peg_3","2519","2519","0","[[2,1,0],[0,0],[0]]","1","[[1,2,0],[3,0],[0]]","6","0","","","","","","5","",""
"","","","","","single-stim-button","288","628895","0.0-3.0-28.0-1.0","62fd65d2cb867728e4015273","E1","batch5","","787","","","tol_toboard","","","","","","","","","tol_peg_2","787","787","0","[[2,1,0],[3,0],[0]]","1","[[1,2,0],[3,0],[0]]","6","0","","","","","","5","",""
"","","","","","single-stim-button","289","629615","0.0-3.0-28.1-0.1","62fd65d2cb867728e4015273","E1","batch5","","719","","","tol_tohand","","","","","","","","","tol_peg_1","719","719","0","[[2,0,0],[3,0],[0]]","2","[[1,2,0],[3,0],[0]]","6","0","","","","","","5","",""
"","","","","","single-stim-button","290","630448","0.0-3.0-28.1-1.1","62fd65d2cb867728e4015273","E1","batch5","","832","","","tol_toboard","","","","","","","","","tol_peg_3","832","832","0","[[2,0,0],[3,0],[1]]","2","[[1,2,0],[3,0],[0]]","6","0","","","","","","5","",""
"","","","","","single-stim-button","291","631325","0.0-3.0-28.2-0.2","62fd65d2cb867728e4015273","E1","batch5","","876","","","tol_tohand","","","","","","","","","tol_peg_1","876","876","0","[[0,0,0],[3,0],[1]]","3","[[1,2,0],[3,0],[0]]","6","0","","","","","","5","",""
"","","","","","single-stim-button","292","632147","0.0-3.0-28.2-1.2","62fd65d2cb867728e4015273","E1","batch5","","820","","","tol_toboard","","","","","","","","","tol_peg_2","820","820","0","[[0,0,0],[3,2],[1]]","3","[[1,2,0],[3,0],[0]]","6","0","","","","","","5","",""
"","","","","","single-stim-button","293","632698","0.0-3.0-28.3-0.3","62fd65d2cb867728e4015273","E1","batch5","","549","","","tol_tohand","","","","","","","","","tol_peg_3","549","549","0","[[0,0,0],[3,2],[0]]","4","[[1,2,0],[3,0],[0]]","6","0","","","","","","5","",""
"","","","","","single-stim-button","294","633328","0.0-3.0-28.3-1.3","62fd65d2cb867728e4015273","E1","batch5","","630","","","tol_toboard","","","","","","","","","tol_peg_1","630","630","0","[[1,0,0],[3,2],[0]]","4","[[1,2,0],[3,0],[0]]","6","0","","","","","","5","",""
"","","","","","single-stim-button","295","633868","0.0-3.0-28.4-0.4","62fd65d2cb867728e4015273","E1","batch5","","539","","","tol_tohand","","","","","","","","","tol_peg_2","539","539","0","[[1,0,0],[3,0],[0]]","5","[[1,2,0],[3,0],[0]]","6","0","","","","","","5","",""
"","","","","","single-stim-button","296","634352","0.0-3.0-28.4-1.4","62fd65d2cb867728e4015273","E1","batch5","","483","","","tol_toboard","","","","","","","","","tol_peg_1","483","483","0","[[1,2,0],[3,0],[0]]","5","[[1,2,0],[3,0],[0]]","6","0","","","","","","5","",""
"","","","","","poldrack-single-stim","297","635360","0.0-3.0-29.0","62fd65d2cb867728e4015273","E1","batch5","","-1","","","tol_feedback","true","","","","","","","","","1000","1000","500","","","","","","-1","none","true","2519","5202","","",""
"","","","","","html-button-response","298","635994","0.0-3.0-30.0","62fd65d2cb867728e4015273","E1","batch5","","633.5","<div class = centerbox><p class = center-block-text>problem <strong>8</strong> out of 25 problems</p></div>","0","tol_trial_num","","","","","","","","","","","","","","","","","","","","","","","","",""
"","","","","","single-stim-button","299","640202","0.0-3.0-31.0-0.0","62fd65d2cb867728e4015273","E1","batch5","","4207","","","tol_tohand","","","","","","","","","tol_peg_3","4207","4207","0","[[0,0,0],[2,3],[0]]","1","[[1,2,0],[3,0],[0]]","7","0","","","","","","4","",""
"","","","","","single-stim-button","300","640888","0.0-3.0-31.0-1.0","62fd65d2cb867728e4015273","E1","batch5","","685","","","tol_toboard","","","","","","","","","tol_peg_1","685","685","0","[[1,0,0],[2,3],[0]]","1","[[1,2,0],[3,0],[0]]","7","0","","","","","","4","",""
"","","","","","single-stim-button","301","641429","0.0-3.0-31.1-0.1","62fd65d2cb867728e4015273","E1","batch5","","539","","","tol_tohand","","","","","","","","","tol_peg_2","539","539","0","[[1,0,0],[2,0],[0]]","2","[[1,2,0],[3,0],[0]]","7","0","","","","","","4","",""
"","","","","","single-stim-button","302","642092","0.0-3.0-31.1-1.1","62fd65d2cb867728e4015273","E1","batch5","","663","","","tol_toboard","","","","","","","","","tol_peg_3","663","663","0","[[1,0,0],[2,0],[3]]","2","[[1,2,0],[3,0],[0]]","7","0","","","","","","4","",""
"","","","","","single-stim-button","303","642531","0.0-3.0-31.2-0.2","62fd65d2cb867728e4015273","E1","batch5","","438","","","tol_tohand","","","","","","","","","tol_peg_2","438","438","0","[[1,0,0],[0,0],[3]]","3","[[1,2,0],[3,0],[0]]","7","0","","","","","","4","",""
"","","","","","single-stim-button","304","643195","0.0-3.0-31.2-1.2","62fd65d2cb867728e4015273","E1","batch5","","663","","","tol_toboard","","","","","","","","","tol_peg_1","663","663","0","[[1,2,0],[0,0],[3]]","3","[[1,2,0],[3,0],[0]]","7","0","","","","","","4","",""
"","","","","","single-stim-button","305","643982","0.0-3.0-31.3-0.3","62fd65d2cb867728e4015273","E1","batch5","","787","","","tol_tohand","","","","","","","","","tol_peg_3","787","787","0","[[1,2,0],[0,0],[0]]","4","[[1,2,0],[3,0],[0]]","7","0","","","","","","4","",""
"","","","","","single-stim-button","306","644466","0.0-3.0-31.3-1.3","62fd65d2cb867728e4015273","E1","batch5","","483","","","tol_toboard","","","","","","","","","tol_peg_2","483","483","0","[[1,2,0],[3,0],[0]]","4","[[1,2,0],[3,0],[0]]","7","0","","","","","","4","",""
"","","","","","poldrack-single-stim","307","645475","0.0-3.0-32.0","62fd65d2cb867728e4015273","E1","batch5","","-1","","","tol_feedback","true","","","","","","","","","1000","1000","500","","","","","","-1","none","true","4207","5971","","",""
"","","","","","html-button-response","308","646109","0.0-3.0-33.0","62fd65d2cb867728e4015273","E1","batch5","","632.8000000119209","<div class = centerbox><p class = center-block-text>problem <strong>9</strong> out of 25 problems</p></div>","0","tol_trial_num","","","","","","","","","","","","","","","","","","","","","","","","",""
"","","","","","single-stim-button","309","654434","0.0-3.0-34.0-0.0","62fd65d2cb867728e4015273","E1","batch5","","8325","","","tol_tohand","","","","","","","","","tol_peg_1","8325","8325","0","[[3,0,0],[0,0],[1]]","1","[[2,1,0],[3,0],[0]]","8","0","","","","","","6","",""
"","","","","","single-stim-button","310","655379","0.0-3.0-34.0-1.0","62fd65d2cb867728e4015273","E1","batch5","","944","","","tol_toboard","","","","","","","","","tol_peg_2","944","944","0","[[3,0,0],[2,0],[1]]","1","[[2,1,0],[3,0],[0]]","8","0","","","","","","6","",""
"","","","","","single-stim-button","311","656909","0.0-3.0-34.1-0.1","62fd65d2cb867728e4015273","E1","batch5","","1529","","","tol_tohand","","","","","","","","","tol_peg_3","1529","1529","0","[[3,0,0],[2,0],[0]]","2","[[2,1,0],[3,0],[0]]","8","0","","","","","","6","",""
"","","","","","single-stim-button","312","657472","0.0-3.0-34.1-1.1","62fd65d2cb867728e4015273","E1","batch5","","561","","","tol_toboard","","","","","","","","","tol_peg_2","561","561","0","[[3,0,0],[2,1],[0]]","2","[[2,1,0],[3,0],[0]]","8","0","","","","","","6","",""
"","","","","","single-stim-button","313","658518","0.0-3.0-34.2-0.2","62fd65d2cb867728e4015273","E1","batch5","","1046","","","tol_tohand","","","","","","","","","tol_peg_1","1046","1046","0","[[0,0,0],[2,1],[0]]","3","[[2,1,0],[3,0],[0]]","8","0","","","","","","6","",""
"","","","","","single-stim-button","314","659654","0.0-3.0-34.2-1.2","62fd65d2cb867728e4015273","E1","batch5","","1135","","","tol_toboard","","","","","","","","","tol_peg_3","1135","1135","0","[[0,0,0],[2,1],[3]]","3","[[2,1,0],[3,0],[0]]","8","0","","","","","","6","",""
"","","","","","single-stim-button","315","660610","0.0-3.0-34.3-0.3","62fd65d2cb867728e4015273","E1","batch5","","955","","","tol_tohand","","","","","","","","","tol_peg_2","955","955","0","[[0,0,0],[2,0],[3]]","4","[[2,1,0],[3,0],[0]]","8","0","","","","","","6","",""
"","","","","","single-stim-button","316","661736","0.0-3.0-34.3-1.3","62fd65d2cb867728e4015273","E1","batch5","","1125","","","tol_toboard","","","","","","","","","tol_peg_1","1125","1125","0","[[1,0,0],[2,0],[3]]","4","[[2,1,0],[3,0],[0]]","8","0","","","","","","6","",""
"","","","","","single-stim-button","317","663131","0.0-3.0-34.4-0.4","62fd65d2cb867728e4015273","E1","batch5","","1394","","","tol_tohand","","","","","","","","","tol_peg_2","1394","1394","0","[[1,0,0],[0,0],[3]]","5","[[2,1,0],[3,0],[0]]","8","0","","","","","","6","",""
"","","","","","single-stim-button","318","663840","0.0-3.0-34.4-1.4","62fd65d2cb867728e4015273","E1","batch5","","708","","","tol_toboard","","","","","","","","","tol_peg_1","708","708","0","[[1,2,0],[0,0],[3]]","5","[[2,1,0],[3,0],[0]]","8","0","","","","","","6","",""
"","","","","","single-stim-button","319","664425","0.0-3.0-34.5-0.5","62fd65d2cb867728e4015273","E1","batch5","","584","","","tol_tohand","","","","","","","","","tol_peg_3","584","584","0","[[1,2,0],[0,0],[0]]","6","[[2,1,0],[3,0],[0]]","8","0","","","","","","6","",""
"","","","","","single-stim-button","320","664931","0.0-3.0-34.5-1.5","62fd65d2cb867728e4015273","E1","batch5","","506","","","tol_toboard","","","","","","","","","tol_peg_2","506","506","0","[[1,2,0],[3,0],[0]]","6","[[2,1,0],[3,0],[0]]","8","0","","","","","","6","",""
"","","","","","single-stim-button","321","665493","0.0-3.0-34.6-0.6","62fd65d2cb867728e4015273","E1","batch5","","561","","","tol_tohand","","","","","","","","","tol_peg_1","561","561","0","[[1,0,0],[3,0],[0]]","7","[[2,1,0],[3,0],[0]]","8","0","","","","","","6","",""
"","","","","","single-stim-button","322","666202","0.0-3.0-34.6-1.6","62fd65d2cb867728e4015273","E1","batch5","","708","","","tol_toboard","","","","","","","","","tol_peg_2","708","708","0","[[1,0,0],[3,2],[0]]","7","[[2,1,0],[3,0],[0]]","8","0","","","","","","6","",""
"","","","","","single-stim-button","323","666765","0.0-3.0-34.7-0.7","62fd65d2cb867728e4015273","E1","batch5","","561","","","tol_tohand","","","","","","","","","tol_peg_1","561","561","0","[[0,0,0],[3,2],[0]]","8","[[2,1,0],[3,0],[0]]","8","0","","","","","","6","",""
"","","","","","single-stim-button","324","667519","0.0-3.0-34.7-1.7","62fd65d2cb867728e4015273","E1","batch5","","753","","","tol_toboard","","","","","","","","","tol_peg_3","753","753","0","[[0,0,0],[3,2],[1]]","8","[[2,1,0],[3,0],[0]]","8","0","","","","","","6","",""
"","","","","","single-stim-button","325","668002","0.0-3.0-34.8-0.8","62fd65d2cb867728e4015273","E1","batch5","","483","","","tol_tohand","","","","","","","","","tol_peg_2","483","483","0","[[0,0,0],[3,0],[1]]","9","[[2,1,0],[3,0],[0]]","8","0","","","","","","6","",""
"","","","","","single-stim-button","326","668665","0.0-3.0-34.8-1.8","62fd65d2cb867728e4015273","E1","batch5","","662","","","tol_toboard","","","","","","","","","tol_peg_1","662","662","0","[[2,0,0],[3,0],[1]]","9","[[2,1,0],[3,0],[0]]","8","0","","","","","","6","",""
"","","","","","single-stim-button","327","669240","0.0-3.0-34.9-0.9","62fd65d2cb867728e4015273","E1","batch5","","573","","","tol_tohand","","","","","","","","","tol_peg_3","573","573","0","[[2,0,0],[3,0],[0]]","10","[[2,1,0],[3,0],[0]]","8","0","","","","","","6","",""
"","","","","","single-stim-button","328","669870","0.0-3.0-34.9-1.9","62fd65d2cb867728e4015273","E1","batch5","","629","","","tol_toboard","","","","","","","","","tol_peg_1","629","629","0","[[2,1,0],[3,0],[0]]","10","[[2,1,0],[3,0],[0]]","8","0","","","","","","6","",""
"","","","","","poldrack-single-stim","329","670871","0.0-3.0-35.0","62fd65d2cb867728e4015273","E1","batch5","","-1","","","tol_feedback","true","","","","","","","","","1000","1000","500","","","","","","-1","none","true","8325","16011","","",""
"","","","","","html-button-response","330","671400","0.0-3.0-36.0","62fd65d2cb867728e4015273","E1","batch5","","527.3999999761581","<div class = centerbox><p class = center-block-text>problem <strong>10</strong> out of 25 problems</p></div>","0","tol_trial_num","","","","","","","","","","","","","","","","","","","","","","","","",""
"","","","","","single-stim-button","331","674550","0.0-3.0-37.0-0.0","62fd65d2cb867728e4015273","E1","batch5","","3149","","","tol_tohand","","","","","","","","","tol_peg_2","3149","3149","0","[[3,0,0],[0,0],[2]]","1","[[3,0,0],[2,1],[0]]","9","0","","","","","","3","",""
"","","","","","single-stim-button","332","675158","0.0-3.0-37.0-1.0","62fd65d2cb867728e4015273","E1","batch5","","606","","","tol_toboard","","","","","","","","","tol_peg_1","606","606","0","[[3,1,0],[0,0],[2]]","1","[[3,0,0],[2,1],[0]]","9","0","","","","","","3","",""
"","","","","","single-stim-button","333","675709","0.0-3.0-37.1-0.1","62fd65d2cb867728e4015273","E1","batch5","","551","","","tol_tohand","","","","","","","","","tol_peg_3","551","551","0","[[3,1,0],[0,0],[0]]","2","[[3,0,0],[2,1],[0]]","9","0","","","","","","3","",""
"","","","","","single-stim-button","334","676283","0.0-3.0-37.1-1.1","62fd65d2cb867728e4015273","E1","batch5","","573","","","tol_toboard","","","","","","","","","tol_peg_2","573","573","0","[[3,1,0],[2,0],[0]]","2","[[3,0,0],[2,1],[0]]","9","0","","","","","","3","",""
"","","","","","single-stim-button","335","676834","0.0-3.0-37.2-0.2","62fd65d2cb867728e4015273","E1","batch5","","551","","","tol_tohand","","","","","","","","","tol_peg_1","551","551","0","[[3,0,0],[2,0],[0]]","3","[[3,0,0],[2,1],[0]]","9","0","","","","","","3","",""
"","","","","","single-stim-button","336","677273","0.0-3.0-37.2-1.2","62fd65d2cb867728e4015273","E1","batch5","","437","","","tol_toboard","","","","","","","","","tol_peg_2","437","437","0","[[3,0,0],[2,1],[0]]","3","[[3,0,0],[2,1],[0]]","9","0","","","","","","3","",""
"","","","","","poldrack-single-stim","337","678275","0.0-3.0-38.0","62fd65d2cb867728e4015273","E1","batch5","","-1","","","tol_feedback","true","","","","","","","","","1000","1000","500","","","","","","-1","none","true","3149","4251","","",""
"","","","","","html-button-response","338","678803","0.0-3.0-39.0","62fd65d2cb867728e4015273","E1","batch5","","526.5","<div class = centerbox><p class = center-block-text>problem <strong>11</strong> out of 25 problems</p></div>","0","tol_trial_num","","","","","","","","","","","","","","","","","","","","","","","","",""
"","","","","","single-stim-button","339","682099","0.0-3.0-40.0-0.0","62fd65d2cb867728e4015273","E1","batch5","","3295","","","tol_tohand","","","","","","","","","tol_peg_1","3295","3295","0","[[1,0,0],[3,0],[0]]","1","[[2,0,0],[1,3],[0]]","10","0","","","","","","6","",""
"","","","","","single-stim-button","340","683652","0.0-3.0-40.0-1.0","62fd65d2cb867728e4015273","E1","batch5","","1551","","","tol_toboard","","","","","","","","","tol_peg_3","1551","1551","0","[[1,0,0],[3,0],[2]]","1","[[2,0,0],[1,3],[0]]","10","0","","","","","","6","",""
"","","","","","single-stim-button","341","684192","0.0-3.0-40.1-0.1","62fd65d2cb867728e4015273","E1","batch5","","540","","","tol_tohand","","","","","","","","","tol_peg_1","540","540","0","[[0,0,0],[3,0],[2]]","2","[[2,0,0],[1,3],[0]]","10","0","","","","","","6","",""
"","","","","","single-stim-button","342","684811","0.0-3.0-40.1-1.1","62fd65d2cb867728e4015273","E1","batch5","","617","","","tol_toboard","","","","","","","","","tol_peg_2","617","617","0","[[0,0,0],[3,1],[2]]","2","[[2,0,0],[1,3],[0]]","10","0","","","","","","6","",""
"","","","","","single-stim-button","343","685317","0.0-3.0-40.2-0.2","62fd65d2cb867728e4015273","E1","batch5","","505","","","tol_tohand","","","","","","","","","tol_peg_3","505","505","0","[[0,0,0],[3,1],[0]]","3","[[2,0,0],[1,3],[0]]","10","0","","","","","","6","",""
"","","","","","single-stim-button","344","686015","0.0-3.0-40.2-1.2","62fd65d2cb867728e4015273","E1","batch5","","697","","","tol_toboard","","","","","","","","","tol_peg_1","697","697","0","[[2,0,0],[3,1],[0]]","3","[[2,0,0],[1,3],[0]]","10","0","","","","","","6","",""
"","","","","","single-stim-button","345","686847","0.0-3.0-40.3-0.3","62fd65d2cb867728e4015273","E1","batch5","","832","","","tol_tohand","","","","","","","","","tol_peg_2","832","832","0","[[2,0,0],[3,0],[0]]","4","[[2,0,0],[1,3],[0]]","10","0","","","","","","6","",""
