"success","timeout","failed_images","failed_audio","failed_video","trial_type","trial_index","time_elapsed","internal_node_id","subject_id","study_id","session_id","task","rt","stimulus","response","item","answer","correct","spm_correct","spm_rt","view_history","mouse_click","stim_duration","block_duration","timing_post_trial","current_position","tol_num_moves_made","tol_target","tol_problem_id","tol_rt","key_press","possible_responses","tol_correct","preplanning","tol_rt_per_trial","tol_min_moves","fiar_detect_rt","fiar_detect_correct","total_correct_fiar_detect","post_trial_gap","choices"
"true","false","[]","[]","[]","preload","0","11424","0.0-0.0","62feda7fd4551fe2fc91be5f","D2","batch4","","","","","","","","","","","","","","","","","","","","","","","","","","","","","",""
"true","","","","","fullscreen","1","39510","0.0-1.0-0.0","62feda7fd4551fe2fc91be5f","D2","batch4","","","","","","","","","","","","","","","","","","","","","","","","","","","","","",""
"true","","","","","fullscreen","2","44234","0.0-2.0-0.0","62feda7fd4551fe2fc91be5f","D2","batch4","spm_fullscreen","","","","","","","","","","","","","","","","","","","","","","","","","","","","",""
"","","","","","html-button-response","3","84863","0.0-2.0-1.0","62feda7fd4551fe2fc91be5f","D2","batch4","","40629.69999998808","<p class = block-text><b>Instructions</b> <br>This is a widely used intelligence test in research. <br>In this test, a figure with a missing piece will be presented.<br>Below the figure are alternative pieces to complete the figure, only one of which is correct.<br> Different figures might involve different principles for obtaining the missing piece<br>Your job is to select the most logical piece to complete the figure.</p>","0","","","","","","","","","","","","","","","","","","","","","","","","","",""
"","","","","","html-keyboard-response","4","85672","0.0-2.0-2.0-0.0","62feda7fd4551fe2fc91be5f","D2","batch4","spm_show_trial_num","null","<p class=block-text>Trial 1 out of 60</p>","null","","","","","","","","","","","","","","","","","","","","","","","","","",""
"","","","","","image-button-response","5","97903","0.0-2.0-2.0-1.0","62feda7fd4551fe2fc91be5f","D2","batch4","spm_respsonse","12223.79999999702","img/question_1_1.jpeg","3","mat_01","4","1","1","12223.79999999702","","","","","","","","","","","","","","","","","","","","",""
"","","","","","html-keyboard-response","6","98974","0.0-2.0-2.0-0.1","62feda7fd4551fe2fc91be5f","D2","batch4","spm_show_trial_num","null","<p class=block-text>Trial 2 out of 60</p>","null","","","","","","","","","","","","","","","","","","","","","","","","","",""
"","","","","","image-button-response","7","107958","0.0-2.0-2.0-1.1","62feda7fd4551fe2fc91be5f","D2","batch4","spm_respsonse","8981.29999999702","img/question_1_2.jpeg","4","mat_02","5","1","1","8981.29999999702","","","","","","","","","","","","","","","","","","","","",""
"","","","","","html-keyboard-response","8","109031","0.0-2.0-2.0-0.2","62feda7fd4551fe2fc91be5f","D2","batch4","spm_show_trial_num","null","<p class=block-text>Trial 3 out of 60</p>","null","","","","","","","","","","","","","","","","","","","","","","","","","",""
"","","","","","image-button-response","9","117910","0.0-2.0-2.0-1.2","62feda7fd4551fe2fc91be5f","D2","batch4","spm_respsonse","8874.60000000894","img/question_1_3.jpeg","0","mat_03","1","1","1","8874.60000000894","","","","","","","","","","","","","","","","","","","","",""
"","","","","","html-keyboard-response","10","118979","0.0-2.0-2.0-0.3","62feda7fd4551fe2fc91be5f","D2","batch4","spm_show_trial_num","null","<p class=block-text>Trial 4 out of 60</p>","null","","","","","","","","","","","","","","","","","","","","","","","","","",""
"","","","","","image-button-response","11","127287","0.0-2.0-2.0-1.3","62feda7fd4551fe2fc91be5f","D2","batch4","spm_respsonse","8303","img/question_1_4.jpeg","1","mat_04","2","1","1","8303","","","","","","","","","","","","","","","","","","","","",""
"","","","","","html-keyboard-response","12","128350","0.0-2.0-2.0-0.4","62feda7fd4551fe2fc91be5f","D2","batch4","spm_show_trial_num","null","<p class=block-text>Trial 5 out of 60</p>","null","","","","","","","","","","","","","","","","","","","","","","","","","",""
"","","","","","image-button-response","13","132103","0.0-2.0-2.0-1.4","62feda7fd4551fe2fc91be5f","D2","batch4","spm_respsonse","3748.2999999970198","img/question_1_5.jpeg","5","mat_05","6","1","1","3748.2999999970198","","","","","","","","","","","","","","","","","","","","",""
"","","","","","html-keyboard-response","14","133174","0.0-2.0-2.0-0.5","62feda7fd4551fe2fc91be5f","D2","batch4","spm_show_trial_num","null","<p class=block-text>Trial 6 out of 60</p>","null","","","","","","","","","","","","","","","","","","","","","","","","","",""
"","","","","","image-button-response","15","138558","0.0-2.0-2.0-1.5","62feda7fd4551fe2fc91be5f","D2","batch4","spm_respsonse","5379.600000008941","img/question_1_6.jpeg","2","mat_06","3","1","1","5379.600000008941","","","","","","","","","","","","","","","","","","","","",""
"","","","","","html-keyboard-response","16","139620","0.0-2.0-2.0-0.6","62feda7fd4551fe2fc91be5f","D2","batch4","spm_show_trial_num","null","<p class=block-text>Trial 7 out of 60</p>","null","","","","","","","","","","","","","","","","","","","","","","","","","",""
"","","","","","image-button-response","17","148250","0.0-2.0-2.0-1.6","62feda7fd4551fe2fc91be5f","D2","batch4","spm_respsonse","8622","img/question_1_7.jpeg","5","mat_07","6","1","1","8622","","","","","","","","","","","","","","","","","","","","",""
"","","","","","html-keyboard-response","18","149319","0.0-2.0-2.0-0.7","62feda7fd4551fe2fc91be5f","D2","batch4","spm_show_trial_num","null","<p class=block-text>Trial 8 out of 60</p>","null","","","","","","","","","","","","","","","","","","","","","","","","","",""
"","","","","","image-button-response","19","159002","0.0-2.0-2.0-1.7","62feda7fd4551fe2fc91be5f","D2","batch4","spm_respsonse","9678.39999999106","img/question_1_8.jpeg","1","mat_08","2","1","1","9678.39999999106","","","","","","","","","","","","","","","","","","","","",""
"","","","","","html-keyboard-response","20","160075","0.0-2.0-2.0-0.8","62feda7fd4551fe2fc91be5f","D2","batch4","spm_show_trial_num","null","<p class=block-text>Trial 9 out of 60</p>","null","","","","","","","","","","","","","","","","","","","","","","","","","",""
"","","","","","image-button-response","21","168658","0.0-2.0-2.0-1.8","62feda7fd4551fe2fc91be5f","D2","batch4","spm_respsonse","8578.70000000298","img/question_1_9.jpeg","0","mat_09","1","1","1","8578.70000000298","","","","","","","","","","","","","","","","","","","","",""
"","","","","","html-keyboard-response","22","169722","0.0-2.0-2.0-0.9","62feda7fd4551fe2fc91be5f","D2","batch4","spm_show_trial_num","null","<p class=block-text>Trial 10 out of 60</p>","null","","","","","","","","","","","","","","","","","","","","","","","","","",""
"","","","","","image-button-response","23","179282","0.0-2.0-2.0-1.9","62feda7fd4551fe2fc91be5f","D2","batch4","spm_respsonse","9555.09999999404","img/question_1_10.jpeg","2","mat_10","3","1","1","9555.09999999404","","","","","","","","","","","","","","","","","","","","",""
"","","","","","html-keyboard-response","24","180339","0.0-2.0-2.0-0.10","62feda7fd4551fe2fc91be5f","D2","batch4","spm_show_trial_num","null","<p class=block-text>Trial 11 out of 60</p>","null","","","","","","","","","","","","","","","","","","","","","","","","","",""
"","","","","","image-button-response","25","203065","0.0-2.0-2.0-1.10","62feda7fd4551fe2fc91be5f","D2","batch4","spm_respsonse","22724.20000000298","img/question_1_11.jpeg","3","mat_11","4","1","1","22724.20000000298","","","","","","","","","","","","","","","","","","","","",""
"","","","","","html-keyboard-response","26","204128","0.0-2.0-2.0-0.11","62feda7fd4551fe2fc91be5f","D2","batch4","spm_show_trial_num","null","<p class=block-text>Trial 12 out of 60</p>","null","","","","","","","","","","","","","","","","","","","","","","","","","",""
"","","","","","image-button-response","27","224814","0.0-2.0-2.0-1.11","62feda7fd4551fe2fc91be5f","D2","batch4","spm_respsonse","20687.59999999404","img/question_1_12.jpeg","3","mat_12","5","0","0","20687.59999999404","","","","","","","","","","","","","","","","","","","","",""
"","","","","","html-keyboard-response","28","225879","0.0-2.0-2.0-0.12","62feda7fd4551fe2fc91be5f","D2","batch4","spm_show_trial_num","null","<p class=block-text>Trial 13 out of 60</p>","null","","","","","","","","","","","","","","","","","","","","","","","","","",""
"","","","","","image-button-response","29","230750","0.0-2.0-2.0-1.12","62feda7fd4551fe2fc91be5f","D2","batch4","spm_respsonse","4867.20000000298","img/question_2_1.jpeg","1","mat_13","2","1","1","4867.20000000298","","","","","","","","","","","","","","","","","","","","",""
"","","","","","html-keyboard-response","30","231808","0.0-2.0-2.0-0.13","62feda7fd4551fe2fc91be5f","D2","batch4","spm_show_trial_num","null","<p class=block-text>Trial 14 out of 60</p>","null","","","","","","","","","","","","","","","","","","","","","","","","","",""
"","","","","","image-button-response","31","239262","0.0-2.0-2.0-1.13","62feda7fd4551fe2fc91be5f","D2","batch4","spm_respsonse","7449.29999999702","img/question_2_2.jpeg","5","mat_14","6","1","1","7449.29999999702","","","","","","","","","","","","","","","","","","","","",""
"","","","","","html-keyboard-response","32","240325","0.0-2.0-2.0-0.14","62feda7fd4551fe2fc91be5f","D2","batch4","spm_show_trial_num","null","<p class=block-text>Trial 15 out of 60</p>","null","","","","","","","","","","","","","","","","","","","","","","","","","",""
"","","","","","image-button-response","33","245974","0.0-2.0-2.0-1.14","62feda7fd4551fe2fc91be5f","D2","batch4","spm_respsonse","5645.0999999940395","img/question_2_3.jpeg","0","mat_15","1","1","1","5645.0999999940395","","","","","","","","","","","","","","","","","","","","",""
"","","","","","html-keyboard-response","34","247038","0.0-2.0-2.0-0.15","62feda7fd4551fe2fc91be5f","D2","batch4","spm_show_trial_num","null","<p class=block-text>Trial 16 out of 60</p>","null","","","","","","","","","","","","","","","","","","","","","","","","","",""
"","","","","","image-button-response","35","255654","0.0-2.0-2.0-1.15","62feda7fd4551fe2fc91be5f","D2","batch4","spm_respsonse","8612.10000000894","img/question_2_4.jpeg","1","mat_16","2","1","1","8612.10000000894","","","","","","","","","","","","","","","","","","","","",""
"","","","","","html-keyboard-response","36","256721","0.0-2.0-2.0-0.16","62feda7fd4551fe2fc91be5f","D2","batch4","spm_show_trial_num","null","<p class=block-text>Trial 17 out of 60</p>","null","","","","","","","","","","","","","","","","","","","","","","","","","",""
"","","","","","image-button-response","37","266054","0.0-2.0-2.0-1.16","62feda7fd4551fe2fc91be5f","D2","batch4","spm_respsonse","9329.20000000298","img/question_2_5.jpeg","0","mat_17","1","1","1","9329.20000000298","","","","","","","","","","","","","","","","","","","","",""
"","","","","","html-keyboard-response","38","267116","0.0-2.0-2.0-0.17","62feda7fd4551fe2fc91be5f","D2","batch4","spm_show_trial_num","null","<p class=block-text>Trial 18 out of 60</p>","null","","","","","","","","","","","","","","","","","","","","","","","","","",""
"","","","","","image-button-response","39","272389","0.0-2.0-2.0-1.17","62feda7fd4551fe2fc91be5f","D2","batch4","spm_respsonse","5269","img/question_2_6.jpeg","3","mat_18","3","0","0","5269","","","","","","","","","","","","","","","","","","","","",""
"","","","","","html-keyboard-response","40","273459","0.0-2.0-2.0-0.18","62feda7fd4551fe2fc91be5f","D2","batch4","spm_show_trial_num","null","<p class=block-text>Trial 19 out of 60</p>","null","","","","","","","","","","","","","","","","","","","","","","","","","",""
"","","","","","image-button-response","41","282486","0.0-2.0-2.0-1.18","62feda7fd4551fe2fc91be5f","D2","batch4","spm_respsonse","9023","img/question_2_7.jpeg","3","mat_19","5","0","0","9023","","","","","","","","","","","","","","","","","","","","",""
"","","","","","html-keyboard-response","42","283563","0.0-2.0-2.0-0.19","62feda7fd4551fe2fc91be5f","D2","batch4","spm_show_trial_num","null","<p class=block-text>Trial 20 out of 60</p>","null","","","","","","","","","","","","","","","","","","","","","","","","","",""
"","","","","","image-button-response","43","291972","0.0-2.0-2.0-1.19","62feda7fd4551fe2fc91be5f","D2","batch4","spm_respsonse","8403.79999999702","img/question_2_8.jpeg","3","mat_20","6","0","0","8403.79999999702","","","","","","","","","","","","","","","","","","","","",""
"","","","","","html-keyboard-response","44","293028","0.0-2.0-2.0-0.20","62feda7fd4551fe2fc91be5f","D2","batch4","spm_show_trial_num","null","<p class=block-text>Trial 21 out of 60</p>","null","","","","","","","","","","","","","","","","","","","","","","","","","",""
"","","","","","image-button-response","45","307371","0.0-2.0-2.0-1.20","62feda7fd4551fe2fc91be5f","D2","batch4","spm_respsonse","14338.800000011921","img/question_2_9.jpeg","3","mat_21","4","1","1","14338.800000011921","","","","","","","","","","","","","","","","","","","","",""
"","","","","","html-keyboard-response","46","308439","0.0-2.0-2.0-0.21","62feda7fd4551fe2fc91be5f","D2","batch4","spm_show_trial_num","null","<p class=block-text>Trial 22 out of 60</p>","null","","","","","","","","","","","","","","","","","","","","","","","","","",""
"","","","","","image-button-response","47","321547","0.0-2.0-2.0-1.21","62feda7fd4551fe2fc91be5f","D2","batch4","spm_respsonse","13103.39999999106","img/question_2_10.jpeg","2","mat_22","3","1","1","13103.39999999106","","","","","","","","","","","","","","","","","","","","",""
"","","","","","html-keyboard-response","48","322607","0.0-2.0-2.0-0.22","62feda7fd4551fe2fc91be5f","D2","batch4","spm_show_trial_num","null","<p class=block-text>Trial 23 out of 60</p>","null","","","","","","","","","","","","","","","","","","","","","","","","","",""
"","","","","","image-button-response","49","333124","0.0-2.0-2.0-1.22","62feda7fd4551fe2fc91be5f","D2","batch4","spm_respsonse","10511.800000011921","img/question_2_11.jpeg","3","mat_23","4","1","1","10511.800000011921","","","","","","","","","","","","","","","","","","","","",""
"","","","","","html-keyboard-response","50","334184","0.0-2.0-2.0-0.23","62feda7fd4551fe2fc91be5f","D2","batch4","spm_show_trial_num","null","<p class=block-text>Trial 24 out of 60</p>","null","","","","","","","","","","","","","","","","","","","","","","","","","",""
"","","","","","image-button-response","51","345929","0.0-2.0-2.0-1.23","62feda7fd4551fe2fc91be5f","D2","batch4","spm_respsonse","11741","img/question_2_12.jpeg","5","mat_24","5","0","0","11741","","","","","","","","","","","","","","","","","","","","",""
"","","","","","html-button-response","52","351017","0.0-2.0-3.0","62feda7fd4551fe2fc91be5f","D2","batch4","attention_check","4831.899999991059","<p class = block-text>Attention check: Please choose 1<br></p>","0","","","true","","","","","","","","","","","","","","","","","","","","","","",""
"","","","","","html-keyboard-response","53","351819","0.0-2.0-4.0-0.0","62feda7fd4551fe2fc91be5f","D2","batch4","spm_show_trial_num","null","<p class=block-text>Trial 25 out of 60</p>","null","","","","","","","","","","","","","","","","","","","","","","","","","",""
"","","","","","image-button-response","54","356897","0.0-2.0-4.0-1.0","62feda7fd4551fe2fc91be5f","D2","batch4","spm_respsonse","5073.20000000298","img/question_3_1.jpeg","7","mat_25","8","1","1","5073.20000000298","","","","","","","","","","","","","","","","","","","","",""
"","","","","","html-keyboard-response","55","357961","0.0-2.0-4.0-0.1","62feda7fd4551fe2fc91be5f","D2","batch4","spm_show_trial_num","null","<p class=block-text>Trial 26 out of 60</p>","null","","","","","","","","","","","","","","","","","","","","","","","","","",""
"","","","","","image-button-response","56","366849","0.0-2.0-4.0-1.1","62feda7fd4551fe2fc91be5f","D2","batch4","spm_respsonse","8883.60000000894","img/question_3_2.jpeg","1","mat_26","2","1","1","8883.60000000894","","","","","","","","","","","","","","","","","","","","",""
"","","","","","html-keyboard-response","57","367929","0.0-2.0-4.0-0.2","62feda7fd4551fe2fc91be5f","D2","batch4","spm_show_trial_num","null","<p class=block-text>Trial 27 out of 60</p>","null","","","","","","","","","","","","","","","","","","","","","","","","","",""
"","","","","","image-button-response","58","377385","0.0-2.0-4.0-1.2","62feda7fd4551fe2fc91be5f","D2","batch4","spm_respsonse","9452","img/question_3_3.jpeg","2","mat_27","3","1","1","9452","","","","","","","","","","","","","","","","","","","","",""
"","","","","","html-keyboard-response","59","378447","0.0-2.0-4.0-0.3","62feda7fd4551fe2fc91be5f","D2","batch4","spm_show_trial_num","null","<p class=block-text>Trial 28 out of 60</p>","null","","","","","","","","","","","","","","","","","","","","","","","","","",""
"","","","","","image-button-response","60","390993","0.0-2.0-4.0-1.3","62feda7fd4551fe2fc91be5f","D2","batch4","spm_respsonse","12541.59999999404","img/question_3_4.jpeg","7","mat_28","8","1","1","12541.59999999404","","","","","","","","","","","","","","","","","","","","",""
"","","","","","html-keyboard-response","61","392058","0.0-2.0-4.0-0.4","62feda7fd4551fe2fc91be5f","D2","batch4","spm_show_trial_num","null","<p class=block-text>Trial 29 out of 60</p>","null","","","","","","","","","","","","","","","","","","","","","","","","","",""
"","","","","","image-button-response","62","407844","0.0-2.0-4.0-1.4","62feda7fd4551fe2fc91be5f","D2","batch4","spm_respsonse","15778.5","img/question_3_5.jpeg","6","mat_29","7","1","1","15778.5","","","","","","","","","","","","","","","","","","","","",""
"","","","","","html-keyboard-response","63","408911","0.0-2.0-4.0-0.5","62feda7fd4551fe2fc91be5f","D2","batch4","spm_show_trial_num","null","<p class=block-text>Trial 30 out of 60</p>","null","","","","","","","","","","","","","","","","","","","","","","","","","",""
"","","","","","image-button-response","64","421828","0.0-2.0-4.0-1.5","62feda7fd4551fe2fc91be5f","D2","batch4","spm_respsonse","12912.39999999106","img/question_3_6.jpeg","3","mat_30","4","1","1","12912.39999999106","","","","","","","","","","","","","","","","","","","","",""
"","","","","","html-keyboard-response","65","422891","0.0-2.0-4.0-0.6","62feda7fd4551fe2fc91be5f","D2","batch4","spm_show_trial_num","null","<p class=block-text>Trial 31 out of 60</p>","null","","","","","","","","","","","","","","","","","","","","","","","","","",""
"","","","","","image-button-response","66","434979","0.0-2.0-4.0-1.6","62feda7fd4551fe2fc91be5f","D2","batch4","spm_respsonse","12083.800000011921","img/question_3_7.jpeg","4","mat_31","5","1","1","12083.800000011921","","","","","","","","","","","","","","","","","","","","",""
"","","","","","html-keyboard-response","67","436054","0.0-2.0-4.0-0.7","62feda7fd4551fe2fc91be5f","D2","batch4","spm_show_trial_num","null","<p class=block-text>Trial 32 out of 60</p>","null","","","","","","","","","","","","","","","","","","","","","","","","","",""
"","","","","","image-button-response","68","452627","0.0-2.0-4.0-1.7","62feda7fd4551fe2fc91be5f","D2","batch4","spm_respsonse","16568.79999999702","img/question_3_8.jpeg","0","mat_32","1","1","1","16568.79999999702","","","","","","","","","","","","","","","","","","","","",""
"","","","","","html-keyboard-response","69","453704","0.0-2.0-4.0-0.8","62feda7fd4551fe2fc91be5f","D2","batch4","spm_show_trial_num","null","<p class=block-text>Trial 33 out of 60</p>","null","","","","","","","","","","","","","","","","","","","","","","","","","",""
"","","","","","image-button-response","70","474553","0.0-2.0-4.0-1.8","62feda7fd4551fe2fc91be5f","D2","batch4","spm_respsonse","20847.5","img/question_3_9.jpeg","0","mat_33","7","0","0","20847.5","","","","","","","","","","","","","","","","","","","","",""
"","","","","","html-keyboard-response","71","475622","0.0-2.0-4.0-0.9","62feda7fd4551fe2fc91be5f","D2","batch4","spm_show_trial_num","null","<p class=block-text>Trial 34 out of 60</p>","null","","","","","","","","","","","","","","","","","","","","","","","","","",""
"","","","","","image-button-response","72","499505","0.0-2.0-4.0-1.9","62feda7fd4551fe2fc91be5f","D2","batch4","spm_respsonse","23879.30000001192","img/question_3_10.jpeg","0","mat_34","6","0","0","23879.30000001192","","","","","","","","","","","","","","","","","","","","",""
"","","","","","html-keyboard-response","73","500576","0.0-2.0-4.0-0.10","62feda7fd4551fe2fc91be5f","D2","batch4","spm_show_trial_num","null","<p class=block-text>Trial 35 out of 60</p>","null","","","","","","","","","","","","","","","","","","","","","","","","","",""
"","","","","","image-button-response","74","519801","0.0-2.0-4.0-1.10","62feda7fd4551fe2fc91be5f","D2","batch4","spm_respsonse","19221","img/question_3_11.jpeg","2","mat_35","1","0","0","19221","","","","","","","","","","","","","","","","","","","","",""
"","","","","","html-keyboard-response","75","520860","0.0-2.0-4.0-0.11","62feda7fd4551fe2fc91be5f","D2","batch4","spm_show_trial_num","null","<p class=block-text>Trial 36 out of 60</p>","null","","","","","","","","","","","","","","","","","","","","","","","","","",""
"","","","","","image-button-response","76","533586","0.0-2.0-4.0-1.11","62feda7fd4551fe2fc91be5f","D2","batch4","spm_respsonse","12720.5","img/question_3_12.jpeg","3","mat_36","2","0","0","12720.5","","","","","","","","","","","","","","","","","","","","",""
"","","","","","html-keyboard-response","77","534654","0.0-2.0-4.0-0.12","62feda7fd4551fe2fc91be5f","D2","batch4","spm_show_trial_num","null","<p class=block-text>Trial 37 out of 60</p>","null","","","","","","","","","","","","","","","","","","","","","","","","","",""
"","","","","","image-button-response","78","541706","0.0-2.0-4.0-1.12","62feda7fd4551fe2fc91be5f","D2","batch4","spm_respsonse","7047.5","img/question_4_1.jpeg","2","mat_37","3","1","1","7047.5","","","","","","","","","","","","","","","","","","","","",""
"","","","","","html-keyboard-response","79","542763","0.0-2.0-4.0-0.13","62feda7fd4551fe2fc91be5f","D2","batch4","spm_show_trial_num","null","<p class=block-text>Trial 38 out of 60</p>","null","","","","","","","","","","","","","","","","","","","","","","","","","",""
"","","","","","image-button-response","80","554898","0.0-2.0-4.0-1.13","62feda7fd4551fe2fc91be5f","D2","batch4","spm_respsonse","12131.29999999702","img/question_4_2.jpeg","3","mat_38","4","1","1","12131.29999999702","","","","","","","","","","","","","","","","","","","","",""
"","","","","","html-keyboard-response","81","555965","0.0-2.0-4.0-0.14","62feda7fd4551fe2fc91be5f","D2","batch4","spm_show_trial_num","null","<p class=block-text>Trial 39 out of 60</p>","null","","","","","","","","","","","","","","","","","","","","","","","","","",""
"","","","","","image-button-response","82","575074","0.0-2.0-4.0-1.14","62feda7fd4551fe2fc91be5f","D2","batch4","spm_respsonse","19104","img/question_4_3.jpeg","0","mat_39","3","0","0","19104","","","","","","","","","","","","","","","","","","","","",""
"","","","","","html-keyboard-response","83","576133","0.0-2.0-4.0-0.15","62feda7fd4551fe2fc91be5f","D2","batch4","spm_show_trial_num","null","<p class=block-text>Trial 40 out of 60</p>","null","","","","","","","","","","","","","","","","","","","","","","","","","",""
"","","","","","image-button-response","84","593235","0.0-2.0-4.0-1.15","62feda7fd4551fe2fc91be5f","D2","batch4","spm_respsonse","17096.5","img/question_4_4.jpeg","6","mat_40","7","1","1","17096.5","","","","","","","","","","","","","","","","","","","","",""
"","","","","","html-keyboard-response","85","594307","0.0-2.0-4.0-0.16","62feda7fd4551fe2fc91be5f","D2","batch4","spm_show_trial_num","null","<p class=block-text>Trial 41 out of 60</p>","null","","","","","","","","","","","","","","","","","","","","","","","","","",""
"","","","","","image-button-response","86","604059","0.0-2.0-4.0-1.16","62feda7fd4551fe2fc91be5f","D2","batch4","spm_respsonse","9747.29999999702","img/question_4_5.jpeg","7","mat_41","8","1","1","9747.29999999702","","","","","","","","","","","","","","","","","","","","",""
"","","","","","html-keyboard-response","87","605122","0.0-2.0-4.0-0.17","62feda7fd4551fe2fc91be5f","D2","batch4","spm_show_trial_num","null","<p class=block-text>Trial 42 out of 60</p>","null","","","","","","","","","","","","","","","","","","","","","","","","","",""
"","","","","","image-button-response","88","625059","0.0-2.0-4.0-1.17","62feda7fd4551fe2fc91be5f","D2","batch4","spm_respsonse","19931.29999999702","img/question_4_6.jpeg","6","mat_42","6","0","0","19931.29999999702","","","","","","","","","","","","","","","","","","","","",""
"","","","","","html-keyboard-response","89","626124","0.0-2.0-4.0-0.18","62feda7fd4551fe2fc91be5f","D2","batch4","spm_show_trial_num","null","<p class=block-text>Trial 43 out of 60</p>","null","","","","","","","","","","","","","","","","","","","","","","","","","",""
"","","","","","image-button-response","90","641915","0.0-2.0-4.0-1.18","62feda7fd4551fe2fc91be5f","D2","batch4","spm_respsonse","15785.90000000596","img/question_4_7.jpeg","7","mat_43","5","0","0","15785.90000000596","","","","","","","","","","","","","","","","","","","","",""
"","","","","","html-keyboard-response","91","642988","0.0-2.0-4.0-0.19","62feda7fd4551fe2fc91be5f","D2","batch4","spm_show_trial_num","null","<p class=block-text>Trial 44 out of 60</p>","null","","","","","","","","","","","","","","","","","","","","","","","","","",""
"","","","","","image-button-response","92","660993","0.0-2.0-4.0-1.19","62feda7fd4551fe2fc91be5f","D2","batch4","spm_respsonse","18002","img/question_4_8.jpeg","0","mat_44","4","0","0","18002","","","","","","","","","","","","","","","","","","","","",""
"","","","","","html-keyboard-response","93","662056","0.0-2.0-4.0-0.20","62feda7fd4551fe2fc91be5f","D2","batch4","spm_show_trial_num","null","<p class=block-text>Trial 45 out of 60</p>","null","","","","","","","","","","","","","","","","","","","","","","","","","",""
"","","","","","image-button-response","94","692858","0.0-2.0-4.0-1.20","62feda7fd4551fe2fc91be5f","D2","batch4","spm_respsonse","30797.29999999702","img/question_4_9.jpeg","4","mat_45","1","0","0","30797.29999999702","","","","","","","","","","","","","","","","","","","","",""
"","","","","","html-keyboard-response","95","693922","0.0-2.0-4.0-0.21","62feda7fd4551fe2fc91be5f","D2","batch4","spm_show_trial_num","null","<p class=block-text>Trial 46 out of 60</p>","null","","","","","","","","","","","","","","","","","","","","","","","","","",""
"","","","","","image-button-response","96","709969","0.0-2.0-4.0-1.21","62feda7fd4551fe2fc91be5f","D2","batch4","spm_respsonse","16042.199999988079","img/question_4_10.jpeg","5","mat_46","2","0","0","16042.199999988079","","","","","","","","","","","","","","","","","","","","",""
"","","","","","html-keyboard-response","97","711028","0.0-2.0-4.0-0.22","62feda7fd4551fe2fc91be5f","D2","batch4","spm_show_trial_num","null","<p class=block-text>Trial 47 out of 60</p>","null","","","","","","","","","","","","","","","","","","","","","","","","","",""
"","","","","","image-button-response","98","723590","0.0-2.0-4.0-1.22","62feda7fd4551fe2fc91be5f","D2","batch4","spm_respsonse","12560","img/question_4_11.jpeg","4","mat_47","5","1","1","12560","","","","","","","","","","","","","","","","","","","","",""
"","","","","","html-keyboard-response","99","724651","0.0-2.0-4.0-0.23","62feda7fd4551fe2fc91be5f","D2","batch4","spm_show_trial_num","null","<p class=block-text>Trial 48 out of 60</p>","null","","","","","","","","","","","","","","","","","","","","","","","","","",""
"","","","","","image-button-response","100","744126","0.0-2.0-4.0-1.23","62feda7fd4551fe2fc91be5f","D2","batch4","spm_respsonse","19472","img/question_4_12.jpeg","6","mat_48","6","0","0","19472","","","","","","","","","","","","","","","","","","","","",""
"","","","","","html-keyboard-response","101","745197","0.0-2.0-4.0-0.24","62feda7fd4551fe2fc91be5f","D2","batch4","spm_show_trial_num","null","<p class=block-text>Trial 49 out of 60</p>","null","","","","","","","","","","","","","","","","","","","","","","","","","",""
"","","","","","image-button-response","102","757438","0.0-2.0-4.0-1.24","62feda7fd4551fe2fc91be5f","D2","batch4","spm_respsonse","12236.79999999702","img/question_5_1.jpeg","0","mat_49","7","0","0","12236.79999999702","","","","","","","","","","","","","","","","","","","","",""
"","","","","","html-keyboard-response","103","758505","0.0-2.0-4.0-0.25","62feda7fd4551fe2fc91be5f","D2","batch4","spm_show_trial_num","null","<p class=block-text>Trial 50 out of 60</p>","null","","","","","","","","","","","","","","","","","","","","","","","","","",""
"","","","","","image-button-response","104","783704","0.0-2.0-4.0-1.25","62feda7fd4551fe2fc91be5f","D2","batch4","spm_respsonse","25192.40000000596","img/question_5_2.jpeg","5","mat_50","6","1","1","25192.40000000596","","","","","","","","","","","","","","","","","","","","",""
"","","","","","html-keyboard-response","105","784776","0.0-2.0-4.0-0.26","62feda7fd4551fe2fc91be5f","D2","batch4","spm_show_trial_num","null","<p class=block-text>Trial 51 out of 60</p>","null","","","","","","","","","","","","","","","","","","","","","","","","","",""
"","","","","","image-button-response","106","811392","0.0-2.0-4.0-1.26","62feda7fd4551fe2fc91be5f","D2","batch4","spm_respsonse","26611.59999999404","img/question_5_3.jpeg","2","mat_51","8","0","0","26611.59999999404","","","","","","","","","","","","","","","","","","","","",""
"","","","","","html-keyboard-response","107","812458","0.0-2.0-4.0-0.27","62feda7fd4551fe2fc91be5f","D2","batch4","spm_show_trial_num","null","<p class=block-text>Trial 52 out of 60</p>","null","","","","","","","","","","","","","","","","","","","","","","","","","",""
"","","","","","image-button-response","108","830488","0.0-2.0-4.0-1.27","62feda7fd4551fe2fc91be5f","D2","batch4","spm_respsonse","18025.70000000298","img/question_5_4.jpeg","1","mat_52","2","1","1","18025.70000000298","","","","","","","","","","","","","","","","","","","","",""
"","","","","","html-keyboard-response","109","831551","0.0-2.0-4.0-0.28","62feda7fd4551fe2fc91be5f","D2","batch4","spm_show_trial_num","null","<p class=block-text>Trial 53 out of 60</p>","null","","","","","","","","","","","","","","","","","","","","","","","","","",""
"","","","","","image-button-response","110","851973","0.0-2.0-4.0-1.28","62feda7fd4551fe2fc91be5f","D2","batch4","spm_respsonse","20420.30000001192","img/question_5_5.jpeg","0","mat_53","1","1","1","20420.30000001192","","","","","","","","","","","","","","","","","","","","",""
"","","","","","html-keyboard-response","111","853041","0.0-2.0-4.0-0.29","62feda7fd4551fe2fc91be5f","D2","batch4","spm_show_trial_num","null","<p class=block-text>Trial 54 out of 60</p>","null","","","","","","","","","","","","","","","","","","","","","","","","","",""
"","","","","","image-button-response","112","863997","0.0-2.0-4.0-1.29","62feda7fd4551fe2fc91be5f","D2","batch4","spm_respsonse","10950.79999999702","img/question_5_6.jpeg","6","mat_54","5","0","0","10950.79999999702","","","","","","","","","","","","","","","","","","","","",""
"","","","","","html-keyboard-response","113","865054","0.0-2.0-4.0-0.30","62feda7fd4551fe2fc91be5f","D2","batch4","spm_show_trial_num","null","<p class=block-text>Trial 55 out of 60</p>","null","","","","","","","","","","","","","","","","","","","","","","","","","",""
"","","","","","image-button-response","114","882469","0.0-2.0-4.0-1.30","62feda7fd4551fe2fc91be5f","D2","batch4","spm_respsonse","17409.40000000596","img/question_5_7.jpeg","2","mat_55","1","0","0","17409.40000000596","","","","","","","","","","","","","","","","","","","","",""
"","","","","","html-keyboard-response","115","883527","0.0-2.0-4.0-0.31","62feda7fd4551fe2fc91be5f","D2","batch4","spm_show_trial_num","null","<p class=block-text>Trial 56 out of 60</p>","null","","","","","","","","","","","","","","","","","","","","","","","","","",""
"","","","","","image-button-response","116","905348","0.0-2.0-4.0-1.31","62feda7fd4551fe2fc91be5f","D2","batch4","spm_respsonse","21817","img/question_5_8.jpeg","7","mat_56","6","0","0","21817","","","","","","","","","","","","","","","","","","","","",""
"","","","","","html-keyboard-response","117","906416","0.0-2.0-4.0-0.32","62feda7fd4551fe2fc91be5f","D2","batch4","spm_show_trial_num","null","<p class=block-text>Trial 57 out of 60</p>","null","","","","","","","","","","","","","","","","","","","","","","","","","",""
"","","","","","image-button-response","118","935347","0.0-2.0-4.0-1.32","62feda7fd4551fe2fc91be5f","D2","batch4","spm_respsonse","28926.60000000894","img/question_5_9.jpeg","7","mat_57","3","0","0","28926.60000000894","","","","","","","","","","","","","","","","","","","","",""
"","","","","","html-keyboard-response","119","936402","0.0-2.0-4.0-0.33","62feda7fd4551fe2fc91be5f","D2","batch4","spm_show_trial_num","null","<p class=block-text>Trial 58 out of 60</p>","null","","","","","","","","","","","","","","","","","","","","","","","","","",""
"","","","","","image-button-response","120","945243","0.0-2.0-4.0-1.33","62feda7fd4551fe2fc91be5f","D2","batch4","spm_respsonse","8835.89999999106","img/question_5_10.jpeg","6","mat_58","2","0","0","8835.89999999106","","","","","","","","","","","","","","","","","","","","",""
"","","","","","html-keyboard-response","121","946302","0.0-2.0-4.0-0.34","62feda7fd4551fe2fc91be5f","D2","batch4","spm_show_trial_num","null","<p class=block-text>Trial 59 out of 60</p>","null","","","","","","","","","","","","","","","","","","","","","","","","","",""
"","","","","","image-button-response","122","961083","0.0-2.0-4.0-1.34","62feda7fd4551fe2fc91be5f","D2","batch4","spm_respsonse","14776.90000000596","img/question_5_11.jpeg","4","mat_59","4","0","0","14776.90000000596","","","","","","","","","","","","","","","","","","","","",""
"","","","","","html-keyboard-response","123","962142","0.0-2.0-4.0-0.35","62feda7fd4551fe2fc91be5f","D2","batch4","spm_show_trial_num","null","<p class=block-text>Trial 60 out of 60</p>","null","","","","","","","","","","","","","","","","","","","","","","","","","",""
"","","","","","image-button-response","124","975347","0.0-2.0-4.0-1.35","62feda7fd4551fe2fc91be5f","D2","batch4","spm_respsonse","13200.40000000596","img/question_5_12.jpeg","7","mat_60","5","0","0","13200.40000000596","","","","","","","","","","","","","","","","","","","","",""
"","","","","","html-button-response","125","979418","0.0-2.0-5.0","62feda7fd4551fe2fc91be5f","D2","batch4","spm_goodbye","3818.2000000029802","<p class= block-text>This concludes the Standard Progressive Matrix game. Thank you for your responses!<br> When you are ready, click the button continue</p>","0","","","","","","","","","","","","","","","","","","","","","","","","","",""
"true","","","","","fullscreen","126","987941","0.0-3.0-0.0","62feda7fd4551fe2fc91be5f","D2","batch4","","","","","","","","","","","","","","","","","","","","","","","","","","","","","",""
"","","","","","instructions","127","1088196","0.0-3.0-1.0-0.0-0.0","62feda7fd4551fe2fc91be5f","D2","batch4","tol-instructions","100257.89999999106","","","","","","","","[{""page_index"":0,""viewing_time"":24898.20000000298},{""page_index"":1,""viewing_time"":14247.79999999702},{""page_index"":2,""viewing_time"":7239.5999999940395},{""page_index"":3,""viewing_time"":15800.5},{""page_index"":4,""viewing_time"":13559.5},{""page_index"":5,""viewing_time"":16288},{""page_index"":6,""viewing_time"":8223.79999999702}]","","","","","","","","","","","","","","","","","","","",""
"","","","","","html-button-response","128","1090108","0.0-3.0-1.0-1.0-0.0","62feda7fd4551fe2fc91be5f","D2","batch4","tol_enter_quiz","1911","<p class=block-text> Let's answer a few questions <br>","0","","","","","","","","","","","","","","","","","","","","","","","","","",""
"","","","","","html-button-response","129","1097876","0.0-3.0-1.0-1.0-1.0","62feda7fd4551fe2fc91be5f","D2","batch4","tol_quiz","7766.9000000059605","<p class = block-text>True or False: You can only move the ball on top of a peg. <br></p>","0","","","true","","","","","","","","","","","","","","","","","","","","","","",""
"","","","","","html-button-response","130","1100316","0.0-3.0-1.0-1.0-2.0","62feda7fd4551fe2fc91be5f","D2","batch4","tol_quiz_feedback","2438.199999988079","<p class = block-text>Correct! You can only move the ball on top of a peg.</p>","0","","","","","","","","","","","","","","","","","","","","","","","","","",""
"","","","","","html-button-response","131","1104484","0.0-3.0-1.0-1.0-3.0","62feda7fd4551fe2fc91be5f","D2","batch4","tol_quiz","4165.9000000059605","<p class = block-text>True or False: You should try to match your board with the target board with fewest moves possible. <br></p>","0","","","true","","","","","","","","","","","","","","","","","","","","","","",""
"","","","","","html-button-response","132","1105292","0.0-3.0-1.0-1.0-4.0","62feda7fd4551fe2fc91be5f","D2","batch4","tol_quiz_feedback","806.7000000029802","<p class = block-text>Correct! </p>","0","","","","","","","","","","","","","","","","","","","","","","","","","",""
"","","","","","html-button-response","133","1109476","0.0-3.0-2.0","62feda7fd4551fe2fc91be5f","D2","batch4","","4182.0999999940395","<p class=block-text> Now that you've understood the game, let's practice a few easier examples before we start!<br> <br>","0","","","","","","","","","","","","","","","","","","","","","","","","","",""
"","","","","","single-stim-button","134","1112351","0.0-3.0-3.0-0.0","62feda7fd4551fe2fc91be5f","D2","batch4","tol_practice","2871","","","","","","","","","tol_peg_2","2871","2871","0","[[1,2,0],[0,0],[0]]","1","[[1,2,0],[0,0],[3]]","practice","2871","","","","","","","","","","",""
"","","","","","single-stim-button","135","1115660","0.0-3.0-3.0-1.0","62feda7fd4551fe2fc91be5f","D2","batch4","tol_practice","3308","","","","","","","","","tol_peg_3","3308","3308","0","[[1,2,0],[0,0],[3]]","1","[[1,2,0],[0,0],[3]]","practice","3308","","","","","","","","","","",""
"","","","","","poldrack-single-stim","136","1116671","0.0-3.0-4.0","62feda7fd4551fe2fc91be5f","D2","batch4","tol_feedback","-1","","","","","true","","","","","1000","1000","500","","","","","","-1","none","true","","0","","","","","",""
"","","","","","single-stim-button","137","1129516","0.0-3.0-5.0-0.0","62feda7fd4551fe2fc91be5f","D2","batch4","tol_practice","12844","","","","","","","","","tol_peg_1","12844","12844","0","[[1,0,0],[3,0],[0]]","2","[[0,0,0],[3,1],[2]]","practice","12844","","","","","","","","","","",""
"","","","","","single-stim-button","138","1133700","0.0-3.0-5.0-1.0","62feda7fd4551fe2fc91be5f","D2","batch4","tol_practice","4183","","","","","","","","","tol_peg_3","4183","4183","0","[[1,0,0],[3,0],[2]]","2","[[0,0,0],[3,1],[2]]","practice","4183","","","","","","","","","","",""
"","","","","","single-stim-button","139","1135308","0.0-3.0-5.1-0.1","62feda7fd4551fe2fc91be5f","D2","batch4","tol_practice","1606","","","","","","","","","tol_peg_1","1606","1606","0","[[0,0,0],[3,0],[2]]","3","[[0,0,0],[3,1],[2]]","practice","1606","","","","","","","","","","",""
"","","","","","single-stim-button","140","1136628","0.0-3.0-5.1-1.1","62feda7fd4551fe2fc91be5f","D2","batch4","tol_practice","1319","","","","","","","","","tol_peg_2","1319","1319","0","[[0,0,0],[3,1],[2]]","3","[[0,0,0],[3,1],[2]]","practice","1319","","","","","","","","","","",""
"","","","","","poldrack-single-stim","141","1137633","0.0-3.0-6.0","62feda7fd4551fe2fc91be5f","D2","batch4","tol_feedback","-1","","","","","true","","","","","1000","1000","500","","","","","","-1","none","true","","0","","","","","",""
"","","","","","single-stim-button","142","1142236","0.0-3.0-7.0-0.0","62feda7fd4551fe2fc91be5f","D2","batch4","tol_practice","4601","","","","","","","","","tol_peg_2","4601","4601","0","[[1,2,0],[0,0],[0]]","4","[[1,0,0],[2,0],[3]]","practice","4601","","","","","","","","","","",""
"","","","","","single-stim-button","143","1143948","0.0-3.0-7.0-1.0","62feda7fd4551fe2fc91be5f","D2","batch4","tol_practice","1711","","","","","","","","","tol_peg_3","1711","1711","0","[[1,2,0],[0,0],[3]]","4","[[1,0,0],[2,0],[3]]","practice","1711","","","","","","","","","","",""
"","","","","","single-stim-button","144","1145364","0.0-3.0-7.1-0.1","62feda7fd4551fe2fc91be5f","D2","batch4","tol_practice","1414","","","","","","","","","tol_peg_1","1414","1414","0","[[1,0,0],[0,0],[3]]","5","[[1,0,0],[2,0],[3]]","practice","1414","","","","","","","","","","",""
"","","","","","single-stim-button","145","1146460","0.0-3.0-7.1-1.1","62feda7fd4551fe2fc91be5f","D2","batch4","tol_practice","1094","","","","","","","","","tol_peg_2","1094","1094","0","[[1,0,0],[2,0],[3]]","5","[[1,0,0],[2,0],[3]]","practice","1094","","","","","","","","","","",""
"","","","","","poldrack-single-stim","146","1147481","0.0-3.0-8.0","62feda7fd4551fe2fc91be5f","D2","batch4","tol_feedback","-1","","","","","true","","","","","1000","1000","500","","","","","","-1","none","true","","0","","","","","",""
"","","","","","html-button-response","147","1152027","0.0-3.0-9.0","62feda7fd4551fe2fc91be5f","D2","batch4","tol_instruction","4544.29999999702","<div class = centerbox><p class = center-block-text>Great job! You are done with practice trials<br>You are about to start official trials.<br> <br> Problem <strong>1</strong> out of 25 problems</p></div>","0","","","","","","","","","","","","","","","","","","","","","","","","","",""
"","","","","","single-stim-button","148","1167866","0.0-3.0-10.0-0.0","62feda7fd4551fe2fc91be5f","D2","batch4","tol_tohand","14832","","","","","","","","","tol_peg_1","14832","14832","0","[[1,0,0],[3,0],[0]]","1","[[1,3,0],[2,0],[0]]","0","0","","","","","","3","","","","",""
"","","","","","single-stim-button","149","1173274","0.0-3.0-10.0-1.0","62feda7fd4551fe2fc91be5f","D2","batch4","tol_toboard","5406","","","","","","","","","tol_peg_2","5406","5406","0","[[1,0,0],[3,2],[0]]","1","[[1,3,0],[2,0],[0]]","0","0","","","","","","3","","","","",""
"","","","","","single-stim-button","150","1173794","0.0-3.0-10.1-0.1","62feda7fd4551fe2fc91be5f","D2","batch4","tol_tohand","519","","","","","","","","","tol_peg_2","519","519","0","[[1,0,0],[3,0],[0]]","2","[[1,3,0],[2,0],[0]]","0","0","","","","","","3","","","","",""
"","","","","","single-stim-button","151","1175194","0.0-3.0-10.1-1.1","62feda7fd4551fe2fc91be5f","D2","batch4","tol_toboard","1399","","","","","","","","","tol_peg_3","1399","1399","0","[[1,0,0],[3,0],[2]]","2","[[1,3,0],[2,0],[0]]","0","0","","","","","","3","","","","",""
"","","","","","single-stim-button","152","1175889","0.0-3.0-10.2-0.2","62feda7fd4551fe2fc91be5f","D2","batch4","tol_tohand","694","","","","","","","","","tol_peg_2","694","694","0","[[1,0,0],[0,0],[2]]","3","[[1,3,0],[2,0],[0]]","0","0","","","","","","3","","","","",""
"","","","","","single-stim-button","153","1177378","0.0-3.0-10.2-1.2","62feda7fd4551fe2fc91be5f","D2","batch4","tol_toboard","1488","","","","","","","","","tol_peg_1","1488","1488","0","[[1,3,0],[0,0],[2]]","3","[[1,3,0],[2,0],[0]]","0","0","","","","","","3","","","","",""
"","","","","","single-stim-button","154","1178778","0.0-3.0-10.3-0.3","62feda7fd4551fe2fc91be5f","D2","batch4","tol_tohand","1399","","","","","","","","","tol_peg_3","1399","1399","0","[[1,3,0],[0,0],[0]]","4","[[1,3,0],[2,0],[0]]","0","0","","","","","","3","","","","",""
"","","","","","single-stim-button","155","1179722","0.0-3.0-10.3-1.3","62feda7fd4551fe2fc91be5f","D2","batch4","tol_toboard","943","","","","","","","","","tol_peg_2","943","943","0","[[1,3,0],[2,0],[0]]","4","[[1,3,0],[2,0],[0]]","0","0","","","","","","3","","","","",""
"","","","","","poldrack-single-stim","156","1180740","0.0-3.0-11.0","62feda7fd4551fe2fc91be5f","D2","batch4","tol_feedback","-1","","","","","true","","","","","1000","1000","500","","","","","","-1","none","true","14832","17444","","","","","",""
"","","","","","html-button-response","157","1182162","0.0-3.0-12.0","62feda7fd4551fe2fc91be5f","D2","batch4","tol_trial_num","1420.7999999970198","<div class = centerbox><p class = center-block-text>problem <strong>2</strong> out of 25 problems</p></div>","0","","","","","","","","","","","","","","","","","","","","","","","","","",""
"","","","","","single-stim-button","158","1191642","0.0-3.0-13.0-0.0","62feda7fd4551fe2fc91be5f","D2","batch4","tol_tohand","9479","","","","","","","","","tol_peg_1","9479","9479","0","[[1,0,0],[3,0],[0]]","1","[[2,1,3],[0,0],[0]]","1","0","","","","","","5","","","","",""
"","","","","","single-stim-button","159","1199291","0.0-3.0-13.0-1.0","62feda7fd4551fe2fc91be5f","D2","batch4","tol_toboard","7647","","","","","","","","","tol_peg_3","7647","7647","0","[[1,0,0],[3,0],[2]]","1","[[2,1,3],[0,0],[0]]","1","0","","","","","","5","","","","",""
"","","","","","single-stim-button","160","1200210","0.0-3.0-13.1-0.1","62feda7fd4551fe2fc91be5f","D2","batch4","tol_tohand","919","","","","","","","","","tol_peg_1","919","919","0","[[0,0,0],[3,0],[2]]","2","[[2,1,3],[0,0],[0]]","1","0","","","","","","5","","","","",""
"","","","","","single-stim-button","161","1203026","0.0-3.0-13.1-1.1","62feda7fd4551fe2fc91be5f","D2","batch4","tol_toboard","2815","","","","","","","","","tol_peg_2","2815","2815","0","[[0,0,0],[3,1],[2]]","2","[[2,1,3],[0,0],[0]]","1","0","","","","","","5","","","","",""
"","","","","","single-stim-button","162","1203914","0.0-3.0-13.2-0.2","62feda7fd4551fe2fc91be5f","D2","batch4","tol_tohand","887","","","","","","","","","tol_peg_3","887","887","0","[[0,0,0],[3,1],[0]]","3","[[2,1,3],[0,0],[0]]","1","0","","","","","","5","","","","",""
"","","","","","single-stim-button","163","1205098","0.0-3.0-13.2-1.2","62feda7fd4551fe2fc91be5f","D2","batch4","tol_toboard","1183","","","","","","","","","tol_peg_1","1183","1183","0","[[2,0,0],[3,1],[0]]","3","[[2,1,3],[0,0],[0]]","1","0","","","","","","5","","","","",""
"","","","","","single-stim-button","164","1206010","0.0-3.0-13.3-0.3","62feda7fd4551fe2fc91be5f","D2","batch4","tol_tohand","911","","","","","","","","","tol_peg_2","911","911","0","[[2,0,0],[3,0],[0]]","4","[[2,1,3],[0,0],[0]]","1","0","","","","","","5","","","","",""
"","","","","","single-stim-button","165","1207250","0.0-3.0-13.3-1.3","62feda7fd4551fe2fc91be5f","D2","batch4","tol_toboard","1239","","","","","","","","","tol_peg_1","1239","1239","0","[[2,1,0],[3,0],[0]]","4","[[2,1,3],[0,0],[0]]","1","0","","","","","","5","","","","",""
"","","","","","single-stim-button","166","1208058","0.0-3.0-13.4-0.4","62feda7fd4551fe2fc91be5f","D2","batch4","tol_tohand","807","","","","","","","","","tol_peg_2","807","807","0","[[2,1,0],[0,0],[0]]","5","[[2,1,3],[0,0],[0]]","1","0","","","","","","5","","","","",""
"","","","","","single-stim-button","167","1208938","0.0-3.0-13.4-1.4","62feda7fd4551fe2fc91be5f","D2","batch4","tol_toboard","879","","","","","","","","","tol_peg_1","879","879","0","[[2,1,3],[0,0],[0]]","5","[[2,1,3],[0,0],[0]]","1","0","","","","","","5","","","","",""
"","","","","","poldrack-single-stim","168","1209946","0.0-3.0-14.0","62feda7fd4551fe2fc91be5f","D2","batch4","tol_feedback","-1","","","","","true","","","","","1000","1000","500","","","","","","-1","none","true","9479","13003","","","","","",""
"","","","","","html-button-response","169","1211010","0.0-3.0-15.0","62feda7fd4551fe2fc91be5f","D2","batch4","tol_trial_num","1062.199999988079","<div class = centerbox><p class = center-block-text>problem <strong>3</strong> out of 25 problems</p></div>","0","","","","","","","","","","","","","","","","","","","","","","","","","",""
"","","","","","single-stim-button","170","1217258","0.0-3.0-16.0-0.0","62feda7fd4551fe2fc91be5f","D2","batch4","tol_tohand","6247","","","","","","","","","tol_peg_1","6247","6247","0","[[2,0,0],[0,0],[1]]","1","[[1,2,0],[3,0],[0]]","2","0","","","","","","4","","","","",""
"","","","","","single-stim-button","171","1219570","0.0-3.0-16.0-1.0","62feda7fd4551fe2fc91be5f","D2","batch4","tol_toboard","2311","","","","","","","","","tol_peg_2","2311","2311","0","[[2,0,0],[3,0],[1]]","1","[[1,2,0],[3,0],[0]]","2","0","","","","","","4","","","","",""
"","","","","","single-stim-button","172","1224147","0.0-3.0-16.1-0.1","62feda7fd4551fe2fc91be5f","D2","batch4","tol_tohand","4575","","","","","","","","","tol_peg_1","4575","4575","0","[[0,0,0],[3,0],[1]]","2","[[1,2,0],[3,0],[0]]","2","0","","","","","","4","","","","",""
"","","","","","single-stim-button","173","1227162","0.0-3.0-16.1-1.1","62feda7fd4551fe2fc91be5f","D2","batch4","tol_toboard","3015","","","","","","","","","tol_peg_2","3015","3015","0","[[0,0,0],[3,2],[1]]","2","[[1,2,0],[3,0],[0]]","2","0","","","","","","4","","","","",""
"","","","","","single-stim-button","174","1227963","0.0-3.0-16.2-0.2","62feda7fd4551fe2fc91be5f","D2","batch4","tol_tohand","799","","","","","","","","","tol_peg_3","799","799","0","[[0,0,0],[3,2],[0]]","3","[[1,2,0],[3,0],[0]]","2","0","","","","","","4","","","","",""
"","","","","","single-stim-button","175","1229123","0.0-3.0-16.2-1.2","62feda7fd4551fe2fc91be5f","D2","batch4","tol_toboard","1159","","","","","","","","","tol_peg_1","1159","1159","0","[[1,0,0],[3,2],[0]]","3","[[1,2,0],[3,0],[0]]","2","0","","","","","","4","","","","",""
"","","","","","single-stim-button","176","1229722","0.0-3.0-16.3-0.3","62feda7fd4551fe2fc91be5f","D2","batch4","tol_tohand","599","","","","","","","","","tol_peg_2","599","599","0","[[1,0,0],[3,0],[0]]","4","[[1,2,0],[3,0],[0]]","2","0","","","","","","4","","","","",""
"","","","","","single-stim-button","177","1230667","0.0-3.0-16.3-1.3","62feda7fd4551fe2fc91be5f","D2","batch4","tol_toboard","943","","","","","","","","","tol_peg_1","943","943","0","[[1,2,0],[3,0],[0]]","4","[[1,2,0],[3,0],[0]]","2","0","","","","","","4","","","","",""
"","","","","","poldrack-single-stim","178","1231671","0.0-3.0-17.0","62feda7fd4551fe2fc91be5f","D2","batch4","tol_feedback","-1","","","","","true","","","","","1000","1000","500","","","","","","-1","none","true","6247","12220","","","","","",""
"","","","","","html-button-response","179","1244930","0.0-3.0-18.0","62feda7fd4551fe2fc91be5f","D2","batch4","tol_trial_num","13257.39999999106","<div class = centerbox><p class = center-block-text>problem <strong>4</strong> out of 25 problems</p></div>","0","","","","","","","","","","","","","","","","","","","","","","","","","",""
"","","","","","single-stim-button","180","1256490","0.0-3.0-19.0-0.0","62feda7fd4551fe2fc91be5f","D2","batch4","tol_tohand","11559","","","","","","","","","tol_peg_2","11559","11559","0","[[3,0,0],[2,0],[0]]","1","[[3,0,0],[1,0],[2]]","3","0","","","","","","3","","","","",""
"","","","","","single-stim-button","181","1259539","0.0-3.0-19.0-1.0","62feda7fd4551fe2fc91be5f","D2","batch4","tol_toboard","3047","","","","","","","","","tol_peg_3","3047","3047","0","[[3,0,0],[2,0],[1]]","1","[[3,0,0],[1,0],[2]]","3","0","","","","","","3","","","","",""
"","","","","","single-stim-button","182","1266075","0.0-3.0-19.1-0.1","62feda7fd4551fe2fc91be5f","D2","batch4","tol_tohand","6535","","","","","","","","","tol_peg_2","6535","6535","0","[[3,0,0],[0,0],[1]]","2","[[3,0,0],[1,0],[2]]","3","0","","","","","","3","","","","",""
"","","","","","single-stim-button","183","1269449","0.0-3.0-19.1-1.1","62feda7fd4551fe2fc91be5f","D2","batch4","tol_toboard","3374","","","","","","","","","tol_peg_1","3374","3374","0","[[3,2,0],[0,0],[1]]","2","[[3,0,0],[1,0],[2]]","3","0","","","","","","3","","","","",""
"","","","","","single-stim-button","184","1270681","0.0-3.0-19.2-0.2","62feda7fd4551fe2fc91be5f","D2","batch4","tol_tohand","1231","","","","","","","","","tol_peg_3","1231","1231","0","[[3,2,0],[0,0],[0]]","3","[[3,0,0],[1,0],[2]]","3","0","","","","","","3","","","","",""
"","","","","","single-stim-button","185","1271457","0.0-3.0-19.2-1.2","62feda7fd4551fe2fc91be5f","D2","batch4","tol_toboard","775","","","","","","","","","tol_peg_2","775","775","0","[[3,2,0],[1,0],[0]]","3","[[3,0,0],[1,0],[2]]","3","0","","","","","","3","","","","",""
"","","","","","single-stim-button","186","1272561","0.0-3.0-19.3-0.3","62feda7fd4551fe2fc91be5f","D2","batch4","tol_tohand","1103","","","","","","","","","tol_peg_1","1103","1103","0","[[3,0,0],[1,0],[0]]","4","[[3,0,0],[1,0],[2]]","3","0","","","","","","3","","","","",""
"","","","","","single-stim-button","187","1273921","0.0-3.0-19.3-1.3","62feda7fd4551fe2fc91be5f","D2","batch4","tol_toboard","1359","","","","","","","","","tol_peg_3","1359","1359","0","[[3,0,0],[1,0],[2]]","4","[[3,0,0],[1,0],[2]]","3","0","","","","","","3","","","","",""
"","","","","","poldrack-single-stim","188","1274930","0.0-3.0-20.0","62feda7fd4551fe2fc91be5f","D2","batch4","tol_feedback","-1","","","","","true","","","","","1000","1000","500","","","","","","-1","none","true","11559","20428","","","","","",""
"","","","","","html-button-response","189","1276465","0.0-3.0-21.0","62feda7fd4551fe2fc91be5f","D2","batch4","tol_trial_num","1533.6000000089407","<div class = centerbox><p class = center-block-text>problem <strong>5</strong> out of 25 problems</p></div>","0","","","","","","","","","","","","","","","","","","","","","","","","","",""
"","","","","","single-stim-button","190","1285841","0.0-3.0-22.0-0.0","62feda7fd4551fe2fc91be5f","D2","batch4","tol_tohand","9375","","","","","","","","","tol_peg_1","9375","9375","0","[[0,0,0],[2,0],[3]]","1","[[0,0,0],[1,2],[3]]","4","0","","","","","","7","","","","",""
"","","","","","single-stim-button","191","1288409","0.0-3.0-22.0-1.0","62feda7fd4551fe2fc91be5f","D2","batch4","tol_toboard","2567","","","","","","","","","tol_peg_1","2567","2567","0","[[1,0,0],[2,0],[3]]","1","[[0,0,0],[1,2],[3]]","4","0","","","","","","7","","","","",""
"","","","","","single-stim-button","192","1291473","0.0-3.0-22.1-0.1","62feda7fd4551fe2fc91be5f","D2","batch4","tol_tohand","3063","","","","","","","","","tol_peg_2","3063","3063","0","[[1,0,0],[0,0],[3]]","2","[[0,0,0],[1,2],[3]]","4","0","","","","","","7","","","","",""
"","","","","","single-stim-button","193","1292353","0.0-3.0-22.1-1.1","62feda7fd4551fe2fc91be5f","D2","batch4","tol_toboard","879","","","","","","","","","tol_peg_1","879","879","0","[[1,2,0],[0,0],[3]]","2","[[0,0,0],[1,2],[3]]","4","0","","","","","","7","","","","",""
"","","","","","single-stim-button","194","1296018","0.0-3.0-22.2-0.2","62feda7fd4551fe2fc91be5f","D2","batch4","tol_tohand","3663","","","","","","","","","tol_peg_1","3663","3663","0","[[1,0,0],[0,0],[3]]","3","[[0,0,0],[1,2],[3]]","4","0","","","","","","7","","","","",""
"","","","","","single-stim-button","195","1296697","0.0-3.0-22.2-1.2","62feda7fd4551fe2fc91be5f","D2","batch4","tol_toboard","679","","","","","","","","","tol_peg_2","679","679","0","[[1,0,0],[2,0],[3]]","3","[[0,0,0],[1,2],[3]]","4","0","","","","","","7","","","","",""
"","","","","","single-stim-button","196","1297313","0.0-3.0-22.3-0.3","62feda7fd4551fe2fc91be5f","D2","batch4","tol_tohand","615","","","","","","","","","tol_peg_3","615","615","0","[[1,0,0],[2,0],[0]]","4","[[0,0,0],[1,2],[3]]","4","0","","","","","","7","","","","",""
"","","","","","single-stim-button","197","1298265","0.0-3.0-22.3-1.3","62feda7fd4551fe2fc91be5f","D2","batch4","tol_toboard","950","","","","","","","","","tol_peg_1","950","950","0","[[1,3,0],[2,0],[0]]","4","[[0,0,0],[1,2],[3]]","4","0","","","","","","7","","","","",""
"","","","","","single-stim-button","198","1301233","0.0-3.0-22.4-0.4","62feda7fd4551fe2fc91be5f","D2","batch4","tol_tohand","2968","","","","","","","","","tol_peg_1","2968","2968","0","[[1,0,0],[2,0],[0]]","5","[[0,0,0],[1,2],[3]]","4","0","","","","","","7","","","","",""
"","","","","","single-stim-button","199","1304609","0.0-3.0-22.4-1.4","62feda7fd4551fe2fc91be5f","D2","batch4","tol_toboard","3375","","","","","","","","","tol_peg_2","3375","3375","0","[[1,0,0],[2,3],[0]]","5","[[0,0,0],[1,2],[3]]","4","0","","","","","","7","","","","",""
"","","","","","single-stim-button","200","1305737","0.0-3.0-22.5-0.5","62feda7fd4551fe2fc91be5f","D2","batch4","tol_tohand","1126","","","","","","","","","tol_peg_2","1126","1126","0","[[1,0,0],[2,0],[0]]","6","[[0,0,0],[1,2],[3]]","4","0","","","","","","7","","","","",""
"","","","","","single-stim-button","201","1306369","0.0-3.0-22.5-1.5","62feda7fd4551fe2fc91be5f","D2","batch4","tol_toboard","630","","","","","","","","","tol_peg_3","630","630","0","[[1,0,0],[2,0],[3]]","6","[[0,0,0],[1,2],[3]]","4","0","","","","","","7","","","","",""
"","","","","","single-stim-button","202","1307217","0.0-3.0-22.6-0.6","62feda7fd4551fe2fc91be5f","D2","batch4","tol_tohand","846","","","","","","","","","tol_peg_1","846","846","0","[[0,0,0],[2,0],[3]]","7","[[0,0,0],[1,2],[3]]","4","0","","","","","","7","","","","",""
"","","","","","single-stim-button","203","1310105","0.0-3.0-22.6-1.6","62feda7fd4551fe2fc91be5f","D2","batch4","tol_toboard","2888","","","","","","","","","tol_peg_2","2888","2888","0","[[0,0,0],[2,1],[3]]","7","[[0,0,0],[1,2],[3]]","4","0","","","","","","7","","","","",""
"","","","","","single-stim-button","204","1311009","0.0-3.0-22.7-0.7","62feda7fd4551fe2fc91be5f","D2","batch4","tol_tohand","903","","","","","","","","","tol_peg_2","903","903","0","[[0,0,0],[2,0],[3]]","8","[[0,0,0],[1,2],[3]]","4","0","","","","","","7","","","","",""
"","","","","","single-stim-button","205","1316097","0.0-3.0-22.7-1.7","62feda7fd4551fe2fc91be5f","D2","batch4","tol_toboard","5086","","","","","","","","","tol_peg_1","5086","5086","0","[[1,0,0],[2,0],[3]]","8","[[0,0,0],[1,2],[3]]","4","0","","","","","","7","","","","",""
"","","","","","single-stim-button","206","1324441","0.0-3.0-22.8-0.8","62feda7fd4551fe2fc91be5f","D2","batch4","tol_tohand","8343","","","","","","","","","tol_peg_2","8343","8343","0","[[1,0,0],[0,0],[3]]","9","[[0,0,0],[1,2],[3]]","4","0","","","","","","7","","","","",""
"","","","","","single-stim-button","207","1325761","0.0-3.0-22.8-1.8","62feda7fd4551fe2fc91be5f","D2","batch4","tol_toboard","1319","","","","","","","","","tol_peg_1","1319","1319","0","[[1,2,0],[0,0],[3]]","9","[[0,0,0],[1,2],[3]]","4","0","","","","","","7","","","","",""
"","","","","","single-stim-button","208","1326857","0.0-3.0-22.9-0.9","62feda7fd4551fe2fc91be5f","D2","batch4","tol_tohand","1095","","","","","","","","","tol_peg_1","1095","1095","0","[[1,0,0],[0,0],[3]]","10","[[0,0,0],[1,2],[3]]","4","0","","","","","","7","","","","",""
"","","","","","single-stim-button","209","1329398","0.0-3.0-22.9-1.9","62feda7fd4551fe2fc91be5f","D2","batch4","tol_toboard","2539","","","","","","","","","tol_peg_2","2539","2539","0","[[1,0,0],[2,0],[3]]","10","[[0,0,0],[1,2],[3]]","4","0","","","","","","7","","","","",""
"","","","","","single-stim-button","210","1330462","0.0-3.0-22.10-0.10","62feda7fd4551fe2fc91be5f","D2","batch4","tol_tohand","1063","","","","","","","","","tol_peg_1","1063","1063","0","[[0,0,0],[2,0],[3]]","11","[[0,0,0],[1,2],[3]]","4","0","","","","","","7","","","","",""
"","","","","","single-stim-button","211","1330645","0.0-3.0-22.10-1.10","62feda7fd4551fe2fc91be5f","D2","batch4","tol_toboard","183","","","","","","","","","tol_peg_1","183","183","0","[[1,0,0],[2,0],[3]]","11","[[0,0,0],[1,2],[3]]","4","0","","","","","","7","","","","",""
"","","","","","single-stim-button","212","1334422","0.0-3.0-22.11-0.11","62feda7fd4551fe2fc91be5f","D2","batch4","tol_tohand","3775","","","","","","","","","tol_peg_2","3775","3775","0","[[1,0,0],[0,0],[3]]","12","[[0,0,0],[1,2],[3]]","4","0","","","","","","7","","","","",""
"","","","","","single-stim-button","213","1334614","0.0-3.0-22.11-1.11","62feda7fd4551fe2fc91be5f","D2","batch4","tol_toboard","191","","","","","","","","","tol_peg_2","191","191","0","[[1,0,0],[2,0],[3]]","12","[[0,0,0],[1,2],[3]]","4","0","","","","","","7","","","","",""
"","","","","","single-stim-button","214","1334789","0.0-3.0-22.12-0.12","62feda7fd4551fe2fc91be5f","D2","batch4","tol_tohand","174","","","","","","","","","tol_peg_2","174","174","0","[[1,0,0],[0,0],[3]]","13","[[0,0,0],[1,2],[3]]","4","0","","","","","","7","","","","",""
"","","","","","single-stim-button","215","1341565","0.0-3.0-22.12-1.12","62feda7fd4551fe2fc91be5f","D2","batch4","tol_toboard","6775","","","","","","","","","tol_peg_1","6775","6775","0","[[1,2,0],[0,0],[3]]","13","[[0,0,0],[1,2],[3]]","4","0","","","","","","7","","","","",""
"","","","","","single-stim-button","216","1344509","0.0-3.0-22.13-0.13","62feda7fd4551fe2fc91be5f","D2","batch4","tol_tohand","2943","","","","","","","","","tol_peg_1","2943","2943","0","[[1,0,0],[0,0],[3]]","14","[[0,0,0],[1,2],[3]]","4","0","","","","","","7","","","","",""
"","","","","","single-stim-button","217","1344661","0.0-3.0-22.13-1.13","62feda7fd4551fe2fc91be5f","D2","batch4","tol_toboard","151","","","","","","","","","tol_peg_1","151","151","0","[[1,2,0],[0,0],[3]]","14","[[0,0,0],[1,2],[3]]","4","0","","","","","","7","","","","",""
"","","","","","single-stim-button","218","1345653","0.0-3.0-22.14-0.14","62feda7fd4551fe2fc91be5f","D2","batch4","tol_tohand","991","","","","","","","","","tol_peg_1","991","991","0","[[1,0,0],[0,0],[3]]","15","[[0,0,0],[1,2],[3]]","4","0","","","","","","7","","","","",""
"","","","","","single-stim-button","219","1345893","0.0-3.0-22.14-1.14","62feda7fd4551fe2fc91be5f","D2","batch4","tol_toboard","239","","","","","","","","","tol_peg_1","239","239","0","[[1,2,0],[0,0],[3]]","15","[[0,0,0],[1,2],[3]]","4","0","","","","","","7","","","","",""
"","","","","","single-stim-button","220","1347806","0.0-3.0-22.15-0.15","62feda7fd4551fe2fc91be5f","D2","batch4","tol_tohand","1911","","","","","","","","","tol_peg_1","1911","1911","0","[[1,0,0],[0,0],[3]]","16","[[0,0,0],[1,2],[3]]","4","0","","","","","","7","","","","",""
"","","","","","single-stim-button","221","1350310","0.0-3.0-22.15-1.15","62feda7fd4551fe2fc91be5f","D2","batch4","tol_toboard","2503","","","","","","","","","tol_peg_1","2503","2503","0","[[1,2,0],[0,0],[3]]","16","[[0,0,0],[1,2],[3]]","4","0","","","","","","7","","","","",""
"","","","","","single-stim-button","222","1353925","0.0-3.0-22.16-0.16","62feda7fd4551fe2fc91be5f","D2","batch4","tol_tohand","3615","","","","","","","","","tol_peg_3","3615","3615","0","[[1,2,0],[0,0],[0]]","17","[[0,0,0],[1,2],[3]]","4","0","","","","","","7","","","","",""
"","","","","","single-stim-button","223","1356021","0.0-3.0-22.16-1.16","62feda7fd4551fe2fc91be5f","D2","batch4","tol_toboard","2095","","","","","","","","","tol_peg_2","2095","2095","0","[[1,2,0],[3,0],[0]]","17","[[0,0,0],[1,2],[3]]","4","0","","","","","","7","","","","",""
"","","","","","single-stim-button","224","1364733","0.0-3.0-22.17-0.17","62feda7fd4551fe2fc91be5f","D2","batch4","tol_tohand","8711","","","","","","","","","tol_peg_1","8711","8711","0","[[1,0,0],[3,0],[0]]","18","[[0,0,0],[1,2],[3]]","4","0","","","","","","7","","","","",""
"","","","","","single-stim-button","225","1367365","0.0-3.0-22.17-1.17","62feda7fd4551fe2fc91be5f","D2","batch4","tol_toboard","2630","","","","","","","","","tol_peg_3","2630","2630","0","[[1,0,0],[3,0],[2]]","18","[[0,0,0],[1,2],[3]]","4","0","","","","","","7","","","","",""
"","","","","","single-stim-button","226","1370421","0.0-3.0-22.18-0.18","62feda7fd4551fe2fc91be5f","D2","batch4","tol_tohand","3055","","","","","","","","","tol_peg_1","3055","3055","0","[[0,0,0],[3,0],[2]]","19","[[0,0,0],[1,2],[3]]","4","0","","","","","","7","","","","",""
"","","","","","single-stim-button","227","1371565","0.0-3.0-22.18-1.18","62feda7fd4551fe2fc91be5f","D2","batch4","tol_toboard","1142","","","","","","","","","tol_peg_2","1142","1142","0","[[0,0,0],[3,1],[2]]","19","[[0,0,0],[1,2],[3]]","4","0","","","","","","7","","","","",""
"","","","","","single-stim-button","228","1372669","0.0-3.0-22.19-0.19","62feda7fd4551fe2fc91be5f","D2","batch4","tol_tohand","1104","","","","","","","","","tol_peg_2","1104","1104","0","[[0,0,0],[3,0],[2]]","20","[[0,0,0],[1,2],[3]]","4","0","","","","","","7","","","","",""
"","","","","","single-stim-button","229","1373853","0.0-3.0-22.19-1.19","62feda7fd4551fe2fc91be5f","D2","batch4","tol_toboard","1183","","","","","","","","","tol_peg_1","1183","1183","0","[[1,0,0],[3,0],[2]]","20","[[0,0,0],[1,2],[3]]","4","0","","","","","","7","","","","",""
"","","","","","single-stim-button","230","1374942","0.0-3.0-22.20-0.20","62feda7fd4551fe2fc91be5f","D2","batch4","tol_tohand","1088","","","","","","","","","tol_peg_2","1088","1088","0","[[1,0,0],[0,0],[2]]","21","[[0,0,0],[1,2],[3]]","4","0","","","","","","7","","","","",""
"","","","","","single-stim-button","231","1376237","0.0-3.0-22.20-1.20","62feda7fd4551fe2fc91be5f","D2","batch4","tol_toboard","1294","","","","","","","","","tol_peg_1","1294","1294","0","[[1,3,0],[0,0],[2]]","21","[[0,0,0],[1,2],[3]]","4","0","","","","","","7","","","","",""
"","","","","","single-stim-button","232","1376502","0.0-3.0-22.21-0.21","62feda7fd4551fe2fc91be5f","D2","batch4","tol_tohand","264","","","","","","","","","tol_peg_1","264","264","0","[[1,0,0],[0,0],[2]]","22","[[0,0,0],[1,2],[3]]","4","0","","","","","","7","","","","",""
"","","","","","single-stim-button","233","1377013","0.0-3.0-22.21-1.21","62feda7fd4551fe2fc91be5f","D2","batch4","tol_toboard","510","","","","","","","","","tol_peg_1","510","510","0","[[1,3,0],[0,0],[2]]","22","[[0,0,0],[1,2],[3]]","4","0","","","","","","7","","","","",""
"","","","","","single-stim-button","234","1378078","0.0-3.0-22.22-0.22","62feda7fd4551fe2fc91be5f","D2","batch4","tol_tohand","1063","","","","","","","","","tol_peg_1","1063","1063","0","[[1,0,0],[0,0],[2]]","23","[[0,0,0],[1,2],[3]]","4","0","","","","","","7","","","","",""
"","","","","","single-stim-button","235","1378485","0.0-3.0-22.22-1.22","62feda7fd4551fe2fc91be5f","D2","batch4","tol_toboard","407","","","","","","","","","tol_peg_1","407","407","0","[[1,3,0],[0,0],[2]]","23","[[0,0,0],[1,2],[3]]","4","0","","","","","","7","","","","",""
"","","","","","single-stim-button","236","1378893","0.0-3.0-22.23-0.23","62feda7fd4551fe2fc91be5f","D2","batch4","tol_tohand","407","","","","","","","","","tol_peg_1","407","407","0","[[1,0,0],[0,0],[2]]","24","[[0,0,0],[1,2],[3]]","4","0","","","","","","7","","","","",""
"","","","","","single-stim-button","237","1383573","0.0-3.0-22.23-1.23","62feda7fd4551fe2fc91be5f","D2","batch4","tol_toboard","4679","","","","","","","","","tol_peg_1","4679","4679","0","[[1,3,0],[0,0],[2]]","24","[[0,0,0],[1,2],[3]]","4","0","","","","","","7","","","","",""
"","","","","","single-stim-button","238","1387533","0.0-3.0-22.24-0.24","62feda7fd4551fe2fc91be5f","D2","batch4","tol_tohand","3959","","","","","","","","","tol_peg_1","3959","3959","0","[[1,0,0],[0,0],[2]]","25","[[0,0,0],[1,2],[3]]","4","0","","","","","","7","","","","",""
"","","","","","single-stim-button","239","1387725","0.0-3.0-22.24-1.24","62feda7fd4551fe2fc91be5f","D2","batch4","tol_toboard","191","","","","","","","","","tol_peg_1","191","191","0","[[1,3,0],[0,0],[2]]","25","[[0,0,0],[1,2],[3]]","4","0","","","","","","7","","","","",""
"","","","","","single-stim-button","240","1387949","0.0-3.0-22.25-0.25","62feda7fd4551fe2fc91be5f","D2","batch4","tol_tohand","223","","","","","","","","","tol_peg_1","223","223","0","[[1,0,0],[0,0],[2]]","26","[[0,0,0],[1,2],[3]]","4","0","","","","","","7","","","","",""
"","","","","","single-stim-button","241","1388125","0.0-3.0-22.25-1.25","62feda7fd4551fe2fc91be5f","D2","batch4","tol_toboard","174","","","","","","","","","tol_peg_1","174","174","0","[[1,3,0],[0,0],[2]]","26","[[0,0,0],[1,2],[3]]","4","0","","","","","","7","","","","",""
"","","","","","single-stim-button","242","1388592","0.0-3.0-22.26-0.26","62feda7fd4551fe2fc91be5f","D2","batch4","tol_tohand","466","","","","","","","","","tol_peg_1","466","466","0","[[1,0,0],[0,0],[2]]","27","[[0,0,0],[1,2],[3]]","4","0","","","","","","7","","","","",""
"","","","","","single-stim-button","243","1388768","0.0-3.0-22.26-1.26","62feda7fd4551fe2fc91be5f","D2","batch4","tol_toboard","174","","","","","","","","","tol_peg_1","174","174","0","[[1,3,0],[0,0],[2]]","27","[[0,0,0],[1,2],[3]]","4","0","","","","","","7","","","","",""
"","","","","","single-stim-button","244","1390032","0.0-3.0-22.27-0.27","62feda7fd4551fe2fc91be5f","D2","batch4","tol_tohand","1262","","","","","","","","","tol_peg_1","1262","1262","0","[[1,0,0],[0,0],[2]]","28","[[0,0,0],[1,2],[3]]","4","0","","","","","","7","","","","",""
"","","","","","single-stim-button","245","1390215","0.0-3.0-22.27-1.27","62feda7fd4551fe2fc91be5f","D2","batch4","tol_toboard","182","","","","","","","","","tol_peg_1","182","182","0","[[1,3,0],[0,0],[2]]","28","[[0,0,0],[1,2],[3]]","4","0","","","","","","7","","","","",""
"","","","","","single-stim-button","246","1390424","0.0-3.0-22.28-0.28","62feda7fd4551fe2fc91be5f","D2","batch4","tol_tohand","207","","","","","","","","","tol_peg_1","207","207","0","[[1,0,0],[0,0],[2]]","29","[[0,0,0],[1,2],[3]]","4","0","","","","","","7","","","","",""
"","","","","","single-stim-button","247","1390664","0.0-3.0-22.28-1.28","62feda7fd4551fe2fc91be5f","D2","batch4","tol_toboard","238","","","","","","","","","tol_peg_1","238","238","0","[[1,3,0],[0,0],[2]]","29","[[0,0,0],[1,2],[3]]","4","0","","","","","","7","","","","",""
"","","","","","single-stim-button","248","1391319","0.0-3.0-22.29-0.29","62feda7fd4551fe2fc91be5f","D2","batch4","tol_tohand","655","","","","","","","","","tol_peg_1","655","655","0","[[1,0,0],[0,0],[2]]","30","[[0,0,0],[1,2],[3]]","4","0","","","","","","7","","","","",""
"","","","","","single-stim-button","249","1393519","0.0-3.0-22.29-1.29","62feda7fd4551fe2fc91be5f","D2","batch4","tol_toboard","2199","","","","","","","","","tol_peg_1","2199","2199","0","[[1,3,0],[0,0],[2]]","30","[[0,0,0],[1,2],[3]]","4","0","","","","","","7","","","","",""
"","","","","","single-stim-button","250","1393952","0.0-3.0-22.30-0.30","62feda7fd4551fe2fc91be5f","D2","batch4","tol_tohand","431","","","","","","","","","tol_peg_1","431","431","0","[[1,0,0],[0,0],[2]]","31","[[0,0,0],[1,2],[3]]","4","0","","","","","","7","","","","",""
"","","","","","single-stim-button","251","1394536","0.0-3.0-22.30-1.30","62feda7fd4551fe2fc91be5f","D2","batch4","tol_toboard","583","","","","","","","","","tol_peg_1","583","583","0","[[1,3,0],[0,0],[2]]","31","[[0,0,0],[1,2],[3]]","4","0","","","","","","7","","","","",""
"","","","","","single-stim-button","252","1396856","0.0-3.0-22.31-0.31","62feda7fd4551fe2fc91be5f","D2","batch4","tol_tohand","2318","","","","","","","","","tol_peg_1","2318","2318","0","[[1,0,0],[0,0],[2]]","32","[[0,0,0],[1,2],[3]]","4","0","","","","","","7","","","","",""
"","","","","","single-stim-button","253","1397000","0.0-3.0-22.31-1.31","62feda7fd4551fe2fc91be5f","D2","batch4","tol_toboard","143","","","","","","","","","tol_peg_1","143","143","0","[[1,3,0],[0,0],[2]]","32","[[0,0,0],[1,2],[3]]","4","0","","","","","","7","","","","",""
"","","","","","single-stim-button","254","1399967","0.0-3.0-22.32-0.32","62feda7fd4551fe2fc91be5f","D2","batch4","tol_tohand","2967","","","","","","","","","tol_peg_1","2967","2967","0","[[1,0,0],[0,0],[2]]","33","[[0,0,0],[1,2],[3]]","4","0","","","","","","7","","","","",""
"","","","","","single-stim-button","255","1400472","0.0-3.0-22.32-1.32","62feda7fd4551fe2fc91be5f","D2","batch4","tol_toboard","503","","","","","","","","","tol_peg_1","503","503","0","[[1,3,0],[0,0],[2]]","33","[[0,0,0],[1,2],[3]]","4","0","","","","","","7","","","","",""
"","","","","","single-stim-button","256","1400832","0.0-3.0-22.33-0.33","62feda7fd4551fe2fc91be5f","D2","batch4","tol_tohand","358","","","","","","","","","tol_peg_1","358","358","0","[[1,0,0],[0,0],[2]]","34","[[0,0,0],[1,2],[3]]","4","0","","","","","","7","","","","",""
"","","","","","single-stim-button","257","1400992","0.0-3.0-22.33-1.33","62feda7fd4551fe2fc91be5f","D2","batch4","tol_toboard","158","","","","","","","","","tol_peg_1","158","158","0","[[1,3,0],[0,0],[2]]","34","[[0,0,0],[1,2],[3]]","4","0","","","","","","7","","","","",""
"","","","","","single-stim-button","258","1401168","0.0-3.0-22.34-0.34","62feda7fd4551fe2fc91be5f","D2","batch4","tol_tohand","174","","","","","","","","","tol_peg_1","174","174","0","[[1,0,0],[0,0],[2]]","35","[[0,0,0],[1,2],[3]]","4","0","","","","","","7","","","","",""
"","","","","","single-stim-button","259","1401328","0.0-3.0-22.34-1.34","62feda7fd4551fe2fc91be5f","D2","batch4","tol_toboard","159","","","","","","","","","tol_peg_1","159","159","0","[[1,3,0],[0,0],[2]]","35","[[0,0,0],[1,2],[3]]","4","0","","","","","","7","","","","",""
"","","","","","single-stim-button","260","1401488","0.0-3.0-22.35-0.35","62feda7fd4551fe2fc91be5f","D2","batch4","tol_tohand","158","","","","","","","","","tol_peg_1","158","158","0","[[1,0,0],[0,0],[2]]","36","[[0,0,0],[1,2],[3]]","4","0","","","","","","7","","","","",""
"","","","","","single-stim-button","261","1401631","0.0-3.0-22.35-1.35","62feda7fd4551fe2fc91be5f","D2","batch4","tol_toboard","143","","","","","","","","","tol_peg_1","143","143","0","[[1,3,0],[0,0],[2]]","36","[[0,0,0],[1,2],[3]]","4","0","","","","","","7","","","","",""
"","","","","","single-stim-button","262","1401792","0.0-3.0-22.36-0.36","62feda7fd4551fe2fc91be5f","D2","batch4","tol_tohand","159","","","","","","","","","tol_peg_1","159","159","0","[[1,0,0],[0,0],[2]]","37","[[0,0,0],[1,2],[3]]","4","0","","","","","","7","","","","",""
"","","","","","single-stim-button","263","1401944","0.0-3.0-22.36-1.36","62feda7fd4551fe2fc91be5f","D2","batch4","tol_toboard","150","","","","","","","","","tol_peg_1","150","150","0","[[1,3,0],[0,0],[2]]","37","[[0,0,0],[1,2],[3]]","4","0","","","","","","7","","","","",""
"","","","","","single-stim-button","264","1402104","0.0-3.0-22.37-0.37","62feda7fd4551fe2fc91be5f","D2","batch4","tol_tohand","159","","","","","","","","","tol_peg_1","159","159","0","[[1,0,0],[0,0],[2]]","38","[[0,0,0],[1,2],[3]]","4","0","","","","","","7","","","","",""
"","","","","","single-stim-button","265","1402255","0.0-3.0-22.37-1.37","62feda7fd4551fe2fc91be5f","D2","batch4","tol_toboard","151","","","","","","","","","tol_peg_1","151","151","0","[[1,3,0],[0,0],[2]]","38","[[0,0,0],[1,2],[3]]","4","0","","","","","","7","","","","",""
"","","","","","single-stim-button","266","1402408","0.0-3.0-22.38-0.38","62feda7fd4551fe2fc91be5f","D2","batch4","tol_tohand","151","","","","","","","","","tol_peg_1","151","151","0","[[1,0,0],[0,0],[2]]","39","[[0,0,0],[1,2],[3]]","4","0","","","","","","7","","","","",""
"","","","","","single-stim-button","267","1402552","0.0-3.0-22.38-1.38","62feda7fd4551fe2fc91be5f","D2","batch4","tol_toboard","143","","","","","","","","","tol_peg_1","143","143","0","[[1,3,0],[0,0],[2]]","39","[[0,0,0],[1,2],[3]]","4","0","","","","","","7","","","","",""
"","","","","","single-stim-button","268","1402736","0.0-3.0-22.39-0.39","62feda7fd4551fe2fc91be5f","D2","batch4","tol_tohand","183","","","","","","","","","tol_peg_1","183","183","0","[[1,0,0],[0,0],[2]]","40","[[0,0,0],[1,2],[3]]","4","0","","","","","","7","","","","",""
"","","","","","single-stim-button","269","1402920","0.0-3.0-22.39-1.39","62feda7fd4551fe2fc91be5f","D2","batch4","tol_toboard","183","","","","","","","","","tol_peg_1","183","183","0","[[1,3,0],[0,0],[2]]","40","[[0,0,0],[1,2],[3]]","4","0","","","","","","7","","","","",""
"","","","","","single-stim-button","270","1403096","0.0-3.0-22.40-0.40","62feda7fd4551fe2fc91be5f","D2","batch4","tol_tohand","174","","","","","","","","","tol_peg_1","174","174","0","[[1,0,0],[0,0],[2]]","41","[[0,0,0],[1,2],[3]]","4","0","","","","","","7","","","","",""
"","","","","","single-stim-button","271","1403263","0.0-3.0-22.40-1.40","62feda7fd4551fe2fc91be5f","D2","batch4","tol_toboard","167","","","","","","","","","tol_peg_1","167","167","0","[[1,3,0],[0,0],[2]]","41","[[0,0,0],[1,2],[3]]","4","0","","","","","","7","","","","",""
"","","","","","single-stim-button","272","1403440","0.0-3.0-22.41-0.41","62feda7fd4551fe2fc91be5f","D2","batch4","tol_tohand","175","","","","","","","","","tol_peg_1","175","175","0","[[1,0,0],[0,0],[2]]","42","[[0,0,0],[1,2],[3]]","4","0","","","","","","7","","","","",""
"","","","","","single-stim-button","273","1403616","0.0-3.0-22.41-1.41","62feda7fd4551fe2fc91be5f","D2","batch4","tol_toboard","174","","","","","","","","","tol_peg_1","174","174","0","[[1,3,0],[0,0],[2]]","42","[[0,0,0],[1,2],[3]]","4","0","","","","","","7","","","","",""
"","","","","","single-stim-button","274","1403784","0.0-3.0-22.42-0.42","62feda7fd4551fe2fc91be5f","D2","batch4","tol_tohand","167","","","","","","","","","tol_peg_1","167","167","0","[[1,0,0],[0,0],[2]]","43","[[0,0,0],[1,2],[3]]","4","0","","","","","","7","","","","",""
"","","","","","single-stim-button","275","1403960","0.0-3.0-22.42-1.42","62feda7fd4551fe2fc91be5f","D2","batch4","tol_toboard","175","","","","","","","","","tol_peg_1","175","175","0","[[1,3,0],[0,0],[2]]","43","[[0,0,0],[1,2],[3]]","4","0","","","","","","7","","","","",""
"","","","","","single-stim-button","276","1404128","0.0-3.0-22.43-0.43","62feda7fd4551fe2fc91be5f","D2","batch4","tol_tohand","167","","","","","","","","","tol_peg_1","167","167","0","[[1,0,0],[0,0],[2]]","44","[[0,0,0],[1,2],[3]]","4","0","","","","","","7","","","","",""
"","","","","","single-stim-button","277","1404312","0.0-3.0-22.43-1.43","62feda7fd4551fe2fc91be5f","D2","batch4","tol_toboard","182","","","","","","","","","tol_peg_1","182","182","0","[[1,3,0],[0,0],[2]]","44","[[0,0,0],[1,2],[3]]","4","0","","","","","","7","","","","",""
"","","","","","single-stim-button","278","1404480","0.0-3.0-22.44-0.44","62feda7fd4551fe2fc91be5f","D2","batch4","tol_tohand","167","","","","","","","","","tol_peg_1","167","167","0","[[1,0,0],[0,0],[2]]","45","[[0,0,0],[1,2],[3]]","4","0","","","","","","7","","","","",""
"","","","","","single-stim-button","279","1404665","0.0-3.0-22.44-1.44","62feda7fd4551fe2fc91be5f","D2","batch4","tol_toboard","183","","","","","","","","","tol_peg_1","183","183","0","[[1,3,0],[0,0],[2]]","45","[[0,0,0],[1,2],[3]]","4","0","","","","","","7","","","","",""
"","","","","","single-stim-button","280","1404840","0.0-3.0-22.45-0.45","62feda7fd4551fe2fc91be5f","D2","batch4","tol_tohand","174","","","","","","","","","tol_peg_1","174","174","0","[[1,0,0],[0,0],[2]]","46","[[0,0,0],[1,2],[3]]","4","0","","","","","","7","","","","",""
"","","","","","single-stim-button","281","1405032","0.0-3.0-22.45-1.45","62feda7fd4551fe2fc91be5f","D2","batch4","tol_toboard","191","","","","","","","","","tol_peg_1","191","191","0","[[1,3,0],[0,0],[2]]","46","[[0,0,0],[1,2],[3]]","4","0","","","","","","7","","","","",""
"","","","","","single-stim-button","282","1407583","0.0-3.0-22.46-0.46","62feda7fd4551fe2fc91be5f","D2","batch4","tol_tohand","2551","","","","","","","","","tol_peg_3","2551","2551","0","[[1,3,0],[0,0],[0]]","47","[[0,0,0],[1,2],[3]]","4","0","","","","","","7","","","","",""
"","","","","","single-stim-button","283","1407808","0.0-3.0-22.46-1.46","62feda7fd4551fe2fc91be5f","D2","batch4","tol_toboard","223","","","","","","","","","tol_peg_3","223","223","0","[[1,3,0],[0,0],[2]]","47","[[0,0,0],[1,2],[3]]","4","0","","","","","","7","","","","",""
"","","","","","single-stim-button","284","1408280","0.0-3.0-22.47-0.47","62feda7fd4551fe2fc91be5f","D2","batch4","tol_tohand","471","","","","","","","","","tol_peg_3","471","471","0","[[1,3,0],[0,0],[0]]","48","[[0,0,0],[1,2],[3]]","4","0","","","","","","7","","","","",""
"","","","","","single-stim-button","285","1409687","0.0-3.0-22.47-1.47","62feda7fd4551fe2fc91be5f","D2","batch4","tol_toboard","1407","","","","","","","","","tol_peg_1","1407","1407","0","[[1,3,2],[0,0],[0]]","48","[[0,0,0],[1,2],[3]]","4","0","","","","","","7","","","","",""
"","","","","","single-stim-button","286","1411367","0.0-3.0-22.48-0.48","62feda7fd4551fe2fc91be5f","D2","batch4","tol_tohand","1679","","","","","","","","","tol_peg_1","1679","1679","0","[[1,3,0],[0,0],[0]]","49","[[0,0,0],[1,2],[3]]","4","0","","","","","","7","","","","",""
"","","","","","single-stim-button","287","1413823","0.0-3.0-22.48-1.48","62feda7fd4551fe2fc91be5f","D2","batch4","tol_toboard","2455","","","","","","","","","tol_peg_1","2455","2455","0","[[1,3,2],[0,0],[0]]","49","[[0,0,0],[1,2],[3]]","4","0","","","","","","7","","","","",""
"","","","","","single-stim-button","288","1415056","0.0-3.0-22.49-0.49","62feda7fd4551fe2fc91be5f","D2","batch4","tol_tohand","1231","","","","","","","","","tol_peg_1","1231","1231","0","[[1,3,0],[0,0],[0]]","50","[[0,0,0],[1,2],[3]]","4","0","","","","","","7","","","","",""
"","","","","","single-stim-button","289","1416039","0.0-3.0-22.49-1.49","62feda7fd4551fe2fc91be5f","D2","batch4","tol_toboard","983","","","","","","","","","tol_peg_2","983","983","0","[[1,3,0],[2,0],[0]]","50","[[0,0,0],[1,2],[3]]","4","0","","","","","","7","","","","",""
"","","","","","single-stim-button","290","1416672","0.0-3.0-22.50-0.50","62feda7fd4551fe2fc91be5f","D2","batch4","tol_tohand","632","","","","","","","","","tol_peg_1","632","632","0","[[1,0,0],[2,0],[0]]","51","[[0,0,0],[1,2],[3]]","4","0","","","","","","7","","","","",""
"","","","","","single-stim-button","291","1417528","0.0-3.0-22.50-1.50","62feda7fd4551fe2fc91be5f","D2","batch4","tol_toboard","854","","","","","","","","","tol_peg_3","854","854","0","[[1,0,0],[2,0],[3]]","51","[[0,0,0],[1,2],[3]]","4","0","","","","","","7","","","","",""
"","","","","","single-stim-button","292","1418360","0.0-3.0-22.51-0.51","62feda7fd4551fe2fc91be5f","D2","batch4","tol_tohand","831","","","","","","","","","tol_peg_1","831","831","0","[[0,0,0],[2,0],[3]]","52","[[0,0,0],[1,2],[3]]","4","0","","","","","","7","","","","",""
"","","","","","single-stim-button","293","1419863","0.0-3.0-22.51-1.51","62feda7fd4551fe2fc91be5f","D2","batch4","tol_toboard","1502","","","","","","","","","tol_peg_2","1502","1502","0","[[0,0,0],[2,1],[3]]","52","[[0,0,0],[1,2],[3]]","4","0","","","","","","7","","","","",""
"","","","","","single-stim-button","294","1421623","0.0-3.0-22.52-0.52","62feda7fd4551fe2fc91be5f","D2","batch4","tol_tohand","1759","","","","","","","","","tol_peg_2","1759","1759","0","[[0,0,0],[2,0],[3]]","53","[[0,0,0],[1,2],[3]]","4","0","","","","","","7","","","","",""
"","","","","","single-stim-button","295","1425023","0.0-3.0-22.52-1.52","62feda7fd4551fe2fc91be5f","D2","batch4","tol_toboard","3399","","","","","","","","","tol_peg_2","3399","3399","0","[[0,0,0],[2,1],[3]]","53","[[0,0,0],[1,2],[3]]","4","0","","","","","","7","","","","",""
"","","","","","single-stim-button","296","1427208","0.0-3.0-22.53-0.53","62feda7fd4551fe2fc91be5f","D2","batch4","tol_tohand","2183","","","","","","","","","tol_peg_2","2183","2183","0","[[0,0,0],[2,0],[3]]","54","[[0,0,0],[1,2],[3]]","4","0","","","","","","7","","","","",""
"","","","","","single-stim-button","297","1429783","0.0-3.0-22.53-1.53","62feda7fd4551fe2fc91be5f","D2","batch4","tol_toboard","2575","","","","","","","","","tol_peg_2","2575","2575","0","[[0,0,0],[2,1],[3]]","54","[[0,0,0],[1,2],[3]]","4","0","","","","","","7","","","","",""
"","","","","","single-stim-button","298","1430423","0.0-3.0-22.54-0.54","62feda7fd4551fe2fc91be5f","D2","batch4","tol_tohand","639","","","","","","","","","tol_peg_3","639","639","0","[[0,0,0],[2,1],[0]]","55","[[0,0,0],[1,2],[3]]","4","0","","","","","","7","","","","",""
"","","","","","single-stim-button","299","1431183","0.0-3.0-22.54-1.54","62feda7fd4551fe2fc91be5f","D2","batch4","tol_toboard","759","","","","","","","","","tol_peg_1","759","759","0","[[3,0,0],[2,1],[0]]","55","[[0,0,0],[1,2],[3]]","4","0","","","","","","7","","","","",""
"","","","","","single-stim-button","300","1436016","0.0-3.0-22.55-0.55","62feda7fd4551fe2fc91be5f","D2","batch4","tol_tohand","4831","","","","","","","","","tol_peg_2","4831","4831","0","[[3,0,0],[2,0],[0]]","56","[[0,0,0],[1,2],[3]]","4","0","","","","","","7","","","","",""
"","","","","","single-stim-button","301","1437184","0.0-3.0-22.55-1.55","62feda7fd4551fe2fc91be5f","D2","batch4","tol_toboard","1167","","","","","","","","","tol_peg_3","1167","1167","0","[[3,0,0],[2,0],[1]]","56","[[0,0,0],[1,2],[3]]","4","0","","","","","","7","","","","",""
"","","","","","single-stim-button","302","1437936","0.0-3.0-22.56-0.56","62feda7fd4551fe2fc91be5f","D2","batch4","tol_tohand","750","","","","","","","","","tol_peg_2","750","750","0","[[3,0,0],[0,0],[1]]","57","[[0,0,0],[1,2],[3]]","4","0","","","","","","7","","","","",""
"","","","","","single-stim-button","303","1439752","0.0-3.0-22.56-1.56","62feda7fd4551fe2fc91be5f","D2","batch4","tol_toboard","1815","","","","","","","","","tol_peg_1","1815","1815","0","[[3,2,0],[0,0],[1]]","57","[[0,0,0],[1,2],[3]]","4","0","","","","","","7","","","","",""
"","","","","","single-stim-button","304","1440880","0.0-3.0-22.57-0.57","62feda7fd4551fe2fc91be5f","D2","batch4","tol_tohand","1127","","","","","","","","","tol_peg_3","1127","1127","0","[[3,2,0],[0,0],[0]]","58","[[0,0,0],[1,2],[3]]","4","0","","","","","","7","","","","",""
"","","","","","single-stim-button","305","1441905","0.0-3.0-22.57-1.57","62feda7fd4551fe2fc91be5f","D2","batch4","tol_toboard","1022","","","","","","","","","tol_peg_2","1022","1022","0","[[3,2,0],[1,0],[0]]","58","[[0,0,0],[1,2],[3]]","4","0","","","","","","7","","","","",""
"","","","","","single-stim-button","306","1442784","0.0-3.0-22.58-0.58","62feda7fd4551fe2fc91be5f","D2","batch4","tol_tohand","878","","","","","","","","","tol_peg_1","878","878","0","[[3,0,0],[1,0],[0]]","59","[[0,0,0],[1,2],[3]]","4","0","","","","","","7","","","","",""
"","","","","","single-stim-button","307","1444184","0.0-3.0-22.58-1.58","62feda7fd4551fe2fc91be5f","D2","batch4","tol_toboard","1399","","","","","","","","","tol_peg_2","1399","1399","0","[[3,0,0],[1,2],[0]]","59","[[0,0,0],[1,2],[3]]","4","0","","","","","","7","","","","",""
"","","","","","single-stim-button","308","1444968","0.0-3.0-22.59-0.59","62feda7fd4551fe2fc91be5f","D2","batch4","tol_tohand","784","","","","","","","","","tol_peg_1","784","784","0","[[0,0,0],[1,2],[0]]","60","[[0,0,0],[1,2],[3]]","4","0","","","","","","7","","","","",""
"","","","","","single-stim-button","309","1446136","0.0-3.0-22.59-1.59","62feda7fd4551fe2fc91be5f","D2","batch4","tol_toboard","1166","","","","","","","","","tol_peg_3","1166","1166","0","[[0,0,0],[1,2],[3]]","60","[[0,0,0],[1,2],[3]]","4","0","","","","","","7","","","","",""
"","","","","","poldrack-single-stim","310","1447140","0.0-3.0-23.0","62feda7fd4551fe2fc91be5f","D2","batch4","tol_feedback","-1","","","","","true","","","","","1000","1000","500","","","","","","-1","none","true","9375","97361","","","","","",""
"","","","","","html-button-response","311","1450184","0.0-3.0-24.0","62feda7fd4551fe2fc91be5f","D2","batch4","tol_trial_num","3041.2000000029802","<div class = centerbox><p class = center-block-text>problem <strong>6</strong> out of 25 problems</p></div>","0","","","","","","","","","","","","","","","","","","","","","","","","","",""
"","","","","","single-stim-button","312","1458968","0.0-3.0-25.0-0.0","62feda7fd4551fe2fc91be5f","D2","batch4","tol_tohand","8783","","","","","","","","","tol_peg_3","8783","8783","0","[[0,0,0],[1,2],[0]]","1","[[1,0,0],[2,3],[0]]","5","0","","","","","","6","","","","",""
"","","","","","single-stim-button","313","1463072","0.0-3.0-25.0-1.0","62feda7fd4551fe2fc91be5f","D2","batch4","tol_toboard","4103","","","","","","","","","tol_peg_1","4103","4103","0","[[3,0,0],[1,2],[0]]","1","[[1,0,0],[2,3],[0]]","5","0","","","","","","6","","","","",""
"","","","","","single-stim-button","314","1467448","0.0-3.0-25.1-0.1","62feda7fd4551fe2fc91be5f","D2","batch4","tol_tohand","4374","","","","","","","","","tol_peg_2","4374","4374","0","[[3,0,0],[1,0],[0]]","2","[[1,0,0],[2,3],[0]]","5","0","","","","","","6","","","","",""
"","","","","","single-stim-button","315","1468657","0.0-3.0-25.1-1.1","62feda7fd4551fe2fc91be5f","D2","batch4","tol_toboard","1206","","","","","","","","","tol_peg_3","1206","1206","0","[[3,0,0],[1,0],[2]]","2","[[1,0,0],[2,3],[0]]","5","0","","","","","","6","","","","",""
"","","","","","single-stim-button","316","1471256","0.0-3.0-25.2-0.2","62feda7fd4551fe2fc91be5f","D2","batch4","tol_tohand","2599","","","","","","","","","tol_peg_3","2599","2599","0","[[3,0,0],[1,0],[0]]","3","[[1,0,0],[2,3],[0]]","5","0","","","","","","6","","","","",""
"","","","","","single-stim-button","317","1472328","0.0-3.0-25.2-1.2","62feda7fd4551fe2fc91be5f","D2","batch4","tol_toboard","1070","","","","","","","","","tol_peg_2","1070","1070","0","[[3,0,0],[1,2],[0]]","3","[[1,0,0],[2,3],[0]]","5","0","","","","","","6","","","","",""
"","","","","","single-stim-button","318","1473416","0.0-3.0-25.3-0.3","62feda7fd4551fe2fc91be5f","D2","batch4","tol_tohand","1086","","","","","","","","","tol_peg_2","1086","1086","0","[[3,0,0],[1,0],[0]]","4","[[1,0,0],[2,3],[0]]","5","0","","","","","","6","","","","",""
"","","","","","single-stim-button","319","1474248","0.0-3.0-25.3-1.3","62feda7fd4551fe2fc91be5f","D2","batch4","tol_toboard","832","","","","","","","","","tol_peg_1","832","832","0","[[3,2,0],[1,0],[0]]","4","[[1,0,0],[2,3],[0]]","5","0","","","","","","6","","","","",""
"","","","","","single-stim-button","320","1476632","0.0-3.0-25.4-0.4","62feda7fd4551fe2fc91be5f","D2","batch4","tol_tohand","2383","","","","","","","","","tol_peg_2","2383","2383","0","[[3,2,0],[0,0],[0]]","5","[[1,0,0],[2,3],[0]]","5","0","","","","","","6","","","","",""
"","","","","","single-stim-button","321","1478848","0.0-3.0-25.4-1.4","62feda7fd4551fe2fc91be5f","D2","batch4","tol_toboard","2215","","","","","","","","","tol_peg_3","2215","2215","0","[[3,2,0],[0,0],[1]]","5","[[1,0,0],[2,3],[0]]","5","0","","","","","","6","","","","",""
"","","","","","single-stim-button","322","1479657","0.0-3.0-25.5-0.5","62feda7fd4551fe2fc91be5f","D2","batch4","tol_tohand","808","","","","","","","","","tol_peg_1","808","808","0","[[3,0,0],[0,0],[1]]","6","[[1,0,0],[2,3],[0]]","5","0","","","","","","6","","","","",""
"","","","","","single-stim-button","323","1480544","0.0-3.0-25.5-1.5","62feda7fd4551fe2fc91be5f","D2","batch4","tol_toboard","885","","","","","","","","","tol_peg_2","885","885","0","[[3,0,0],[2,0],[1]]","6","[[1,0,0],[2,3],[0]]","5","0","","","","","","6","","","","",""
"","","","","","single-stim-button","324","1481249","0.0-3.0-25.6-0.6","62feda7fd4551fe2fc91be5f","D2","batch4","tol_tohand","703","","","","","","","","","tol_peg_1","703","703","0","[[0,0,0],[2,0],[1]]","7","[[1,0,0],[2,3],[0]]","5","0","","","","","","6","","","","",""
"","","","","","single-stim-button","325","1482264","0.0-3.0-25.6-1.6","62feda7fd4551fe2fc91be5f","D2","batch4","tol_toboard","1014","","","","","","","","","tol_peg_2","1014","1014","0","[[0,0,0],[2,3],[1]]","7","[[1,0,0],[2,3],[0]]","5","0","","","","","","6","","","","",""
"","","","","","single-stim-button","326","1483104","0.0-3.0-25.7-0.7","62feda7fd4551fe2fc91be5f","D2","batch4","tol_tohand","839","","","","","","","","","tol_peg_3","839","839","0","[[0,0,0],[2,3],[0]]","8","[[1,0,0],[2,3],[0]]","5","0","","","","","","6","","","","",""
"","","","","","single-stim-button","327","1484168","0.0-3.0-25.7-1.7","62feda7fd4551fe2fc91be5f","D2","batch4","tol_toboard","1063","","","","","","","","","tol_peg_1","1063","1063","0","[[1,0,0],[2,3],[0]]","8","[[1,0,0],[2,3],[0]]","5","0","","","","","","6","","","","",""
"","","","","","poldrack-single-stim","328","1485183","0.0-3.0-26.0","62feda7fd4551fe2fc91be5f","D2","batch4","tol_feedback","-1","","","","","true","","","","","1000","1000","500","","","","","","-1","none","true","8783","21575","","","","","",""
"","","","","","html-button-response","329","1486416","0.0-3.0-27.0","62feda7fd4551fe2fc91be5f","D2","batch4","tol_trial_num","1230.2000000029802","<div class = centerbox><p class = center-block-text>problem <strong>7</strong> out of 25 problems</p></div>","0","","","","","","","","","","","","","","","","","","","","","","","","","",""
"","","","","","single-stim-button","330","1497031","0.0-3.0-28.0-0.0","62feda7fd4551fe2fc91be5f","D2","batch4","tol_tohand","10615","","","","","","","","","tol_peg_1","10615","10615","0","[[2,0,0],[0,0],[3]]","1","[[1,2,0],[3,0],[0]]","6","0","","","","","","5","","","","",""
"","","","","","single-stim-button","331","1499056","0.0-3.0-28.0-1.0","62feda7fd4551fe2fc91be5f","D2","batch4","tol_toboard","2023","","","","","","","","","tol_peg_2","2023","2023","0","[[2,0,0],[1,0],[3]]","1","[[1,2,0],[3,0],[0]]","6","0","","","","","","5","","","","",""
"","","","","","single-stim-button","332","1499929","0.0-3.0-28.1-0.1","62feda7fd4551fe2fc91be5f","D2","batch4","tol_tohand","871","","","","","","","","","tol_peg_1","871","871","0","[[0,0,0],[1,0],[3]]","2","[[1,2,0],[3,0],[0]]","6","0","","","","","","5","","","","",""
"","","","","","single-stim-button","333","1501456","0.0-3.0-28.1-1.1","62feda7fd4551fe2fc91be5f","D2","batch4","tol_toboard","1525","","","","","","","","","tol_peg_2","1525","1525","0","[[0,0,0],[1,2],[3]]","2","[[1,2,0],[3,0],[0]]","6","0","","","","","","5","","","","",""
"","","","","","single-stim-button","334","1503400","0.0-3.0-28.2-0.2","62feda7fd4551fe2fc91be5f","D2","batch4","tol_tohand","1943","","","","","","","","","tol_peg_2","1943","1943","0","[[0,0,0],[1,0],[3]]","3","[[1,2,0],[3,0],[0]]","6","0","","","","","","5","","","","",""
"","","","","","single-stim-button","335","1505024","0.0-3.0-28.2-1.2","62feda7fd4551fe2fc91be5f","D2","batch4","tol_toboard","1622","","","","","","","","","tol_peg_1","1622","1622","0","[[2,0,0],[1,0],[3]]","3","[[1,2,0],[3,0],[0]]","6","0","","","","","","5","","","","",""
"","","","","","single-stim-button","336","1507272","0.0-3.0-28.3-0.3","62feda7fd4551fe2fc91be5f","D2","batch4","tol_tohand","2247","","","","","","","","","tol_peg_3","2247","2247","0","[[2,0,0],[1,0],[0]]","4","[[1,2,0],[3,0],[0]]","6","0","","","","","","5","","","","",""
"","","","","","single-stim-button","337","1507960","0.0-3.0-28.3-1.3","62feda7fd4551fe2fc91be5f","D2","batch4","tol_toboard","686","","","","","","","","","tol_peg_2","686","686","0","[[2,0,0],[1,3],[0]]","4","[[1,2,0],[3,0],[0]]","6","0","","","","","","5","","","","",""
"","","","","","single-stim-button","338","1508449","0.0-3.0-28.4-0.4","62feda7fd4551fe2fc91be5f","D2","batch4","tol_tohand","487","","","","","","","","","tol_peg_1","487","487","0","[[0,0,0],[1,3],[0]]","5","[[1,2,0],[3,0],[0]]","6","0","","","","","","5","","","","",""
"","","","","","single-stim-button","339","1509694","0.0-3.0-28.4-1.4","62feda7fd4551fe2fc91be5f","D2","batch4","tol_toboard","1244","","","","","","","","","tol_peg_3","1244","1244","0","[[0,0,0],[1,3],[2]]","5","[[1,2,0],[3,0],[0]]","6","0","","","","","","5","","","","",""
"","","","","","single-stim-button","340","1510909","0.0-3.0-28.5-0.5","62feda7fd4551fe2fc91be5f","D2","batch4","tol_tohand","1214","","","","","","","","","tol_peg_2","1214","1214","0","[[0,0,0],[1,0],[2]]","6","[[1,2,0],[3,0],[0]]","6","0","","","","","","5","","","","",""
"","","","","","single-stim-button","341","1513285","0.0-3.0-28.5-1.5","62feda7fd4551fe2fc91be5f","D2","batch4","tol_toboard","2375","","","","","","","","","tol_peg_2","2375","2375","0","[[0,0,0],[1,3],[2]]","6","[[1,2,0],[3,0],[0]]","6","0","","","","","","5","","","","",""
"","","","","","single-stim-button","342","1514254","0.0-3.0-28.6-0.6","62feda7fd4551fe2fc91be5f","D2","batch4","tol_tohand","967","","","","","","","","","tol_peg_2","967","967","0","[[0,0,0],[1,0],[2]]","7","[[1,2,0],[3,0],[0]]","6","0","","","","","","5","","","","",""
"","","","","","single-stim-button","343","1515190","0.0-3.0-28.6-1.6","62feda7fd4551fe2fc91be5f","D2","batch4","tol_toboard","934","","","","","","","","","tol_peg_1","934","934","0","[[3,0,0],[1,0],[2]]","7","[[1,2,0],[3,0],[0]]","6","0","","","","","","5","","","","",""
"","","","","","single-stim-button","344","1518509","0.0-3.0-28.7-0.7","62feda7fd4551fe2fc91be5f","D2","batch4","tol_tohand","3319","","","","","","","","","tol_peg_3","3319","3319","0","[[3,0,0],[1,0],[0]]","8","[[1,2,0],[3,0],[0]]","6","0","","","","","","5","","","","",""
"","","","","","single-stim-button","345","1519494","0.0-3.0-28.7-1.7","62feda7fd4551fe2fc91be5f","D2","batch4","tol_toboard","984","","","","","","","","","tol_peg_2","984","984","0","[[3,0,0],[1,2],[0]]","8","[[1,2,0],[3,0],[0]]","6","0","","","","","","5","","","","",""
"","","","","","single-stim-button","346","1520214","0.0-3.0-28.8-0.8","62feda7fd4551fe2fc91be5f","D2","batch4","tol_tohand","719","","","","","","","","","tol_peg_1","719","719","0","[[0,0,0],[1,2],[0]]","9","[[1,2,0],[3,0],[0]]","6","0","","","","","","5","","","","",""
"","","","","","single-stim-button","347","1526789","0.0-3.0-28.8-1.8","62feda7fd4551fe2fc91be5f","D2","batch4","tol_toboard","6575","","","","","","","","","tol_peg_1","6575","6575","0","[[3,0,0],[1,2],[0]]","9","[[1,2,0],[3,0],[0]]","6","0","","","","","","5","","","","",""
"","","","","","single-stim-button","348","1529318","0.0-3.0-28.9-0.9","62feda7fd4551fe2fc91be5f","D2","batch4","tol_tohand","2527","","","","","","","","","tol_peg_2","2527","2527","0","[[3,0,0],[1,0],[0]]","10","[[1,2,0],[3,0],[0]]","6","0","","","","","","5","","","","",""
"","","","","","single-stim-button","349","1529975","0.0-3.0-28.9-1.9","62feda7fd4551fe2fc91be5f","D2","batch4","tol_toboard","655","","","","","","","","","tol_peg_1","655","655","0","[[3,2,0],[1,0],[0]]","10","[[1,2,0],[3,0],[0]]","6","0","","","","","","5","","","","",""
"","","","","","single-stim-button","350","1534662","0.0-3.0-28.10-0.10","62feda7fd4551fe2fc91be5f","D2","batch4","tol_tohand","4686","","","","","","","","","tol_peg_2","4686","4686","0","[[3,2,0],[0,0],[0]]","11","[[1,2,0],[3,0],[0]]","6","0","","","","","","5","","","","",""
"","","","","","single-stim-button","351","1535630","0.0-3.0-28.10-1.10","62feda7fd4551fe2fc91be5f","D2","batch4","tol_toboard","967","","","","","","","","","tol_peg_3","967","967","0","[[3,2,0],[0,0],[1]]","11","[[1,2,0],[3,0],[0]]","6","0","","","","","","5","","","","",""
"","","","","","single-stim-button","352","1536350","0.0-3.0-28.11-0.11","62feda7fd4551fe2fc91be5f","D2","batch4","tol_tohand","719","","","","","","","","","tol_peg_1","719","719","0","[[3,0,0],[0,0],[1]]","12","[[1,2,0],[3,0],[0]]","6","0","","","","","","5","","","","",""
"","","","","","single-stim-button","353","1538118","0.0-3.0-28.11-1.11","62feda7fd4551fe2fc91be5f","D2","batch4","tol_toboard","1767","","","","","","","","","tol_peg_2","1767","1767","0","[[3,0,0],[2,0],[1]]","12","[[1,2,0],[3,0],[0]]","6","0","","","","","","5","","","","",""
"","","","","","single-stim-button","354","1543869","0.0-3.0-28.12-0.12","62feda7fd4551fe2fc91be5f","D2","batch4","tol_tohand","5751","","","","","","","","","tol_peg_1","5751","5751","0","[[0,0,0],[2,0],[1]]","13","[[1,2,0],[3,0],[0]]","6","0","","","","","","5","","","","",""
